sender,sender_type,sender_id,timestamp,meta,,Blues,Classical,Country,Dance,Electronic,Folk,Gospel,Hip-Hop,Jazz,Latin,Musical/Film,New-age,Pop,Prolific_id,Provo_ID,R&B,Rap,Reggae,Religious,Rock,Soul,Swing,Traditional,age,artist_name,correct,correctResponse,distraction,duration,education,ended_on,familiarity,gender,headphone_check_performance,item,list,music_frequency,offensiveness,pleasantness,position_correct,preference,response,response_action,snippet_file,song_name,song_rating,sound,stimulus_1,stimulus_2,stimulus_3,text,time_commit,time_end,time_render,time_run,time_show,time_switch,url,word,word_ID
Prolific ID,html.Form,0,2021-04-24T17:27:05.109Z,"{""labjs_version"":""20.2.2"",""labjs_build"":{""flavor"":""production"",""commit"":""a25486e0c714a0ae2ce03ff94b7bb6896854dcfa""},""location"":""https://run.pavlovia.org/mvasilev/prolific_music_f/"",""userAgent"":""Mozilla/5.0 (Windows NT 10.0; Win64; x64) AppleWebKit/537.36 (KHTML, like Gecko) Chrome/90.0.4430.85 Safari/537.36"",""platform"":""Win32"",""language"":""en-US"",""locale"":""en-US"",""timeZone"":""Europe/London"",""timezoneOffset"":-60,""screen_width"":2048,""screen_height"":1152,""scroll_width"":2048,""scroll_height"":966,""window_innerWidth"":2048,""window_innerHeight"":1014,""devicePixelRatio"":1.25}",,,,,,,,,,,,,,,602d1d984787306b190f0b43,,,,,,,,,,,,,,,21486.301000004285,,form submission,,,,,,,,,,,,,,,,,,,,,61384.9250000203,61383.975000004284,39880.987,39885.85000002058,39897.674,61399.725,{},,
Introduction,html.Screen,1_0,2021-04-24T17:27:10.790Z,,,,,,,,,,,,,,,,,,,,,,,,,,,,,,,5664.0750000035405,,response,,,,,,,,,,,continue,click button,,,,,,,,,67066.06499996269,67063.80000000354,61365.473,61385.55000000633,61399.725,67070.171,,,
Volume calibration,html.Screen,1_1,2021-04-24T17:27:45.013Z,,,,,,,,,,,,,,,,,,,,,,,,,,,,,,,34215.89399999296,,response,,,,,,,,,,,continue,click button,,,,,,,,,101288.99500000989,101286.06499999296,67053.45,67066.24999997439,67070.171,101298.485,,,
Task instructions,html.Screen,1_2,2021-04-24T17:27:54.475Z,,,,,,,,,,,,,,,,,,,,,,,,,,,,,,,9452.054999979082,,response,,,,,,,,,,,continue,click button,,,,,,,,,110751.56499998411,110750.53999997908,101281.799,101289.17499998352,101298.485,110772.989,,,
Sounds,html.Screen,1_3_0_0,2021-04-24T17:27:58.735Z,,,,,,,,,,,,,,,,,,,,,,,,,,,,,,,4253.527000000002,,timeout,,,,,,,,,3,,,,,,,,O,I,S,,115011.8149999762,115009.835,110739.654,110751.89999997383,110772.989,115026.516,,,
Judgement,html.Screen,1_3_0_1,2021-04-24T17:28:01.553Z,,,,,,,,,,,,,,,,,,,,,,,,,,,,true,3,,2802.0939999677357,,response,,,,,,,,,3,,3,click #choice-3,,,,,O,I,S,,117829.86499997787,117828.60999996774,115009.835,115011.9999999879,115026.516,117845.531,,,
Trial,flow.Sequence,1_3_0,2021-04-24T17:28:01.555Z,,,,,,,,,,,,,,,,,,,,,,,,,,,,,,,7055.620999967738,,completion,,,,,,,,,3,,,,,,,,O,I,S,,117831.71499997843,117828.60999996774,110739.654,110751.8450000207,110772.989,117845.531,,,
Sounds,html.Screen,1_3_1_0,2021-04-24T17:28:05.807Z,,,,,,,,,,,,,,,,,,,,,,,,,,,,,,,4253.52399999999,,timeout,,,,,,,,,3,,,,,,,,I,O,S,,122083.11499998672,122082.374,117828.844,117831.96999999927,117845.531,122099.055,,,
Judgement,html.Screen,1_3_1_1,2021-04-24T17:28:06.471Z,,,,,,,,,,,,,,,,,,,,,,,,,,,,true,3,,647.315000008035,,response,,,,,,,,,3,,3,click #choice-3,,,,,I,O,S,,122747.42500000866,122746.37000000803,122082.374,122083.25500000501,122099.055,122749.581,,,
Trial,flow.Sequence,1_3_1,2021-04-24T17:28:06.472Z,,,,,,,,,,,,,,,,,,,,,,,,,,,,,,,4900.839000008025,,completion,,,,,,,,,3,,,,,,,,I,O,S,,122747.71500000497,122746.37000000803,117828.844,117831.88999997219,117845.531,122749.581,,,
Sounds,html.Screen,1_3_2_0,2021-04-24T17:28:10.711Z,,,,,,,,,,,,,,,,,,,,,,,,,,,,,,,4253.52399999999,,timeout,,,,,,,,,2,,,,,,,,O,S,I,,126987.19999997411,126986.431,122732.903,122747.864999983,122749.581,127003.105,,,
Judgement,html.Screen,1_3_2_1,2021-04-24T17:28:11.329Z,,,,,,,,,,,,,,,,,,,,,,,,,,,,true,2,,601.0299999723065,,response,,,,,,,,,2,,2,click #choice-2,,,,,O,S,I,,127605.1800000132,127604.1349999723,126986.431,126987.3399999924,127003.105,127620.262,,,
Trial,flow.Sequence,1_3_2,2021-04-24T17:28:11.329Z,,,,,,,,,,,,,,,,,,,,,,,,,,,,,,,4854.553999972297,,completion,,,,,,,,,2,,,,,,,,O,S,I,,127605.45999999158,127604.1349999723,122732.903,122747.81999998959,122749.581,127620.262,,,
Sounds,html.Screen,1_3_3_0,2021-04-24T17:28:15.582Z,,,,,,,,,,,,,,,,,,,,,,,,,,,,,,,4253.542000000001,,timeout,,,,,,,,,1,,,,,,,,S,O,I,,131857.72500000894,131857.11,127603.598,127605.61500000767,127620.262,131873.804,,,
Judgement,html.Screen,1_3_3_1,2021-04-24T17:28:16.482Z,,,,,,,,,,,,,,,,,,,,,,,,,,,,true,1,,883.1160000143573,,response,,,,,,,,,1,,1,click #choice-1,,,,,S,O,I,,132757.975000015,132756.92000001436,131857.11,131857.8550000093,131873.804,132775.149,,,
Trial,flow.Sequence,1_3_3,2021-04-24T17:28:16.482Z,,,,,,,,,,,,,,,,,,,,,,,,,,,,,,,5136.658000014359,,completion,,,,,,,,,1,,,,,,,,S,O,I,,132758.29999998678,132756.92000001436,127603.598,127605.57000001427,127620.262,132775.149,,,
Sounds,html.Screen,1_3_4_0,2021-04-24T17:28:20.736Z,,,,,,,,,,,,,,,,,,,,,,,,,,,,,,,4252.926999999996,,timeout,,,,,,,,,2,,,,,,,,I,S,O,,137011.95000001462,137011.401,132741.175,132758.48999997834,132775.149,137028.076,,,
Judgement,html.Screen,1_3_4_1,2021-04-24T17:28:21.409Z,,,,,,,,,,,,,,,,,,,,,,,,,,,,true,2,,655.5939999985276,,response,,,,,,,,,2,,2,click #choice-2,,,,,I,S,O,,137684.74499997683,137683.66999999853,137011.401,137012.08000001498,137028.076,137695.286,,,
Trial,flow.Sequence,1_3_4,2021-04-24T17:28:21.409Z,,,,,,,,,,,,,,,,,,,,,,,,,,,,,,,4908.520999998524,,completion,,,,,,,,,2,,,,,,,,I,S,O,,137685.02999999328,137683.66999999853,132741.175,132758.44499998493,132775.149,137695.286,,,
Sounds,html.Screen,1_3_5_0,2021-04-24T17:28:25.657Z,,,,,,,,,,,,,,,,,,,,,,,,,,,,,,,4253.5320000000065,,timeout,,,,,,,,,1,,,,,,,,S,I,O,,141932.6599999913,141932.122,137678.614,137685.1799999713,137695.286,141948.818,,,
Judgement,html.Screen,1_3_5_1,2021-04-24T17:28:26.558Z,,,,,,,,,,,,,,,,,,,,,,,,,,,,true,1,,884.6719999899797,,response,,,,,,,,,1,,1,click #choice-1,,,,,S,I,O,,142834.4999999972,142833.48999998998,141932.122,141932.77999997372,141948.818,142849.549,,,
Trial,flow.Sequence,1_3_5,2021-04-24T17:28:26.559Z,,,,,,,,,,,,,,,,,,,,,,,,,,,,,,,5138.203999989986,,completion,,,,,,,,,1,,,,,,,,S,I,O,,142834.76499997778,142833.48999998998,137678.614,137685.14000001596,137695.286,142849.549,,,
Task,flow.Loop,1_3,2021-04-24T17:28:26.562Z,,,,,,,,,,,,,,,,,,,,,,,,,,,,,,,32060.500999989978,,completion,,,1,,,,,,,,,,,,,,,,,,142838.28999998514,142833.48999998998,110739.654,110751.75499997567,110772.989,142849.549,,,
Trap,html.Screen,1_4,2021-04-24T17:28:26.564Z,,,,,,,,,,,,,,,,,,,,,,,,,,,,,,,NaN,,skipped,,,,,,,,,,,,,,,,,,,,,142840.3699999908,142833.48999998998,,142840.23999999044,,142849.549,,,
Thanks,html.Screen,1_5,2021-04-24T17:28:30.947Z,,,,,,,,,,,,,,,,,,,,,,,,,,,,,,,4372.745999985025,,response,,,,,,,,,,,continue,click button,,,,,,,,,147223.40999997687,147222.29499998502,142832.866,142840.48999997322,142849.549,151239.845,,,
Headphone screening,flow.Sequence,1,2021-04-24T17:28:30.948Z,,,,,,,,,,,,,,,,,,,,,,,,,,,,,,,85822.56999998502,,completion,,,,,,,,,,,,,,,,,,,,,147223.64500002004,147222.29499998502,61365.473,61385.50500001293,61399.725,151239.845,,,
Instructions,html.Page,2_0,2021-04-24T17:29:19.784Z,,,,,,,,,,,,,,,,,,,,,,,,,,,,,,,44819.97499996584,,form submission,,,,,,,,,,,,,,,,,,,,,196060.2400000207,196059.81999996584,151223.157,151233.7899999693,151239.845,196060.261,,,
Holding screen,html.Screen,2_1_0_0,2021-04-24T17:29:29.776Z,,,,,,,,,,,,,,,,,,,,,,,,,,,,,,,10008.27900000001,,timeout,,,,,,,,,,,,,,,,,,,,,206052.44499997934,206051.872,196043.596,196060.66499999724,196060.261,206068.54,,,
screen,html.Screen,2_1_0_1_0,2021-04-24T17:29:31.490Z,,,,,,,,,,,,,,,,,53,,,,,,,,,,,,,,1695.8049999741197,,response,,,,99,,,,,,,Space,keypress(Space),,,,,,,,When -- ----- -- ------ - ------- --- ----------<br>------------- ------ ------ ---- ---- ------- ----- -- ----<br>-------- ------- -- ---------- --- - --- ----- ----- ----<br>---- --- --- ----- --- ---- ---- ------- ----- ---- -------<br>--- --- -- ----- -- --- ---- -- --- ---- -- ------ ------<br>--- ----- -- ----,207766.2099999725,207764.34499997413,206051.872,206052.6499999687,206068.54,207769.972,,0,When
screen,html.Screen,2_1_0_1_1,2021-04-24T17:29:32.240Z,,,,,,,,,,,,,,,,,53,,,,,,,,,,,,,,745.8629999692203,,response,,,,99,,,,,,,Space,keypress(Space),,,,,,,,---- it ----- -- ------ - ------- --- ----------<br>------------- ------ ------ ---- ---- ------- ----- -- ----<br>-------- ------- -- ---------- --- - --- ----- ----- ----<br>---- --- --- ----- --- ---- ---- ------- ----- ---- -------<br>--- --- -- ----- -- --- ---- -- --- ---- -- ------ ------<br>--- ----- -- ----,208516.39000000432,208515.83499996923,207753.286,207766.36499998858,207769.972,208537.274,,1,it
screen,html.Screen,2_1_0_1_2,2021-04-24T17:29:32.800Z,,,,,,,,,,,,,,,,,53,,,,,,,,,,,,,,538.6609999716457,,response,,,,99,,,,,,,Space,keypress(Space),,,,,,,,---- -- comes -- ------ - ------- --- ----------<br>------------- ------ ------ ---- ---- ------- ----- -- ----<br>-------- ------- -- ---------- --- - --- ----- ----- ----<br>---- --- --- ----- --- ---- ---- ------- ----- ---- -------<br>--- --- -- ----- -- --- ---- -- --- ---- -- ------ ------<br>--- ----- -- ----,209076.53500000015,209075.93499997165,208520.594,208516.52000000468,208537.274,209087.724,,2,comes
screen,html.Screen,2_1_0_1_3,2021-04-24T17:29:33.304Z,,,,,,,,,,,,,,,,,53,,,,,,,,,,,,,,492.20600000716513,,response,,,,99,,,,,,,Space,keypress(Space),,,,,,,,---- -- ----- to ------ - ------- --- ----------<br>------------- ------ ------ ---- ---- ------- ----- -- ----<br>-------- ------- -- ---------- --- - --- ----- ----- ----<br>---- --- --- ----- --- ---- ---- ------- ----- ---- -------<br>--- --- -- ----- -- --- ---- -- --- ---- -- ------ ------<br>--- ----- -- ----,209580.53999999538,209579.93000000715,209071.008,209076.6650000005,209087.724,209604.828,,3,to
screen,html.Screen,2_1_0_1_4,2021-04-24T17:29:33.768Z,,,,,,,,,,,,,,,,,53,,,,,,,,,,,,,,439.1419999987993,,response,,,,99,,,,,,,Space,keypress(Space),,,,,,,,---- -- ----- -- having - ------- --- ----------<br>------------- ------ ------ ---- ---- ------- ----- -- ----<br>-------- ------- -- ---------- --- - --- ----- ----- ----<br>---- --- --- ----- --- ---- ---- ------- ----- ---- -------<br>--- --- -- ----- -- --- ---- -- --- ---- -- ------ ------<br>--- ----- -- ----,210044.5999999647,210043.9699999988,209588.145,209580.71499998914,209604.828,210071.89,,4,having
screen,html.Screen,2_1_0_1_5,2021-04-24T17:29:34.216Z,,,,,,,,,,,,,,,,,53,,,,,,,,,,,,,,420.179999978398,,response,,,,99,,,,,,,Space,keypress(Space),,,,,,,,---- -- ----- -- ------ a ------- --- ----------<br>------------- ------ ------ ---- ---- ------- ----- -- ----<br>-------- ------- -- ---------- --- - --- ----- ----- ----<br>---- --- --- ----- --- ---- ---- ------- ----- ---- -------<br>--- --- -- ----- -- --- ---- -- --- ---- -- ------ ------<br>--- ----- -- ----,210492.60499997763,210492.0699999784,210055.203,210044.7249999852,210071.89,210505.558,,5,a
screen,html.Screen,2_1_0_1_6,2021-04-24T17:29:34.768Z,,,,,,,,,,,,,,,,,53,,,,,,,,,,,,,,538.6719999995257,,response,,,,99,,,,,,,Space,keypress(Space),,,,,,,,---- -- ----- -- ------ - lasting --- ----------<br>------------- ------ ------ ---- ---- ------- ----- -- ----<br>-------- ------- -- ---------- --- - --- ----- ----- ----<br>---- --- --- ----- --- ---- ---- ------- ----- ---- -------<br>--- --- -- ----- -- --- ---- -- --- ---- -- ------ ------<br>--- ----- -- ----,211044.80999999214,211044.22999999952,210488.885,210492.72999999812,210505.558,211056,,6,lasting
screen,html.Screen,2_1_0_1_7,2021-04-24T17:29:35.200Z,,,,,,,,,,,,,,,,,53,,,,,,,,,,,,,,420.2549999868497,,response,,,,99,,,,,,,Space,keypress(Space),,,,,,,,---- -- ----- -- ------ - ------- and ----------<br>------------- ------ ------ ---- ---- ------- ----- -- ----<br>-------- ------- -- ---------- --- - --- ----- ----- ----<br>---- --- --- ----- --- ---- ---- ------- ----- ---- -------<br>--- --- -- ----- -- --- ---- -- --- ---- -- ------ ------<br>--- ----- -- ----,211476.77999996813,211476.25499998685,211039.33,211044.94499997236,211056,211489.719,,7,and
screen,html.Screen,2_1_0_1_8,2021-04-24T17:29:35.849Z,,,,,,,,,,,,,,,,,53,,,,,,,,,,,,,,634.67100001176,,response,,,,99,,,,,,,Space,keypress(Space),,,,,,,,---- -- ----- -- ------ - ------- --- fulfilling<br>------------- ------ ------ ---- ---- ------- ----- -- ----<br>-------- ------- -- ---------- --- - --- ----- ----- ----<br>---- --- --- ----- --- ---- ---- ------- ----- ---- -------<br>--- --- -- ----- -- --- ---- -- --- ---- -- ------ ------<br>--- ----- -- ----,212124.93499997072,212124.39000001177,211473.036,211476.90999996848,211489.719,212140.247,,8,fulfilling
screen,html.Screen,2_1_0_1_9,2021-04-24T17:29:36.313Z,,,,,,,,,,,,,,,,,53,,,,,,,,,,,,,,448.10800001441385,,response,,,,99,,,,,,,Space,keypress(Space),,,,,,,,"---- -- ----- -- ------ - ------- --- ----------<br>relationship, ------ ------ ---- ---- ------- ----- -- ----<br>-------- ------- -- ---------- --- - --- ----- ----- ----<br>---- --- --- ----- --- ---- ---- ------- ----- ---- -------<br>--- --- -- ----- -- --- ---- -- --- ---- -- ------ ------<br>--- ----- -- ----",212588.9849999803,212588.35500001442,212123.558,212125.074999989,212140.247,212607.316,,9,"relationship,"
screen,html.Screen,2_1_0_1_10,2021-04-24T17:29:36.945Z,,,,,,,,,,,,,,,,,53,,,,,,,,,,,,,,613.3240000141086,,response,,,,99,,,,,,,Space,keypress(Space),,,,,,,,---- -- ----- -- ------ - ------- --- ----------<br>------------- common ------ ---- ---- ------- ----- -- ----<br>-------- ------- -- ---------- --- - --- ----- ----- ----<br>---- --- --- ----- --- ---- ---- ------- ----- ---- -------<br>--- --- -- ----- -- --- ---- -- --- ---- -- ------ ------<br>--- ----- -- ----,213221.2249999866,213220.6400000141,212590.628,212589.12000001874,212607.316,213224.476,,10,common
screen,html.Screen,2_1_0_1_11,2021-04-24T17:29:37.481Z,,,,,,,,,,,,,,,,,53,,,,,,,,,,,,,,532.5040000055742,,response,,,,99,,,,,,,Space,keypress(Space),,,,,,,,---- -- ----- -- ------ - ------- --- ----------<br>------------- ------ wisdom ---- ---- ------- ----- -- ----<br>-------- ------- -- ---------- --- - --- ----- ----- ----<br>---- --- --- ----- --- ---- ---- ------- ----- ---- -------<br>--- --- -- ----- -- --- ---- -- --- ---- -- ------ ------<br>--- ----- -- ----,213757.63999996707,213756.98000000557,213207.776,213221.35000000708,213224.476,213774.951,,11,wisdom
screen,html.Screen,2_1_0_1_12,2021-04-24T17:29:37.929Z,,,,,,,,,,,,,,,,,53,,,,,,,,,,,,,,429.85399998666253,,response,,,,99,,,,,,,Space,keypress(Space),,,,,,,,---- -- ----- -- ------ - ------- --- ----------<br>------------- ------ ------ says ---- ------- ----- -- ----<br>-------- ------- -- ---------- --- - --- ----- ----- ----<br>---- --- --- ----- --- ---- ---- ------- ----- ---- -------<br>--- --- -- ----- -- --- ---- -- --- ---- -- ------ ------<br>--- ----- -- ----,214205.5050000199,214204.80499998666,213758.246,213757.7750000055,213774.951,214225.324,,12,says
screen,html.Screen,2_1_0_1_13,2021-04-24T17:29:38.361Z,,,,,,,,,,,,,,,,,53,,,,,,,,,,,,,,411.6560000102327,,response,,,,99,,,,,,,Space,keypress(Space),,,,,,,,---- -- ----- -- ------ - ------- --- ----------<br>------------- ------ ------ ---- that ------- ----- -- ----<br>-------- ------- -- ---------- --- - --- ----- ----- ----<br>---- --- --- ----- --- ---- ---- ------- ----- ---- -------<br>--- --- -- ----- -- --- ---- -- --- ---- -- ------ ------<br>--- ----- -- ----,214637.6000000164,214636.98000001023,214208.629,214205.68000001367,214225.324,214658.99,,13,that
screen,html.Screen,2_1_0_1_14,2021-04-24T17:29:38.825Z,,,,,,,,,,,,,,,,,53,,,,,,,,,,,,,,441.84000001032837,,response,,,,99,,,,,,,Space,keypress(Space),,,,,,,,---- -- ----- -- ------ - ------- --- ----------<br>------------- ------ ------ ---- ---- feeling ----- -- ----<br>-------- ------- -- ---------- --- - --- ----- ----- ----<br>---- --- --- ----- --- ---- ---- ------- ----- ---- -------<br>--- --- -- ----- -- --- ---- -- --- ---- -- ------ ------<br>--- ----- -- ----,215101.38999996707,215100.83000001032,214642.32,214637.73000001675,214658.99,215109.374,,14,feeling
screen,html.Screen,2_1_0_1_15,2021-04-24T17:29:39.529Z,,,,,,,,,,,,,,,,,53,,,,,,,,,,,,,,695.6060000153375,,response,,,,99,,,,,,,Space,keypress(Space),,,,,,,,---- -- ----- -- ------ - ------- --- ----------<br>------------- ------ ------ ---- ---- ------- close -- ----<br>-------- ------- -- ---------- --- - --- ----- ----- ----<br>---- --- --- ----- --- ---- ---- ------- ----- ---- -------<br>--- --- -- ----- -- --- ---- -- --- ---- -- ------ ------<br>--- ----- -- ----,215805.5549999699,215804.98000001535,215092.681,215101.54499998316,215109.374,215809.927,,15,close
screen,html.Screen,2_1_0_1_16,2021-04-24T17:29:39.937Z,,,,,,,,,,,,,,,,,53,,,,,,,,,,,,,,403.10799996429705,,response,,,,99,,,,,,,Space,keypress(Space),,,,,,,,---- -- ----- -- ------ - ------- --- ----------<br>------------- ------ ------ ---- ---- ------- ----- to ----<br>-------- ------- -- ---------- --- - --- ----- ----- ----<br>---- --- --- ----- --- ---- ---- ------- ----- ---- -------<br>--- --- -- ----- -- --- ---- -- --- ---- -- ------ ------<br>--- ----- -- ----,216213.64500001073,216213.0349999643,215793.238,215805.69000000833,215809.927,216226.97,,16,to
screen,html.Screen,2_1_0_1_17,2021-04-24T17:29:40.409Z,,,,,,,,,,,,,,,,,53,,,,,,,,,,,,,,458.1249999643478,,response,,,,99,,,,,,,Space,keypress(Space),,,,,,,,---- -- ----- -- ------ - ------- --- ----------<br>------------- ------ ------ ---- ---- ------- ----- -- your<br>-------- ------- -- ---------- --- - --- ----- ----- ----<br>---- --- --- ----- --- ---- ---- ------- ----- ---- -------<br>--- --- -- ----- -- --- ---- -- --- ---- -- ------ ------<br>--- ----- -- ----,216685.69499999285,216685.09499996435,216210.256,216213.77500001108,216226.97,216694.016,,17,your
screen,html.Screen,2_1_0_1_18,2021-04-24T17:29:40.873Z,,,,,,,,,,,,,,,,,53,,,,,,,,,,,,,,455.17399996734457,,response,,,,99,,,,,,,Space,keypress(Space),,,,,,,,---- -- ----- -- ------ - ------- --- ----------<br>------------- ------ ------ ---- ---- ------- ----- -- ----<br>romantic ------- -- ---------- --- - --- ----- ----- ----<br>---- --- --- ----- --- ---- ---- ------- ----- ---- -------<br>--- --- -- ----- -- --- ---- -- --- ---- -- ------ ------<br>--- ----- -- ----,217149.77000001818,217149.18999996735,216677.307,216685.8249999932,216694.016,217161.075,,18,romantic
screen,html.Screen,2_1_0_1_19,2021-04-24T17:29:41.394Z,,,,,,,,,,,,,,,,,53,,,,,,,,,,,,,,508.1800000152434,,response,,,,99,,,,,,,Space,keypress(Space),,,,,,,,---- -- ----- -- ------ - ------- --- ----------<br>------------- ------ ------ ---- ---- ------- ----- -- ----<br>-------- partner -- ---------- --- - --- ----- ----- ----<br>---- --- --- ----- --- ---- ---- ------- ----- ---- -------<br>--- --- -- ----- -- --- ---- -- --- ---- -- ------ ------<br>--- ----- -- ----,217669.88499998115,217669.25500001526,217144.376,217149.90000001853,217161.075,217678.168,,19,partner
screen,html.Screen,2_1_0_1_20,2021-04-24T17:29:41.858Z,,,,,,,,,,,,,,,,,53,,,,,,,,,,,,,,455.85699997755,,response,,,,99,,,,,,,Space,keypress(Space),,,,,,,,---- -- ----- -- ------ - ------- --- ----------<br>------------- ------ ------ ---- ---- ------- ----- -- ----<br>-------- ------- is ---------- --- - --- ----- ----- ----<br>---- --- --- ----- --- ---- ---- ------- ----- ---- -------<br>--- --- -- ----- -- --- ---- -- --- ---- -- ------ ------<br>--- ----- -- ----,218134.58000001265,218134.02499997756,217661.466,217670.06500001298,217678.168,218145.226,,20,is
screen,html.Screen,2_1_0_1_21,2021-04-24T17:29:42.610Z,,,,,,,,,,,,,,,,,53,,,,,,,,,,,,,,740.2090000037861,,response,,,,99,,,,,,,Space,keypress(Space),,,,,,,,---- -- ----- -- ------ - ------- --- ----------<br>------------- ------ ------ ---- ---- ------- ----- -- ----<br>-------- ------- -- paramount. --- - --- ----- ----- ----<br>---- --- --- ----- --- ---- ---- ------- ----- ---- -------<br>--- --- -- ----- -- --- ---- -- --- ---- -- ------ ------<br>--- ----- -- ----,218885.9850000008,218885.43500000378,218128.51,218134.70499997493,218145.226,218895.842,,21,paramount.
screen,html.Screen,2_1_0_1_22,2021-04-24T17:29:43.274Z,,,,,,,,,,,,,,,,,53,,,,,,,,,,,,,,654.097999997146,,response,,,,99,,,,,,,Space,keypress(Space),,,,,,,,---- -- ----- -- ------ - ------- --- ----------<br>------------- ------ ------ ---- ---- ------- ----- -- ----<br>-------- ------- -- ---------- But - --- ----- ----- ----<br>---- --- --- ----- --- ---- ---- ------- ----- ---- -------<br>--- --- -- ----- -- --- ---- -- --- ---- -- ------ ------<br>--- ----- -- ----,219550.47999997623,219549.93999999715,218879.166,218886.11500000115,218895.842,219563.054,,22,But
screen,html.Screen,2_1_0_1_23,2021-04-24T17:29:43.722Z,,,,,,,,,,,,,,,,,53,,,,,,,,,,,,,,435.05100000603124,,response,,,,99,,,,,,,Space,keypress(Space),,,,,,,,---- -- ----- -- ------ - ------- --- ----------<br>------------- ------ ------ ---- ---- ------- ----- -- ----<br>-------- ------- -- ---------- --- a --- ----- ----- ----<br>---- --- --- ----- --- ---- ---- ------- ----- ---- -------<br>--- --- -- ----- -- --- ---- -- --- ---- -- ------ ------<br>--- ----- -- ----,219998.6950000166,219998.10500000603,219546.355,219550.60499999672,219563.054,220013.421,,23,a
screen,html.Screen,2_1_0_1_24,2021-04-24T17:29:44.210Z,,,,,,,,,,,,,,,,,53,,,,,,,,,,,,,,472.7140000137442,,response,,,,99,,,,,,,Space,keypress(Space),,,,,,,,---- -- ----- -- ------ - ------- --- ----------<br>------------- ------ ------ ---- ---- ------- ----- -- ----<br>-------- ------- -- ---------- --- - new ----- ----- ----<br>---- --- --- ----- --- ---- ---- ------- ----- ---- -------<br>--- --- -- ----- -- --- ---- -- --- ---- -- ------ ------<br>--- ----- -- ----,220486.68999999063,220486.13500001375,219996.739,219998.87499999022,220013.421,220497.155,,24,new
screen,html.Screen,2_1_0_1_25,2021-04-24T17:29:44.658Z,,,,,,,,,,,,,,,,,53,,,,,,,,,,,,,,437.06999997541425,,response,,,,99,,,,,,,Space,keypress(Space),,,,,,,,---- -- ----- -- ------ - ------- --- ----------<br>------------- ------ ------ ---- ---- ------- ----- -- ----<br>-------- ------- -- ---------- --- - --- study ----- ----<br>---- --- --- ----- --- ---- ---- ------- ----- ---- -------<br>--- --- -- ----- -- --- ---- -- --- ---- -- ------ ------<br>--- ----- -- ----,220934.83499996364,220934.2249999754,220480.458,220486.81999999098,220497.155,220947.547,,25,study
screen,html.Screen,2_1_0_1_26,2021-04-24T17:29:45.218Z,,,,,,,,,,,,,,,,,53,,,,,,,,,,,,,,546.5779999683436,,response,,,,99,,,,,,,Space,keypress(Space),,,,,,,,---- -- ----- -- ------ - ------- --- ----------<br>------------- ------ ------ ---- ---- ------- ----- -- ----<br>-------- ------- -- ---------- --- - --- ----- finds ----<br>---- --- --- ----- --- ---- ---- ------- ----- ---- -------<br>--- --- -- ----- -- --- ---- -- --- ---- -- ------ ------<br>--- ----- -- ----,221494.70500001917,221494.12499996834,220930.841,220934.97000000207,220947.547,221497.979,,26,finds
screen,html.Screen,2_1_0_1_27,2021-04-24T17:29:45.610Z,,,,,,,,,,,,,,,,,53,,,,,,,,,,,,,,387.9409999715281,,response,,,,99,,,,,,,Space,keypress(Space),,,,,,,,---- -- ----- -- ------ - ------- --- ----------<br>------------- ------ ------ ---- ---- ------- ----- -- ----<br>-------- ------- -- ---------- --- - --- ----- ----- that<br>---- --- --- ----- --- ---- ---- ------- ----- ---- -------<br>--- --- -- ----- -- --- ---- -- --- ---- -- ------ ------<br>--- ----- -- ----,221886.48499996634,221885.91999997152,221481.315,221494.83999999939,221497.979,221898.315,,27,that
screen,html.Screen,2_1_0_1_28,2021-04-24T17:29:46.146Z,,,,,,,,,,,,,,,,,53,,,,,,,,,,,,,,523.669999964477,,response,,,,99,,,,,,,Space,keypress(Space),,,,,,,,---- -- ----- -- ------ - ------- --- ----------<br>------------- ------ ------ ---- ---- ------- ----- -- ----<br>-------- ------- -- ---------- --- - --- ----- ----- ----<br>it's --- --- ----- --- ---- ---- ------- ----- ---- -------<br>--- --- -- ----- -- --- ---- -- --- ---- -- ------ ------<br>--- ----- -- ----,222422.54499997944,222421.98499996448,221881.636,221886.6149999667,221898.315,222432.099,,28,it's
screen,html.Screen,2_1_0_1_29,2021-04-24T17:29:46.474Z,,,,,,,,,,,,,,,,,53,,,,,,,,,,,,,,317.941000013554,,response,,,,99,,,,,,,Space,keypress(Space),,,,,,,,---- -- ----- -- ------ - ------- --- ----------<br>------------- ------ ------ ---- ---- ------- ----- -- ----<br>-------- ------- -- ---------- --- - --- ----- ----- ----<br>---- not --- ----- --- ---- ---- ------- ----- ---- -------<br>--- --- -- ----- -- --- ---- -- --- ---- -- ------ ------<br>--- ----- -- ----,222750.5849999725,222750.04000001354,222415.388,222422.68000001786,222432.099,222765.719,,29,not
screen,html.Screen,2_1_0_1_30,2021-04-24T17:29:47.170Z,,,,,,,,,,,,,,,,,53,,,,,,,,,,,,,,680.4360000123561,,response,,,,99,,,,,,,Space,keypress(Space),,,,,,,,---- -- ----- -- ------ - ------- --- ----------<br>------------- ------ ------ ---- ---- ------- ----- -- ----<br>-------- ------- -- ---------- --- - --- ----- ----- ----<br>---- --- how ----- --- ---- ---- ------- ----- ---- -------<br>--- --- -- ----- -- --- ---- -- --- ---- -- ------ ------<br>--- ----- -- ----,223446.70999998925,223446.15500001237,222749.002,222750.72000001092,222765.719,223449.617,,30,how
screen,html.Screen,2_1_0_1_31,2021-04-24T17:29:47.706Z,,,,,,,,,,,,,,,,,53,,,,,,,,,,,,,,532.6279999628605,,response,,,,99,,,,,,,Space,keypress(Space),,,,,,,,---- -- ----- -- ------ - ------- --- ----------<br>------------- ------ ------ ---- ---- ------- ----- -- ----<br>-------- ------- -- ---------- --- - --- ----- ----- ----<br>---- --- --- close --- ---- ---- ------- ----- ---- -------<br>--- --- -- ----- -- --- ---- -- --- ---- -- ------ ------<br>--- ----- -- ----,223982.81499999575,223982.24499996286,223432.893,223446.8399999896,223449.617,224001.38,,31,close
screen,html.Screen,2_1_0_1_32,2021-04-24T17:29:48.195Z,,,,,,,,,,,,,,,,,53,,,,,,,,,,,,,,468.9249999661697,,response,,,,99,,,,,,,Space,keypress(Space),,,,,,,,---- -- ----- -- ------ - ------- --- ----------<br>------------- ------ ------ ---- ---- ------- ----- -- ----<br>-------- ------- -- ---------- --- - --- ----- ----- ----<br>---- --- --- ----- you ---- ---- ------- ----- ---- -------<br>--- --- -- ----- -- --- ---- -- --- ---- -- ------ ------<br>--- ----- -- ----,224470.8700000192,224470.30499996617,223966.68,223982.94999997597,224001.38,224483.8,,32,you
screen,html.Screen,2_1_0_1_33,2021-04-24T17:29:48.675Z,,,,,,,,,,,,,,,,,53,,,,,,,,,,,,,,466.5799999947776,,response,,,,99,,,,,,,Space,keypress(Space),,,,,,,,---- -- ----- -- ------ - ------- --- ----------<br>------------- ------ ------ ---- ---- ------- ----- -- ----<br>-------- ------- -- ---------- --- - --- ----- ----- ----<br>---- --- --- ----- --- feel ---- ------- ----- ---- -------<br>--- --- -- ----- -- --- ---- -- --- ---- -- ------ ------<br>--- ----- -- ----,224950.94000000972,224950.37999999477,224467.087,224471.00499999942,224483.8,224967.54,,33,feel
screen,html.Screen,2_1_0_1_34,2021-04-24T17:29:49.075Z,,,,,,,,,,,,,,,,,53,,,,,,,,,,,,,,382.93499998471816,,response,,,,99,,,,,,,Space,keypress(Space),,,,,,,,---- -- ----- -- ------ - ------- --- ----------<br>------------- ------ ------ ---- ---- ------- ----- -- ----<br>-------- ------- -- ---------- --- - --- ----- ----- ----<br>---- --- --- ----- --- ---- that ------- ----- ---- -------<br>--- --- -- ----- -- --- ---- -- --- ---- -- ------ ------<br>--- ----- -- ----,225351.1999999755,225350.47499998473,224950.829,224951.07499998994,224967.54,225367.87,,34,that
screen,html.Screen,2_1_0_1_35,2021-04-24T17:29:49.539Z,,,,,,,,,,,,,,,,,53,,,,,,,,,,,,,,446.6599999741884,,response,,,,99,,,,,,,Space,keypress(Space),,,,,,,,---- -- ----- -- ------ - ------- --- ----------<br>------------- ------ ------ ---- ---- ------- ----- -- ----<br>-------- ------- -- ---------- --- - --- ----- ----- ----<br>---- --- --- ----- --- ---- ---- matters ----- ---- -------<br>--- --- -- ----- -- --- ---- -- --- ---- -- ------ ------<br>--- ----- -- ----,225815.0799999712,225814.52999997418,225351.175,225351.32999997586,225367.87,225818.228,,35,matters
screen,html.Screen,2_1_0_1_36,2021-04-24T17:29:49.987Z,,,,,,,,,,,,,,,,,53,,,,,,,,,,,,,,444.3219999849098,,response,,,,99,,,,,,,Space,keypress(Space),,,,,,,,"---- -- ----- -- ------ - ------- --- ----------<br>------------- ------ ------ ---- ---- ------- ----- -- ----<br>-------- ------- -- ---------- --- - --- ----- ----- ----<br>---- --- --- ----- --- ---- ---- ------- most, ---- -------<br>--- --- -- ----- -- --- ---- -- --- ---- -- ------ ------<br>--- ----- -- ----",226263.17499997094,226262.5499999849,225801.539,225815.7249999931,225818.228,226285.303,,36,"most,"
screen,html.Screen,2_1_0_1_37,2021-04-24T17:29:50.635Z,,,,,,,,,,,,,,,,,53,,,,,,,,,,,,,,625.8420000200276,,response,,,,99,,,,,,,Space,keypress(Space),,,,,,,,---- -- ----- -- ------ - ------- --- ----------<br>------------- ------ ------ ---- ---- ------- ----- -- ----<br>-------- ------- -- ---------- --- - --- ----- ----- ----<br>---- --- --- ----- --- ---- ---- ------- ----- it's -------<br>--- --- -- ----- -- --- ---- -- --- ---- -- ------ ------<br>--- ----- -- ----,226911.69500001706,226911.14500002004,226268.612,226263.31000000937,226285.303,226919.14,,37,it's
screen,html.Screen,2_1_0_1_38,2021-04-24T17:29:51.347Z,,,,,,,,,,,,,,,,,53,,,,,,,,,,,,,,703.6450000141049,,response,,,,99,,,,,,,Space,keypress(Space),,,,,,,,---- -- ----- -- ------ - ------- --- ----------<br>------------- ------ ------ ---- ---- ------- ----- -- ----<br>-------- ------- -- ---------- --- - --- ----- ----- ----<br>---- --- --- ----- --- ---- ---- ------- ----- ---- whether<br>--- --- -- ----- -- --- ---- -- --- ---- -- ------ ------<br>--- ----- -- ----,227623.3249999932,227622.78500001412,226902.462,226911.81999997934,226919.14,227636.404,,38,whether
screen,html.Screen,2_1_0_1_39,2021-04-24T17:29:51.851Z,,,,,,,,,,,,,,,,,53,,,,,,,,,,,,,,490.46599997821613,,response,,,,99,,,,,,,Space,keypress(Space),,,,,,,,---- -- ----- -- ------ - ------- --- ----------<br>------------- ------ ------ ---- ---- ------- ----- -- ----<br>-------- ------- -- ---------- --- - --- ----- ----- ----<br>---- --- --- ----- --- ---- ---- ------- ----- ---- -------<br>you --- -- ----- -- --- ---- -- --- ---- -- ------ ------<br>--- ----- -- ----,228127.43499997305,228126.86999997823,227619.708,227623.50499996683,227636.404,228136.821,,39,you
screen,html.Screen,2_1_0_1_40,2021-04-24T17:29:52.444Z,,,,,,,,,,,,,,,,,53,,,,,,,,,,,,,,582.8139999867417,,response,,,,99,,,,,,,Space,keypress(Space),,,,,,,,---- -- ----- -- ------ - ------- --- ----------<br>------------- ------ ------ ---- ---- ------- ----- -- ----<br>-------- ------- -- ---------- --- - --- ----- ----- ----<br>---- --- --- ----- --- ---- ---- ------- ----- ---- -------<br>--- are -- ----- -- --- ---- -- --- ---- -- ------ ------<br>--- ----- -- ----,228720.18999996362,228719.63499998674,228120.111,228127.5649999734,228136.821,228754.008,,40,are
screen,html.Screen,2_1_0_1_41,2021-04-24T17:29:52.947Z,,,,,,,,,,,,,,,,,53,,,,,,,,,,,,,,469.002000016073,,response,,,,99,,,,,,,Space,keypress(Space),,,,,,,,---- -- ----- -- ------ - ------- --- ----------<br>------------- ------ ------ ---- ---- ------- ----- -- ----<br>-------- ------- -- ---------- --- - --- ----- ----- ----<br>---- --- --- ----- --- ---- ---- ------- ----- ---- -------<br>--- --- as ----- -- --- ---- -- --- ---- -- ------ ------<br>--- ----- -- ----,229223.61499996623,229223.01000001607,228737.317,228720.32500000205,228754.008,229237.737,,41,as
screen,html.Screen,2_1_0_1_42,2021-04-24T17:29:53.595Z,,,,,,,,,,,,,,,,,53,,,,,,,,,,,,,,633.3929999849934,,response,,,,99,,,,,,,Space,keypress(Space),,,,,,,,---- -- ----- -- ------ - ------- --- ----------<br>------------- ------ ------ ---- ---- ------- ----- -- ----<br>-------- ------- -- ---------- --- - --- ----- ----- ----<br>---- --- --- ----- --- ---- ---- ------- ----- ---- -------<br>--- --- -- close -- --- ---- -- --- ---- -- ------ ------<br>--- ----- -- ----,229871.68999999994,229871.129999985,229221.04,229223.73999998672,229237.737,229888.281,,42,close
screen,html.Screen,2_1_0_1_43,2021-04-24T17:29:53.971Z,,,,,,,,,,,,,,,,,53,,,,,,,,,,,,,,358.90899996549706,,response,,,,99,,,,,,,Space,keypress(Space),,,,,,,,---- -- ----- -- ------ - ------- --- ----------<br>------------- ------ ------ ---- ---- ------- ----- -- ----<br>-------- ------- -- ---------- --- - --- ----- ----- ----<br>---- --- --- ----- --- ---- ---- ------- ----- ---- -------<br>--- --- -- ----- as --- ---- -- --- ---- -- ------ ------<br>--- ----- -- ----,230247.73499998264,230247.18999996549,229871.58,229871.8200000003,229888.281,230255.243,,43,as
screen,html.Screen,2_1_0_1_44,2021-04-24T17:29:54.420Z,,,,,,,,,,,,,,,,,53,,,,,,,,,,,,,,440.0669999809761,,response,,,,99,,,,,,,Space,keypress(Space),,,,,,,,---- -- ----- -- ------ - ------- --- ----------<br>------------- ------ ------ ---- ---- ------- ----- -- ----<br>-------- ------- -- ---------- --- - --- ----- ----- ----<br>---- --- --- ----- --- ---- ---- ------- ----- ---- -------<br>--- --- -- ----- -- you ---- -- --- ---- -- ------ ------<br>--- ----- -- ----,230695.88000001386,230695.30999998096,230238.532,230247.86000000313,230255.243,230705.614,,44,you
screen,html.Screen,2_1_0_1_45,2021-04-24T17:29:54.852Z,,,,,,,,,,,,,,,,,53,,,,,,,,,,,,,,421.73599996609846,,response,,,,99,,,,,,,Space,keypress(Space),,,,,,,,---- -- ----- -- ------ - ------- --- ----------<br>------------- ------ ------ ---- ---- ------- ----- -- ----<br>-------- ------- -- ---------- --- - --- ----- ----- ----<br>---- --- --- ----- --- ---- ---- ------- ----- ---- -------<br>--- --- -- ----- -- --- want -- --- ---- -- ------ ------<br>--- ----- -- ----,231127.9349999968,231127.3499999661,230688.934,230696.00499997614,230705.614,231139.31,,45,want
screen,html.Screen,2_1_0_1_46,2021-04-24T17:29:55.460Z,,,,,,,,,,,,,,,,,53,,,,,,,,,,,,,,596.1349999984377,,response,,,,99,,,,,,,Space,keypress(Space),,,,,,,,---- -- ----- -- ------ - ------- --- ----------<br>------------- ------ ------ ---- ---- ------- ----- -- ----<br>-------- ------- -- ---------- --- - --- ----- ----- ----<br>---- --- --- ----- --- ---- ---- ------- ----- ---- -------<br>--- --- -- ----- -- --- ---- to --- ---- -- ------ ------<br>--- ----- -- ----,231736.00999999326,231735.44499999844,231122.604,231128.11499997042,231139.31,231739.802,,46,to
screen,html.Screen,2_1_0_1_47,2021-04-24T17:29:55.892Z,,,,,,,,,,,,,,,,,53,,,,,,,,,,,,,,427.6780000037106,,response,,,,99,,,,,,,Space,keypress(Space),,,,,,,,"---- -- ----- -- ------ - ------- --- ----------<br>------------- ------ ------ ---- ---- ------- ----- -- ----<br>-------- ------- -- ---------- --- - --- ----- ----- ----<br>---- --- --- ----- --- ---- ---- ------- ----- ---- -------<br>--- --- -- ----- -- --- ---- -- be, ---- -- ------ ------<br>--- ----- -- ----",232168.02499996265,232167.4800000037,231723.108,231736.13500001375,231739.802,232173.484,,47,"be,"
screen,html.Screen,2_1_0_1_48,2021-04-24T17:29:56.396Z,,,,,,,,,,,,,,,,,53,,,,,,,,,,,,,,498.0860000058892,,response,,,,99,,,,,,,Space,keypress(Space),,,,,,,,---- -- ----- -- ------ - ------- --- ----------<br>------------- ------ ------ ---- ---- ------- ----- -- ----<br>-------- ------- -- ---------- --- - --- ----- ----- ----<br>---- --- --- ----- --- ---- ---- ------- ----- ---- -------<br>--- --- -- ----- -- --- ---- -- --- even -- ------ ------<br>--- ----- -- ----,232672.11499996483,232671.5700000059,232156.785,232168.14500000328,232173.484,232673.89,,48,even
screen,html.Screen,2_1_0_1_49,2021-04-24T17:29:56.732Z,,,,,,,,,,,,,,,,,53,,,,,,,,,,,,,,333.7349999692524,,response,,,,99,,,,,,,Space,keypress(Space),,,,,,,,---- -- ----- -- ------ - ------- --- ----------<br>------------- ------ ------ ---- ---- ------- ----- -- ----<br>-------- ------- -- ---------- --- - --- ----- ----- ----<br>---- --- --- ----- --- ---- ---- ------- ----- ---- -------<br>--- --- -- ----- -- --- ---- -- --- ---- if ------ ------<br>--- ----- -- ----,233008.2200000179,233007.62499996927,232657.233,232672.22999996739,232673.89,233024.224,,49,if
screen,html.Screen,2_1_0_1_50,2021-04-24T17:29:57.252Z,,,,,,,,,,,,,,,,,53,,,,,,,,,,,,,,503.4459999813116,,response,,,,99,,,,,,,Space,keypress(Space),,,,,,,,---- -- ----- -- ------ - ------- --- ----------<br>------------- ------ ------ ---- ---- ------- ----- -- ----<br>-------- ------- -- ---------- --- - --- ----- ----- ----<br>---- --- --- ----- --- ---- ---- ------- ----- ---- -------<br>--- --- -- ----- -- --- ---- -- --- ---- -- that's ------<br>--- ----- -- ----,233528.23499997612,233527.6699999813,233007.496,233008.34499998018,233024.224,233541.272,,50,that's
screen,html.Screen,2_1_0_1_51,2021-04-24T17:29:57.772Z,,,,,,,,,,,,,,,,,53,,,,,,,,,,,,,,506.48300000687595,,response,,,,99,,,,,,,Space,keypress(Space),,,,,,,,---- -- ----- -- ------ - ------- --- ----------<br>------------- ------ ------ ---- ---- ------- ----- -- ----<br>-------- ------- -- ---------- --- - --- ----- ----- ----<br>---- --- --- ----- --- ---- ---- ------- ----- ---- -------<br>--- --- -- ----- -- --- ---- -- --- ---- -- ------ really<br>--- ----- -- ----,234048.30999998376,234047.75500000687,233524.584,233528.35500001675,233541.272,234058.386,,51,really
screen,html.Screen,2_1_0_1_52,2021-04-24T17:29:58.204Z,,,,,,,,,,,,,,,,,53,,,,,,,,,,,,,,421.38900001434376,,response,,,,99,,,,,,,Space,keypress(Space),,,,,,,,---- -- ----- -- ------ - ------- --- ----------<br>------------- ------ ------ ---- ---- ------- ----- -- ----<br>-------- ------- -- ---------- --- - --- ----- ----- ----<br>---- --- --- ----- --- ---- ---- ------- ----- ---- -------<br>--- --- -- ----- -- --- ---- -- --- ---- -- ------ ------<br>not ----- -- ----,234480.35999998683,234479.77500001434,234041.68,234048.43500000425,234058.386,234508.767,,52,not
screen,html.Screen,2_1_0_1_53,2021-04-24T17:29:58.636Z,,,,,,,,,,,,,,,,,53,,,,,,,,,,,,,,403.09299999289215,,response,,,,99,,,,,,,Space,keypress(Space),,,,,,,,---- -- ----- -- ------ - ------- --- ----------<br>------------- ------ ------ ---- ---- ------- ----- -- ----<br>-------- ------- -- ---------- --- - --- ----- ----- ----<br>---- --- --- ----- --- ---- ---- ------- ----- ---- -------<br>--- --- -- ----- -- --- ---- -- --- ---- -- ------ ------<br>--- close -- ----,234912.41499996977,234911.85999999288,234492.079,234480.50999996485,234508.767,234925.779,,53,close
screen,html.Screen,2_1_0_1_54,2021-04-24T17:29:59.156Z,,,,,,,,,,,,,,,,,53,,,,,,,,,,,,,,506.19099997598096,,response,,,,99,,,,,,,Space,keypress(Space),,,,,,,,---- -- ----- -- ------ - ------- --- ----------<br>------------- ------ ------ ---- ---- ------- ----- -- ----<br>-------- ------- -- ---------- --- - --- ----- ----- ----<br>---- --- --- ----- --- ---- ---- ------- ----- ---- -------<br>--- --- -- ----- -- --- ---- -- --- ---- -- ------ ------<br>--- ----- at ----,235432.52999999095,235431.969999976,234909.074,234912.52999997232,234925.779,235442.871,,54,at
screen,html.Screen,2_1_0_1_55,2021-04-24T17:30:00.124Z,,,,,,,,,,,,,,,,,53,,,,,,,,,,,,,,957.2239999899466,,response,,,,99,,,,,,,Space,keypress(Space),,,,,,,,---- -- ----- -- ------ - ------- --- ----------<br>------------- ------ ------ ---- ---- ------- ----- -- ----<br>-------- ------- -- ---------- --- - --- ----- ----- ----<br>---- --- --- ----- --- ---- ---- ------- ----- ---- -------<br>--- --- -- ----- -- --- ---- -- --- ---- -- ------ ------<br>--- ----- -- all.,236400.64499998698,236400.09499998996,235426.173,235432.65500001144,235442.871,236410.332,,55,all.
Item 99,flow.Loop,2_1_0_1,2021-04-24T17:30:00.125Z,,,,,,,,,,,,,,,,,,,,,,,,,,,,,,,30331.554999989952,,completion,,,,,F,,,,,,,,,,,silence,,,,,236400.90000000782,236400.09499998996,206051.872,206052.59999999544,206068.54,236410.332,,,
Question 1,html.Screen,2_1_0_2,2021-04-24T17:30:08.277Z,,,,,,,,,,,,,,,,,,,,,,,,,,,,true,FALSE,,8141.827999962901,,response,,,,99,F,,,,,,FALSE,click #choice-2,,,,silence,,,,,244553.23000001954,244552.1599999629,236393.65,236401.0099999723,236410.332,244567.088,,,
Question 2,html.Screen,2_1_0_3,2021-04-24T17:30:16.928Z,,,,,,,,,,,,,,,,,,,,,,,,,,,,true,TRUE,,8636.416999983136,,response,,,,99,F,,,,,,TRUE,click #choice-1,,,,silence,,,,,253204.48499999475,253203.50499998312,244550.38,244553.3750000177,244567.088,253207.569,,,
Item 99,flow.Sequence,2_1_0,2021-04-24T17:30:16.928Z,,,,,,,,,,,,,,,,,,,,,,,,,,,,,,,57143.243999983126,,completion,,,,,,,,,,,,,,,,,,,,,253204.69499996398,253203.50499998312,196043.596,196060.5649999925,196060.261,253207.569,,,
Holding screen,html.Screen,2_1_1_0,2021-04-24T17:30:26.923Z,,,,,,,,,,,,,,,,,,,,,,,,,,,,,,,10008.295000000013,,timeout,,,,,,,,,,,,,,,,,,,,,263199.655000004,263199.15,253190.869,253204.84999998007,253207.569,263215.864,,,
screen,html.Screen,2_1_1_1_0,2021-04-24T17:30:27.682Z,,,,,,,,,,,,,,,,,54,,,,,,,,,,,,,,741.2259999816888,,response,,,,100,,,,,,,Space,keypress(Space),,,,,,,,At --- ---- --- ------ ----- ------- ---- -- --- ------- --<br>------- ---------- ------ -- ----- -- ----- -- ---- ------<br>--- ----- --- --- ------ -------- ----- --- ------ ----- --<br>----- ----- ---------- --- --- ------ ------ ---- -- ------<br>------- --- ------ ----- --- ---- ------- -- ---- --- --<br>------- ------,263957.7949999948,263957.0899999817,263199.15,263199.8100000201,263215.864,263966.476,,0,At
screen,html.Screen,2_1_1_1_1,2021-04-24T17:30:28.169Z,,,,,,,,,,,,,,,,,54,,,,,,,,,,,,,,478.0040000055451,,response,,,,100,,,,,,,Space,keypress(Space),,,,,,,,-- the ---- --- ------ ----- ------- ---- -- --- ------- --<br>------- ---------- ------ -- ----- -- ----- -- ---- ------<br>--- ----- --- --- ------ -------- ----- --- ------ ----- --<br>----- ----- ---------- --- --- ------ ------ ---- -- ------<br>------- --- ------ ----- --- ---- ------- -- ---- --- --<br>------- ------,264445.0249999645,264444.48000000557,263949.751,263957.95499999076,263966.476,264450.198,,1,the
screen,html.Screen,2_1_1_1_2,2021-04-24T17:30:28.649Z,,,,,,,,,,,,,,,,,54,,,,,,,,,,,,,,474.3470000162488,,response,,,,100,,,,,,,Space,keypress(Space),,,,,,,,-- --- time --- ------ ----- ------- ---- -- --- ------- --<br>------- ---------- ------ -- ----- -- ----- -- ---- ------<br>--- ----- --- --- ------ -------- ----- --- ------ ----- --<br>----- ----- ---------- --- --- ------ ------ ---- -- ------<br>------- --- ------ ----- --- ---- ------- -- ---- --- --<br>------- ------,264925.0999999931,264924.5450000162,264433.495,264445.14500000514,264450.198,264933.936,,2,time
screen,html.Screen,2_1_1_1_3,2021-04-24T17:30:29.049Z,,,,,,,,,,,,,,,,,54,,,,,,,,,,,,,,390.6590000127908,,response,,,,100,,,,,,,Space,keypress(Space),,,,,,,,-- --- ---- the ------ ----- ------- ---- -- --- ------- --<br>------- ---------- ------ -- ----- -- ----- -- ---- ------<br>--- ----- --- --- ------ -------- ----- --- ------ ----- --<br>----- ----- ---------- --- --- ------ ------ ---- -- ------<br>------- --- ------ ----- --- ---- ------- -- ---- --- --<br>------- ------,265325.1549999695,265324.5950000128,264917.226,264925.2250000136,264933.936,265334.271,,3,the
screen,html.Screen,2_1_1_1_4,2021-04-24T17:30:29.353Z,,,,,,,,,,,,,,,,,54,,,,,,,,,,,,,,294.36900000990136,,response,,,,100,,,,,,,Space,keypress(Space),,,,,,,,-- --- ---- --- French ----- ------- ---- -- --- ------- --<br>------- ---------- ------ -- ----- -- ----- -- ---- ------<br>--- ----- --- --- ------ -------- ----- --- ------ ----- --<br>----- ----- ---------- --- --- ------ ------ ---- -- ------<br>------- --- ------ ----- --- ---- ------- -- ---- --- --<br>------- ------,265629.1450000135,265628.6400000099,265317.553,265325.27500001015,265334.271,265634.506,,4,French
screen,html.Screen,2_1_1_1_5,2021-04-24T17:30:29.657Z,,,,,,,,,,,,,,,,,54,,,,,,,,,,,,,,298.18399998691166,,response,,,,100,,,,,,,Space,keypress(Space),,,,,,,,-- --- ---- --- ------ crown ------- ---- -- --- ------- --<br>------- ---------- ------ -- ----- -- ----- -- ---- ------<br>--- ----- --- --- ------ -------- ----- --- ------ ----- --<br>----- ----- ---------- --- --- ------ ------ ---- -- ------<br>------- --- ------ ----- --- ---- ------- -- ---- --- --<br>------- ------,265933.2750000176,265932.6899999869,265617.813,265629.26499999594,265634.506,265934.759,,5,crown
screen,html.Screen,2_1_1_1_6,2021-04-24T17:30:30.233Z,,,,,,,,,,,,,,,,,54,,,,,,,,,,,,,,574.0309999925666,,response,,,,100,,,,,,,Space,keypress(Space),,,,,,,,-- --- ---- --- ------ ----- secured ---- -- --- ------- --<br>------- ---------- ------ -- ----- -- ----- -- ---- ------<br>--- ----- --- --- ------ -------- ----- --- ------ ----- --<br>----- ----- ---------- --- --- ------ ------ ---- -- ------<br>------- --- ------ ----- --- ---- ------- -- ---- --- --<br>------- ------,266509.33500000974,266508.7899999926,265918.063,265933.3999999799,265934.759,266518.581,,6,secured
screen,html.Screen,2_1_1_1_7,2021-04-24T17:30:30.585Z,,,,,,,,,,,,,,,,,54,,,,,,,,,,,,,,342.2589999793563,,response,,,,100,,,,,,,Space,keypress(Space),,,,,,,,-- --- ---- --- ------ ----- ------- much -- --- ------- --<br>------- ---------- ------ -- ----- -- ----- -- ---- ------<br>--- ----- --- --- ------ -------- ----- --- ------ ----- --<br>----- ----- ---------- --- --- ------ ------ ---- -- ------<br>------- --- ------ ----- --- ---- ------- -- ---- --- --<br>------- ------,266861.3899999764,266860.83999997936,266501.865,266509.459999972,266518.581,266868.866,,7,much
screen,html.Screen,2_1_1_1_8,2021-04-24T17:30:30.961Z,,,,,,,,,,,,,,,,,54,,,,,,,,,,,,,,368.0389999979525,,response,,,,100,,,,,,,Space,keypress(Space),,,,,,,,-- --- ---- --- ------ ----- ------- ---- of --- ------- --<br>------- ---------- ------ -- ----- -- ----- -- ---- ------<br>--- ----- --- --- ------ -------- ----- --- ------ ----- --<br>----- ----- ---------- --- --- ------ ------ ---- -- ------<br>------- --- ------ ----- --- ---- ------- -- ---- --- --<br>------- ------,267237.4599999748,267236.90499999793,266852.17,266861.510000017,266868.866,267252.529,,8,of
screen,html.Screen,2_1_1_1_9,2021-04-24T17:30:31.289Z,,,,,,,,,,,,,,,,,54,,,,,,,,,,,,,,312.41100001113955,,response,,,,100,,,,,,,Space,keypress(Space),,,,,,,,-- --- ---- --- ------ ----- ------- ---- -- its ------- --<br>------- ---------- ------ -- ----- -- ----- -- ---- ------<br>--- ----- --- --- ------ -------- ----- --- ------ ----- --<br>----- ----- ---------- --- --- ------ ------ ---- -- ------<br>------- --- ------ ----- --- ---- ------- -- ---- --- --<br>------- ------,267565.46000001254,267564.9400000111,267235.822,267237.5849999953,267252.529,267569.449,,9,its
screen,html.Screen,2_1_1_1_10,2021-04-24T17:30:31.609Z,,,,,,,,,,,,,,,,,54,,,,,,,,,,,,,,315.5559999891557,,response,,,,100,,,,,,,Space,keypress(Space),,,,,,,,-- --- ---- --- ------ ----- ------- ---- -- --- revenue --<br>------- ---------- ------ -- ----- -- ----- -- ---- ------<br>--- ----- --- --- ------ -------- ----- --- ------ ----- --<br>----- ----- ---------- --- --- ------ ------ ---- -- ------<br>------- --- ------ ----- --- ---- ------- -- ---- --- --<br>------- ------,267885.56500000414,267885.0049999892,267552.762,267565.5849999748,267569.449,267904.308,,10,revenue
screen,html.Screen,2_1_1_1_11,2021-04-24T17:30:32.217Z,,,,,,,,,,,,,,,,,54,,,,,,,,,,,,,,588.786999983422,,response,,,,100,,,,,,,Space,keypress(Space),,,,,,,,-- --- ---- --- ------ ----- ------- ---- -- --- ------- by<br>------- ---------- ------ -- ----- -- ----- -- ---- ------<br>--- ----- --- --- ------ -------- ----- --- ------ ----- --<br>----- ----- ---------- --- --- ------ ------ ---- -- ------<br>------- --- ------ ----- --- ---- ------- -- ---- --- --<br>------- ------,268493.66500001634,268493.09499998344,267869.668,267885.6950000045,267904.308,268503.559,,11,by
screen,html.Screen,2_1_1_1_12,2021-04-24T17:30:32.577Z,,,,,,,,,,,,,,,,,54,,,,,,,,,,,,,,349.5809999628691,,response,,,,100,,,,,,,Space,keypress(Space),,,,,,,,-- --- ---- --- ------ ----- ------- ---- -- --- ------- --<br>issuing ---------- ------ -- ----- -- ----- -- ---- ------<br>--- ----- --- --- ------ -------- ----- --- ------ ----- --<br>----- ----- ---------- --- --- ------ ------ ---- -- ------<br>------- --- ------ ----- --- ---- ------- -- ---- --- --<br>------- ------,268853.7200000137,268853.1399999629,268486.843,268493.7899999786,268503.559,268870.522,,12,issuing
screen,html.Screen,2_1_1_1_13,2021-04-24T17:30:32.922Z,,,,,,,,,,,,,,,,,54,,,,,,,,,,,,,,326.6829999749316,,response,,,,100,,,,,,,Space,keypress(Space),,,,,,,,-- --- ---- --- ------ ----- ------- ---- -- --- ------- --<br>------- government ------ -- ----- -- ----- -- ---- ------<br>--- ----- --- --- ------ -------- ----- --- ------ ----- --<br>----- ----- ---------- --- --- ------ ------ ---- -- ------<br>------- --- ------ ----- --- ---- ------- -- ---- --- --<br>------- ------,269197.76999996975,269197.2049999749,268853.831,268853.8399999961,268870.522,269204.126,,13,government
screen,html.Screen,2_1_1_1_14,2021-04-24T17:30:33.498Z,,,,,,,,,,,,,,,,,54,,,,,,,,,,,,,,569.1339999872143,,response,,,,100,,,,,,,Space,keypress(Space),,,,,,,,-- --- ---- --- ------ ----- ------- ---- -- --- ------- --<br>------- ---------- bonds. -- ----- -- ----- -- ---- ------<br>--- ----- --- --- ------ -------- ----- --- ------ ----- --<br>----- ----- ---------- --- --- ------ ------ ---- -- ------<br>------- --- ------ ----- --- ---- ------- -- ---- --- --<br>------- ------,269773.824999982,269773.2599999872,269187.422,269197.8849999723,269204.126,269787.957,,14,bonds.
screen,html.Screen,2_1_1_1_15,2021-04-24T17:30:34.194Z,,,,,,,,,,,,,,,,,54,,,,,,,,,,,,,,681.4130000061705,,response,,,,100,,,,,,,Space,keypress(Space),,,,,,,,-- --- ---- --- ------ ----- ------- ---- -- --- ------- --<br>------- ---------- ------ In ----- -- ----- -- ---- ------<br>--- ----- --- --- ------ -------- ----- --- ------ ----- --<br>----- ----- ---------- --- --- ------ ------ ---- -- ------<br>------- --- ------ ----- --- ---- ------- -- ---- --- --<br>------- ------,270469.9299999629,270469.37000000617,269771.242,269773.9399999846,269787.957,270471.852,,15,In
screen,html.Screen,2_1_1_1_16,2021-04-24T17:30:34.554Z,,,,,,,,,,,,,,,,,54,,,,,,,,,,,,,,357.6580000104732,,response,,,,100,,,,,,,Space,keypress(Space),,,,,,,,"-- --- ---- --- ------ ----- ------- ---- -- --- ------- --<br>------- ---------- ------ -- 1727, -- ----- -- ---- ------<br>--- ----- --- --- ------ -------- ----- --- ------ ----- --<br>----- ----- ---------- --- --- ------ ------ ---- -- ------<br>------- --- ------ ----- --- ---- ------- -- ---- --- --<br>------- ------",270830.0900000031,270829.5100000105,270455.142,270470.05000000354,270471.852,270838.83,,16,"1727,"
screen,html.Screen,2_1_1_1_17,2021-04-24T17:30:35.634Z,,,,,,,,,,,,,,,,,54,,,,,,,,,,,,,,1071.2099999879138,,response,,,,100,,,,,,,Space,keypress(Space),,,,,,,,-- --- ---- --- ------ ----- ------- ---- -- --- ------- --<br>------- ---------- ------ -- ----- in ----- -- ---- ------<br>--- ----- --- --- ------ -------- ----- --- ------ ----- --<br>----- ----- ---------- --- --- ------ ------ ---- -- ------<br>------- --- ------ ----- --- ---- ------- -- ---- --- --<br>------- ------,271910.6299999985,271910.03999998793,270822.106,270830.2149999654,270838.83,271923.05,,17,in
screen,html.Screen,2_1_1_1_18,2021-04-24T17:30:36.010Z,,,,,,,,,,,,,,,,,54,,,,,,,,,,,,,,362.94499998382526,,response,,,,100,,,,,,,Space,keypress(Space),,,,,,,,-- --- ---- --- ------ ----- ------- ---- -- --- ------- --<br>------- ---------- ------ -- ----- -- order -- ---- ------<br>--- ----- --- --- ------ -------- ----- --- ------ ----- --<br>----- ----- ---------- --- --- ------ ------ ---- -- ------<br>------- --- ------ ----- --- ---- ------- -- ---- --- --<br>------- ------,272286.5500000189,272285.9949999838,271906.325,271910.7499999809,271923.05,272290.002,,18,order
screen,html.Screen,2_1_1_1_19,2021-04-24T17:30:36.274Z,,,,,,,,,,,,,,,,,54,,,,,,,,,,,,,,260.0179999660468,,response,,,,100,,,,,,,Space,keypress(Space),,,,,,,,-- --- ---- --- ------ ----- ------- ---- -- --- ------- --<br>------- ---------- ------ -- ----- -- ----- to ---- ------<br>--- ----- --- --- ------ -------- ----- --- ------ ----- --<br>----- ----- ---------- --- --- ------ ------ ---- -- ------<br>------- --- ------ ----- --- ---- ------- -- ---- --- --<br>------- ------,272550.5899999989,272550.019999966,272273.33,272286.6700000013,272290.002,272556.902,,19,to
screen,html.Screen,2_1_1_1_20,2021-04-24T17:30:36.474Z,,,,,,,,,,,,,,,,,54,,,,,,,,,,,,,,192.923000006238,,response,,,,100,,,,,,,Space,keypress(Space),,,,,,,,-- --- ---- --- ------ ----- ------- ---- -- --- ------- --<br>------- ---------- ------ -- ----- -- ----- -- save ------<br>--- ----- --- --- ------ -------- ----- --- ------ ----- --<br>----- ----- ---------- --- --- ------ ------ ---- -- ------<br>------- --- ------ ----- --- ---- ------- -- ---- --- --<br>------- ------,272750.39000000106,272749.82500000624,272540.209,272550.70999998134,272556.902,272757.067,,20,save
screen,html.Screen,2_1_1_1_21,2021-04-24T17:30:37.066Z,,,,,,,,,,,,,,,,,54,,,,,,,,,,,,,,584.7779999881168,,response,,,,100,,,,,,,Space,keypress(Space),,,,,,,,"-- --- ---- --- ------ ----- ------- ---- -- --- ------- --<br>------- ---------- ------ -- ----- -- ----- -- ---- money,<br>--- ----- --- --- ------ -------- ----- --- ------ ----- --<br>----- ----- ---------- --- --- ------ ------ ---- -- ------<br>------- --- ------ ----- --- ---- ------- -- ---- --- --<br>------- ------",273342.4300000188,273341.8449999881,272740.389,272750.5050000036,272757.067,273357.58,,21,"money,"
screen,html.Screen,2_1_1_1_22,2021-04-24T17:30:37.570Z,,,,,,,,,,,,,,,,,54,,,,,,,,,,,,,,488.3749999679276,,response,,,,100,,,,,,,Space,keypress(Space),,,,,,,,-- --- ---- --- ------ ----- ------- ---- -- --- ------- --<br>------- ---------- ------ -- ----- -- ----- -- ---- ------<br>the ----- --- --- ------ -------- ----- --- ------ ----- --<br>----- ----- ---------- --- --- ------ ------ ---- -- ------<br>------- --- ------ ----- --- ---- ------- -- ---- --- --<br>------- ------,273846.5149999829,273845.95499996794,273340.876,273343.20499998285,273357.58,273857.981,,22,the
screen,html.Screen,2_1_1_1_23,2021-04-24T17:30:37.907Z,,,,,,,,,,,,,,,,,54,,,,,,,,,,,,,,324.6689999733353,,response,,,,100,,,,,,,Space,keypress(Space),,,,,,,,-- --- ---- --- ------ ----- ------- ---- -- --- ------- --<br>------- ---------- ------ -- ----- -- ----- -- ---- ------<br>--- state --- --- ------ -------- ----- --- ------ ----- --<br>----- ----- ---------- --- --- ------ ------ ---- -- ------<br>------- --- ------ ----- --- ---- ------- -- ---- --- --<br>------- ------,274183.1999999704,274182.64999997336,273841.292,273846.6349999653,273857.981,274191.6,,23,state
screen,html.Screen,2_1_1_1_24,2021-04-24T17:30:38.178Z,,,,,,,,,,,,,,,,,54,,,,,,,,,,,,,,262.41499996662606,,response,,,,100,,,,,,,Space,keypress(Space),,,,,,,,-- --- ---- --- ------ ----- ------- ---- -- --- ------- --<br>------- ---------- ------ -- ----- -- ----- -- ---- ------<br>--- ----- cut --- ------ -------- ----- --- ------ ----- --<br>----- ----- ---------- --- --- ------ ------ ---- -- ------<br>------- --- ------ ----- --- ---- ------- -- ---- --- --<br>------- ------,274454.59500001743,274454.0149999666,274174.894,274183.35999996634,274191.6,274458.452,,24,cut
screen,html.Screen,2_1_1_1_25,2021-04-24T17:30:38.450Z,,,,,,,,,,,,,,,,,54,,,,,,,,,,,,,,267.60299997736,,response,,,,100,,,,,,,Space,keypress(Space),,,,,,,,-- --- ---- --- ------ ----- ------- ---- -- --- ------- --<br>------- ---------- ------ -- ----- -- ----- -- ---- ------<br>--- ----- --- the ------ -------- ----- --- ------ ----- --<br>----- ----- ---------- --- --- ------ ------ ---- -- ------<br>------- --- ------ ----- --- ---- ------- -- ---- --- --<br>------- ------,274726.60499997437,274726.05499997735,274441.788,274454.71499999985,274458.452,274742.06,,25,the
screen,html.Screen,2_1_1_1_26,2021-04-24T17:30:38.826Z,,,,,,,,,,,,,,,,,54,,,,,,,,,,,,,,360.06499997578794,,response,,,,100,,,,,,,Space,keypress(Space),,,,,,,,-- --- ---- --- ------ ----- ------- ---- -- --- ------- --<br>------- ---------- ------ -- ----- -- ----- -- ---- ------<br>--- ----- --- --- bonds' -------- ----- --- ------ ----- --<br>----- ----- ---------- --- --- ------ ------ ---- -- ------<br>------- --- ------ ----- --- ---- ------- -- ---- --- --<br>------- ------,275102.69999998854,275102.1249999758,274725.347,274726.72999999486,274742.06,275109.019,,26,bonds'
screen,html.Screen,2_1_1_1_27,2021-04-24T17:30:39.114Z,,,,,,,,,,,,,,,,,54,,,,,,,,,,,,,,281.09600001655053,,response,,,,100,,,,,,,Space,keypress(Space),,,,,,,,-- --- ---- --- ------ ----- ------- ---- -- --- ------- --<br>------- ---------- ------ -- ----- -- ----- -- ---- ------<br>--- ----- --- --- ------ interest ----- --- ------ ----- --<br>----- ----- ---------- --- --- ------ ------ ---- -- ------<br>------- --- ------ ----- --- ---- ------- -- ---- --- --<br>------- ------,275390.68000001134,275390.1150000165,275092.318,275102.82500000903,275109.019,275392.57,,27,interest
screen,html.Screen,2_1_1_1_28,2021-04-24T17:30:39.467Z,,,,,,,,,,,,,,,,,54,,,,,,,,,,,,,,349.62000001902925,,response,,,,100,,,,,,,Space,keypress(Space),,,,,,,,-- --- ---- --- ------ ----- ------- ---- -- --- ------- --<br>------- ---------- ------ -- ----- -- ----- -- ---- ------<br>--- ----- --- --- ------ -------- rate. --- ------ ----- --<br>----- ----- ---------- --- --- ------ ------ ---- -- ------<br>------- --- ------ ----- --- ---- ------- -- ---- --- --<br>------- ------,275742.7499999758,275742.19000001904,275375.866,275390.79999999376,275392.57,275759.57,,28,rate.
screen,html.Screen,2_1_1_1_29,2021-04-24T17:30:40.131Z,,,,,,,,,,,,,,,,,54,,,,,,,,,,,,,,646.7050000157324,,response,,,,100,,,,,,,Space,keypress(Space),,,,,,,,-- --- ---- --- ------ ----- ------- ---- -- --- ------- --<br>------- ---------- ------ -- ----- -- ----- -- ---- ------<br>--- ----- --- --- ------ -------- ----- The ------ ----- --<br>----- ----- ---------- --- --- ------ ------ ---- -- ------<br>------- --- ------ ----- --- ---- ------- -- ---- --- --<br>------- ------,276406.8149999948,276406.27500001574,275742.857,275742.8749999963,275759.57,276410.097,,29,The
screen,html.Screen,2_1_1_1_30,2021-04-24T17:30:40.507Z,,,,,,,,,,,,,,,,,54,,,,,,,,,,,,,,372.2330000163638,,response,,,,100,,,,,,,Space,keypress(Space),,,,,,,,-- --- ---- --- ------ ----- ------- ---- -- --- ------- --<br>------- ---------- ------ -- ----- -- ----- -- ---- ------<br>--- ----- --- --- ------ -------- ----- --- market ----- --<br>----- ----- ---------- --- --- ------ ------ ---- -- ------<br>------- --- ------ ----- --- ---- ------- -- ---- --- --<br>------- ------,276782.88499999326,276782.3300000164,276393.387,276406.9400000153,276410.097,276793.753,,30,market
screen,html.Screen,2_1_1_1_31,2021-04-24T17:30:40.867Z,,,,,,,,,,,,,,,,,54,,,,,,,,,,,,,,348.62199999578297,,response,,,,100,,,,,,,Space,keypress(Space),,,,,,,,-- --- ---- --- ------ ----- ------- ---- -- --- ------- --<br>------- ---------- ------ -- ----- -- ----- -- ---- ------<br>--- ----- --- --- ------ -------- ----- --- ------ value --<br>----- ----- ---------- --- --- ------ ------ ---- -- ------<br>------- --- ------ ----- --- ---- ------- -- ---- --- --<br>------- ------,277142.9249999928,277142.3749999958,276777.042,276783.0149999936,276793.753,277161.222,,31,value
screen,html.Screen,2_1_1_1_32,2021-04-24T17:30:41.475Z,,,,,,,,,,,,,,,,,54,,,,,,,,,,,,,,589.3980000061565,,response,,,,100,,,,,,,Space,keypress(Space),,,,,,,,-- --- ---- --- ------ ----- ------- ---- -- --- ------- --<br>------- ---------- ------ -- ----- -- ----- -- ---- ------<br>--- ----- --- --- ------ -------- ----- --- ------ ----- of<br>----- ----- ---------- --- --- ------ ------ ---- -- ------<br>------- --- ------ ----- --- ---- ------- -- ---- --- --<br>------- ------,277751.17499998305,277750.62000000617,277127.332,277143.04499997525,277161.222,277761.22,,32,of
screen,html.Screen,2_1_1_1_33,2021-04-24T17:30:41.859Z,,,,,,,,,,,,,,,,,54,,,,,,,,,,,,,,373.6849999844562,,response,,,,100,,,,,,,Space,keypress(Space),,,,,,,,-- --- ---- --- ------ ----- ------- ---- -- --- ------- --<br>------- ---------- ------ -- ----- -- ----- -- ---- ------<br>--- ----- --- --- ------ -------- ----- --- ------ ----- --<br>these ----- ---------- --- --- ------ ------ ---- -- ------<br>------- --- ------ ----- --- ---- ------- -- ---- --- --<br>------- ------,278135.45499998145,278134.9049999844,277744.504,277751.30000000354,277761.22,278144.864,,33,these
screen,html.Screen,2_1_1_1_34,2021-04-24T17:30:42.251Z,,,,,,,,,,,,,,,,,54,,,,,,,,,,,,,,381.8559999652789,,response,,,,100,,,,,,,Space,keypress(Space),,,,,,,,-- --- ---- --- ------ ----- ------- ---- -- --- ------- --<br>------- ---------- ------ -- ----- -- ----- -- ---- ------<br>--- ----- --- --- ------ -------- ----- --- ------ ----- --<br>----- bonds ---------- --- --- ------ ------ ---- -- ------<br>------- --- ------ ----- --- ---- ------- -- ---- --- --<br>------- ------,278527.27999998024,278526.7199999653,278128.161,278135.58000000194,278144.864,278546.217,,34,bonds
screen,html.Screen,2_1_1_1_35,2021-04-24T17:30:42.555Z,,,,,,,,,,,,,,,,,54,,,,,,,,,,,,,,284.683000000834,,response,,,,100,,,,,,,Space,keypress(Space),,,,,,,,"-- --- ---- --- ------ ----- ------- ---- -- --- ------- --<br>------- ---------- ------ -- ----- -- ----- -- ---- ------<br>--- ----- --- --- ------ -------- ----- --- ------ ----- --<br>----- ----- plummeted, --- --- ------ ------ ---- -- ------<br>------- --- ------ ----- --- ---- ------- -- ---- --- --<br>------- ------",278831.445000018,278830.90000000084,278511.825,278527.39999996265,278546.217,278845.456,,35,"plummeted,"
screen,html.Screen,2_1_1_1_36,2021-04-24T17:30:42.875Z,,,,,,,,,,,,,,,,,54,,,,,,,,,,,,,,305.2390000184532,,response,,,,100,,,,,,,Space,keypress(Space),,,,,,,,-- --- ---- --- ------ ----- ------- ---- -- --- ------- --<br>------- ---------- ------ -- ----- -- ----- -- ---- ------<br>--- ----- --- --- ------ -------- ----- --- ------ ----- --<br>----- ----- ---------- and --- ------ ------ ---- -- ------<br>------- --- ------ ----- --- ---- ------- -- ---- --- --<br>------- ------,279151.26499999315,279150.69500001846,278828.749,278831.5699999803,278845.456,279162.376,,36,and
screen,html.Screen,2_1_1_1_37,2021-04-24T17:30:43.187Z,,,,,,,,,,,,,,,,,54,,,,,,,,,,,,,,300.36899996799184,,response,,,,100,,,,,,,Space,keypress(Space),,,,,,,,-- --- ---- --- ------ ----- ------- ---- -- --- ------- --<br>------- ---------- ------ -- ----- -- ----- -- ---- ------<br>--- ----- --- --- ------ -------- ----- --- ------ ----- --<br>----- ----- ---------- --- the ------ ------ ---- -- ------<br>------- --- ------ ----- --- ---- ------- -- ---- --- --<br>------- ------,279463.3250000188,279462.744999968,279145.675,279151.3799999957,279162.376,279479.31,,37,the
screen,html.Screen,2_1_1_1_38,2021-04-24T17:30:43.451Z,,,,,,,,,,,,,,,,,54,,,,,,,,,,,,,,247.47999998606974,,response,,,,100,,,,,,,Space,keypress(Space),,,,,,,,-- --- ---- --- ------ ----- ------- ---- -- --- ------- --<br>------- ---------- ------ -- ----- -- ----- -- ---- ------<br>--- ----- --- --- ------ -------- ----- --- ------ ----- --<br>----- ----- ---------- --- --- market ------ ---- -- ------<br>------- --- ------ ----- --- ---- ------- -- ---- --- --<br>------- ------,279727.34499996295,279726.78999998607,279462.606,279463.44500000123,279479.31,279729.497,,38,market
screen,html.Screen,2_1_1_1_39,2021-04-24T17:30:43.723Z,,,,,,,,,,,,,,,,,54,,,,,,,,,,,,,,269.33799997670576,,response,,,,100,,,,,,,Space,keypress(Space),,,,,,,,-- --- ---- --- ------ ----- ------- ---- -- --- ------- --<br>------- ---------- ------ -- ----- -- ----- -- ---- ------<br>--- ----- --- --- ------ -------- ----- --- ------ ----- --<br>----- ----- ---------- --- --- ------ became ---- -- ------<br>------- --- ------ ----- --- ---- ------- -- ---- --- --<br>------- ------,279999.3849999737,279998.8349999767,279712.802,279727.4650000036,279729.497,280013.089,,39,became
screen,html.Screen,2_1_1_1_40,2021-04-24T17:30:44.011Z,,,,,,,,,,,,,,,,,54,,,,,,,,,,,,,,273.8159999863128,,response,,,,100,,,,,,,Space,keypress(Space),,,,,,,,-- --- ---- --- ------ ----- ------- ---- -- --- ------- --<br>------- ---------- ------ -- ----- -- ----- -- ---- ------<br>--- ----- --- --- ------ -------- ----- --- ------ ----- --<br>----- ----- ---------- --- --- ------ ------ wary -- ------<br>------- --- ------ ----- --- ---- ------- -- ---- --- --<br>------- ------,280287.55499998806,280286.9049999863,279996.394,279999.5050000143,280013.089,280296.645,,40,wary
screen,html.Screen,2_1_1_1_41,2021-04-24T17:30:44.315Z,,,,,,,,,,,,,,,,,54,,,,,,,,,,,,,,294.2799999676645,,response,,,,100,,,,,,,Space,keypress(Space),,,,,,,,-- --- ---- --- ------ ----- ------- ---- -- --- ------- --<br>------- ---------- ------ -- ----- -- ----- -- ---- ------<br>--- ----- --- --- ------ -------- ----- --- ------ ----- --<br>----- ----- ---------- --- --- ------ ------ ---- of ------<br>------- --- ------ ----- --- ---- ------- -- ---- --- --<br>------- ------,280591.49999998044,280590.9249999677,280279.942,280287.6849999884,280296.645,280596.895,,41,of
screen,html.Screen,2_1_1_1_42,2021-04-24T17:30:44.795Z,,,,,,,,,,,,,,,,,54,,,,,,,,,,,,,,474.1099999761209,,response,,,,100,,,,,,,Space,keypress(Space),,,,,,,,-- --- ---- --- ------ ----- ------- ---- -- --- ------- --<br>------- ---------- ------ -- ----- -- ----- -- ---- ------<br>--- ----- --- --- ------ -------- ----- --- ------ ----- --<br>----- ----- ---------- --- --- ------ ------ ---- -- French<br>------- --- ------ ----- --- ---- ------- -- ---- --- --<br>------- ------,281071.5649999911,281071.00499997614,280580.194,280591.62500000093,280596.895,281080.633,,42,French
screen,html.Screen,2_1_1_1_43,2021-04-24T17:30:45.195Z,,,,,,,,,,,,,,,,,54,,,,,,,,,,,,,,390.4619999862625,,response,,,,100,,,,,,,Space,keypress(Space),,,,,,,,-- --- ---- --- ------ ----- ------- ---- -- --- ------- --<br>------- ---------- ------ -- ----- -- ----- -- ---- ------<br>--- ----- --- --- ------ -------- ----- --- ------ ----- --<br>----- ----- ---------- --- --- ------ ------ ---- -- ------<br>credit. --- ------ ----- --- ---- ------- -- ---- --- --<br>------- ------,281471.64499998325,281471.09499998624,281063.92,281071.6849999735,281080.633,281480.958,,43,credit.
screen,html.Screen,2_1_1_1_44,2021-04-24T17:30:45.587Z,,,,,,,,,,,,,,,,,54,,,,,,,,,,,,,,382.16199999453966,,response,,,,100,,,,,,,Space,keypress(Space),,,,,,,,-- --- ---- --- ------ ----- ------- ---- -- --- ------- --<br>------- ---------- ------ -- ----- -- ----- -- ---- ------<br>--- ----- --- --- ------ -------- ----- --- ------ ----- --<br>----- ----- ---------- --- --- ------ ------ ---- -- ------<br>------- The ------ ----- --- ---- ------- -- ---- --- --<br>------- ------,281863.6899999692,281863.1199999945,281464.246,281471.7649999657,281480.958,281882.207,,44,The
screen,html.Screen,2_1_1_1_45,2021-04-24T17:30:45.932Z,,,,,,,,,,,,,,,,,54,,,,,,,,,,,,,,325.0080000021844,,response,,,,100,,,,,,,Space,keypress(Space),,,,,,,,-- --- ---- --- ------ ----- ------- ---- -- --- ------- --<br>------- ---------- ------ -- ----- -- ----- -- ---- ------<br>--- ----- --- --- ------ -------- ----- --- ------ ----- --<br>----- ----- ---------- --- --- ------ ------ ---- -- ------<br>------- --- French ----- --- ---- ------- -- ---- --- --<br>------- ------,282207.79999997467,282207.2150000022,281847.897,281863.81000000983,281882.207,282214.907,,45,French
screen,html.Screen,2_1_1_1_46,2021-04-24T17:30:46.572Z,,,,,,,,,,,,,,,,,54,,,,,,,,,,,,,,632.3680000073509,,response,,,,100,,,,,,,Space,keypress(Space),,,,,,,,-- --- ---- --- ------ ----- ------- ---- -- --- ------- --<br>------- ---------- ------ -- ----- -- ----- -- ---- ------<br>--- ----- --- --- ------ -------- ----- --- ------ ----- --<br>----- ----- ---------- --- --- ------ ------ ---- -- ------<br>------- --- ------ state --- ---- ------- -- ---- --- --<br>------- ------,282847.8250000044,282847.27500000736,282198.191,282207.92499999516,282214.907,282866.17,,46,state
screen,html.Screen,2_1_1_1_47,2021-04-24T17:30:46.932Z,,,,,,,,,,,,,,,,,54,,,,,,,,,,,,,,341.1600000047474,,response,,,,100,,,,,,,Space,keypress(Space),,,,,,,,-- --- ---- --- ------ ----- ------- ---- -- --- ------- --<br>------- ---------- ------ -- ----- -- ----- -- ---- ------<br>--- ----- --- --- ------ -------- ----- --- ------ ----- --<br>----- ----- ---------- --- --- ------ ------ ---- -- ------<br>------- --- ------ ----- was ---- ------- -- ---- --- --<br>------- ------,283207.8900000197,283207.33000000473,282832.045,282847.9449999868,282866.17,283215.733,,47,was
screen,html.Screen,2_1_1_1_48,2021-04-24T17:30:47.236Z,,,,,,,,,,,,,,,,,54,,,,,,,,,,,,,,295.6420000018552,,response,,,,100,,,,,,,Space,keypress(Space),,,,,,,,-- --- ---- --- ------ ----- ------- ---- -- --- ------- --<br>------- ---------- ------ -- ----- -- ----- -- ---- ------<br>--- ----- --- --- ------ -------- ----- --- ------ ----- --<br>----- ----- ---------- --- --- ------ ------ ---- -- ------<br>------- --- ------ ----- --- left ------- -- ---- --- --<br>------- ------,283511.92999997875,283511.37500000186,283199.025,283208.01499998197,283215.733,283515.97,,48,left
screen,html.Screen,2_1_1_1_49,2021-04-24T17:30:47.492Z,,,,,,,,,,,,,,,,,54,,,,,,,,,,,,,,251.43499999144115,,response,,,,100,,,,,,,Space,keypress(Space),,,,,,,,-- --- ---- --- ------ ----- ------- ---- -- --- ------- --<br>------- ---------- ------ -- ----- -- ----- -- ---- ------<br>--- ----- --- --- ------ -------- ----- --- ------ ----- --<br>----- ----- ---------- --- --- ------ ------ ---- -- ------<br>------- --- ------ ----- --- ---- without -- ---- --- --<br>------- ------,283767.98499998404,283767.4049999914,283499.29,283512.0500000194,283515.97,283782.872,,49,without
screen,html.Screen,2_1_1_1_50,2021-04-24T17:30:47.780Z,,,,,,,,,,,,,,,,,54,,,,,,,,,,,,,,272.5779999853112,,response,,,,100,,,,,,,Space,keypress(Space),,,,,,,,-- --- ---- --- ------ ----- ------- ---- -- --- ------- --<br>------- ---------- ------ -- ----- -- ----- -- ---- ------<br>--- ----- --- --- ------ -------- ----- --- ------ ----- --<br>----- ----- ---------- --- --- ------ ------ ---- -- ------<br>------- --- ------ ----- --- ---- ------- an ---- --- --<br>------- ------,284056.01000000024,284055.4499999853,283766.171,283768.10499996645,283782.872,284066.439,,50,an
screen,html.Screen,2_1_1_1_51,2021-04-24T17:30:48.060Z,,,,,,,,,,,,,,,,,54,,,,,,,,,,,,,,269.74099998385645,,response,,,,100,,,,,,,Space,keypress(Space),,,,,,,,-- --- ---- --- ------ ----- ------- ---- -- --- ------- --<br>------- ---------- ------ -- ----- -- ----- -- ---- ------<br>--- ----- --- --- ------ -------- ----- --- ------ ----- --<br>----- ----- ---------- --- --- ------ ------ ---- -- ------<br>------- --- ------ ----- --- ---- ------- -- easy --- --<br>------- ------,284336.71999996295,284336.17999998387,284049.733,284056.1250000028,284066.439,284350.007,,51,easy
screen,html.Screen,2_1_1_1_52,2021-04-24T17:30:48.348Z,,,,,,,,,,,,,,,,,54,,,,,,,,,,,,,,273.54300001845695,,response,,,,100,,,,,,,Space,keypress(Space),,,,,,,,-- --- ---- --- ------ ----- ------- ---- -- --- ------- --<br>------- ---------- ------ -- ----- -- ----- -- ---- ------<br>--- ----- --- --- ------ -------- ----- --- ------ ----- --<br>----- ----- ---------- --- --- ------ ------ ---- -- ------<br>------- --- ------ ----- --- ---- ------- -- ---- way --<br>------- ------,284624.10000001546,284623.55000001844,284333.296,284336.84499998344,284350.007,284633.572,,52,way
screen,html.Screen,2_1_1_1_53,2021-04-24T17:30:48.692Z,,,,,,,,,,,,,,,,,54,,,,,,,,,,,,,,334.0229999946314,,response,,,,100,,,,,,,Space,keypress(Space),,,,,,,,-- --- ---- --- ------ ----- ------- ---- -- --- ------- --<br>------- ---------- ------ -- ----- -- ----- -- ---- ------<br>--- ----- --- --- ------ -------- ----- --- ------ ----- --<br>----- ----- ---------- --- --- ------ ------ ---- -- ------<br>------- --- ------ ----- --- ---- ------- -- ---- --- of<br>------- ------,284968.14499999164,284967.5949999946,284616.886,284624.2349999957,284633.572,284983.873,,53,of
screen,html.Screen,2_1_1_1_54,2021-04-24T17:30:49.108Z,,,,,,,,,,,,,,,,,54,,,,,,,,,,,,,,399.8670000192942,,response,,,,100,,,,,,,Space,keypress(Space),,,,,,,,-- --- ---- --- ------ ----- ------- ---- -- --- ------- --<br>------- ---------- ------ -- ----- -- ----- -- ---- ------<br>--- ----- --- --- ------ -------- ----- --- ------ ----- --<br>----- ----- ---------- --- --- ------ ------ ---- -- ------<br>------- --- ------ ----- --- ---- ------- -- ---- --- --<br>raising ------,285384.3599999673,285383.7400000193,284967.165,284968.2700000121,284983.873,285400.895,,54,raising
screen,html.Screen,2_1_1_1_55,2021-04-24T17:30:49.556Z,,,,,,,,,,,,,,,,,54,,,,,,,,,,,,,,430.9949999721721,,response,,,,100,,,,,,,Space,keypress(Space),,,,,,,,-- --- ---- --- ------ ----- ------- ---- -- --- ------- --<br>------- ---------- ------ -- ----- -- ----- -- ---- ------<br>--- ----- --- --- ------ -------- ----- --- ------ ----- --<br>----- ----- ---------- --- --- ------ ------ ---- -- ------<br>------- --- ------ ----- --- ---- ------- -- ---- --- --<br>------- money.,285832.4750000029,285831.8899999722,285384.173,285384.4950000057,285400.895,285851.267,,55,money.
Item 100,flow.Loop,2_1_1_1,2021-04-24T17:30:49.556Z,,,,,,,,,,,,,,,,,,,,,,,,,,,,,,,22616.02599997219,,completion,,,,,F,,,,,,,,,,,silence,,,,,285832.6699999743,285831.8899999722,263199.15,263199.7749999864,263215.864,285851.267,,,
Question 1,html.Screen,2_1_1_2,2021-04-24T17:30:52.198Z,,,,,,,,,,,,,,,,,,,,,,,,,,,,true,TRUE,,2621.6580000091344,,response,,,,100,F,,,,,,TRUE,click #choice-1,,,,silence,,,,,288473.93500001635,288472.9250000091,285834.572,285832.7500000014,285851.267,288486.765,,,
Question 2,html.Screen,2_1_1_3,2021-04-24T17:30:54.361Z,,,,,,,,,,,,,,,,,,,,,,,,,,,,true,FALSE,,2149.494999999297,,response,,,,100,F,,,,,,FALSE,click #choice-2,,,,silence,,,,,290637.1800000197,290636.2599999993,288470.067,288474.11499999,288486.765,290638.556,,,
Item 100,flow.Sequence,2_1_1,2021-04-24T17:30:54.361Z,,,,,,,,,,,,,,,,,,,,,,,,,,,,,,,37428.69099999932,,completion,,,,,,,,,,,,,,,,,,,,,290637.3700000113,290636.2599999993,253190.869,253204.80999996653,253207.569,290638.556,,,
End of Practice,html.Page,2_1_2,2021-04-24T17:30:59.106Z,,,,,,,,,,,,,,,,,,,,,,,,,,,,,,,4743.613999997149,,form submission,,,,,,,,,,,,,,,,,,,,,295382.4700000114,295382.16999999713,290621.857,290637.4599999981,290638.556,295392.48,,,
Practice,flow.Sequence,2_1,2021-04-24T17:30:59.106Z,,,,,,,,,,,,,,,,,,,,,,,,,,,,,,,99321.90899999713,,completion,,,,,,,,,,,,,,,,,,,,,295382.64500000514,295382.16999999713,196043.596,196060.49000000348,196060.261,295392.48,,,
Trap_instruction,html.Page,2_2_0,2021-04-24T17:31:02.951Z,,,,,,,,,,,,,,,,,,,,,,,,,,,,,,,3834.194999983534,,form submission,,,,,,,,,,,,,,,,,,,,,299226.949999982,299226.6749999835,295375.775,295382.7600000077,295392.48,299228.971,,,
trap_trial,html.Screen,2_2_1,2021-04-24T17:31:07.134Z,,,,,,,,,,,,,,,,,,,,,,,,,,,,true,1,,4180.254000010318,,response,,,,,,,,,,,1,click #choice-1,,,,,,,,,303410.20499996375,303409.22500001034,299212.28,299227.0600000047,299228.971,303415.759,,,
end of trap trial,html.Page,2_2_2,2021-04-24T17:31:10.176Z,,,,,,,,,,,,,,,,,,,,,,,,,,,,,,,3036.1259999876493,,form submission,,,,,,,,,,,,,,,,,,,,,306452.2649999708,306451.88499998767,303399.086,303410.3250000044,303415.759,306469.293,,,
Trap 1,flow.Sequence,2_2,2021-04-24T17:31:10.176Z,,,,,,,,,,,,,,,,,,,,,,,,,,,,,,,11059.404999987688,,completion,,,,,,,,,,,,,,,,,,,,,306452.47000001837,306451.88499998767,295375.775,295382.71999999415,295392.48,306469.293,,,
Standby,html.Page,2_3_0,2021-04-24T17:31:18.182Z,,,,,,,,,,,,,,,,,,,,,,,,,,,,,,,8005.636999999988,,timeout,,,,,,,,,,,,,,,,,,,,,314458.7900000042,314458.234,306434.938,306452.5900000008,306469.293,314474.93,,,
Holding screen,html.Screen,2_3_1_0_0,2021-04-24T17:31:25.189Z,,,,,,,,,,,,,,,,,,,,,,,,,,,,,,,7005.79800000001,,timeout,,,,,,,,,,,,,,,,,,,,,321465.045000019,321464.041,314458.234,314458.964999998,314474.93,321480.728,,,
screen,html.Screen,2_3_1_0_1_0,2021-04-24T17:31:26.122Z,,,,,,,,,,,,,,,,,51,,,,,,,,,,,,,,917.3520000135759,,response,,,,13,F,,,,,,Space,keypress(Space),,,,instrumental,,,,American -------- --- --- ---- --- --- ------ -- --------<br>---- --------- --- ------- ------------ ---------- ---------<br>--- ---------- ------- ---------- ------- -- -------- ----<br>---- --- ------ ----- ------ -- ---- --- ----- -- - -------<br>-------- -- --- --- -- ----- ----------- ----- -----------<br>---- --- ---------- --- ---- --- -- ----------,322398.77500000875,322398.0800000136,321464.041,321465.2200000128,321480.728,322414.836,,0,American
screen,html.Screen,2_3_1_0_1_1,2021-04-24T17:31:26.441Z,,,,,,,,,,,,,,,,,51,,,,,,,,,,,,,,302.6090000165859,,response,,,,13,F,,,,,,Space,keypress(Space),,,,instrumental,,,,-------- industry --- --- ---- --- --- ------ -- --------<br>---- --------- --- ------- ------------ ---------- ---------<br>--- ---------- ------- ---------- ------- -- -------- ----<br>---- --- ------ ----- ------ -- ---- --- ----- -- - -------<br>-------- -- --- --- -- ----- ----------- ----- -----------<br>---- --- ---------- --- ---- --- -- ----------,322718.0250000092,322717.4450000166,322398.108,322398.96000002045,322414.836,322731.767,,1,industry
screen,html.Screen,2_3_1_0_1_2,2021-04-24T17:31:26.858Z,,,,,,,,,,,,,,,,,51,,,,,,,,,,,,,,401.73799997614697,,response,,,,13,F,,,,,,Space,keypress(Space),,,,instrumental,,,,-------- -------- may --- ---- --- --- ------ -- --------<br>---- --------- --- ------- ------------ ---------- ---------<br>--- ---------- ------- ---------- ------- -- -------- ----<br>---- --- ------ ----- ------ -- ---- --- ----- -- - -------<br>-------- -- --- --- -- ----- ----------- ----- -----------<br>---- --- ---------- --- ---- --- -- ----------,323134.06999997096,323133.50499997614,322715.055,322718.1349999737,322731.767,323148.779,,2,may
screen,html.Screen,2_3_1_0_1_3,2021-04-24T17:31:27.162Z,,,,,,,,,,,,,,,,,51,,,,,,,,,,,,,,288.7659999934258,,response,,,,13,F,,,,,,Space,keypress(Space),,,,instrumental,,,,-------- -------- --- not ---- --- --- ------ -- --------<br>---- --------- --- ------- ------------ ---------- ---------<br>--- ---------- ------- ---------- ------- -- -------- ----<br>---- --- ------ ----- ------ -- ---- --- ----- -- - -------<br>-------- -- --- --- -- ----- ----------- ----- -----------<br>---- --- ---------- --- ---- --- -- ----------,323438.12000000617,323437.5449999934,323132.067,323134.1900000116,323148.779,323449.022,,3,not
screen,html.Screen,2_3_1_0_1_4,2021-04-24T17:31:27.626Z,,,,,,,,,,,,,,,,,51,,,,,,,,,,,,,,452.6079999784706,,response,,,,13,F,,,,,,Space,keypress(Space),,,,instrumental,,,,-------- -------- --- --- know --- --- ------ -- --------<br>---- --------- --- ------- ------------ ---------- ---------<br>--- ---------- ------- ---------- ------- -- -------- ----<br>---- --- ------ ----- ------ -- ---- --- ----- -- - -------<br>-------- -- --- --- -- ----- ----------- ----- -----------<br>---- --- ---------- --- ---- --- -- ----------,323902.20000001136,323901.62999997847,323432.323,323438.2350000087,323449.022,323916.072,,4,know
screen,html.Screen,2_3_1_0_1_5,2021-04-24T17:31:27.858Z,,,,,,,,,,,,,,,,,51,,,,,,,,,,,,,,217.57799997430993,,response,,,,13,F,,,,,,Space,keypress(Space),,,,instrumental,,,,"-------- -------- --- --- ---- it, --- ------ -- --------<br>---- --------- --- ------- ------------ ---------- ---------<br>--- ---------- ------- ---------- ------- -- -------- ----<br>---- --- ------ ----- ------ -- ---- --- ----- -- - -------<br>-------- -- --- --- -- ----- ----------- ----- -----------<br>---- --- ---------- --- ---- --- -- ----------",324134.2200000072,324133.6499999743,323899.375,323902.3150000139,323916.072,324149.61,,5,"it,"
screen,html.Screen,2_3_1_0_1_6,2021-04-24T17:31:28.290Z,,,,,,,,,,,,,,,,,51,,,,,,,,,,,,,,416.119999972987,,response,,,,13,F,,,,,,Space,keypress(Space),,,,instrumental,,,,-------- -------- --- --- ---- --- but ------ -- --------<br>---- --------- --- ------- ------------ ---------- ---------<br>--- ---------- ------- ---------- ------- -- -------- ----<br>---- --- ------ ----- ------ -- ---- --- ----- -- - -------<br>-------- -- --- --- -- ----- ----------- ----- -----------<br>---- --- ---------- --- ---- --- -- ----------,324566.30000000587,324565.729999973,324132.907,324134.33500000974,324149.61,324583.303,,6,but
screen,html.Screen,2_3_1_0_1_7,2021-04-24T17:31:28.594Z,,,,,,,,,,,,,,,,,51,,,,,,,,,,,,,,286.4770000081626,,response,,,,13,F,,,,,,Space,keypress(Space),,,,instrumental,,,,-------- -------- --- --- ---- --- --- debate -- --------<br>---- --------- --- ------- ------------ ---------- ---------<br>--- ---------- ------- ---------- ------- -- -------- ----<br>---- --- ------ ----- ------ -- ---- --- ----- -- - -------<br>-------- -- --- --- -- ----- ----------- ----- -----------<br>---- --- ---------- --- ---- --- -- ----------,324870.3600000008,324869.7800000082,324566.596,324566.42499996815,324583.303,324883.537,,7,debate
screen,html.Screen,2_3_1_0_1_8,2021-04-24T17:31:29.226Z,,,,,,,,,,,,,,,,,51,,,,,,,,,,,,,,618.3629999738187,,response,,,,13,F,,,,,,Space,keypress(Space),,,,instrumental,,,,-------- -------- --- --- ---- --- --- ------ in --------<br>---- --------- --- ------- ------------ ---------- ---------<br>--- ---------- ------- ---------- ------- -- -------- ----<br>---- --- ------ ----- ------ -- ---- --- ----- -- - -------<br>-------- -- --- --- -- ----- ----------- ----- -----------<br>---- --- ---------- --- ---- --- -- ----------,325502.47999996645,325501.89999997383,324866.838,324870.47500000335,324883.537,325517.399,,8,in
screen,html.Screen,2_3_1_0_1_9,2021-04-24T17:31:29.562Z,,,,,,,,,,,,,,,,,51,,,,,,,,,,,,,,320.53099997970276,,response,,,,13,F,,,,,,Space,keypress(Space),,,,instrumental,,,,-------- -------- --- --- ---- --- --- ------ -- Congress<br>---- --------- --- ------- ------------ ---------- ---------<br>--- ---------- ------- ---------- ------- -- -------- ----<br>---- --- ------ ----- ------ -- ---- --- ----- -- - -------<br>-------- -- --- --- -- ----- ----------- ----- -----------<br>---- --- ---------- --- ---- --- -- ----------,325838.4799999767,325837.9299999797,325500.683,325502.6000000071,325517.399,325851.014,,9,Congress
screen,html.Screen,2_3_1_0_1_10,2021-04-24T17:31:29.890Z,,,,,,,,,,,,,,,,,51,,,,,,,,,,,,,,314.9959999862476,,response,,,,13,F,,,,,,Space,keypress(Space),,,,instrumental,,,,-------- -------- --- --- ---- --- --- ------ -- --------<br>over --------- --- ------- ------------ ---------- ---------<br>--- ---------- ------- ---------- ------- -- -------- ----<br>---- --- ------ ----- ------ -- ---- --- ----- -- - -------<br>-------- -- --- --- -- ----- ----------- ----- -----------<br>---- --- ---------- --- ---- --- -- ----------,326166.5299999877,326166.0099999863,325834.304,325838.59499997925,325851.014,326184.977,,10,over
screen,html.Screen,2_3_1_0_1_11,2021-04-24T17:31:30.138Z,,,,,,,,,,,,,,,,,51,,,,,,,,,,,,,,228.9979999740026,,response,,,,13,F,,,,,,Space,keypress(Space),,,,instrumental,,,,-------- -------- --- --- ---- --- --- ------ -- --------<br>---- reforming --- ------- ------------ ---------- ---------<br>--- ---------- ------- ---------- ------- -- -------- ----<br>---- --- ------ ----- ------ -- ---- --- ----- -- - -------<br>-------- -- --- --- -- ----- ----------- ----- -----------<br>---- --- ---------- --- ---- --- -- ----------,326414.52499997104,326413.974999974,326151.238,326166.64499999024,326184.977,326418.149,,11,reforming
screen,html.Screen,2_3_1_0_1_12,2021-04-24T17:31:30.370Z,,,,,,,,,,,,,,,,,51,,,,,,,,,,,,,,227.83600001013838,,response,,,,13,F,,,,,,Space,keypress(Space),,,,instrumental,,,,-------- -------- --- --- ---- --- --- ------ -- --------<br>---- --------- the ------- ------------ ---------- ---------<br>--- ---------- ------- ---------- ------- -- -------- ----<br>---- --- ------ ----- ------ -- ---- --- ----- -- - -------<br>-------- -- --- --- -- ----- ----------- ----- -----------<br>---- --- ---------- --- ---- --- -- ----------,326646.539999987,326645.9850000101,326401.434,326414.64500001166,326418.149,326651.671,,12,the
screen,html.Screen,2_3_1_0_1_13,2021-04-24T17:31:30.930Z,,,,,,,,,,,,,,,,,51,,,,,,,,,,,,,,554.4389999700943,,response,,,,13,F,,,,,,Space,keypress(Space),,,,instrumental,,,,-------- -------- --- --- ---- --- --- ------ -- --------<br>---- --------- --- federal ------------ ---------- ---------<br>--- ---------- ------- ---------- ------- -- -------- ----<br>---- --- ------ ----- ------ -- ---- --- ----- -- - -------<br>-------- -- --- --- -- ----- ----------- ----- -----------<br>---- --- ---------- --- ---- --- -- ----------,327206.6999999806,327206.10999997007,326634.968,326646.65499998955,326651.671,327218.82,,13,federal
screen,html.Screen,2_3_1_0_1_14,2021-04-24T17:31:31.194Z,,,,,,,,,,,,,,,,,51,,,,,,,,,,,,,,251.34500000608386,,response,,,,13,F,,,,,,Space,keypress(Space),,,,instrumental,,,,-------- -------- --- --- ---- --- --- ------ -- --------<br>---- --------- --- ------- government's ---------- ---------<br>--- ---------- ------- ---------- ------- -- -------- ----<br>---- --- ------ ----- ------ -- ---- --- ----- -- - -------<br>-------- -- --- --- -- ----- ----------- ----- -----------<br>---- --- ---------- --- ---- --- -- ----------,327470.7049999852,327470.1650000061,327202.117,327206.8100000033,327218.82,327485.701,,14,government's
screen,html.Screen,2_3_1_0_1_15,2021-04-24T17:31:31.682Z,,,,,,,,,,,,,,,,,51,,,,,,,,,,,,,,472.5489999669371,,response,,,,13,F,,,,,,Space,keypress(Space),,,,instrumental,,,,-------- -------- --- --- ---- --- --- ------ -- --------<br>---- --------- --- ------- ------------ regulatory ---------<br>--- ---------- ------- ---------- ------- -- -------- ----<br>---- --- ------ ----- ------ -- ---- --- ----- -- - -------<br>-------- -- --- --- -- ----- ----------- ----- -----------<br>---- --- ---------- --- ---- --- -- ----------,327958.86499999324,327958.24999996694,327468.979,327470.8199999877,327485.701,327969.434,,15,regulatory
screen,html.Screen,2_3_1_0_1_16,2021-04-24T17:31:32.002Z,,,,,,,,,,,,,,,,,51,,,,,,,,,,,,,,308.84599996951874,,response,,,,13,F,,,,,,Space,keypress(Space),,,,instrumental,,,,-------- -------- --- --- ---- --- --- ------ -- --------<br>---- --------- --- ------- ------------ ---------- apparatus<br>--- ---------- ------- ---------- ------- -- -------- ----<br>---- --- ------ ----- ------ -- ---- --- ----- -- - -------<br>-------- -- --- --- -- ----- ----------- ----- -----------<br>---- --- ---------- --- ---- --- -- ----------,328278.8500000024,328278.2799999695,327952.731,327958.9949999936,327969.434,328286.33,,16,apparatus
screen,html.Screen,2_3_1_0_1_17,2021-04-24T17:31:32.330Z,,,,,,,,,,,,,,,,,51,,,,,,,,,,,,,,320.04499997390667,,response,,,,13,F,,,,,,Space,keypress(Space),,,,instrumental,,,,-------- -------- --- --- ---- --- --- ------ -- --------<br>---- --------- --- ------- ------------ ---------- ---------<br>may ---------- ------- ---------- ------- -- -------- ----<br>---- --- ------ ----- ------ -- ---- --- ----- -- - -------<br>-------- -- --- --- -- ----- ----------- ----- -----------<br>---- --- ---------- --- ---- --- -- ----------,328606.93999996874,328606.3749999739,328269.662,328278.965000005,328286.33,328619.97,,17,may
screen,html.Screen,2_3_1_0_1_18,2021-04-24T17:31:32.666Z,,,,,,,,,,,,,,,,,51,,,,,,,,,,,,,,322.4899999911431,,response,,,,13,F,,,,,,Space,keypress(Space),,,,instrumental,,,,-------- -------- --- --- ---- --- --- ------ -- --------<br>---- --------- --- ------- ------------ ---------- ---------<br>--- profoundly ------- ---------- ------- -- -------- ----<br>---- --- ------ ----- ------ -- ---- --- ----- -- - -------<br>-------- -- --- --- -- ----- ----------- ----- -----------<br>---- --- ---------- --- ---- --- -- ----------,328943.02499998594,328942.4599999911,328603.249,328607.0549999713,328619.97,328953.584,,18,profoundly
screen,html.Screen,2_3_1_0_1_19,2021-04-24T17:31:32.971Z,,,,,,,,,,,,,,,,,51,,,,,,,,,,,,,,292.99599997728365,,response,,,,13,F,,,,,,Space,keypress(Space),,,,instrumental,,,,-------- -------- --- --- ---- --- --- ------ -- --------<br>---- --------- --- ------- ------------ ---------- ---------<br>--- ---------- improve ---------- ------- -- -------- ----<br>---- --- ------ ----- ------ -- ---- --- ----- -- - -------<br>-------- -- --- --- -- ----- ----------- ----- -----------<br>---- --- ---------- --- ---- --- -- ----------,329247.1699999878,329246.57999997726,328936.88,328943.1399999885,328953.584,329253.827,,19,improve
screen,html.Screen,2_3_1_0_1_20,2021-04-24T17:31:33.371Z,,,,,,,,,,,,,,,,,51,,,,,,,,,,,,,,393.09299997013295,,response,,,,13,F,,,,,,Space,keypress(Space),,,,instrumental,,,,-------- -------- --- --- ---- --- --- ------ -- --------<br>---- --------- --- ------- ------------ ---------- ---------<br>--- ---------- ------- companies' ------- -- -------- ----<br>---- --- ------ ----- ------ -- ---- --- ----- -- - -------<br>-------- -- --- --- -- ----- ----------- ----- -----------<br>---- --- ---------- --- ---- --- -- ----------,329647.43999997154,329646.9199999701,329237.14,329247.28499999037,329253.827,329654.129,,20,companies'
screen,html.Screen,2_3_1_0_1_21,2021-04-24T17:31:33.747Z,,,,,,,,,,,,,,,,,51,,,,,,,,,,,,,,368.53599999676226,,response,,,,13,F,,,,,,Space,keypress(Space),,,,instrumental,,,,-------- -------- --- --- ---- --- --- ------ -- --------<br>---- --------- --- ------- ------------ ---------- ---------<br>--- ---------- ------- ---------- ability -- -------- ----<br>---- --- ------ ----- ------ -- ---- --- ----- -- - -------<br>-------- -- --- --- -- ----- ----------- ----- -----------<br>---- --- ---------- --- ---- --- -- ----------,330023.22500001173,330022.6649999968,329637.452,329647.5549999741,329654.129,330037.814,,21,ability
screen,html.Screen,2_3_1_0_1_22,2021-04-24T17:31:34.107Z,,,,,,,,,,,,,,,,,51,,,,,,,,,,,,,,344.7860000117216,,response,,,,13,F,,,,,,Space,keypress(Space),,,,instrumental,,,,-------- -------- --- --- ---- --- --- ------ -- --------<br>---- --------- --- ------- ------------ ---------- ---------<br>--- ---------- ------- ---------- ------- to -------- ----<br>---- --- ------ ----- ------ -- ---- --- ----- -- - -------<br>-------- -- --- --- -- ----- ----------- ----- -----------<br>---- --- ---------- --- ---- --- -- ----------,330383.1849999842,330382.60000001173,330021.101,330023.3349999762,330037.814,330388.112,,22,to
screen,html.Screen,2_3_1_0_1_23,2021-04-24T17:31:34.411Z,,,,,,,,,,,,,,,,,51,,,,,,,,,,,,,,298.5129999729688,,response,,,,13,F,,,,,,Space,keypress(Space),,,,instrumental,,,,-------- -------- --- --- ---- --- --- ------ -- --------<br>---- --------- --- ------- ------------ ---------- ---------<br>--- ---------- ------- ---------- ------- -- survive. ----<br>---- --- ------ ----- ------ -- ---- --- ----- -- - -------<br>-------- -- --- --- -- ----- ----------- ----- -----------<br>---- --- ---------- --- ---- --- -- ----------,330687.1899999678,330686.624999973,330371.394,330383.2950000069,330388.112,330706.137,,23,survive.
screen,html.Screen,2_3_1_0_1_24,2021-04-24T17:31:34.603Z,,,,,,,,,,,,,,,,,51,,,,,,,,,,,,,,173.13299997581635,,response,,,,13,F,,,,,,Space,keypress(Space),,,,instrumental,,,,-------- -------- --- --- ---- --- --- ------ -- --------<br>---- --------- --- ------- ------------ ---------- ---------<br>--- ---------- ------- ---------- ------- -- -------- This<br>---- --- ------ ----- ------ -- ---- --- ----- -- - -------<br>-------- -- --- --- -- ----- ----------- ----- -----------<br>---- --- ---------- --- ---- --- -- ----------,330879.82999999076,330879.2699999758,330671.654,330687.3149999883,330706.137,330888.522,,24,This
screen,html.Screen,2_3_1_0_1_25,2021-04-24T17:31:35.059Z,,,,,,,,,,,,,,,,,51,,,,,,,,,,,,,,446.20299996424,,response,,,,13,F,,,,,,Space,keypress(Space),,,,instrumental,,,,-------- -------- --- --- ---- --- --- ------ -- --------<br>---- --------- --- ------- ------------ ---------- ---------<br>--- ---------- ------- ---------- ------- -- -------- ----<br>week --- ------ ----- ------ -- ---- --- ----- -- - -------<br>-------- -- --- --- -- ----- ----------- ----- -----------<br>---- --- ---------- --- ---- --- -- ----------,331335.30999999493,331334.72499996424,330871.812,330879.95500001125,330888.522,331338.893,,25,week
screen,html.Screen,2_3_1_0_1_26,2021-04-24T17:31:35.523Z,,,,,,,,,,,,,,,,,51,,,,,,,,,,,,,,459.96200000093086,,response,,,,13,F,,,,,,Space,keypress(Space),,,,instrumental,,,,-------- -------- --- --- ---- --- --- ------ -- --------<br>---- --------- --- ------- ------------ ---------- ---------<br>--- ---------- ------- ---------- ------- -- -------- ----<br>---- the ------ ----- ------ -- ---- --- ----- -- - -------<br>-------- -- --- --- -- ----- ----------- ----- -----------<br>---- --- ---------- --- ---- --- -- ----------,331799.4399999734,331798.8550000009,331322.174,331335.4249999975,331338.893,331805.929,,26,the
screen,html.Screen,2_3_1_0_1_27,2021-04-24T17:31:35.827Z,,,,,,,,,,,,,,,,,51,,,,,,,,,,,,,,297.0459999870509,,response,,,,13,F,,,,,,Space,keypress(Space),,,,instrumental,,,,-------- -------- --- --- ---- --- --- ------ -- --------<br>---- --------- --- ------- ------------ ---------- ---------<br>--- ---------- ------- ---------- ------- -- -------- ----<br>---- --- Senate ----- ------ -- ---- --- ----- -- - -------<br>-------- -- --- --- -- ----- ----------- ----- -----------<br>---- --- ---------- --- ---- --- -- ----------,332103.56000001775,332102.97499998705,331789.229,331799.560000014,331805.929,332106.194,,27,Senate
screen,html.Screen,2_3_1_0_1_28,2021-04-24T17:31:36.115Z,,,,,,,,,,,,,,,,,51,,,,,,,,,,,,,,284.71600001642946,,response,,,,13,F,,,,,,Space,keypress(Space),,,,instrumental,,,,-------- -------- --- --- ---- --- --- ------ -- --------<br>---- --------- --- ------- ------------ ---------- ---------<br>--- ---------- ------- ---------- ------- -- -------- ----<br>---- --- ------ seems ------ -- ---- --- ----- -- - -------<br>-------- -- --- --- -- ----- ----------- ----- -----------<br>---- --- ---------- --- ---- --- -- ----------,332391.5050000069,332390.91000001645,332089.481,332103.6750000203,332106.194,332406.441,,28,seems
screen,html.Screen,2_3_1_0_1_29,2021-04-24T17:31:36.380Z,,,,,,,,,,,,,,,,,51,,,,,,,,,,,,,,249.16399997810367,,response,,,,13,F,,,,,,Space,keypress(Space),,,,instrumental,,,,-------- -------- --- --- ---- --- --- ------ -- --------<br>---- --------- --- ------- ------------ ---------- ---------<br>--- ---------- ------- ---------- ------- -- -------- ----<br>---- --- ------ ----- poised -- ---- --- ----- -- - -------<br>-------- -- --- --- -- ----- ----------- ----- -----------<br>---- --- ---------- --- ---- --- -- ----------,332656.19499998866,332655.6049999781,332389.731,332391.6350000072,332406.441,332690.014,,29,poised
screen,html.Screen,2_3_1_0_1_30,2021-04-24T17:31:36.667Z,,,,,,,,,,,,,,,,,51,,,,,,,,,,,,,,252.9610000126413,,response,,,,13,F,,,,,,Space,keypress(Space),,,,instrumental,,,,-------- -------- --- --- ---- --- --- ------ -- --------<br>---- --------- --- ------- ------------ ---------- ---------<br>--- ---------- ------- ---------- ------- -- -------- ----<br>---- --- ------ ----- ------ to ---- --- ----- -- - -------<br>-------- -- --- --- -- ----- ----------- ----- -----------<br>---- --- ---------- --- ---- --- -- ----------,332943.52999998955,332942.97500001267,332673.321,332656.3099999912,332690.014,332956.889,,30,to
screen,html.Screen,2_3_1_0_1_31,2021-04-24T17:31:37.083Z,,,,,,,,,,,,,,,,,51,,,,,,,,,,,,,,402.1859999857261,,response,,,,13,F,,,,,,Space,keypress(Space),,,,instrumental,,,,-------- -------- --- --- ---- --- --- ------ -- --------<br>---- --------- --- ------- ------------ ---------- ---------<br>--- ---------- ------- ---------- ------- -- -------- ----<br>---- --- ------ ----- ------ -- join --- ----- -- - -------<br>-------- -- --- --- -- ----- ----------- ----- -----------<br>---- --- ---------- --- ---- --- -- ----------,333359.64500001865,333359.07499998575,332940.191,332943.65500001004,332956.889,333373.912,,31,join
screen,html.Screen,2_3_1_0_1_32,2021-04-24T17:31:37.387Z,,,,,,,,,,,,,,,,,51,,,,,,,,,,,,,,289.19299998506904,,response,,,,13,F,,,,,,Space,keypress(Space),,,,instrumental,,,,-------- -------- --- --- ---- --- --- ------ -- --------<br>---- --------- --- ------- ------------ ---------- ---------<br>--- ---------- ------- ---------- ------- -- -------- ----<br>---- --- ------ ----- ------ -- ---- the ----- -- - -------<br>-------- -- --- --- -- ----- ----------- ----- -----------<br>---- --- ---------- --- ---- --- -- ----------,333663.67999999784,333663.1049999851,333357.211,333359.76500000106,333373.912,333674.145,,32,the
screen,html.Screen,2_3_1_0_1_33,2021-04-24T17:31:37.747Z,,,,,,,,,,,,,,,,,51,,,,,,,,,,,,,,349.004999964498,,response,,,,13,F,,,,,,Space,keypress(Space),,,,instrumental,,,,-------- -------- --- --- ---- --- --- ------ -- --------<br>---- --------- --- ------- ------------ ---------- ---------<br>--- ---------- ------- ---------- ------- -- -------- ----<br>---- --- ------ ----- ------ -- ---- --- House -- - -------<br>-------- -- --- --- -- ----- ----------- ----- -----------<br>---- --- ---------- --- ---- --- -- ----------,334023.7249999773,334023.1499999645,333657.447,333663.79999998026,333674.145,334042.119,,33,House
screen,html.Screen,2_3_1_0_1_34,2021-04-24T17:31:37.963Z,,,,,,,,,,,,,,,,,51,,,,,,,,,,,,,,197.06099997501587,,response,,,,13,F,,,,,,Space,keypress(Space),,,,instrumental,,,,-------- -------- --- --- ---- --- --- ------ -- --------<br>---- --------- --- ------- ------------ ---------- ---------<br>--- ---------- ------- ---------- ------- -- -------- ----<br>---- --- ------ ----- ------ -- ---- --- ----- in - -------<br>-------- -- --- --- -- ----- ----------- ----- -----------<br>---- --- ---------- --- ---- --- -- ----------,334239.7549999878,334239.179999975,334007.749,334023.8450000179,334042.119,334241.284,,34,in
screen,html.Screen,2_3_1_0_1_35,2021-04-24T17:31:38.339Z,,,,,,,,,,,,,,,,,51,,,,,,,,,,,,,,373.9609999936074,,response,,,,13,F,,,,,,Space,keypress(Space),,,,instrumental,,,,-------- -------- --- --- ---- --- --- ------ -- --------<br>---- --------- --- ------- ------------ ---------- ---------<br>--- ---------- ------- ---------- ------- -- -------- ----<br>---- --- ------ ----- ------ -- ---- --- ----- -- a -------<br>-------- -- --- --- -- ----- ----------- ----- -----------<br>---- --- ---------- --- ---- --- -- ----------,334615.839999984,334615.2449999936,334224.583,334239.8749999702,334241.284,334624.954,,35,a
screen,html.Screen,2_3_1_0_1_36,2021-04-24T17:31:38.747Z,,,,,,,,,,,,,,,,,51,,,,,,,,,,,,,,398.3409999626456,,response,,,,13,F,,,,,,Space,keypress(Space),,,,instrumental,,,,-------- -------- --- --- ---- --- --- ------ -- --------<br>---- --------- --- ------- ------------ ---------- ---------<br>--- ---------- ------- ---------- ------- -- -------- ----<br>---- --- ------ ----- ------ -- ---- --- ----- -- - massive<br>-------- -- --- --- -- ----- ----------- ----- -----------<br>---- --- ---------- --- ---- --- -- ----------,335023.88499997323,335023.2949999627,334608.23,334615.95999996644,334624.954,335043.087,,36,massive
