sender,sender_type,sender_id,timestamp,meta,,Blues,Classical,Country,Dance,Electronic,Folk,Gospel,Hip-Hop,Jazz,Latin,Musical/Film,New-age,Pop,Prolific_id,Provo_ID,R&B,Rap,Reggae,Religious,Rock,Soul,Swing,Traditional,age,artist_name,correct,correctResponse,distraction,duration,education,ended_on,familiarity,gender,headphone_check_performance,item,list,music_frequency,offensiveness,pleasantness,position_correct,preference,response,response_action,snippet_file,song_name,song_rating,sound,stimulus_1,stimulus_2,stimulus_3,text,time_commit,time_end,time_render,time_run,time_show,time_switch,url,word,word_ID
Prolific ID,html.Form,0,2021-04-24T14:52:21.185Z,"{""labjs_version"":""20.2.2"",""labjs_build"":{""flavor"":""production"",""commit"":""a25486e0c714a0ae2ce03ff94b7bb6896854dcfa""},""location"":""https://run.pavlovia.org/mvasilev/prolific_music_c/"",""userAgent"":""Mozilla/5.0 (Windows NT 10.0; Win64; x64) AppleWebKit/537.36 (KHTML, like Gecko) Chrome/90.0.4430.85 Safari/537.36"",""platform"":""Win32"",""language"":""en-US"",""locale"":""en-US"",""timeZone"":""Europe/London"",""timezoneOffset"":-60,""screen_width"":1536,""screen_height"":864,""scroll_width"":1536,""scroll_height"":706,""window_innerWidth"":1536,""window_innerHeight"":754,""devicePixelRatio"":1.25}",,,,,,,,,,,,,,,5b50f81d2a4d0c0001adcf15,,,,,,,,,,,,,,,7867.525999937787,,form submission,,,,,,,,,,,,,,,,,,,,,18117.89500003215,18116.949999937788,10133.164,10131.5300000133,10249.424,18140.745,{},,
Introduction,html.Screen,1_0,2021-04-24T14:52:26.899Z,,,,,,,,,,,,,,,,,,,,,,,,,,,,,,,5687.87499992747,,response,,,,,,,,,,,continue,click button,,,,,,,,,23832.39999995567,23828.61999992747,18107.905,18118.980000028387,18140.745,23834.662,,,
Volume calibration,html.Screen,1_1,2021-04-24T14:52:45.618Z,,,,,,,,,,,,,,,,,,,,,,,,,,,,,,,18713.393000021122,,response,,,,,,,,,,,continue,click button,,,,,,,,,42550.919999950565,42548.05500002112,23818.302,23832.609999924898,23834.662,42564.227,,,
Task instructions,html.Screen,1_2,2021-04-24T14:52:53.047Z,,,,,,,,,,,,,,,,,,,,,,,,,,,,,,,7414.1679999837215,,response,,,,,,,,,,,continue,click button,,,,,,,,,49979.64499995578,49978.39499998372,42547.237,42551.06500000693,42564.227,49989.085,,,
Sounds,html.Screen,1_3_0_0,2021-04-24T14:52:57.288Z,,,,,,,,,,,,,,,,,,,,,,,,,,,,,,,4245.406000000003,,timeout,,,,,,,,,3,,,,,,,,O,I,S,,54221.35000000708,54217.873,49972.518,49979.9949999433,49989.085,54234.491,,,
Judgement,html.Screen,1_3_0_1,2021-04-24T14:52:59.368Z,,,,,,,,,,,,,,,,,,,,,,,,,,,,true,3,,2064.108999980068,,response,,,,,,,,,3,,3,click #choice-3,,,,,O,I,S,,56301.00500001572,56298.59999998007,54217.873,54221.56500001438,54234.491,56315.643,,,
Trial,flow.Sequence,1_3_0,2021-04-24T14:52:59.369Z,,,,,,,,,,,,,,,,,,,,,,,,,,,,,,,6309.514999980071,,completion,,,,,,,,,3,,,,,,,,O,I,S,,56301.57000001054,56298.59999998007,49972.518,49979.92499999236,49989.085,56315.643,,,
Sounds,html.Screen,1_3_1_0,2021-04-24T14:53:03.613Z,,,,,,,,,,,,,,,,,,,,,,,,,,,,,,,4245.470000000001,,timeout,,,,,,,,,1,,,,,,,,S,O,I,,60545.464999973774,60544.588,56298.943,56301.800000015646,56315.643,60561.113,,,
Judgement,html.Screen,1_3_1_1,2021-04-24T14:53:05.708Z,,,,,,,,,,,,,,,,,,,,,,,,,,,,true,1,,2078.6169999371195,,response,,,,,,,,,1,,1,click #choice-1,,,,,S,O,I,,62640.91999991797,62639.72999993712,60544.588,60545.679999981076,60561.113,62641.817,,,
Trial,flow.Sequence,1_3_1,2021-04-24T14:53:05.708Z,,,,,,,,,,,,,,,,,,,,,,,,,,,,,,,6324.086999937121,,completion,,,,,,,,,1,,,,,,,,S,O,I,,62641.079999972135,62639.72999993712,56298.943,56301.74000002444,56315.643,62641.817,,,
Sounds,html.Screen,1_3_2_0,2021-04-24T14:53:09.938Z,,,,,,,,,,,,,,,,,,,,,,,,,,,,,,,4245.3529999999955,,timeout,,,,,,,,,1,,,,,,,,S,I,O,,66870.87999994401,66870.487,62625.335,62641.17999991868,62641.817,66887.17,,,
Judgement,html.Screen,1_3_2_1,2021-04-24T14:53:10.856Z,,,,,,,,,,,,,,,,,,,,,,,,,,,,true,1,,900.9099999693426,,response,,,,,,,,,1,,1,click #choice-1,,,,,S,I,O,,67789.04499998316,67788.07999996934,66870.487,66870.9749999689,66887.17,67802.824,,,
Trial,flow.Sequence,1_3_2,2021-04-24T14:53:10.856Z,,,,,,,,,,,,,,,,,,,,,,,,,,,,,,,5146.262999969338,,completion,,,,,,,,,1,,,,,,,,S,I,O,,67789.25999999046,67788.07999996934,62625.335,62641.13999996334,62641.817,67802.824,,,
Sounds,html.Screen,1_3_3_0,2021-04-24T14:53:15.100Z,,,,,,,,,,,,,,,,,,,,,,,,,,,,,,,4245.331000000006,,timeout,,,,,,,,,2,,,,,,,,I,S,O,,72033.11999992002,72032.031,67786.202,67789.42499996629,67802.824,72048.155,,,
Judgement,html.Screen,1_3_3_1,2021-04-24T14:53:15.927Z,,,,,,,,,,,,,,,,,,,,,,,,,,,,true,2,,810.1399999254209,,response,,,,,,,,,2,,2,click #choice-2,,,,,I,S,O,,72859.53499993775,72858.29499992542,72032.031,72033.31500000786,72048.155,72863.967,,,
Trial,flow.Sequence,1_3_3,2021-04-24T14:53:15.927Z,,,,,,,,,,,,,,,,,,,,,,,,,,,,,,,5055.470999925426,,completion,,,,,,,,,2,,,,,,,,I,S,O,,72859.8050000146,72858.29499992542,67786.202,67789.37000001315,67802.824,72863.967,,,
Sounds,html.Screen,1_3_4_0,2021-04-24T14:53:20.161Z,,,,,,,,,,,,,,,,,,,,,,,,,,,,,,,4245.391999999993,,timeout,,,,,,,,,3,,,,,,,,I,O,S,,77093.89499993995,77092.8,72847.682,72859.96999999043,72863.967,77109.359,,,
Judgement,html.Screen,1_3_4_1,2021-04-24T14:53:21.280Z,,,,,,,,,,,,,,,,,,,,,,,,,,,,true,3,,1102.7059999706107,,response,,,,,,,,,3,,3,click #choice-3,,,,,I,O,S,,78213.24499999173,78212.06499997061,77092.8,77094.07999995165,77109.359,78225.239,,,
Trial,flow.Sequence,1_3_4,2021-04-24T14:53:21.281Z,,,,,,,,,,,,,,,,,,,,,,,,,,,,,,,5348.097999970603,,completion,,,,,,,,,3,,,,,,,,I,O,S,,78213.48999999464,78212.06499997061,72847.682,72859.91999995895,72863.967,78225.239,,,
Sounds,html.Screen,1_3_5_0,2021-04-24T14:53:25.522Z,,,,,,,,,,,,,,,,,,,,,,,,,,,,,,,4244.856,,timeout,,,,,,,,,2,,,,,,,,O,S,I,,82454.4749999186,82453.7,78208.573,78213.64999993239,78225.239,82470.095,,,
Judgement,html.Screen,1_3_5_1,2021-04-24T14:53:26.241Z,,,,,,,,,,,,,,,,,,,,,,,,,,,,true,2,,702.2149999362591,,response,,,,,,,,,2,,2,click #choice-2,,,,,O,S,I,,83173.94999996759,83172.30999993626,82453.7,82454.66499996837,82470.095,83186.104,,,
Trial,flow.Sequence,1_3_5,2021-04-24T14:53:26.241Z,,,,,,,,,,,,,,,,,,,,,,,,,,,,,,,4947.070999936259,,completion,,,,,,,,,2,,,,,,,,O,S,I,,83174.23499992583,83172.30999993626,78208.573,78213.60499993898,78225.239,83186.104,,,
Task,flow.Loop,1_3,2021-04-24T14:53:26.244Z,,,,,,,,,,,,,,,,,,,,,,,,,,,,,,,33183.22499993626,,completion,,,1,,,,,,,,,,,,,,,,,,83177.18499992043,83172.30999993626,49972.518,49979.83500000555,49989.085,83186.104,,,
Trap,html.Screen,1_4,2021-04-24T14:53:26.246Z,,,,,,,,,,,,,,,,,,,,,,,,,,,,,,,NaN,,skipped,,,,,,,,,,,,,,,,,,,,,83179.23000000883,83172.30999993626,,83179.05999999493,,83186.104,,,
Thanks,html.Screen,1_5,2021-04-24T14:53:28.892Z,,,,,,,,,,,,,,,,,,,,,,,,,,,,,,,2637.2859999177017,,response,,,,,,,,,,,continue,click button,,,,,,,,,85824.5449999813,85823.38999991771,83169.829,83179.3099999195,83186.104,89912.044,,,
Headphone screening,flow.Sequence,1,2021-04-24T14:53:28.892Z,,,,,,,,,,,,,,,,,,,,,,,,,,,,,,,67682.64499991771,,completion,,,,,,,,,,,,,,,,,,,,,85824.79999994393,85823.38999991771,18107.905,18118.900000001304,18140.745,89912.044,,,
Instructions,html.Page,2_0,2021-04-24T14:53:38.479Z,,,,,,,,,,,,,,,,,,,,,,,,,,,,,,,5499.81599999289,,form submission,,,,,,,,,,,,,,,,,,,,,95412.1499999892,95411.85999999288,89895.221,89922.86499997135,89912.044,95422.651,,,
Holding screen,html.Screen,2_1_0_0,2021-04-24T14:53:48.481Z,,,,,,,,,,,,,,,,,,,,,,,,,,,,,,,10022.172999999995,,timeout,,,,,,,,,,,,,,,,,,,,,105414.17999996338,105412.101,95405.941,95412.41500002798,95422.651,105444.824,,,
screen,html.Screen,2_1_0_1_0,2021-04-24T14:53:49.447Z,,,,,,,,,,,,,,,,,53,,,,,,,,,,,,,,930.3460000139021,,response,,,,99,,,,,,,Space,keypress(Space),,,,,,,,When -- ----- -- ------ - ------- --- ----------<br>------------- ------ ------ ---- ---- ------- ----- -- ----<br>-------- ------- -- ---------- --- - --- ----- ----- ----<br>---- --- --- ----- --- ---- ---- ------- ----- ---- -------<br>--- --- -- ----- -- --- ---- -- --- ---- -- ------ ------<br>--- ----- -- ----,106380.47999993432,106375.1700000139,105412.101,105414.44500000216,105444.824,106393.891,,0,When
screen,html.Screen,2_1_0_1_1,2021-04-24T14:53:50.057Z,,,,,,,,,,,,,,,,,53,,,,,,,,,,,,,,595.119000019331,,response,,,,99,,,,,,,Space,keypress(Space),,,,,,,,---- it ----- -- ------ - ------- --- ----------<br>------------- ------ ------ ---- ---- ------- ----- -- ----<br>-------- ------- -- ---------- --- - --- ----- ----- ----<br>---- --- --- ----- --- ---- ---- ------- ----- ---- -------<br>--- --- -- ----- -- --- ---- -- --- ---- -- ------ ------<br>--- ----- -- ----,106989.85499993432,106989.01000001933,106377.204,106380.6699999841,106393.891,106993.078,,1,it
screen,html.Screen,2_1_0_1_2,2021-04-24T14:53:50.623Z,,,,,,,,,,,,,,,,,53,,,,,,,,,,,,,,562.2969999962806,,response,,,,99,,,,,,,Space,keypress(Space),,,,,,,,---- -- comes -- ------ - ------- --- ----------<br>------------- ------ ------ ---- ---- ------- ----- -- ----<br>-------- ------- -- ---------- --- - --- ----- ----- ----<br>---- --- --- ----- --- ---- ---- ------- ----- ---- -------<br>--- --- -- ----- -- --- ---- -- --- ---- -- ------ ------<br>--- ----- -- ----,107556.25000002328,107555.37499999627,106977.014,106990.02499994822,106993.078,107559.177,,2,comes
screen,html.Screen,2_1_0_1_3,2021-04-24T14:53:51.016Z,,,,,,,,,,,,,,,,,53,,,,,,,,,,,,,,389.04799994188943,,response,,,,99,,,,,,,Space,keypress(Space),,,,,,,,---- -- ----- to ------ - ------- --- ----------<br>------------- ------ ------ ---- ---- ------- ----- -- ----<br>-------- ------- -- ---------- --- - --- ----- ----- ----<br>---- --- --- ----- --- ---- ---- ------- ----- ---- -------<br>--- --- -- ----- -- --- ---- -- --- ---- -- ------ ------<br>--- ----- -- ----,107949.25499998499,107948.22499994189,107542.598,107556.41999992076,107559.177,107959.341,,3,to
screen,html.Screen,2_1_0_1_4,2021-04-24T14:53:51.547Z,,,,,,,,,,,,,,,,,53,,,,,,,,,,,,,,520.0889999484789,,response,,,,99,,,,,,,Space,keypress(Space),,,,,,,,---- -- ----- -- having - ------- --- ----------<br>------------- ------ ------ ---- ---- ------- ----- -- ----<br>-------- ------- -- ---------- --- - --- ----- ----- ----<br>---- --- --- ----- --- ---- ---- ------- ----- ---- -------<br>--- --- -- ----- -- --- ---- -- --- ---- -- ------ ------<br>--- ----- -- ----,108480.16999999527,108479.42999994848,107942.408,107949.42499999888,107959.341,108491.763,,4,having
screen,html.Screen,2_1_0_1_5,2021-04-24T14:53:51.910Z,,,,,,,,,,,,,,,,,53,,,,,,,,,,,,,,350.7820000213396,,response,,,,99,,,,,,,Space,keypress(Space),,,,,,,,---- -- ----- -- ------ a ------- --- ----------<br>------------- ------ ------ ---- ---- ------- ----- -- ----<br>-------- ------- -- ---------- --- - --- ----- ----- ----<br>---- --- --- ----- --- ---- ---- ------- ----- ---- -------<br>--- --- -- ----- -- --- ---- -- --- ---- -- ------ ------<br>--- ----- -- ----,108843.37000001688,108842.54500002135,108474.925,108480.34000000916,108491.763,108857.828,,5,a
screen,html.Screen,2_1_0_1_6,2021-04-24T14:53:52.588Z,,,,,,,,,,,,,,,,,53,,,,,,,,,,,,,,662.3720000281319,,response,,,,99,,,,,,,Space,keypress(Space),,,,,,,,---- -- ----- -- ------ - lasting --- ----------<br>------------- ------ ------ ---- ---- ------- ----- -- ----<br>-------- ------- -- ---------- --- - --- ----- ----- ----<br>---- --- --- ----- --- ---- ---- ------- ----- ---- -------<br>--- --- -- ----- -- --- ---- -- --- ---- -- ------ ------<br>--- ----- -- ----,109520.9549999563,109520.20000002813,108841.704,108843.54499995243,108857.828,109523.622,,6,lasting
screen,html.Screen,2_1_0_1_7,2021-04-24T14:53:53.032Z,,,,,,,,,,,,,,,,,53,,,,,,,,,,,,,,440.7829999769747,,response,,,,99,,,,,,,Space,keypress(Space),,,,,,,,---- -- ----- -- ------ - ------- and ----------<br>------------- ------ ------ ---- ---- ------- ----- -- ----<br>-------- ------- -- ---------- --- - --- ----- ----- ----<br>---- --- --- ----- --- ---- ---- ------- ----- ---- -------<br>--- --- -- ----- -- --- ---- -- --- ---- -- ------ ------<br>--- ----- -- ----,109965.22000001278,109964.40499997698,109507.734,109521.11999993213,109523.622,109973.271,,7,and
screen,html.Screen,2_1_0_1_8,2021-04-24T14:53:53.417Z,,,,,,,,,,,,,,,,,53,,,,,,,,,,,,,,376.5789999987028,,response,,,,99,,,,,,,Space,keypress(Space),,,,,,,,---- -- ----- -- ------ - ------- --- fulfilling<br>------------- ------ ------ ---- ---- ------- ----- -- ----<br>-------- ------- -- ---------- --- - --- ----- ----- ----<br>---- --- --- ----- --- ---- ---- ------- ----- ---- -------<br>--- --- -- ----- -- --- ---- -- --- ---- -- ------ ------<br>--- ----- -- ----,110350.51999997813,110349.8499999987,109956.678,109965.3849999886,109973.271,110356.036,,8,fulfilling
screen,html.Screen,2_1_0_1_9,2021-04-24T14:53:53.914Z,,,,,,,,,,,,,,,,,53,,,,,,,,,,,,,,490.55399997191853,,response,,,,99,,,,,,,Space,keypress(Space),,,,,,,,"---- -- ----- -- ------ - ------- --- ----------<br>relationship, ------ ------ ---- ---- ------- ----- -- ----<br>-------- ------- -- ---------- --- - --- ----- ----- ----<br>---- --- --- ----- --- ---- ---- ------- ----- ---- -------<br>--- --- -- ----- -- --- ---- -- --- ---- -- ------ ------<br>--- ----- -- ----",110847.42999996524,110846.58999997191,110339.6,110350.6800000323,110356.036,110855.817,,9,"relationship,"
screen,html.Screen,2_1_0_1_10,2021-04-24T14:53:54.364Z,,,,,,,,,,,,,,,,,53,,,,,,,,,,,,,,440.068000028652,,response,,,,99,,,,,,,Space,keypress(Space),,,,,,,,---- -- ----- -- ------ - ------- --- ----------<br>------------- common ------ ---- ---- ------- ----- -- ----<br>-------- ------- -- ---------- --- - --- ----- ----- ----<br>---- --- --- ----- --- ---- ---- ------- ----- ---- -------<br>--- --- -- ----- -- --- ---- -- --- ---- -- ------ ------<br>--- ----- -- ----,111296.68000002857,111295.88500002865,110838.975,110847.59000001941,110855.817,111305.068,,10,common
screen,html.Screen,2_1_0_1_11,2021-04-24T14:53:54.882Z,,,,,,,,,,,,,,,,,53,,,,,,,,,,,,,,509.2419999288104,,response,,,,99,,,,,,,Space,keypress(Space),,,,,,,,---- -- ----- -- ------ - ------- --- ----------<br>------------- ------ wisdom ---- ---- ------- ----- -- ----<br>-------- ------- -- ---------- --- - --- ----- ----- ----<br>---- --- --- ----- --- ---- ---- ------- ----- ---- -------<br>--- --- -- ----- -- --- ---- -- --- ---- -- ------ ------<br>--- ----- -- ----,111815.14500000048,111814.30999992881,111288.501,111296.84999992605,111305.068,111821.238,,11,wisdom
screen,html.Screen,2_1_0_1_12,2021-04-24T14:53:55.528Z,,,,,,,,,,,,,,,,,53,,,,,,,,,,,,,,639.0519999590615,,response,,,,99,,,,,,,Space,keypress(Space),,,,,,,,---- -- ----- -- ------ - ------- --- ----------<br>------------- ------ ------ says ---- ------- ----- -- ----<br>-------- ------- -- ---------- --- - --- ----- ----- ----<br>---- --- --- ----- --- ---- ---- ------- ----- ---- -------<br>--- --- -- ----- -- --- ---- -- --- ---- -- ------ ------<br>--- ----- -- ----,112461.00000001024,112460.28999995906,111805.017,111815.31500001438,111821.238,112470.558,,12,says
screen,html.Screen,2_1_0_1_13,2021-04-24T14:53:55.951Z,,,,,,,,,,,,,,,,,53,,,,,,,,,,,,,,413.00700002555095,,response,,,,99,,,,,,,Space,keypress(Space),,,,,,,,---- -- ----- -- ------ - ------- --- ----------<br>------------- ------ ------ ---- that ------- ----- -- ----<br>-------- ------- -- ---------- --- - --- ----- ----- ----<br>---- --- --- ----- --- ---- ---- ------- ----- ---- -------<br>--- --- -- ----- -- --- ---- -- --- ---- -- ------ ------<br>--- ----- -- ----,112884.36499994714,112883.56500002556,112453.95,112461.17000002414,112470.558,112886.635,,13,that
screen,html.Screen,2_1_0_1_14,2021-04-24T14:53:56.418Z,,,,,,,,,,,,,,,,,53,,,,,,,,,,,,,,463.7949999913253,,response,,,,99,,,,,,,Space,keypress(Space),,,,,,,,---- -- ----- -- ------ - ------- --- ----------<br>------------- ------ ------ ---- ---- feeling ----- -- ----<br>-------- ------- -- ---------- --- - --- ----- ----- ----<br>---- --- --- ----- --- ---- ---- ------- ----- ---- -------<br>--- --- -- ----- -- --- ---- -- --- ---- -- ------ ------<br>--- ----- -- ----,113351.29499994218,113350.42999999132,112870.652,112884.53499996103,112886.635,113381.873,,14,feeling
screen,html.Screen,2_1_0_1_15,2021-04-24T14:53:56.950Z,,,,,,,,,,,,,,,,,53,,,,,,,,,,,,,,500.5169999260834,,response,,,,99,,,,,,,Space,keypress(Space),,,,,,,,---- -- ----- -- ------ - ------- --- ----------<br>------------- ------ ------ ---- ---- ------- close -- ----<br>-------- ------- -- ---------- --- - --- ----- ----- ----<br>---- --- --- ----- --- ---- ---- ------- ----- ---- -------<br>--- --- -- ----- -- --- ---- -- --- ---- -- ------ ------<br>--- ----- -- ----,113883.18499992602,113882.38999992609,113336.57,113351.46999999415,113381.873,113885.495,,15,close
screen,html.Screen,2_1_0_1_16,2021-04-24T14:53:57.284Z,,,,,,,,,,,,,,,,,53,,,,,,,,,,,,,,330.7449999797391,,response,,,,99,,,,,,,Space,keypress(Space),,,,,,,,---- -- ----- -- ------ - ------- --- ----------<br>------------- ------ ------ ---- ---- ------- ----- to ----<br>-------- ------- -- ---------- --- - --- ----- ----- ----<br>---- --- --- ----- --- ---- ---- ------- ----- ---- -------<br>--- --- -- ----- -- --- ---- -- --- ---- -- ------ ------<br>--- ----- -- ----,114217.00499998406,114216.23999997973,113869.555,113883.35000001825,113885.495,114244.151,,16,to
screen,html.Screen,2_1_0_1_17,2021-04-24T14:53:57.655Z,,,,,,,,,,,,,,,,,53,,,,,,,,,,,,,,342.8939999347349,,response,,,,99,,,,,,,Space,keypress(Space),,,,,,,,---- -- ----- -- ------ - ------- --- ----------<br>------------- ------ ------ ---- ---- ------- ----- -- your<br>-------- ------- -- ---------- --- - --- ----- ----- ----<br>---- --- --- ----- --- ---- ---- ------- ----- ---- -------<br>--- --- -- ----- -- --- ---- -- --- ---- -- ------ ------<br>--- ----- -- ----,114587.76499994565,114587.04499993473,114202.401,114217.17499999795,114244.151,114601.732,,17,your
screen,html.Screen,2_1_0_1_18,2021-04-24T14:53:58.181Z,,,,,,,,,,,,,,,,,53,,,,,,,,,,,,,,512.1380000010395,,response,,,,99,,,,,,,Space,keypress(Space),,,,,,,,---- -- ----- -- ------ - ------- --- ----------<br>------------- ------ ------ ---- ---- ------- ----- -- ----<br>romantic ------- -- ---------- --- - --- ----- ----- ----<br>---- --- --- ----- --- ---- ---- ------- ----- ---- -------<br>--- --- -- ----- -- --- ---- -- --- ---- -- ------ ------<br>--- ----- -- ----,115114.65000000317,115113.87000000104,114585.312,114587.93999999762,114601.732,115117.522,,18,romantic
screen,html.Screen,2_1_0_1_19,2021-04-24T14:53:58.607Z,,,,,,,,,,,,,,,,,53,,,,,,,,,,,,,,421.51300002343487,,response,,,,99,,,,,,,Space,keypress(Space),,,,,,,,---- -- ----- -- ------ - ------- --- ----------<br>------------- ------ ------ ---- ---- ------- ----- -- ----<br>-------- partner -- ---------- --- - --- ----- ----- ----<br>---- --- --- ----- --- ---- ---- ------- ----- ---- -------<br>--- --- -- ----- -- --- ---- -- --- ---- -- ------ ------<br>--- ----- -- ----,115539.86000001896,115539.03500002343,115101.468,115114.80500001926,115117.522,115550.412,,19,partner
screen,html.Screen,2_1_0_1_20,2021-04-24T14:53:59.055Z,,,,,,,,,,,,,,,,,53,,,,,,,,,,,,,,436.5180000136752,,response,,,,99,,,,,,,Space,keypress(Space),,,,,,,,---- -- ----- -- ------ - ------- --- ----------<br>------------- ------ ------ ---- ---- ------- ----- -- ----<br>-------- ------- is ---------- --- - --- ----- ----- ----<br>---- --- --- ----- --- ---- ---- ------- ----- ---- -------<br>--- --- -- ----- -- --- ---- -- --- ---- -- ------ ------<br>--- ----- -- ----,115987.7400000114,115986.93000001367,115533.837,115540.04500003066,115550.412,116000.283,,20,is
screen,html.Screen,2_1_0_1_21,2021-04-24T14:53:59.476Z,,,,,,,,,,,,,,,,,53,,,,,,,,,,,,,,407.92199998517754,,response,,,,99,,,,,,,Space,keypress(Space),,,,,,,,---- -- ----- -- ------ - ------- --- ----------<br>------------- ------ ------ ---- ---- ------- ----- -- ----<br>-------- ------- -- paramount. --- - --- ----- ----- ----<br>---- --- --- ----- --- ---- ---- ------- ----- ---- -------<br>--- --- -- ----- -- --- ---- -- --- ---- -- ------ ------<br>--- ----- -- ----,116408.96000002977,116408.20499998517,115983.63,115987.9100000253,116000.283,116416.273,,21,paramount.
screen,html.Screen,2_1_0_1_22,2021-04-24T14:54:00.110Z,,,,,,,,,,,,,,,,,53,,,,,,,,,,,,,,625.806999926499,,response,,,,99,,,,,,,Space,keypress(Space),,,,,,,,---- -- ----- -- ------ - ------- --- ----------<br>------------- ------ ------ ---- ---- ------- ----- -- ----<br>-------- ------- -- ---------- But - --- ----- ----- ----<br>---- --- --- ----- --- ---- ---- ------- ----- ---- -------<br>--- --- -- ----- -- --- ---- -- --- ---- -- ------ ------<br>--- ----- -- ----,117042.76999994181,117042.0799999265,116399.954,116409.12500000559,116416.273,117049.023,,22,But
screen,html.Screen,2_1_0_1_23,2021-04-24T14:54:00.511Z,,,,,,,,,,,,,,,,,53,,,,,,,,,,,,,,394.56699992255017,,response,,,,99,,,,,,,Space,keypress(Space),,,,,,,,---- -- ----- -- ------ - ------- --- ----------<br>------------- ------ ------ ---- ---- ------- ----- -- ----<br>-------- ------- -- ---------- --- a --- ----- ----- ----<br>---- --- --- ----- --- ---- ---- ------- ----- ---- -------<br>--- --- -- ----- -- --- ---- -- --- ---- -- ------ ------<br>--- ----- -- ----,117444.2300000228,117443.58999992255,117032.433,117042.9399999557,117049.023,117448.234,,23,a
screen,html.Screen,2_1_0_1_24,2021-04-24T14:54:00.877Z,,,,,,,,,,,,,,,,,53,,,,,,,,,,,,,,360.7210000149789,,response,,,,99,,,,,,,Space,keypress(Space),,,,,,,,---- -- ----- -- ------ - ------- --- ----------<br>------------- ------ ------ ---- ---- ------- ----- -- ----<br>-------- ------- -- ---------- --- - new ----- ----- ----<br>---- --- --- ----- --- ---- ---- ------- ----- ---- -------<br>--- --- -- ----- -- --- ---- -- --- ---- -- ------ ------<br>--- ----- -- ----,117809.72499994095,117808.95500001498,117432.07,117444.38499992248,117448.234,117814.505,,24,new
screen,html.Screen,2_1_0_1_25,2021-04-24T14:54:01.238Z,,,,,,,,,,,,,,,,,53,,,,,,,,,,,,,,355.5249999210937,,response,,,,99,,,,,,,Space,keypress(Space),,,,,,,,---- -- ----- -- ------ - ------- --- ----------<br>------------- ------ ------ ---- ---- ------- ----- -- ----<br>-------- ------- -- ---------- --- - --- study ----- ----<br>---- --- --- ----- --- ---- ---- ------- ----- ---- -------<br>--- --- -- ----- -- --- ---- -- --- ---- -- ------ ------<br>--- ----- -- ----,118170.74999993201,118170.0299999211,117798.051,117809.89499995485,117814.505,118180.833,,25,study
screen,html.Screen,2_1_0_1_26,2021-04-24T14:54:01.625Z,,,,,,,,,,,,,,,,,53,,,,,,,,,,,,,,376.43199995216855,,response,,,,99,,,,,,,Space,keypress(Space),,,,,,,,---- -- ----- -- ------ - ------- --- ----------<br>------------- ------ ------ ---- ---- ------- ----- -- ----<br>-------- ------- -- ---------- --- - --- ----- finds ----<br>---- --- --- ----- --- ---- ---- ------- ----- ---- -------<br>--- --- -- ----- -- --- ---- -- --- ---- -- ------ ------<br>--- ----- -- ----,118557.99000000115,118557.26499995217,118164.693,118170.91999994591,118180.833,118564.026,,26,finds
screen,html.Screen,2_1_0_1_27,2021-04-24T14:54:02.012Z,,,,,,,,,,,,,,,,,53,,,,,,,,,,,,,,380.4340000279044,,response,,,,99,,,,,,,Space,keypress(Space),,,,,,,,---- -- ----- -- ------ - ------- --- ----------<br>------------- ------ ------ ---- ---- ------- ----- -- ----<br>-------- ------- -- ---------- --- - --- ----- ----- that<br>---- --- --- ----- --- ---- ---- ------- ----- ---- -------<br>--- --- -- ----- -- --- ---- -- --- ---- -- ------ ------<br>--- ----- -- ----,118945.134999929,118944.4600000279,118547.597,118558.16499993671,118564.026,118975.005,,27,that
screen,html.Screen,2_1_0_1_28,2021-04-24T14:54:02.452Z,,,,,,,,,,,,,,,,,53,,,,,,,,,,,,,,408.9700000042794,,response,,,,99,,,,,,,Space,keypress(Space),,,,,,,,---- -- ----- -- ------ - ------- --- ----------<br>------------- ------ ------ ---- ---- ------- ----- -- ----<br>-------- ------- -- ---------- --- - --- ----- ----- ----<br>it's --- --- ----- --- ---- ---- ------- ----- ---- -------<br>--- --- -- ----- -- --- ---- -- --- ---- -- ------ ------<br>--- ----- -- ----,119384.78999992367,119383.97500000428,118930.308,118945.31500001904,118975.005,119396.464,,28,it's
screen,html.Screen,2_1_0_1_29,2021-04-24T14:54:03.209Z,,,,,,,,,,,,,,,,,53,,,,,,,,,,,,,,744.5559999809193,,response,,,,99,,,,,,,Space,keypress(Space),,,,,,,,---- -- ----- -- ------ - ------- --- ----------<br>------------- ------ ------ ---- ---- ------- ----- -- ----<br>-------- ------- -- ---------- --- - --- ----- ----- ----<br>---- not --- ----- --- ---- ---- ------- ----- ---- -------<br>--- --- -- ----- -- --- ---- -- --- ---- -- ------ ------<br>--- ----- -- ----,120141.73499995377,120141.01999998093,119380.083,119384.96499997564,119396.464,120145.306,,29,not
screen,html.Screen,2_1_0_1_30,2021-04-24T14:54:03.579Z,,,,,,,,,,,,,,,,,53,,,,,,,,,,,,,,365.88900002824084,,response,,,,99,,,,,,,Space,keypress(Space),,,,,,,,---- -- ----- -- ------ - ------- --- ----------<br>------------- ------ ------ ---- ---- ------- ----- -- ----<br>-------- ------- -- ---------- --- - --- ----- ----- ----<br>---- --- how ----- --- ---- ---- ------- ----- ---- -------<br>--- --- -- ----- -- --- ---- -- --- ---- -- ------ ------<br>--- ----- -- ----,120511.98499999009,120511.19500002824,120129.2,120141.89999992959,120145.306,120528.26,,30,how
screen,html.Screen,2_1_0_1_31,2021-04-24T14:54:04.251Z,,,,,,,,,,,,,,,,,53,,,,,,,,,,,,,,655.3349999513157,,response,,,,99,,,,,,,Space,keypress(Space),,,,,,,,---- -- ----- -- ------ - ------- --- ----------<br>------------- ------ ------ ---- ---- ------- ----- -- ----<br>-------- ------- -- ---------- --- - --- ----- ----- ----<br>---- --- --- close --- ---- ---- ------- ----- ---- -------<br>--- --- -- ----- -- --- ---- -- --- ---- -- ------ ------<br>--- ----- -- ----,121184.3649999937,121183.59499995131,120512.127,120512.15999992564,120528.26,121194.6,,31,close
screen,html.Screen,2_1_0_1_32,2021-04-24T14:54:04.547Z,,,,,,,,,,,,,,,,,53,,,,,,,,,,,,,,285.1699999762641,,response,,,,99,,,,,,,Space,keypress(Space),,,,,,,,---- -- ----- -- ------ - ------- --- ----------<br>------------- ------ ------ ---- ---- ------- ----- -- ----<br>-------- ------- -- ---------- --- - --- ----- ----- ----<br>---- --- --- ----- you ---- ---- ------- ----- ---- -------<br>--- --- -- ----- -- --- ---- -- --- ---- -- ------ ------<br>--- ----- -- ----,121480.57499993593,121479.76999997627,121178.001,121184.52999996953,121194.6,121494.324,,32,you
screen,html.Screen,2_1_0_1_33,2021-04-24T14:54:04.961Z,,,,,,,,,,,,,,,,,53,,,,,,,,,,,,,,399.4559999257617,,response,,,,99,,,,,,,Space,keypress(Space),,,,,,,,---- -- ----- -- ------ - ------- --- ----------<br>------------- ------ ------ ---- ---- ------- ----- -- ----<br>-------- ------- -- ---------- --- - --- ----- ----- ----<br>---- --- --- ----- --- feel ---- ------- ----- ---- -------<br>--- --- -- ----- -- --- ---- -- --- ---- -- ------ ------<br>--- ----- -- ----,121894.54000000842,121893.77999992575,121477.761,121480.7499999879,121494.324,121910.102,,33,feel
screen,html.Screen,2_1_0_1_34,2021-04-24T14:54:05.306Z,,,,,,,,,,,,,,,,,53,,,,,,,,,,,,,,327.72299996014044,,response,,,,99,,,,,,,Space,keypress(Space),,,,,,,,---- -- ----- -- ------ - ------- --- ----------<br>------------- ------ ------ ---- ---- ------- ----- -- ----<br>-------- ------- -- ---------- --- - --- ----- ----- ----<br>---- --- --- ----- --- ---- that ------- ----- ---- -------<br>--- --- -- ----- -- --- ---- -- --- ---- -- ------ ------<br>--- ----- -- ----,122238.87000000104,122237.82499996014,121893.96,121894.71000002231,121910.102,122242.977,,34,that
screen,html.Screen,2_1_0_1_35,2021-04-24T14:54:06.049Z,,,,,,,,,,,,,,,,,53,,,,,,,,,,,,,,738.1929999263521,,response,,,,99,,,,,,,Space,keypress(Space),,,,,,,,---- -- ----- -- ------ - ------- --- ----------<br>------------- ------ ------ ---- ---- ------- ----- -- ----<br>-------- ------- -- ---------- --- - --- ----- ----- ----<br>---- --- --- ----- --- ---- ---- matters ----- ---- -------<br>--- --- -- ----- -- --- ---- -- --- ---- -- ------ ------<br>--- ----- -- ----,122981.99499992188,122981.16999992635,122226.813,122239.03499997687,122242.977,122992.204,,35,matters
screen,html.Screen,2_1_0_1_36,2021-04-24T14:54:06.529Z,,,,,,,,,,,,,,,,,53,,,,,,,,,,,,,,469.1859999531007,,response,,,,99,,,,,,,Space,keypress(Space),,,,,,,,"---- -- ----- -- ------ - ------- --- ----------<br>------------- ------ ------ ---- ---- ------- ----- -- ----<br>-------- ------- -- ---------- --- - --- ----- ----- ----<br>---- --- --- ----- --- ---- ---- ------- most, ---- -------<br>--- --- -- ----- -- --- ---- -- --- ---- -- ------ ------<br>--- ----- -- ----",123462.18000003137,123461.3899999531,122976.113,122982.9299999401,122992.204,123475.615,,36,"most,"
screen,html.Screen,2_1_0_1_37,2021-04-24T14:54:06.904Z,,,,,,,,,,,,,,,,,53,,,,,,,,,,,,,,360.4349999253027,,response,,,,99,,,,,,,Space,keypress(Space),,,,,,,,---- -- ----- -- ------ - ------- --- ----------<br>------------- ------ ------ ---- ---- ------- ----- -- ----<br>-------- ------- -- ---------- --- - --- ----- ----- ----<br>---- --- --- ----- --- ---- ---- ------- ----- it's -------<br>--- --- -- ----- -- --- ---- -- --- ---- -- ------ ------<br>--- ----- -- ----,123836.79999993183,123836.04999992531,123458.93,123462.33999996912,123475.615,123841.28,,37,it's
screen,html.Screen,2_1_0_1_38,2021-04-24T14:54:07.599Z,,,,,,,,,,,,,,,,,53,,,,,,,,,,,,,,690.2099999648344,,response,,,,99,,,,,,,Space,keypress(Space),,,,,,,,---- -- ----- -- ------ - ------- --- ----------<br>------------- ------ ------ ---- ---- ------- ----- -- ----<br>-------- ------- -- ---------- --- - --- ----- ----- ----<br>---- --- --- ----- --- ---- ---- ------- ----- ---- whether<br>--- --- -- ----- -- --- ---- -- --- ---- -- ------ ------<br>--- ----- -- ----,124532.29999996256,124531.48999996483,123825.275,123836.95499994792,123841.28,124540.72,,38,whether
screen,html.Screen,2_1_0_1_39,2021-04-24T14:54:08.074Z,,,,,,,,,,,,,,,,,53,,,,,,,,,,,,,,465.7149999884132,,response,,,,99,,,,,,,Space,keypress(Space),,,,,,,,---- -- ----- -- ------ - ------- --- ----------<br>------------- ------ ------ ---- ---- ------- ----- -- ----<br>-------- ------- -- ---------- --- - --- ----- ----- ----<br>---- --- --- ----- --- ---- ---- ------- ----- ---- -------<br>you --- -- ----- -- --- ---- -- --- ---- -- ------ ------<br>--- ----- -- ----,125007.22999998834,125006.43499998841,124524.423,124532.46499993838,124540.72,125023.603,,39,you
screen,html.Screen,2_1_0_1_40,2021-04-24T14:54:08.473Z,,,,,,,,,,,,,,,,,53,,,,,,,,,,,,,,381.6269999166252,,response,,,,99,,,,,,,Space,keypress(Space),,,,,,,,---- -- ----- -- ------ - ------- --- ----------<br>------------- ------ ------ ---- ---- ------- ----- -- ----<br>-------- ------- -- ---------- --- - --- ----- ----- ----<br>---- --- --- ----- --- ---- ---- ------- ----- ---- -------<br>--- are -- ----- -- --- ---- -- --- ---- -- ------ ------<br>--- ----- -- ----,125405.97999992315,125405.22999991663,125007.156,125007.40499992389,125023.603,125439.786,,40,are
screen,html.Screen,2_1_0_1_41,2021-04-24T14:54:08.800Z,,,,,,,,,,,,,,,,,53,,,,,,,,,,,,,,292.95899992840714,,response,,,,99,,,,,,,Space,keypress(Space),,,,,,,,---- -- ----- -- ------ - ------- --- ----------<br>------------- ------ ------ ---- ---- ------- ----- -- ----<br>-------- ------- -- ---------- --- - --- ----- ----- ----<br>---- --- --- ----- --- ---- ---- ------- ----- ---- -------<br>--- --- as ----- -- --- ---- -- --- ---- -- ------ ------<br>--- ----- -- ----,125733.5299999686,125732.7449999284,125423.098,125406.13999997731,125439.786,125739.235,,41,as
screen,html.Screen,2_1_0_1_42,2021-04-24T14:54:09.193Z,,,,,,,,,,,,,,,,,53,,,,,,,,,,,,,,385.7899999575311,,response,,,,99,,,,,,,Space,keypress(Space),,,,,,,,---- -- ----- -- ------ - ------- --- ----------<br>------------- ------ ------ ---- ---- ------- ----- -- ----<br>-------- ------- -- ---------- --- - --- ----- ----- ----<br>---- --- --- ----- --- ---- ---- ------- ----- ---- -------<br>--- --- -- close -- --- ---- -- --- ---- -- ------ ------<br>--- ----- -- ----,126125.75000000652,126125.02499995753,125723.034,125733.68499998469,125739.235,126139.15,,42,close
screen,html.Screen,2_1_0_1_43,2021-04-24T14:54:09.631Z,,,,,,,,,,,,,,,,,53,,,,,,,,,,,,,,424.06499997284845,,response,,,,99,,,,,,,Space,keypress(Space),,,,,,,,---- -- ----- -- ------ - ------- --- ----------<br>------------- ------ ------ ---- ---- ------- ----- -- ----<br>-------- ------- -- ---------- --- - --- ----- ----- ----<br>---- --- --- ----- --- ---- ---- ------- ----- ---- -------<br>--- --- -- ----- as --- ---- -- --- ---- -- ------ ------<br>--- ----- -- ----,126563.85499995667,126563.21499997284,126122.449,126125.89999998454,126139.15,126571.853,,43,as
screen,html.Screen,2_1_0_1_44,2021-04-24T14:54:09.992Z,,,,,,,,,,,,,,,,,53,,,,,,,,,,,,,,352.1919999924721,,response,,,,99,,,,,,,Space,keypress(Space),,,,,,,,---- -- ----- -- ------ - ------- --- ----------<br>------------- ------ ------ ---- ---- ------- ----- -- ----<br>-------- ------- -- ---------- --- - --- ----- ----- ----<br>---- --- --- ----- --- ---- ---- ------- ----- ---- -------<br>--- --- -- ----- -- you ---- -- --- ---- -- ------ ------<br>--- ----- -- ----,126924.78999996092,126924.04499999247,126555.36,126564.00000001304,126571.853,126938.489,,44,you
screen,html.Screen,2_1_0_1_45,2021-04-24T14:54:10.325Z,,,,,,,,,,,,,,,,,53,,,,,,,,,,,,,,318.3709999649436,,response,,,,99,,,,,,,Space,keypress(Space),,,,,,,,---- -- ----- -- ------ - ------- --- ----------<br>------------- ------ ------ ---- ---- ------- ----- -- ----<br>-------- ------- -- ---------- --- - --- ----- ----- ----<br>---- --- --- ----- --- ---- ---- ------- ----- ---- -------<br>--- --- -- ----- -- --- want -- --- ---- -- ------ ------<br>--- ----- -- ----,127257.66999996267,127256.85999996495,126921.719,126924.95000001509,126938.489,127270.796,,45,want
screen,html.Screen,2_1_0_1_46,2021-04-24T14:54:10.706Z,,,,,,,,,,,,,,,,,53,,,,,,,,,,,,,,367.3939999687427,,response,,,,99,,,,,,,Space,keypress(Space),,,,,,,,---- -- ----- -- ------ - ------- --- ----------<br>------------- ------ ------ ---- ---- ------- ----- -- ----<br>-------- ------- -- ---------- --- - --- ----- ----- ----<br>---- --- --- ----- --- ---- ---- ------- ----- ---- -------<br>--- --- -- ----- -- --- ---- to --- ---- -- ------ ------<br>--- ----- -- ----,127638.91500001773,127638.18999996874,127254.52,127257.82499997877,127270.796,127654.349,,46,to
screen,html.Screen,2_1_0_1_47,2021-04-24T14:54:11.133Z,,,,,,,,,,,,,,,,,53,,,,,,,,,,,,,,410.90099998509686,,response,,,,99,,,,,,,Space,keypress(Space),,,,,,,,"---- -- ----- -- ------ - ------- --- ----------<br>------------- ------ ------ ---- ---- ------- ----- -- ----<br>-------- ------- -- ---------- --- - --- ----- ----- ----<br>---- --- --- ----- --- ---- ---- ------- ----- ---- -------<br>--- --- -- ----- -- --- ---- -- be, ---- -- ------ ------<br>--- ----- -- ----",128065.99999999162,128065.2499999851,127637.215,127639.06999991741,127654.349,128069.928,,47,"be,"
screen,html.Screen,2_1_0_1_48,2021-04-24T14:54:11.629Z,,,,,,,,,,,,,,,,,53,,,,,,,,,,,,,,491.1569999357016,,response,,,,99,,,,,,,Space,keypress(Space),,,,,,,,---- -- ----- -- ------ - ------- --- ----------<br>------------- ------ ------ ---- ---- ------- ----- -- ----<br>-------- ------- -- ---------- --- - --- ----- ----- ----<br>---- --- --- ----- --- ---- ---- ------- ----- ---- -------<br>--- --- -- ----- -- --- ---- -- --- even -- ------ ------<br>--- ----- -- ----,128561.83000002056,128561.0849999357,128053.37,128066.14499993157,128069.928,128569.663,,48,even
screen,html.Screen,2_1_0_1_49,2021-04-24T14:54:11.995Z,,,,,,,,,,,,,,,,,53,,,,,,,,,,,,,,357.3670000207494,,response,,,,99,,,,,,,Space,keypress(Space),,,,,,,,---- -- ----- -- ------ - ------- --- ----------<br>------------- ------ ------ ---- ---- ------- ----- -- ----<br>-------- ------- -- ---------- --- - --- ----- ----- ----<br>---- --- --- ----- --- ---- ---- ------- ----- ---- -------<br>--- --- -- ----- -- --- ---- -- --- ---- if ------ ------<br>--- ----- -- ----,128927.76999995112,128927.03000002075,128553.209,128561.98499992024,128569.663,128936.022,,49,if
screen,html.Screen,2_1_0_1_50,2021-04-24T14:54:12.356Z,,,,,,,,,,,,,,,,,53,,,,,,,,,,,,,,351.93299994885456,,response,,,,99,,,,,,,Space,keypress(Space),,,,,,,,---- -- ----- -- ------ - ------- --- ----------<br>------------- ------ ------ ---- ---- ------- ----- -- ----<br>-------- ------- -- ---------- --- - --- ----- ----- ----<br>---- --- --- ----- --- ---- ---- ------- ----- ---- -------<br>--- --- -- ----- -- --- ---- -- --- ---- -- that's ------<br>--- ----- -- ----,129288.76999998465,129287.95499994885,128919.44,128927.90999996942,128936.022,129302.354,,50,that's
screen,html.Screen,2_1_0_1_51,2021-04-24T14:54:12.779Z,,,,,,,,,,,,,,,,,53,,,,,,,,,,,,,,408.9459999662795,,response,,,,99,,,,,,,Space,keypress(Space),,,,,,,,---- -- ----- -- ------ - ------- --- ----------<br>------------- ------ ------ ---- ---- ------- ----- -- ----<br>-------- ------- -- ---------- --- - --- ----- ----- ----<br>---- --- --- ----- --- ---- ---- ------- ----- ---- -------<br>--- --- -- ----- -- --- ---- -- --- ---- -- ------ really<br>--- ----- -- ----,129712.04499993473,129711.29999996629,129285.852,129288.9299999224,129302.354,129718.302,,51,really
screen,html.Screen,2_1_0_1_52,2021-04-24T14:54:13.177Z,,,,,,,,,,,,,,,,,53,,,,,,,,,,,,,,390.74799997001537,,response,,,,99,,,,,,,Space,keypress(Space),,,,,,,,---- -- ----- -- ------ - ------- --- ----------<br>------------- ------ ------ ---- ---- ------- ----- -- ----<br>-------- ------- -- ---------- --- - --- ----- ----- ----<br>---- --- --- ----- --- ---- ---- ------- ----- ---- -------<br>--- --- -- ----- -- --- ---- -- --- ---- -- ------ ------<br>not ----- -- ----,130109.82499993406,130109.04999997001,129701.677,129712.19999995083,129718.302,130117.823,,52,not
screen,html.Screen,2_1_0_1_53,2021-04-24T14:54:13.546Z,,,,,,,,,,,,,,,,,53,,,,,,,,,,,,,,360.35699997641495,,response,,,,99,,,,,,,Space,keypress(Space),,,,,,,,---- -- ----- -- ------ - ------- --- ----------<br>------------- ------ ------ ---- ---- ------- ----- -- ----<br>-------- ------- -- ---------- --- - --- ----- ----- ----<br>---- --- --- ----- --- ---- ---- ------- ----- ---- -------<br>--- --- -- ----- -- --- ---- -- --- ---- -- ------ ------<br>--- close -- ----,130478.93500002101,130478.17999997642,130101.37,130109.9750000285,130117.823,130484.009,,53,close
screen,html.Screen,2_1_0_1_54,2021-04-24T14:54:13.994Z,,,,,,,,,,,,,,,,,53,,,,,,,,,,,,,,442.18100002741267,,response,,,,99,,,,,,,Space,keypress(Space),,,,,,,,---- -- ----- -- ------ - ------- --- ----------<br>------------- ------ ------ ---- ---- ------- ----- -- ----<br>-------- ------- -- ---------- --- - --- ----- ----- ----<br>---- --- --- ----- --- ---- ---- ------- ----- ---- -------<br>--- --- -- ----- -- --- ---- -- --- ---- -- ------ ------<br>--- ----- at ----,130926.96499999147,130926.19000002742,130467.734,130479.07999996096,130484.009,130933.666,,54,at
screen,html.Screen,2_1_0_1_55,2021-04-24T14:54:14.508Z,,,,,,,,,,,,,,,,,53,,,,,,,,,,,,,,506.1989999639045,,response,,,,99,,,,,,,Space,keypress(Space),,,,,,,,---- -- ----- -- ------ - ------- --- ----------<br>------------- ------ ------ ---- ---- ------- ----- -- ----<br>-------- ------- -- ---------- --- - --- ----- ----- ----<br>---- --- --- ----- --- ---- ---- ------- ----- ---- -------<br>--- --- -- ----- -- --- ---- -- --- ---- -- ------ ------<br>--- ----- -- all.,131440.65999996383,131439.8649999639,130916.872,130927.1449999651,130933.666,131449.515,,55,all.
Item 99,flow.Loop,2_1_0_1,2021-04-24T14:54:14.508Z,,,,,,,,,,,,,,,,,,,,,,,,,,,,,,,25995.04099996391,,completion,,,,,C,,,,,,,,,,,silence,,,,,131440.95999991987,131439.8649999639,105412.101,105414.37499993481,105444.824,131449.515,,,
Question 1,html.Screen,2_1_0_2,2021-04-24T14:54:18.030Z,,,,,,,,,,,,,,,,,,,,,,,,,,,,true,FALSE,,3512.749999980093,,response,,,,99,C,,,,,,FALSE,click #choice-2,,,,silence,,,,,134963.59499997925,134962.2649999801,131433.436,131441.0950000165,131449.515,134979.128,,,
Question 2,html.Screen,2_1_0_3,2021-04-24T14:54:22.809Z,,,,,,,,,,,,,,,,,,,,,,,,,,,,true,TRUE,,4761.466999981116,,response,,,,99,C,,,,,,TRUE,click #choice-1,,,,silence,,,,,139741.7349999305,139740.5949999811,134962.752,134963.75999995507,134979.128,139757.385,,,
Item 99,flow.Sequence,2_1_0,2021-04-24T14:54:22.809Z,,,,,,,,,,,,,,,,,,,,,,,,,,,,,,,44317.943999981115,,completion,,,,,,,,,,,,,,,,,,,,,139741.9949999312,139740.5949999811,95405.941,95412.36999991816,95422.651,139757.385,,,
Holding screen,html.Screen,2_1_1_0,2021-04-24T14:54:32.817Z,,,,,,,,,,,,,,,,,,,,,,,,,,,,,,,10005.399000000005,,timeout,,,,,,,,,,,,,,,,,,,,,149750.57999999262,149746.305,139740.95,139742.1499999473,139757.385,149762.784,,,
screen,html.Screen,2_1_1_1_0,2021-04-24T14:54:33.649Z,,,,,,,,,,,,,,,,,54,,,,,,,,,,,,,,818.4809999279387,,response,,,,100,,,,,,,Space,keypress(Space),,,,,,,,At --- ---- --- ------ ----- ------- ---- -- --- ------- --<br>------- ---------- ------ -- ----- -- ----- -- ---- ------<br>--- ----- --- --- ------ -------- ----- --- ------ ----- --<br>----- ----- ---------- --- --- ------ ------ ---- -- ------<br>------- --- ------ ----- --- ---- ------- -- ---- --- --<br>------- ------,150582.18999998644,150581.26499992795,149746.305,149750.83499995526,149762.784,150595.687,,0,At
screen,html.Screen,2_1_1_1_1,2021-04-24T14:54:34.044Z,,,,,,,,,,,,,,,,,54,,,,,,,,,,,,,,381.1230000219366,,response,,,,100,,,,,,,Space,keypress(Space),,,,,,,,-- the ---- --- ------ ----- ------- ---- -- --- ------- --<br>------- ---------- ------ -- ----- -- ----- -- ---- ------<br>--- ----- --- --- ------ -------- ----- --- ------ ----- --<br>----- ----- ---------- --- --- ------ ------ ---- -- ------<br>------- --- ------ ----- --- ---- ------- -- ---- --- --<br>------- ------,150977.59499994572,150976.81000002194,150579.198,150582.3499999242,150595.687,150995.243,,1,the
screen,html.Screen,2_1_1_1_2,2021-04-24T14:54:34.739Z,,,,,,,,,,,,,,,,,54,,,,,,,,,,,,,,676.2269999429409,,response,,,,100,,,,,,,Space,keypress(Space),,,,,,,,-- --- time --- ------ ----- ------- ---- -- --- ------- --<br>------- ---------- ------ -- ----- -- ----- -- ---- ------<br>--- ----- --- --- ------ -------- ----- --- ------ ----- --<br>----- ----- ---------- --- --- ------ ------ ---- -- ------<br>------- --- ------ ----- --- ---- ------- -- ---- --- --<br>------- ------,151672.27999994066,151671.46999994293,150962.061,150977.74999996182,150995.243,151677.414,,2,time
screen,html.Screen,2_1_1_1_3,2021-04-24T14:54:35.143Z,,,,,,,,,,,,,,,,,54,,,,,,,,,,,,,,397.59600002958905,,response,,,,100,,,,,,,Space,keypress(Space),,,,,,,,-- --- ---- the ------ ----- ------- ---- -- --- ------- --<br>------- ---------- ------ -- ----- -- ----- -- ---- ------<br>--- ----- --- --- ------ -------- ----- --- ------ ----- --<br>----- ----- ---------- --- --- ------ ------ ---- -- ------<br>------- --- ------ ----- --- ---- ------- -- ---- --- --<br>------- ------,152075.74499992188,152075.01000002958,151660.787,151672.43499995675,151677.414,152101.597,,3,the
screen,html.Screen,2_1_1_1_4,2021-04-24T14:54:35.762Z,,,,,,,,,,,,,,,,,54,,,,,,,,,,,,,,592.5629999554367,,response,,,,100,,,,,,,Space,keypress(Space),,,,,,,,-- --- ---- --- French ----- ------- ---- -- --- ------- --<br>------- ---------- ------ -- ----- -- ----- -- ---- ------<br>--- ----- --- --- ------ -------- ----- --- ------ ----- --<br>----- ----- ---------- --- --- ------ ------ ---- -- ------<br>------- --- ------ ----- --- ---- ------- -- ---- --- --<br>------- ------,152694.87999996636,152694.15999995545,152060.539,152075.89999993797,152101.597,152709.817,,4,French
screen,html.Screen,2_1_1_1_5,2021-04-24T14:54:36.109Z,,,,,,,,,,,,,,,,,54,,,,,,,,,,,,,,331.5179999580432,,response,,,,100,,,,,,,Space,keypress(Space),,,,,,,,-- --- ---- --- ------ crown ------- ---- -- --- ------- --<br>------- ---------- ------ -- ----- -- ----- -- ---- ------<br>--- ----- --- --- ------ -------- ----- --- ------ ----- --<br>----- ----- ---------- --- --- ------ ------ ---- -- ------<br>------- --- ------ ----- --- ---- ------- -- ---- --- --<br>------- ------,153042.1099999221,153041.33499995805,152693.5,152695.02999994438,152709.817,153059.535,,5,crown
screen,html.Screen,2_1_1_1_6,2021-04-24T14:54:36.506Z,,,,,,,,,,,,,,,,,54,,,,,,,,,,,,,,378.8100000314007,,response,,,,100,,,,,,,Space,keypress(Space),,,,,,,,-- --- ---- --- ------ ----- secured ---- -- --- ------- --<br>------- ---------- ------ -- ----- -- ----- -- ---- ------<br>--- ----- --- --- ------ -------- ----- --- ------ ----- --<br>----- ----- ---------- --- --- ------ ------ ---- -- ------<br>------- --- ------ ----- --- ---- ------- -- ---- --- --<br>------- ------,153439.04500000644,153438.3450000314,153026.342,153042.2499999404,153059.535,153442.009,,6,secured
screen,html.Screen,2_1_1_1_7,2021-04-24T14:54:36.963Z,,,,,,,,,,,,,,,,,54,,,,,,,,,,,,,,453.0409999336989,,response,,,,100,,,,,,,Space,keypress(Space),,,,,,,,-- --- ---- --- ------ ----- ------- much -- --- ------- --<br>------- ---------- ------ -- ----- -- ----- -- ---- ------<br>--- ----- --- --- ------ -------- ----- --- ------ ----- --<br>----- ----- ---------- --- --- ------ ------ ---- -- ------<br>------- --- ------ ----- --- ---- ------- -- ---- --- --<br>------- ------,153895.7999999402,153895.0499999337,153425.863,153439.18500002474,153442.009,153908.535,,7,much
screen,html.Screen,2_1_1_1_8,2021-04-24T14:54:37.443Z,,,,,,,,,,,,,,,,,54,,,,,,,,,,,,,,466.57999994434067,,response,,,,100,,,,,,,Space,keypress(Space),,,,,,,,-- --- ---- --- ------ ----- ------- ---- of --- ------- --<br>------- ---------- ------ -- ----- -- ----- -- ---- ------<br>--- ----- --- --- ------ -------- ----- --- ------ ----- --<br>----- ----- ---------- --- --- ------ ------ ---- -- ------<br>------- --- ------ ----- --- ---- ------- -- ---- --- --<br>------- ------,154375.88499998674,154375.11499994434,153892.104,153895.95999999437,153908.535,154391.383,,8,of
screen,html.Screen,2_1_1_1_9,2021-04-24T14:54:37.847Z,,,,,,,,,,,,,,,,,54,,,,,,,,,,,,,,388.1120000243245,,response,,,,100,,,,,,,Space,keypress(Space),,,,,,,,-- --- ---- --- ------ ----- ------- ---- -- its ------- --<br>------- ---------- ------ -- ----- -- ----- -- ---- ------<br>--- ----- --- --- ------ -------- ----- --- ------ ----- --<br>----- ----- ---------- --- --- ------ ------ ---- -- ------<br>------- --- ------ ----- --- ---- ------- -- ---- --- --<br>------- ------,154780.3249999415,154779.49500002433,154374.798,154376.04000000283,154391.383,154790.563,,9,its
screen,html.Screen,2_1_1_1_10,2021-04-24T14:54:38.245Z,,,,,,,,,,,,,,,,,54,,,,,,,,,,,,,,386.84700000387966,,response,,,,100,,,,,,,Space,keypress(Space),,,,,,,,-- --- ---- --- ------ ----- ------- ---- -- --- revenue --<br>------- ---------- ------ -- ----- -- ----- -- ---- ------<br>--- ----- --- --- ------ -------- ----- --- ------ ----- --<br>----- ----- ---------- --- --- ------ ------ ---- -- ------<br>------- --- ------ ----- --- ---- ------- -- ---- --- --<br>------- ------,155177.91999992914,155177.41000000387,154774.554,154780.48499999568,154790.563,155190.335,,10,revenue
screen,html.Screen,2_1_1_1_11,2021-04-24T14:54:38.776Z,,,,,,,,,,,,,,,,,54,,,,,,,,,,,,,,518.0350000075705,,response,,,,100,,,,,,,Space,keypress(Space),,,,,,,,-- --- ---- --- ------ ----- ------- ---- -- --- ------- by<br>------- ---------- ------ -- ----- -- ----- -- ---- ------<br>--- ----- --- --- ------ -------- ----- --- ------ ----- --<br>----- ----- ---------- --- --- ------ ------ ---- -- ------<br>------- --- ------ ----- --- ---- ------- -- ---- --- --<br>------- ------,155709.07999994233,155708.37000000756,155174.003,155178.02999995183,155190.335,155722.916,,11,by
screen,html.Screen,2_1_1_1_12,2021-04-24T14:54:39.199Z,,,,,,,,,,,,,,,,,54,,,,,,,,,,,,,,408.87400001400965,,response,,,,100,,,,,,,Space,keypress(Space),,,,,,,,-- --- ---- --- ------ ----- ------- ---- -- --- ------- --<br>issuing ---------- ------ -- ----- -- ----- -- ---- ------<br>--- ----- --- --- ------ -------- ----- --- ------ ----- --<br>----- ----- ---------- --- --- ------ ------ ---- -- ------<br>------- --- ------ ----- --- ---- ------- -- ---- --- --<br>------- ------,156132.47499999125,156131.790000014,155706.689,155709.24999995623,155722.916,156139.337,,12,issuing
screen,html.Screen,2_1_1_1_13,2021-04-24T14:54:39.622Z,,,,,,,,,,,,,,,,,54,,,,,,,,,,,,,,414.707999997132,,response,,,,100,,,,,,,Space,keypress(Space),,,,,,,,-- --- ---- --- ------ ----- ------- ---- -- --- ------- --<br>------- government ------ -- ----- -- ----- -- ---- ------<br>--- ----- --- --- ------ -------- ----- --- ------ ----- --<br>----- ----- ---------- --- --- ------ ------ ---- -- ------<br>------- --- ------ ----- --- ---- ------- -- ---- --- --<br>------- ------,156554.7999999253,156554.04499999713,156122.704,156132.60000001173,156139.337,156572.288,,13,government
screen,html.Screen,2_1_1_1_14,2021-04-24T14:54:40.180Z,,,,,,,,,,,,,,,,,54,,,,,,,,,,,,,,539.7869999536197,,response,,,,100,,,,,,,Space,keypress(Space),,,,,,,,-- --- ---- --- ------ ----- ------- ---- -- --- ------- --<br>------- ---------- bonds. -- ----- -- ----- -- ---- ------<br>--- ----- --- --- ------ -------- ----- --- ------ ----- --<br>----- ----- ---------- --- --- ------ ------ ---- -- ------<br>------- --- ------ ----- --- ---- ------- -- ---- --- --<br>------- ------,157112.8650000319,157112.07499995362,156539.101,156554.95999997947,156572.288,157121.396,,14,bonds.
screen,html.Screen,2_1_1_1_15,2021-04-24T14:54:40.676Z,,,,,,,,,,,,,,,,,54,,,,,,,,,,,,,,487.13900000666035,,response,,,,100,,,,,,,Space,keypress(Space),,,,,,,,-- --- ---- --- ------ ----- ------- ---- -- --- ------- --<br>------- ---------- ------ In ----- -- ----- -- ---- ------<br>--- ----- --- --- ------ -------- ----- --- ------ ----- --<br>----- ----- ---------- --- --- ------ ------ ---- -- ------<br>------- --- ------ ----- --- ---- ------- -- ---- --- --<br>------- ------,157609.3600000022,157608.53500000667,157105.104,157113.0150000099,157121.396,157621.048,,15,In
screen,html.Screen,2_1_1_1_16,2021-04-24T14:54:41.059Z,,,,,,,,,,,,,,,,,54,,,,,,,,,,,,,,370.2819999898202,,response,,,,100,,,,,,,Space,keypress(Space),,,,,,,,"-- --- ---- --- ------ ----- ------- ---- -- --- ------- --<br>------- ---------- ------ -- 1727, -- ----- -- ---- ------<br>--- ----- --- --- ------ -------- ----- --- ------ ----- --<br>----- ----- ---------- --- --- ------ ------ ---- -- ------<br>------- --- ------ ----- --- ---- ------- -- ---- --- --<br>------- ------",157992.07499995828,157991.32999998983,157604.712,157609.50999998022,157621.048,158004.076,,16,"1727,"
screen,html.Screen,2_1_1_1_17,2021-04-24T14:54:41.768Z,,,,,,,,,,,,,,,,,54,,,,,,,,,,,,,,696.4990000243997,,response,,,,100,,,,,,,Space,keypress(Space),,,,,,,,-- --- ---- --- ------ ----- ------- ---- -- --- ------- --<br>------- ---------- ------ -- ----- in ----- -- ---- ------<br>--- ----- --- --- ------ -------- ----- --- ------ ----- --<br>----- ----- ---------- --- --- ------ ------ ---- -- ------<br>------- --- ------ ----- --- ---- ------- -- ---- --- --<br>------- ------,158701.28999999724,158700.5750000244,157987.685,157992.22999997437,158004.076,158702.918,,17,in
screen,html.Screen,2_1_1_1_18,2021-04-24T14:54:42.239Z,,,,,,,,,,,,,,,,,54,,,,,,,,,,,,,,468.3470000117668,,response,,,,100,,,,,,,Space,keypress(Space),,,,,,,,-- --- ---- --- ------ ----- ------- ---- -- --- ------- --<br>------- ---------- ------ -- ----- -- order -- ---- ------<br>--- ----- --- --- ------ -------- ----- --- ------ ----- --<br>----- ----- ---------- --- --- ------ ------ ---- -- ------<br>------- --- ------ ----- --- ---- ------- -- ---- --- --<br>------- ------,159172.0750000095,159171.26500001177,158686.651,158701.4349999372,158702.918,159185.977,,18,order
screen,html.Screen,2_1_1_1_19,2021-04-24T14:54:42.645Z,,,,,,,,,,,,,,,,,54,,,,,,,,,,,,,,391.6780000300496,,response,,,,100,,,,,,,Space,keypress(Space),,,,,,,,-- --- ---- --- ------ ----- ------- ---- -- --- ------- --<br>------- ---------- ------ -- ----- -- ----- to ---- ------<br>--- ----- --- --- ------ -------- ----- --- ------ ----- --<br>----- ----- ---------- --- --- ------ ------ ---- -- ------<br>------- --- ------ ----- --- ---- ------- -- ---- --- --<br>------- ------,159578.4350000322,159577.65500003006,159169.607,159172.21999994945,159185.977,159585.256,,19,to
screen,html.Screen,2_1_1_1_20,2021-04-24T14:54:43.039Z,,,,,,,,,,,,,,,,,54,,,,,,,,,,,,,,386.0190000180737,,response,,,,100,,,,,,,Space,keypress(Space),,,,,,,,-- --- ---- --- ------ ----- ------- ---- -- --- ------- --<br>------- ---------- ------ -- ----- -- ----- -- save ------<br>--- ----- --- --- ------ -------- ----- --- ------ ----- --<br>----- ----- ---------- --- --- ------ ------ ---- -- ------<br>------- --- ------ ----- --- ---- ------- -- ---- --- --<br>------- ------,159972.02999994624,159971.27500001807,159569.193,159578.58999993186,159585.256,159984.854,,20,save
screen,html.Screen,2_1_1_1_21,2021-04-24T14:54:43.436Z,,,,,,,,,,,,,,,,,54,,,,,,,,,,,,,,383.4559999325429,,response,,,,100,,,,,,,Space,keypress(Space),,,,,,,,"-- --- ---- --- ------ ----- ------- ---- -- --- ------- --<br>------- ---------- ------ -- ----- -- ----- -- ---- money,<br>--- ----- --- --- ------ -------- ----- --- ------ ----- --<br>----- ----- ---------- --- --- ------ ------ ---- -- ------<br>------- --- ------ ----- --- ---- ------- -- ---- --- --<br>------- ------",160369.00499998592,160368.30999993253,159968.624,159972.1900000004,159984.854,160385.022,,21,"money,"
screen,html.Screen,2_1_1_1_22,2021-04-24T14:54:43.928Z,,,,,,,,,,,,,,,,,54,,,,,,,,,,,,,,475.45299999404233,,response,,,,100,,,,,,,Space,keypress(Space),,,,,,,,-- --- ---- --- ------ ----- ------- ---- -- --- ------- --<br>------- ---------- ------ -- ----- -- ----- -- ---- ------<br>the ----- --- --- ------ -------- ----- --- ------ ----- --<br>----- ----- ---------- --- --- ------ ------ ---- -- ------<br>------- --- ------ ----- --- ---- ------- -- ---- --- --<br>------- ------,160861.18000000715,160860.47499999404,160368.208,160369.18499995954,160385.022,160867.489,,22,the
screen,html.Screen,2_1_1_1_23,2021-04-24T14:54:44.346Z,,,,,,,,,,,,,,,,,54,,,,,,,,,,,,,,411.2059999863268,,response,,,,100,,,,,,,Space,keypress(Space),,,,,,,,-- --- ---- --- ------ ----- ------- ---- -- --- ------- --<br>------- ---------- ------ -- ----- -- ----- -- ---- ------<br>--- state --- --- ------ -------- ----- --- ------ ----- --<br>----- ----- ---------- --- --- ------ ------ ---- -- ------<br>------- --- ------ ----- --- ---- ------- -- ---- --- --<br>------- ------,161279.46999995038,161278.69499998633,160851.265,160861.3399999449,160867.489,161283.415,,23,state
screen,html.Screen,2_1_1_1_24,2021-04-24T14:54:44.924Z,,,,,,,,,,,,,,,,,54,,,,,,,,,,,,,,573.1500000236847,,response,,,,100,,,,,,,Space,keypress(Space),,,,,,,,-- --- ---- --- ------ ----- ------- ---- -- --- ------- --<br>------- ---------- ------ -- ----- -- ----- -- ---- ------<br>--- ----- cut --- ------ -------- ----- --- ------ ----- --<br>----- ----- ---------- --- --- ------ ------ ---- -- ------<br>------- --- ------ ----- --- ---- ------- -- ---- --- --<br>------- ------,161857.37500002142,161856.5650000237,161266.824,161279.64500000235,161283.415,161866.438,,24,cut
screen,html.Screen,2_1_1_1_25,2021-04-24T14:54:45.309Z,,,,,,,,,,,,,,,,,54,,,,,,,,,,,,,,375.2369999392831,,response,,,,100,,,,,,,Space,keypress(Space),,,,,,,,-- --- ---- --- ------ ----- ------- ---- -- --- ------- --<br>------- ---------- ------ -- ----- -- ----- -- ---- ------<br>--- ----- --- the ------ -------- ----- --- ------ ----- --<br>----- ----- ---------- --- --- ------ ------ ---- -- ------<br>------- --- ------ ----- --- ---- ------- -- ---- --- --<br>------- ------,162242.4399999436,162241.67499993928,161849.911,161857.5299999211,161866.438,162249.131,,25,the
screen,html.Screen,2_1_1_1_26,2021-04-24T14:54:45.647Z,,,,,,,,,,,,,,,,,54,,,,,,,,,,,,,,329.80899991939077,,response,,,,100,,,,,,,Space,keypress(Space),,,,,,,,-- --- ---- --- ------ ----- ------- ---- -- --- ------- --<br>------- ---------- ------ -- ----- -- ----- -- ---- ------<br>--- ----- --- --- bonds' -------- ----- --- ------ ----- --<br>----- ----- ---------- --- --- ------ ------ ---- -- ------<br>------- --- ------ ----- --- ---- ------- -- ---- --- --<br>------- ------,162579.7199999215,162578.93999991938,162232.971,162242.59999999776,162249.131,162582.007,,26,bonds'
screen,html.Screen,2_1_1_1_27,2021-04-24T14:54:46.114Z,,,,,,,,,,,,,,,,,54,,,,,,,,,,,,,,464.8629999619152,,response,,,,100,,,,,,,Space,keypress(Space),,,,,,,,-- --- ---- --- ------ ----- ------- ---- -- --- ------- --<br>------- ---------- ------ -- ----- -- ----- -- ---- ------<br>--- ----- --- --- ------ interest ----- --- ------ ----- --<br>----- ----- ---------- --- --- ------ ------ ---- -- ------<br>------- --- ------ ----- --- ---- ------- -- ---- --- --<br>------- ------,163047.58499993477,163046.86999996193,162565.705,162579.87000001594,162582.007,163065.415,,27,interest
screen,html.Screen,2_1_1_1_28,2021-04-24T14:54:46.538Z,,,,,,,,,,,,,,,,,54,,,,,,,,,,,,,,404.68499991859426,,response,,,,100,,,,,,,Space,keypress(Space),,,,,,,,-- --- ---- --- ------ ----- ------- ---- -- --- ------- --<br>------- ---------- ------ -- ----- -- ----- -- ---- ------<br>--- ----- --- --- ------ -------- rate. --- ------ ----- --<br>----- ----- ---------- --- --- ------ ------ ---- -- ------<br>------- --- ------ ----- --- ---- ------- -- ---- --- --<br>------- ------,163470.8249999676,163470.0999999186,163031.971,163047.72499995306,163065.415,163481.025,,28,rate.
screen,html.Screen,2_1_1_1_29,2021-04-24T14:54:47.033Z,,,,,,,,,,,,,,,,,54,,,,,,,,,,,,,,484.5099999666272,,response,,,,100,,,,,,,Space,keypress(Space),,,,,,,,-- --- ---- --- ------ ----- ------- ---- -- --- ------- --<br>------- ---------- ------ -- ----- -- ----- -- ---- ------<br>--- ----- --- --- ------ -------- ----- The ------ ----- --<br>----- ----- ---------- --- --- ------ ------ ---- -- ------<br>------- --- ------ ----- --- ---- ------- -- ---- --- --<br>------- ------,163966.2750000134,163965.53499996662,163464.918,163470.98500002176,163481.025,163980.494,,29,The
screen,html.Screen,2_1_1_1_30,2021-04-24T14:54:47.425Z,,,,,,,,,,,,,,,,,54,,,,,,,,,,,,,,377.2359999305918,,response,,,,100,,,,,,,Space,keypress(Space),,,,,,,,-- --- ---- --- ------ ----- ------- ---- -- --- ------- --<br>------- ---------- ------ -- ----- -- ----- -- ---- ------<br>--- ----- --- --- ------ -------- ----- --- market ----- --<br>----- ----- ---------- --- --- ------ ------ ---- -- ------<br>------- --- ------ ----- --- ---- ------- -- ---- --- --<br>------- ------,164358.53500000667,164357.7299999306,163964.363,163966.42499999143,163980.494,164363.587,,30,market
screen,html.Screen,2_1_1_1_31,2021-04-24T14:54:47.812Z,,,,,,,,,,,,,,,,,54,,,,,,,,,,,,,,380.3479999185656,,response,,,,100,,,,,,,Space,keypress(Space),,,,,,,,-- --- ---- --- ------ ----- ------- ---- -- --- ------- --<br>------- ---------- ------ -- ----- -- ----- -- ---- ------<br>--- ----- --- --- ------ -------- ----- --- ------ value --<br>----- ----- ---------- --- --- ------ ------ ---- -- ------<br>------- --- ------ ----- --- ---- ------- -- ---- --- --<br>------- ------,164744.70499996096,164743.93499991857,164347.419,164358.69000002276,164363.587,164746.297,,31,value
screen,html.Screen,2_1_1_1_32,2021-04-24T14:54:48.297Z,,,,,,,,,,,,,,,,,54,,,,,,,,,,,,,,482.94799993679044,,response,,,,100,,,,,,,Space,keypress(Space),,,,,,,,-- --- ---- --- ------ ----- ------- ---- -- --- ------- --<br>------- ---------- ------ -- ----- -- ----- -- ---- ------<br>--- ----- --- --- ------ -------- ----- --- ------ ----- of<br>----- ----- ---------- --- --- ------ ------ ---- -- ------<br>------- --- ------ ----- --- ---- ------- -- ---- --- --<br>------- ------,165229.9799999455,165229.24499993678,164730.15,164744.85999997705,164746.297,165246.076,,32,of
screen,html.Screen,2_1_1_1_33,2021-04-24T14:54:48.725Z,,,,,,,,,,,,,,,,,54,,,,,,,,,,,,,,411.36900001892354,,response,,,,100,,,,,,,Space,keypress(Space),,,,,,,,-- --- ---- --- ------ ----- ------- ---- -- --- ------- --<br>------- ---------- ------ -- ----- -- ----- -- ---- ------<br>--- ----- --- --- ------ -------- ----- --- ------ ----- --<br>these ----- ---------- --- --- ------ ------ ---- -- ------<br>------- --- ------ ----- --- ---- ------- -- ---- --- --<br>------- ------,165658.23499998078,165657.44500001892,165229.471,165230.12999992352,165246.076,165661.958,,33,these
screen,html.Screen,2_1_1_1_34,2021-04-24T14:54:49.149Z,,,,,,,,,,,,,,,,,54,,,,,,,,,,,,,,419.04200000557466,,response,,,,100,,,,,,,Space,keypress(Space),,,,,,,,-- --- ---- --- ------ ----- ------- ---- -- --- ------- --<br>------- ---------- ------ -- ----- -- ----- -- ---- ------<br>--- ----- --- --- ------ -------- ----- --- ------ ----- --<br>----- bonds ---------- --- --- ------ ------ ---- -- ------<br>------- --- ------ ----- --- ---- ------- -- ---- --- --<br>------- ------,166081.7200000165,166081.0000000056,165645.997,165658.39499991853,165661.958,166095.37,,34,bonds
screen,html.Screen,2_1_1_1_35,2021-04-24T14:54:49.558Z,,,,,,,,,,,,,,,,,54,,,,,,,,,,,,,,395.5299999752315,,response,,,,100,,,,,,,Space,keypress(Space),,,,,,,,"-- --- ---- --- ------ ----- ------- ---- -- --- ------- --<br>------- ---------- ------ -- ----- -- ----- -- ---- ------<br>--- ----- --- --- ------ -------- ----- --- ------ ----- --<br>----- ----- plummeted, --- --- ------ ------ ---- -- ------<br>------- --- ------ ----- --- ---- ------- -- ---- --- --<br>------- ------",166491.64000002202,166490.89999997523,166078.183,166081.87499991618,166095.37,166494.357,,35,"plummeted,"
screen,html.Screen,2_1_1_1_36,2021-04-24T14:54:50.082Z,,,,,,,,,,,,,,,,,54,,,,,,,,,,,,,,520.5279999532213,,response,,,,100,,,,,,,Space,keypress(Space),,,,,,,,-- --- ---- --- ------ ----- ------- ---- -- --- ------- --<br>------- ---------- ------ -- ----- -- ----- -- ---- ------<br>--- ----- --- --- ------ -------- ----- --- ------ ----- --<br>----- ----- ---------- and --- ------ ------ ---- -- ------<br>------- --- ------ ----- --- ---- ------- -- ---- --- --<br>------- ------,167015.6549999956,167014.8849999532,166478.401,166491.7799999239,166494.357,167027.581,,36,and
screen,html.Screen,2_1_1_1_37,2021-04-24T14:54:50.439Z,,,,,,,,,,,,,,,,,54,,,,,,,,,,,,,,343.5390000252519,,response,,,,100,,,,,,,Space,keypress(Space),,,,,,,,-- --- ---- --- ------ ----- ------- ---- -- --- ------- --<br>------- ---------- ------ -- ----- -- ----- -- ---- ------<br>--- ----- --- --- ------ -------- ----- --- ------ ----- --<br>----- ----- ---------- --- the ------ ------ ---- -- ------<br>------- --- ------ ----- --- ---- ------- -- ---- --- --<br>------- ------,167371.90499994904,167371.12000002526,167010.869,167015.8100000117,167027.581,167376.755,,37,the
screen,html.Screen,2_1_1_1_38,2021-04-24T14:54:50.775Z,,,,,,,,,,,,,,,,,54,,,,,,,,,,,,,,331.08000000834,,response,,,,100,,,,,,,Space,keypress(Space),,,,,,,,-- --- ---- --- ------ ----- ------- ---- -- --- ------- --<br>------- ---------- ------ -- ----- -- ----- -- ---- ------<br>--- ----- --- --- ------ -------- ----- --- ------ ----- --<br>----- ----- ---------- --- --- market ------ ---- -- ------<br>------- --- ------ ----- --- ---- ------- -- ---- --- --<br>------- ------,167708.564999979,167707.83500000834,167360.383,167372.05499992706,167376.755,167736.816,,38,market
screen,html.Screen,2_1_1_1_39,2021-04-24T14:54:51.229Z,,,,,,,,,,,,,,,,,54,,,,,,,,,,,,,,424.78900003025774,,response,,,,100,,,,,,,Space,keypress(Space),,,,,,,,-- --- ---- --- ------ ----- ------- ---- -- --- ------- --<br>------- ---------- ------ -- ----- -- ----- -- ---- ------<br>--- ----- --- --- ------ -------- ----- --- ------ ----- --<br>----- ----- ---------- --- --- ------ became ---- -- ------<br>------- --- ------ ----- --- ---- ------- -- ---- --- --<br>------- ------,168162.41500002798,168161.60500003025,167693.503,167708.714999957,167736.816,168176.292,,39,became
screen,html.Screen,2_1_1_1_40,2021-04-24T14:54:51.800Z,,,,,,,,,,,,,,,,,54,,,,,,,,,,,,,,555.7129999980389,,response,,,,100,,,,,,,Space,keypress(Space),,,,,,,,-- --- ---- --- ------ ----- ------- ---- -- --- ------- --<br>------- ---------- ------ -- ----- -- ----- -- ---- ------<br>--- ----- --- --- ------ -------- ----- --- ------ ----- --<br>----- ----- ---------- --- --- ------ ------ wary -- ------<br>------- --- ------ ----- --- ---- ------- -- ---- --- --<br>------- ------,168732.7599999262,168732.00499999803,168159.477,168162.57499996573,168176.292,168742.285,,40,wary
screen,html.Screen,2_1_1_1_41,2021-04-24T14:54:52.158Z,,,,,,,,,,,,,,,,,54,,,,,,,,,,,,,,347.974999968108,,response,,,,100,,,,,,,Space,keypress(Space),,,,,,,,-- --- ---- --- ------ ----- ------- ---- -- --- ------- --<br>------- ---------- ------ -- ----- -- ----- -- ---- ------<br>--- ----- --- --- ------ -------- ----- --- ------ ----- --<br>----- ----- ---------- --- --- ------ ------ ---- of ------<br>------- --- ------ ----- --- ---- ------- -- ---- --- --<br>------- ------,169091.0150000127,169090.2599999681,168725.706,168732.91999998037,168742.285,169108.632,,41,of
screen,html.Screen,2_1_1_1_42,2021-04-24T14:54:52.556Z,,,,,,,,,,,,,,,,,54,,,,,,,,,,,,,,379.33299997841823,,response,,,,100,,,,,,,Space,keypress(Space),,,,,,,,-- --- ---- --- ------ ----- ------- ---- -- --- ------- --<br>------- ---------- ------ -- ----- -- ----- -- ---- ------<br>--- ----- --- --- ------ -------- ----- --- ------ ----- --<br>----- ----- ---------- --- --- ------ ------ ---- -- French<br>------- --- ------ ----- --- ---- ------- -- ---- --- --<br>------- ------,169488.69999998715,169487.96499997843,169075.345,169091.16499999072,169108.632,169491.079,,42,French
screen,html.Screen,2_1_1_1_43,2021-04-24T14:54:53.038Z,,,,,,,,,,,,,,,,,54,,,,,,,,,,,,,,479.4610000093526,,response,,,,100,,,,,,,Space,keypress(Space),,,,,,,,-- --- ---- --- ------ ----- ------- ---- -- --- ------- --<br>------- ---------- ------ -- ----- -- ----- -- ---- ------<br>--- ----- --- --- ------ -------- ----- --- ------ ----- --<br>----- ----- ---------- --- --- ------ ------ ---- -- ------<br>credit. --- ------ ----- --- ---- ------- -- ---- --- --<br>------- ------,169971.32499993313,169970.54000000935,169474.844,169488.8449999271,169491.079,169973.899,,43,credit.
screen,html.Screen,2_1_1_1_44,2021-04-24T14:54:53.510Z,,,,,,,,,,,,,,,,,54,,,,,,,,,,,,,,468.4159999929543,,response,,,,100,,,,,,,Space,keypress(Space),,,,,,,,-- --- ---- --- ------ ----- ------- ---- -- --- ------- --<br>------- ---------- ------ -- ----- -- ----- -- ---- ------<br>--- ----- --- --- ------ -------- ----- --- ------ ----- --<br>----- ----- ---------- --- --- ------ ------ ---- -- ------<br>------- The ------ ----- --- ---- ------- -- ---- --- --<br>------- ------,170443.089999957,170442.31499999296,169957.76,169971.47999994922,169973.899,170457.195,,44,The
screen,html.Screen,2_1_1_1_45,2021-04-24T14:54:53.889Z,,,,,,,,,,,,,,,,,54,,,,,,,,,,,,,,364.1049999523093,,response,,,,100,,,,,,,Space,keypress(Space),,,,,,,,-- --- ---- --- ------ ----- ------- ---- -- --- ------- --<br>------- ---------- ------ -- ----- -- ----- -- ---- ------<br>--- ----- --- --- ------ -------- ----- --- ------ ----- --<br>----- ----- ---------- --- --- ------ ------ ---- -- ------<br>------- --- French ----- --- ---- ------- -- ---- --- --<br>------- ------,170822.0549999969,170821.29999995232,170440.084,170443.2449999731,170457.195,170852.142,,45,French
screen,html.Screen,2_1_1_1_46,2021-04-24T14:54:54.512Z,,,,,,,,,,,,,,,,,54,,,,,,,,,,,,,,591.8329999437556,,response,,,,100,,,,,,,Space,keypress(Space),,,,,,,,-- --- ---- --- ------ ----- ------- ---- -- --- ------- --<br>------- ---------- ------ -- ----- -- ----- -- ---- ------<br>--- ----- --- --- ------ -------- ----- --- ------ ----- --<br>----- ----- ---------- --- --- ------ ------ ---- -- ------<br>------- --- ------ state --- ---- ------- -- ---- --- --<br>------- ------,171444.67999995686,171443.97499994375,170806.688,170822.19999993686,170852.142,171456.172,,46,state
screen,html.Screen,2_1_1_1_47,2021-04-24T14:54:54.920Z,,,,,,,,,,,,,,,,,54,,,,,,,,,,,,,,396.35799991645035,,response,,,,100,,,,,,,Space,keypress(Space),,,,,,,,-- --- ---- --- ------ ----- ------- ---- -- --- ------- --<br>------- ---------- ------ -- ----- -- ----- -- ---- ------<br>--- ----- --- --- ------ -------- ----- --- ------ ----- --<br>----- ----- ---------- --- --- ------ ------ ---- -- ------<br>------- --- ------ ----- was ---- ------- -- ---- --- --<br>------- ------,171853.29999995884,171852.52999991644,171439.42,171444.84000001103,171456.172,171855.131,,47,was
screen,html.Screen,2_1_1_1_48,2021-04-24T14:54:55.290Z,,,,,,,,,,,,,,,,,54,,,,,,,,,,,,,,366.98400001140544,,response,,,,100,,,,,,,Space,keypress(Space),,,,,,,,-- --- ---- --- ------ ----- ------- ---- -- --- ------- --<br>------- ---------- ------ -- ----- -- ----- -- ---- ------<br>--- ----- --- --- ------ -------- ----- --- ------ ----- --<br>----- ----- ---------- --- --- ------ ------ ---- -- ------<br>------- --- ------ ----- --- left ------- -- ---- --- --<br>------- ------,172222.87499997765,172222.1150000114,171839.129,171853.45499997493,171855.131,172238.404,,48,left
screen,html.Screen,2_1_1_1_49,2021-04-24T14:54:55.758Z,,,,,,,,,,,,,,,,,54,,,,,,,,,,,,,,452.12600002167164,,response,,,,100,,,,,,,Space,keypress(Space),,,,,,,,-- --- ---- --- ------ ----- ------- ---- -- --- ------- --<br>------- ---------- ------ -- ----- -- ----- -- ---- ------<br>--- ----- --- --- ------ -------- ----- --- ------ ----- --<br>----- ----- ---------- --- --- ------ ------ ---- -- ------<br>------- --- ------ ----- --- ---- without -- ---- --- --<br>------- ------,172691.20000000112,172690.53000002168,172221.854,172223.0350000318,172238.404,172704.782,,49,without
screen,html.Screen,2_1_1_1_50,2021-04-24T14:54:56.169Z,,,,,,,,,,,,,,,,,54,,,,,,,,,,,,,,396.76800002122764,,response,,,,100,,,,,,,Space,keypress(Space),,,,,,,,-- --- ---- --- ------ ----- ------- ---- -- --- ------- --<br>------- ---------- ------ -- ----- -- ----- -- ---- ------<br>--- ----- --- --- ------ -------- ----- --- ------ ----- --<br>----- ----- ---------- --- --- ------ ------ ---- -- ------<br>------- --- ------ ----- --- ---- ------- an ---- --- --<br>------- ------,173102.30999998748,173101.55000002123,172687.934,172691.35999993887,172704.782,173132.255,,50,an
screen,html.Screen,2_1_1_1_51,2021-04-24T14:54:56.749Z,,,,,,,,,,,,,,,,,54,,,,,,,,,,,,,,549.3300000129966,,response,,,,100,,,,,,,Space,keypress(Space),,,,,,,,-- --- ---- --- ------ ----- ------- ---- -- --- ------- --<br>------- ---------- ------ -- ----- -- ----- -- ---- ------<br>--- ----- --- --- ------ -------- ----- --- ------ ----- --<br>----- ----- ---------- --- --- ------ ------ ---- -- ------<br>------- --- ------ ----- --- ---- ------- -- easy --- --<br>------- ------,173682.42500000633,173681.585000013,173087.802,173102.46999992523,173132.255,173686.407,,51,easy
screen,html.Screen,2_1_1_1_52,2021-04-24T14:54:57.204Z,,,,,,,,,,,,,,,,,54,,,,,,,,,,,,,,449.87800001504365,,response,,,,100,,,,,,,Space,keypress(Space),,,,,,,,-- --- ---- --- ------ ----- ------- ---- -- --- ------- --<br>------- ---------- ------ -- ----- -- ----- -- ---- ------<br>--- ----- --- --- ------ -------- ----- --- ------ ----- --<br>----- ----- ---------- --- --- ------ ------ ---- -- ------<br>------- --- ------ ----- --- ---- ------- -- ---- way --<br>------- ------,174137.05000001937,174136.28500001505,173670.295,173682.67999996897,173686.407,174153.224,,52,way
screen,html.Screen,2_1_1_1_53,2021-04-24T14:54:57.687Z,,,,,,,,,,,,,,,,,54,,,,,,,,,,,,,,466.0610000225133,,response,,,,100,,,,,,,Space,keypress(Space),,,,,,,,-- --- ---- --- ------ ----- ------- ---- -- --- ------- --<br>------- ---------- ------ -- ----- -- ----- -- ---- ------<br>--- ----- --- --- ------ -------- ----- --- ------ ----- --<br>----- ----- ---------- --- --- ------ ------ ---- -- ------<br>------- --- ------ ----- --- ---- ------- -- ---- --- of<br>------- ------,174620.03999995068,174619.2850000225,174136.548,174137.2149999952,174153.224,174635.928,,53,of
screen,html.Screen,2_1_1_1_54,2021-04-24T14:54:58.192Z,,,,,,,,,,,,,,,,,54,,,,,,,,,,,,,,488.78699992533075,,response,,,,100,,,,,,,Space,keypress(Space),,,,,,,,-- --- ---- --- ------ ----- ------- ---- -- --- ------- --<br>------- ---------- ------ -- ----- -- ----- -- ---- ------<br>--- ----- --- --- ------ -------- ----- --- ------ ----- --<br>----- ----- ---------- --- --- ------ ------ ---- -- ------<br>------- --- ------ ----- --- ---- ------- -- ---- --- --<br>raising ------,175125.44999993406,175124.71499992535,174619.446,174620.1899999287,174635.928,175135.169,,54,raising
screen,html.Screen,2_1_1_1_55,2021-04-24T14:54:59.118Z,,,,,,,,,,,,,,,,,54,,,,,,,,,,,,,,915.4759999520611,,response,,,,100,,,,,,,Space,keypress(Space),,,,,,,,-- --- ---- --- ------ ----- ------- ---- -- --- ------- --<br>------- ---------- ------ -- ----- -- ----- -- ---- ------<br>--- ----- --- --- ------ -------- ----- --- ------ ----- --<br>----- ----- ---------- --- --- ------ ------ ---- -- ------<br>------- --- ------ ----- --- ---- ------- -- ---- --- --<br>------- money.,176051.3899999205,176050.64499995206,175118.861,175125.60999998823,175135.169,176067.646,,55,money.
Item 100,flow.Loop,2_1_1_1,2021-04-24T14:54:59.118Z,,,,,,,,,,,,,,,,,,,,,,,,,,,,,,,26287.86099995204,,completion,,,,,C,,,,,,,,,,,silence,,,,,176051.63999996148,176050.64499995206,149746.305,149750.77499996405,149762.784,176067.646,,,
Question 1,html.Screen,2_1_1_2,2021-04-24T14:55:01.879Z,,,,,,,,,,,,,,,,,,,,,,,,,,,,true,TRUE,,2743.2989999174024,,response,,,,100,C,,,,,,TRUE,click #choice-1,,,,silence,,,,,178812.15000001248,178810.9449999174,176051.006,176051.74999998417,176067.646,178814.164,,,
Question 2,html.Screen,2_1_1_3,2021-04-24T14:55:03.827Z,,,,,,,,,,,,,,,,,,,,,,,,,,,,true,FALSE,,1944.530999967712,,response,,,,100,C,,,,,,FALSE,click #choice-2,,,,silence,,,,,180759.82499995735,180758.6949999677,178797.5,178812.30999995023,178814.164,180762.017,,,
Item 100,flow.Sequence,2_1_1,2021-04-24T14:55:03.827Z,,,,,,,,,,,,,,,,,,,,,,,,,,,,,,,41001.30999996769,,completion,,,,,,,,,,,,,,,,,,,,,180760.07499999832,180758.6949999677,139740.95,139742.10999999195,139757.385,180762.017,,,
End of Practice,html.Page,2_1_2,2021-04-24T14:55:09.479Z,,,,,,,,,,,,,,,,,,,,,,,,,,,,,,,5649.302999955602,,form submission,,,,,,,,,,,,,,,,,,,,,186411.8099999614,186411.3199999556,180745.484,180760.20999997854,180762.017,186422.827,,,
Practice,flow.Sequence,2_1,2021-04-24T14:55:09.479Z,,,,,,,,,,,,,,,,,,,,,,,,,,,,,,,90988.6689999556,,completion,,,,,,,,,,,,,,,,,,,,,186412.03000000678,186411.3199999556,95405.941,95412.32499992475,95422.651,186422.827,,,
Trap_instruction,html.Page,2_2_0,2021-04-24T14:55:13.027Z,,,,,,,,,,,,,,,,,,,,,,,,,,,,,,,3537.1279999693506,,form submission,,,,,,,,,,,,,,,,,,,,,189960.45999997295,189959.95499996934,186406.2,186412.164999987,186422.827,189985.176,,,
trap_trial,html.Screen,2_2_1,2021-04-24T14:55:16.997Z,,,,,,,,,,,,,,,,,,,,,,,,,,,,true,1,,3943.638999992021,,response,,,,,,,,,,,1,click #choice-1,,,,,,,,,193930.2449999377,193928.81499999203,189952.389,189960.59000003152,189985.176,193930.84,,,
end of trap trial,html.Page,2_2_2,2021-04-24T14:55:18.918Z,,,,,,,,,,,,,,,,,,,,,,,,,,,,,,,1914.964999931719,,form submission,,,,,,,,,,,,,,,,,,,,,195851.66499996558,195845.80499993172,193914.532,193930.4799999809,193930.84,195875.141,,,
Trap 1,flow.Sequence,2_2,2021-04-24T14:55:18.919Z,,,,,,,,,,,,,,,,,,,,,,,,,,,,,,,9422.977999931725,,completion,,,,,,,,,,,,,,,,,,,,,195851.7999999458,195845.80499993172,186406.2,186412.12999995332,186422.827,195875.141,,,
Standby,html.Page,2_3_0,2021-04-24T14:55:26.921Z,,,,,,,,,,,,,,,,,,,,,,,,,,,,,,,7994.875999999989,,timeout,,,,,,,,,,,,,,,,,,,,,203854.3649999192,203853.57,195829.251,195851.87999997288,195875.141,203870.017,,,
Holding screen,html.Screen,2_3_1_0_0,2021-04-24T14:55:33.914Z,,,,,,,,,,,,,,,,,,,,,,,,,,,,,,,6992.197000000015,,timeout,,,,,,,,,,,,,,,,,,,,,210846.85999993235,210846.143,203853.57,203854.64499995578,203870.017,210862.214,,,
screen,html.Screen,2_3_1_0_1_0,2021-04-24T14:55:34.762Z,,,,,,,,,,,,,,,,,11,,,,,,,,,,,,,,831.8359999327513,,response,,,,4,C,,,,,,Space,keypress(Space),,,,instrumental,,,,Known -- ---- --- -- --- -------- ------------ ---------- --<br>- ------- ------ --------- -- ------------ -- --- ---- -----<br>------ ---- ---- ------ ------ ------- --- ----- ---------<br>---- --- -------- -------- --- --- -- ------- --- --- -----<br>-- --- ------ ------- --- --- -------- ---- --------- --<br>---------- -- -------- ----------------,211695.13999996707,211694.04999993276,210846.143,210847.11999993306,210862.214,211711.756,,0,Known
screen,html.Screen,2_3_1_0_1_1,2021-04-24T14:55:35.378Z,,,,,,,,,,,,,,,,,11,,,,,,,,,,,,,,598.6190000009374,,response,,,,4,C,,,,,,Space,keypress(Space),,,,instrumental,,,,----- as ---- --- -- --- -------- ------------ ---------- --<br>- ------- ------ --------- -- ------------ -- --- ---- -----<br>------ ---- ---- ------ ------ ------- --- ----- ---------<br>---- --- -------- -------- --- --- -- ------- --- --- -----<br>-- --- ------ ------- --- --- -------- ---- --------- --<br>---------- -- -------- ----------------,212311.12500000745,212310.37500000093,211678.583,211695.46499999706,211711.756,212327.661,,1,as
screen,html.Screen,2_3_1_0_1_2,2021-04-24T14:55:35.948Z,,,,,,,,,,,,,,,,,11,,,,,,,,,,,,,,552.6989999519137,,response,,,,4,C,,,,,,Space,keypress(Space),,,,instrumental,,,,----- -- Rapa --- -- --- -------- ------------ ---------- --<br>- ------- ------ --------- -- ------------ -- --- ---- -----<br>------ ---- ---- ------ ------ ------- --- ----- ---------<br>---- --- -------- -------- --- --- -- ------- --- --- -----<br>-- --- ------ ------- --- --- -------- ---- --------- --<br>---------- -- -------- ----------------,212881.11999991816,212880.3599999519,212311.207,212311.27499998547,212327.661,212893.391,,2,Rapa
screen,html.Screen,2_3_1_0_1_3,2021-04-24T14:55:36.302Z,,,,,,,,,,,,,,,,,11,,,,,,,,,,,,,,341.37899998092325,,response,,,,4,C,,,,,,Space,keypress(Space),,,,instrumental,,,,----- -- ---- Nui -- --- -------- ------------ ---------- --<br>- ------- ------ --------- -- ------------ -- --- ---- -----<br>------ ---- ---- ------ ------ ------- --- ----- ---------<br>---- --- -------- -------- --- --- -- ------- --- --- -----<br>-- --- ------ ------- --- --- -------- ---- --------- --<br>---------- -- -------- ----------------,213235.52500002552,213234.76999998093,212877.063,212881.35499996133,212893.391,213243.559,,3,Nui
screen,html.Screen,2_3_1_0_1_4,2021-04-24T14:55:36.869Z,,,,,,,,,,,,,,,,,11,,,,,,,,,,,,,,557.98100001493,,response,,,,4,C,,,,,,Space,keypress(Space),,,,instrumental,,,,----- -- ---- --- to --- -------- ------------ ---------- --<br>- ------- ------ --------- -- ------------ -- --- ---- -----<br>------ ---- ---- ------ ------ ------- --- ----- ---------<br>---- --- -------- -------- --- --- -- ------- --- --- -----<br>-- --- ------ ------- --- --- -------- ---- --------- --<br>---------- -- -------- ----------------,213802.29499994311,213801.54000001494,213226.661,213235.67500000354,213243.559,213809.208,,4,to
screen,html.Screen,2_3_1_0_1_5,2021-04-24T14:55:37.325Z,,,,,,,,,,,,,,,,,11,,,,,,,,,,,,,,448.56699994727387,,response,,,,4,C,,,,,,Space,keypress(Space),,,,instrumental,,,,----- -- ---- --- -- the -------- ------------ ---------- --<br>- ------- ------ --------- -- ------------ -- --- ---- -----<br>------ ---- ---- ------ ------ ------- --- ----- ---------<br>---- --- -------- -------- --- --- -- ------- --- --- -----<br>-- --- ------ ------- --- --- -------- ---- --------- --<br>---------- -- -------- ----------------,214258.61499994062,214257.7749999473,213793.031,213802.44499992114,213809.208,214275.266,,5,the
screen,html.Screen,2_3_1_0_1_6,2021-04-24T14:55:37.968Z,,,,,,,,,,,,,,,,,11,,,,,,,,,,,,,,625.0990000086022,,response,,,,4,C,,,,,,Space,keypress(Space),,,,instrumental,,,,----- -- ---- --- -- --- island's ------------ ---------- --<br>- ------- ------ --------- -- ------------ -- --- ---- -----<br>------ ---- ---- ------ ------ ------- --- ----- ---------<br>---- --- -------- -------- --- --- -- ------- --- --- -----<br>-- --- ------ ------- --- --- -------- ---- --------- --<br>---------- -- -------- ----------------,214901.05999994557,214900.3650000086,214258.954,214258.75999999698,214275.266,214908,,6,island's
screen,html.Screen,2_3_1_0_1_7,2021-04-24T14:55:38.386Z,,,,,,,,,,,,,,,,,11,,,,,,,,,,,,,,412.50999999046326,,response,,,,4,C,,,,,,Space,keypress(Space),,,,instrumental,,,,"----- -- ---- --- -- --- -------- inhabitants, ---------- --<br>- ------- ------ --------- -- ------------ -- --- ---- -----<br>------ ---- ---- ------ ------ ------- --- ----- ---------<br>---- --- -------- -------- --- --- -- ------- --- --- -----<br>-- --- ------ ------- --- --- -------- ---- --------- --<br>---------- -- -------- ----------------",215321.20000000577,215320.50999999046,214891.321,214901.21499996167,214908,215323.975,,7,"inhabitants,"
screen,html.Screen,2_3_1_0_1_8,2021-04-24T14:55:38.812Z,,,,,,,,,,,,,,,,,11,,,,,,,,,,,,,,423.0049999380426,,response,,,,4,C,,,,,,Space,keypress(Space),,,,instrumental,,,,----- -- ---- --- -- --- -------- ------------ Rongorongo --<br>- ------- ------ --------- -- ------------ -- --- ---- -----<br>------ ---- ---- ------ ------ ------- --- ----- ---------<br>---- --- -------- -------- --- --- -- ------- --- --- -----<br>-- --- ------ ------- --- --- -------- ---- --------- --<br>---------- -- -------- ----------------,215747.74999998044,215746.97999993805,215307.735,215321.35500002187,215323.975,215757.258,,8,Rongorongo
screen,html.Screen,2_3_1_0_1_9,2021-04-24T14:55:39.416Z,,,,,,,,,,,,,,,,,11,,,,,,,,,,,,,,593.5919999297766,,response,,,,4,C,,,,,,Space,keypress(Space),,,,instrumental,,,,----- -- ---- --- -- --- -------- ------------ ---------- is<br>- ------- ------ --------- -- ------------ -- --- ---- -----<br>------ ---- ---- ------ ------ ------- --- ----- ---------<br>---- --- -------- -------- --- --- -- ------- --- --- -----<br>-- --- ------ ------- --- --- -------- ---- --------- --<br>---------- -- -------- ----------------,216351.58999997657,216350.84999992978,215740.761,215747.90499999654,215757.258,216356.165,,9,is
screen,html.Screen,2_3_1_0_1_10,2021-04-24T14:55:39.895Z,,,,,,,,,,,,,,,,,11,,,,,,,,,,,,,,473.37499994787504,,response,,,,4,C,,,,,,Space,keypress(Space),,,,instrumental,,,,----- -- ---- --- -- --- -------- ------------ ---------- --<br>a ------- ------ --------- -- ------------ -- --- ---- -----<br>------ ---- ---- ------ ------ ------- --- ----- ---------<br>---- --- -------- -------- --- --- -- ------- --- --- -----<br>-- --- ------ ------- --- --- -------- ---- --------- --<br>---------- -- -------- ----------------,216830.36000002176,216829.53999994788,216339.69,216351.7549999524,216356.165,216839.205,,10,a
screen,html.Screen,2_3_1_0_1_11,2021-04-24T14:55:40.448Z,,,,,,,,,,,,,,,,,11,,,,,,,,,,,,,,543.595000021247,,response,,,,4,C,,,,,,Space,keypress(Space),,,,instrumental,,,,----- -- ---- --- -- --- -------- ------------ ---------- --<br>- writing ------ --------- -- ------------ -- --- ---- -----<br>------ ---- ---- ------ ------ ------- --- ----- ---------<br>---- --- -------- -------- --- --- -- ------- --- --- -----<br>-- --- ------ ------- --- --- -------- ---- --------- --<br>---------- -- -------- ----------------,217383.56500002556,217382.80000002123,216822.457,216830.50999999978,216839.205,217388.462,,11,writing
screen,html.Screen,2_3_1_0_1_12,2021-04-24T14:55:41.247Z,,,,,,,,,,,,,,,,,11,,,,,,,,,,,,,,793.1629999683355,,response,,,,4,C,,,,,,Space,keypress(Space),,,,instrumental,,,,----- -- ---- --- -- --- -------- ------------ ---------- --<br>- ------- system --------- -- ------------ -- --- ---- -----<br>------ ---- ---- ------ ------ ------- --- ----- ---------<br>---- --- -------- -------- --- --- -- ------- --- --- -----<br>-- --- ------ ------- --- --- -------- ---- --------- --<br>---------- -- -------- ----------------,218182.38000001293,218181.62499996834,217372.463,217383.7249999633,217388.462,218187.62,,12,system
screen,html.Screen,2_3_1_0_1_13,2021-04-24T14:55:42.075Z,,,,,,,,,,,,,,,,,11,,,,,,,,,,,,,,821.9299999588402,,response,,,,4,C,,,,,,Space,keypress(Space),,,,instrumental,,,,----- -- ---- --- -- --- -------- ------------ ---------- --<br>- ------- ------ comprised -- ------------ -- --- ---- -----<br>------ ---- ---- ------ ------ ------- --- ----- ---------<br>---- --- -------- -------- --- --- -- ------- --- --- -----<br>-- --- ------ ------- --- --- -------- ---- --------- --<br>---------- -- -------- ----------------,219010.30999992508,219009.54999995884,218171.395,218182.53999995068,218187.62,219019.971,,13,comprised
screen,html.Screen,2_3_1_0_1_14,2021-04-24T14:55:42.465Z,,,,,,,,,,,,,,,,,11,,,,,,,,,,,,,,380.20899999691756,,response,,,,4,C,,,,,,Space,keypress(Space),,,,instrumental,,,,----- -- ---- --- -- --- -------- ------------ ---------- --<br>- ------- ------ --------- of ------------ -- --- ---- -----<br>------ ---- ---- ------ ------ ------- --- ----- ---------<br>---- --- -------- -------- --- --- -- ------- --- --- -----<br>-- --- ------ ------- --- --- -------- ---- --------- --<br>---------- -- -------- ----------------,219400.735000032,219400.1799999969,219003.725,219010.46999997925,219019.971,219402.849,,14,of
screen,html.Screen,2_3_1_0_1_15,2021-04-24T14:55:42.914Z,,,,,,,,,,,,,,,,,11,,,,,,,,,,,,,,445.28599997836864,,response,,,,4,C,,,,,,Space,keypress(Space),,,,instrumental,,,,----- -- ---- --- -- --- -------- ------------ ---------- --<br>- ------- ------ --------- -- pictographs. -- --- ---- -----<br>------ ---- ---- ------ ------ ------- --- ----- ---------<br>---- --- -------- -------- --- --- -- ------- --- --- -----<br>-- --- ------ ------- --- --- -------- ---- --------- --<br>---------- -- -------- ----------------,219848.88499998488,219848.13499997836,219386.67,219400.84999997634,219402.849,219852.333,,15,pictographs.
screen,html.Screen,2_3_1_0_1_16,2021-04-24T14:55:43.446Z,,,,,,,,,,,,,,,,,11,,,,,,,,,,,,,,528.2119999635906,,response,,,,4,C,,,,,,Space,keypress(Space),,,,instrumental,,,,----- -- ---- --- -- --- -------- ------------ ---------- --<br>- ------- ------ --------- -- ------------ It --- ---- -----<br>------ ---- ---- ------ ------ ------- --- ----- ---------<br>---- --- -------- -------- --- --- -- ------- --- --- -----<br>-- --- ------ ------- --- --- -------- ---- --------- --<br>---------- -- -------- ----------------,220381.23499997891,220380.5449999636,219836.071,219849.04000000097,219852.333,220385.122,,16,It
screen,html.Screen,2_3_1_0_1_17,2021-04-24T14:55:43.794Z,,,,,,,,,,,,,,,,,11,,,,,,,,,,,,,,343.7029999983206,,response,,,,4,C,,,,,,Space,keypress(Space),,,,instrumental,,,,----- -- ---- --- -- --- -------- ------------ ---------- --<br>- ------- ------ --------- -- ------------ -- has ---- -----<br>------ ---- ---- ------ ------ ------- --- ----- ---------<br>---- --- -------- -------- --- --- -- ------- --- --- -----<br>-- --- ------ ------- --- --- -------- ---- --------- --<br>---------- -- -------- ----------------,220729.69499998726,220728.82499999832,220368.901,220381.3749999972,220385.122,220734.731,,17,has
screen,html.Screen,2_3_1_0_1_18,2021-04-24T14:55:44.161Z,,,,,,,,,,,,,,,,,11,,,,,,,,,,,,,,360.3990000306221,,response,,,,4,C,,,,,,Space,keypress(Space),,,,instrumental,,,,----- -- ---- --- -- --- -------- ------------ ---------- --<br>- ------- ------ --------- -- ------------ -- --- been -----<br>------ ---- ---- ------ ------ ------- --- ----- ---------<br>---- --- -------- -------- --- --- -- ------- --- --- -----<br>-- --- ------ ------- --- --- -------- ---- --------- --<br>---------- -- -------- ----------------,221095.89499991853,221095.13000003062,220718.227,220729.8399999272,220734.731,221101.202,,18,been
screen,html.Screen,2_3_1_0_1_19,2021-04-24T14:55:44.669Z,,,,,,,,,,,,,,,,,11,,,,,,,,,,,,,,501.9729999383562,,response,,,,4,C,,,,,,Space,keypress(Space),,,,instrumental,,,,----- -- ---- --- -- --- -------- ------------ ---------- --<br>- ------- ------ --------- -- ------------ -- --- ---- found<br>------ ---- ---- ------ ------ ------- --- ----- ---------<br>---- --- -------- -------- --- --- -- ------- --- --- -----<br>-- --- ------ ------- --- --- -------- ---- --------- --<br>---------- -- -------- ----------------,221603.98000001442,221603.17499993835,221084.83,221096.04999993462,221101.202,221617.493,,19,found
screen,html.Screen,2_3_1_0_1_20,2021-04-24T14:55:45.315Z,,,,,,,,,,,,,,,,,11,,,,,,,,,,,,,,632.2869999546383,,response,,,,4,C,,,,,,Space,keypress(Space),,,,instrumental,,,,----- -- ---- --- -- --- -------- ------------ ---------- --<br>- ------- ------ --------- -- ------------ -- --- ---- -----<br>carved ---- ---- ------ ------ ------- --- ----- ---------<br>---- --- -------- -------- --- --- -- ------- --- --- -----<br>-- --- ------ ------- --- --- -------- ---- --------- --<br>---------- -- -------- ----------------,222250.46999996994,222249.77999995463,221600.992,221604.1350000305,221617.493,222266.628,,20,carved
screen,html.Screen,2_3_1_0_1_21,2021-04-24T14:55:45.692Z,,,,,,,,,,,,,,,,,11,,,,,,,,,,,,,,360.01699995298986,,response,,,,4,C,,,,,,Space,keypress(Space),,,,instrumental,,,,----- -- ---- --- -- --- -------- ------------ ---------- --<br>- ------- ------ --------- -- ------------ -- --- ---- -----<br>------ into ---- ------ ------ ------- --- ----- ---------<br>---- --- -------- -------- --- --- -- ------- --- --- -----<br>-- --- ------ ------- --- --- -------- ---- --------- --<br>---------- -- -------- ----------------,222627.41999991704,222626.644999953,222249.859,222250.60999998823,222266.628,222632.602,,21,into
screen,html.Screen,2_3_1_0_1_22,2021-04-24T14:55:46.095Z,,,,,,,,,,,,,,,,,11,,,,,,,,,,,,,,397.43799998325994,,response,,,,4,C,,,,,,Space,keypress(Space),,,,instrumental,,,,----- -- ---- --- -- --- -------- ------------ ---------- --<br>- ------- ------ --------- -- ------------ -- --- ---- -----<br>------ ---- many ------ ------ ------- --- ----- ---------<br>---- --- -------- -------- --- --- -- ------- --- --- -----<br>-- --- ------ ------- --- --- -------- ---- --------- --<br>---------- -- -------- ----------------,223030.84000002127,223030.03999998327,222616.053,222627.57499993313,222632.602,223068.46,,22,many
screen,html.Screen,2_3_1_0_1_23,2021-04-24T14:55:46.780Z,,,,,,,,,,,,,,,,,11,,,,,,,,,,,,,,646.4899999359332,,response,,,,4,C,,,,,,Space,keypress(Space),,,,instrumental,,,,----- -- ---- --- -- --- -------- ------------ ---------- --<br>- ------- ------ --------- -- ------------ -- --- ---- -----<br>------ ---- ---- oblong ------ ------- --- ----- ---------<br>---- --- -------- -------- --- --- -- ------- --- --- -----<br>-- --- ------ ------- --- --- -------- ---- --------- --<br>---------- -- -------- ----------------,223715.68999998271,223714.94999993593,223015.659,223031.0949999839,223068.46,223732.063,,23,oblong
screen,html.Screen,2_3_1_0_1_24,2021-04-24T14:55:47.222Z,,,,,,,,,,,,,,,,,11,,,,,,,,,,,,,,424.3570000139007,,response,,,,4,C,,,,,,Space,keypress(Space),,,,instrumental,,,,----- -- ---- --- -- --- -------- ------------ ---------- --<br>- ------- ------ --------- -- ------------ -- --- ---- -----<br>------ ---- ---- ------ wooden ------- --- ----- ---------<br>---- --- -------- -------- --- --- -- ------- --- --- -----<br>-- --- ------ ------- --- --- -------- ---- --------- --<br>---------- -- -------- ----------------,224157.18999993987,224156.4200000139,223715.271,223715.84999992047,223732.063,224164.279,,24,wooden
screen,html.Screen,2_3_1_0_1_25,2021-04-24T14:55:47.757Z,,,,,,,,,,,,,,,,,11,,,,,,,,,,,,,,527.005999949848,,response,,,,4,C,,,,,,Space,keypress(Space),,,,instrumental,,,,----- -- ---- --- -- --- -------- ------------ ---------- --<br>- ------- ------ --------- -- ------------ -- --- ---- -----<br>------ ---- ---- ------ ------ tablets --- ----- ---------<br>---- --- -------- -------- --- --- -- ------- --- --- -----<br>-- --- ------ ------- --- --- -------- ---- --------- --<br>---------- -- -------- ----------------,224692.06999999005,224691.28499994986,224147.749,224159.89999996964,224164.279,224697.075,,25,tablets
screen,html.Screen,2_3_1_0_1_26,2021-04-24T14:55:48.226Z,,,,,,,,,,,,,,,,,11,,,,,,,,,,,,,,463.6499999651569,,response,,,,4,C,,,,,,Space,keypress(Space),,,,instrumental,,,,----- -- ---- --- -- --- -------- ------------ ---------- --<br>- ------- ------ --------- -- ------------ -- --- ---- -----<br>------ ---- ---- ------ ------ ------- and ----- ---------<br>---- --- -------- -------- --- --- -- ------- --- --- -----<br>-- --- ------ ------- --- --- -------- ---- --------- --<br>---------- -- -------- ----------------,225161.4249999402,225160.72499996517,224680.526,224692.21499993,224697.075,225163.24,,26,and
screen,html.Screen,2_3_1_0_1_27,2021-04-24T14:55:48.745Z,,,,,,,,,,,,,,,,,11,,,,,,,,,,,,,,516.8399999618996,,response,,,,4,C,,,,,,Space,keypress(Space),,,,instrumental,,,,----- -- ---- --- -- --- -------- ------------ ---------- --<br>- ------- ------ --------- -- ------------ -- --- ---- -----<br>------ ---- ---- ------ ------ ------- --- other ---------<br>---- --- -------- -------- --- --- -- ------- --- --- -----<br>-- --- ------ ------- --- --- -------- ---- --------- --<br>---------- -- -------- ----------------,225680.70000002626,225680.0799999619,225146.674,225161.5799999563,225163.24,225695.942,,27,other
screen,html.Screen,2_3_1_0_1_28,2021-04-24T14:55:49.125Z,,,,,,,,,,,,,,,,,11,,,,,,,,,,,,,,363.7379999475379,,response,,,,4,C,,,,,,Space,keypress(Space),,,,instrumental,,,,----- -- ---- --- -- --- -------- ------------ ---------- --<br>- ------- ------ --------- -- ------------ -- --- ---- -----<br>------ ---- ---- ------ ------ ------- --- ----- artifacts<br>---- --- -------- -------- --- --- -- ------- --- --- -----<br>-- --- ------ ------- --- --- -------- ---- --------- --<br>---------- -- -------- ----------------,226060.55499997456,226059.67999994755,225679.679,225680.85000000428,225695.942,226062.217,,28,artifacts
screen,html.Screen,2_3_1_0_1_29,2021-04-24T14:55:49.662Z,,,,,,,,,,,,,,,,,11,,,,,,,,,,,,,,534.3529999360326,,response,,,,4,C,,,,,,Space,keypress(Space),,,,instrumental,,,,----- -- ---- --- -- --- -------- ------------ ---------- --<br>- ------- ------ --------- -- ------------ -- --- ---- -----<br>------ ---- ---- ------ ------ ------- --- ----- ---------<br>from --- -------- -------- --- --- -- ------- --- --- -----<br>-- --- ------ ------- --- --- -------- ---- --------- --<br>---------- -- -------- ----------------,226597.3450000165,226596.56999993604,226045.829,226060.70999999065,226062.217,226612.016,,29,from
screen,html.Screen,2_3_1_0_1_30,2021-04-24T14:55:50.051Z,,,,,,,,,,,,,,,,,11,,,,,,,,,,,,,,373.11399992817314,,response,,,,4,C,,,,,,Space,keypress(Space),,,,instrumental,,,,----- -- ---- --- -- --- -------- ------------ ---------- --<br>- ------- ------ --------- -- ------------ -- --- ---- -----<br>------ ---- ---- ------ ------ ------- --- ----- ---------<br>---- the -------- -------- --- --- -- ------- --- --- -----<br>-- --- ------ ------- --- --- -------- ---- --------- --<br>---------- -- -------- ----------------,226985.8799999347,226985.12999992818,226595.542,226597.50499995425,226612.016,226994.687,,30,the
screen,html.Screen,2_3_1_0_1_31,2021-04-24T14:55:50.541Z,,,,,,,,,,,,,,,,,11,,,,,,,,,,,,,,480.61299993275316,,response,,,,4,C,,,,,,Space,keypress(Space),,,,instrumental,,,,----- -- ---- --- -- --- -------- ------------ ---------- --<br>- ------- ------ --------- -- ------------ -- --- ---- -----<br>------ ---- ---- ------ ------ ------- --- ----- ---------<br>---- --- island's -------- --- --- -- ------- --- --- -----<br>-- --- ------ ------- --- --- -------- ---- --------- --<br>---------- -- -------- ----------------,227476.04999993928,227475.29999993276,226977.949,226986.00499995518,226994.687,227498.778,,31,island's
screen,html.Screen,2_3_1_0_1_32,2021-04-24T14:55:51.309Z,,,,,,,,,,,,,,,,,11,,,,,,,,,,,,,,745.0569999720319,,response,,,,4,C,,,,,,Space,keypress(Space),,,,instrumental,,,,----- -- ---- --- -- --- -------- ------------ ---------- --<br>- ------- ------ --------- -- ------------ -- --- ---- -----<br>------ ---- ---- ------ ------ ------- --- ----- ---------<br>---- --- -------- history. --- --- -- ------- --- --- -----<br>-- --- ------ ------- --- --- -------- ---- --------- --<br>---------- -- -------- ----------------,228244.59499993827,228243.83499997202,227461.288,227476.1999999173,227498.778,228259.836,,32,history.
screen,html.Screen,2_3_1_0_1_33,2021-04-24T14:55:51.728Z,,,,,,,,,,,,,,,,,11,,,,,,,,,,,,,,403.2839999246644,,response,,,,4,C,,,,,,Space,keypress(Space),,,,instrumental,,,,----- -- ---- --- -- --- -------- ------------ ---------- --<br>- ------- ------ --------- -- ------------ -- --- ---- -----<br>------ ---- ---- ------ ------ ------- --- ----- ---------<br>---- --- -------- -------- The --- -- ------- --- --- -----<br>-- --- ------ ------- --- --- -------- ---- --------- --<br>---------- -- -------- ----------------,228663.8399999356,228663.11999992467,228243.694,228244.75499999244,228259.836,228676.379,,33,The
screen,html.Screen,2_3_1_0_1_34,2021-04-24T14:55:52.162Z,,,,,,,,,,,,,,,,,11,,,,,,,,,,,,,,420.44600001510116,,response,,,,4,C,,,,,,Space,keypress(Space),,,,instrumental,,,,----- -- ---- --- -- --- -------- ------------ ---------- --<br>- ------- ------ --------- -- ------------ -- --- ---- -----<br>------ ---- ---- ------ ------ ------- --- ----- ---------<br>---- --- -------- -------- --- art -- ------- --- --- -----<br>-- --- ------ ------- --- --- -------- ---- --------- --<br>---------- -- -------- ----------------,229097.6050000172,229096.8250000151,228659.687,228663.99000003003,228676.379,229109.294,,34,art
screen,html.Screen,2_3_1_0_1_35,2021-04-24T14:55:52.506Z,,,,,,,,,,,,,,,,,11,,,,,,,,,,,,,,331.09099996532314,,response,,,,4,C,,,,,,Space,keypress(Space),,,,instrumental,,,,----- -- ---- --- -- --- -------- ------------ ---------- --<br>- ------- ------ --------- -- ------------ -- --- ---- -----<br>------ ---- ---- ------ ------ ------- --- ----- ---------<br>---- --- -------- -------- --- --- of ------- --- --- -----<br>-- --- ------ ------- --- --- -------- ---- --------- --<br>---------- -- -------- ----------------,229441.04499998502,229440.38499996532,229092.432,229097.76499995496,229109.294,229458.808,,35,of
screen,html.Screen,2_3_1_0_1_36,2021-04-24T14:55:52.883Z,,,,,,,,,,,,,,,,,11,,,,,,,,,,,,,,358.41700000615674,,response,,,,4,C,,,,,,Space,keypress(Space),,,,instrumental,,,,----- -- ---- --- -- --- -------- ------------ ---------- --<br>- ------- ------ --------- -- ------------ -- --- ---- -----<br>------ ---- ---- ------ ------ ------- --- ----- ---------<br>---- --- -------- -------- --- --- -- writing --- --- -----<br>-- --- ------ ------- --- --- -------- ---- --------- --<br>---------- -- -------- ----------------,229818.00500000827,229817.22500000615,229425.608,229441.20000000112,229458.808,229825.057,,36,writing
screen,html.Screen,2_3_1_0_1_37,2021-04-24T14:55:53.394Z,,,,,,,,,,,,,,,,,11,,,,,,,,,,,,,,503.29800000510295,,response,,,,4,C,,,,,,Space,keypress(Space),,,,instrumental,,,,----- -- ---- --- -- --- -------- ------------ ---------- --<br>- ------- ------ --------- -- ------------ -- --- ---- -----<br>------ ---- ---- ------ ------ ------- --- ----- ---------<br>---- --- -------- -------- --- --- -- ------- was --- -----<br>-- --- ------ ------- --- --- -------- ---- --------- --<br>---------- -- -------- ----------------,230329.09999997355,230328.3550000051,229808.233,229818.16000002436,229825.057,230341.189,,37,was
