sender,sender_type,sender_id,timestamp,meta,,Blues,Classical,Country,Dance,Electronic,Folk,Gospel,Hip-Hop,Jazz,Latin,Musical/Film,New-age,Pop,Prolific_id,Provo_ID,R&B,Rap,Reggae,Religious,Rock,Soul,Swing,Traditional,age,artist_name,correct,correctResponse,distraction,duration,education,ended_on,familiarity,gender,headphone_check_performance,item,list,music_frequency,offensiveness,pleasantness,position_correct,preference,response,response_action,snippet_file,song_name,song_rating,sound,stimulus_1,stimulus_2,stimulus_3,text,time_commit,time_end,time_render,time_run,time_show,time_switch,url,word,word_ID
Prolific ID,html.Form,0,2021-04-24T18:08:09.410Z,"{""labjs_version"":""20.2.2"",""labjs_build"":{""flavor"":""production"",""commit"":""a25486e0c714a0ae2ce03ff94b7bb6896854dcfa""},""location"":""https://run.pavlovia.org/mvasilev/prolific_music_e/"",""userAgent"":""Mozilla/5.0 (X11; Ubuntu; Linux x86_64; rv:87.0) Gecko/20100101 Firefox/87.0"",""platform"":""Linux x86_64"",""language"":""en-GB"",""locale"":""en-GB"",""timeZone"":""Europe/London"",""timezoneOffset"":-60,""screen_width"":1440,""screen_height"":810,""scroll_width"":1440,""scroll_height"":627,""window_innerWidth"":1440,""window_innerHeight"":675,""devicePixelRatio"":1}",,,,,,,,,,,,,,,5ec3c9ad964c0a062aaf5659,,,,,,,,,,,,,,,11367.18,,form submission,,,,,,,,,,,,,,,,,,,,,34755,34754,23370.14,23361,23386.82,34770.16,{},,
Introduction,html.Screen,1_0,2021-04-24T18:08:16.712Z,,,,,,,,,,,,,,,,,,,,,,,,,,,,,,,7277.8399999999965,,response,,,,,,,,,,,continue,click button,,,,,,,,,42057,42048,34753.46,34756,34770.16,42070.12,,,
Volume calibration,html.Screen,1_1,2021-04-24T18:08:40.260Z,,,,,,,,,,,,,,,,,,,,,,,,,,,,,,,23529.879999999997,,response,,,,,,,,,,,continue,click button,,,,,,,,,65606,65600,42053.44,42058,42070.12,65620.06,,,
Task instructions,html.Screen,1_2,2021-04-24T18:08:51.325Z,,,,,,,,,,,,,,,,,,,,,,,,,,,,,,,11043.940000000002,,response,,,,,,,,,,,continue,click button,,,,,,,,,76671,76664,65603.34,65606,65620.06,76686.66,,,
Sounds,html.Screen,1_3_0_0,2021-04-24T18:08:55.579Z,,,,,,,,,,,,,,,,,,,,,,,,,,,,,,,4249.979999999996,,timeout,,,,,,,,,1,,,,,,,,S,I,O,,80924,80920.14,76670.02,76672,76686.66,80936.64,,,
Judgement,html.Screen,1_3_0_1,2021-04-24T18:08:58.215Z,,,,,,,,,,,,,,,,,,,,,,,,,,,,true,1,,2616.3600000000006,,response,,,,,,,,,1,,1,click #choice-1,,,,,S,I,O,,83560,83553,80920.14,80925,80936.64,83586.64,,,
Trial,flow.Sequence,1_3_0,2021-04-24T18:08:58.216Z,,,,,,,,,,,,,,,,,,,,,,,,,,,,,,,6866.3399999999965,,completion,,,,,,,,,1,,,,,,,,S,I,O,,83561,83553,76670.02,76672,76686.66,83586.64,,,
Sounds,html.Screen,1_3_1_0,2021-04-24T18:09:02.476Z,,,,,,,,,,,,,,,,,,,,,,,,,,,,,,,4250,,timeout,,,,,,,,,3,,,,,,,,I,O,S,,87822,87820.02,83569.96,83561,83586.64,87836.64,,,
Judgement,html.Screen,1_3_1_1,2021-04-24T18:09:03.144Z,,,,,,,,,,,,,,,,,,,,,,,,,,,,true,3,,643.3600000000006,,response,,,,,,,,,3,,3,click #choice-3,,,,,I,O,S,,88490,88480,87820.02,87823,87836.64,88503.3,,,
Trial,flow.Sequence,1_3_1,2021-04-24T18:09:03.146Z,,,,,,,,,,,,,,,,,,,,,,,,,,,,,,,4893.360000000001,,completion,,,,,,,,,3,,,,,,,,I,O,S,,88491,88480,83569.96,83561,83586.64,88503.3,,,
Sounds,html.Screen,1_3_2_0,2021-04-24T18:09:07.394Z,,,,,,,,,,,,,,,,,,,,,,,,,,,,,,,4250.139999999999,,timeout,,,,,,,,,2,,,,,,,,I,S,O,,92740,92736.66,88486.66,88492,88503.3,92753.44,,,
Judgement,html.Screen,1_3_2_1,2021-04-24T18:09:08.021Z,,,,,,,,,,,,,,,,,,,,,,,,,,,,true,2,,607.5599999999977,,response,,,,,,,,,2,,2,click #choice-2,,,,,I,S,O,,93366,93361,92736.66,92741,92753.44,93386.62,,,
Trial,flow.Sequence,1_3_2,2021-04-24T18:09:08.022Z,,,,,,,,,,,,,,,,,,,,,,,,,,,,,,,4857.699999999997,,completion,,,,,,,,,2,,,,,,,,I,S,O,,93367,93361,88486.66,88492,88503.3,93386.62,,,
Sounds,html.Screen,1_3_3_0,2021-04-24T18:09:12.276Z,,,,,,,,,,,,,,,,,,,,,,,,,,,,,,,4250.040000000008,,timeout,,,,,,,,,3,,,,,,,,O,I,S,,97621,97619.92,93369.94,93367,93386.62,97636.66,,,
Judgement,html.Screen,1_3_3_1,2021-04-24T18:09:12.838Z,,,,,,,,,,,,,,,,,,,,,,,,,,,,true,3,,539.3399999999965,,response,,,,,,,,,3,,3,click #choice-3,,,,,O,I,S,,98184,98176,97619.92,97621,97636.66,98203.26,,,
Trial,flow.Sequence,1_3_3,2021-04-24T18:09:12.839Z,,,,,,,,,,,,,,,,,,,,,,,,,,,,,,,4789.380000000005,,completion,,,,,,,,,3,,,,,,,,O,I,S,,98184,98176,93369.94,93367,93386.62,98203.26,,,
Sounds,html.Screen,1_3_4_0,2021-04-24T18:09:17.093Z,,,,,,,,,,,,,,,,,,,,,,,,,,,,,,,4250,,timeout,,,,,,,,,2,,,,,,,,O,S,I,,102438,102436.62,98186.62,98185,98203.26,102453.26,,,
Judgement,html.Screen,1_3_4_1,2021-04-24T18:09:17.687Z,,,,,,,,,,,,,,,,,,,,,,,,,,,,true,2,,570.7400000000052,,response,,,,,,,,,2,,2,click #choice-2,,,,,O,S,I,,103033,103024,102436.62,102439,102453.26,103053.28,,,
Trial,flow.Sequence,1_3_4,2021-04-24T18:09:17.688Z,,,,,,,,,,,,,,,,,,,,,,,,,,,,,,,4820.740000000005,,completion,,,,,,,,,2,,,,,,,,O,S,I,,103034,103024,98186.62,98185,98203.26,103053.28,,,
Sounds,html.Screen,1_3_5_0,2021-04-24T18:09:21.943Z,,,,,,,,,,,,,,,,,,,,,,,,,,,,,,,4249.979999999996,,timeout,,,,,,,,,1,,,,,,,,S,O,I,,107288,107286.6,103036.62,103034,103053.28,107303.26,,,
Judgement,html.Screen,1_3_5_1,2021-04-24T18:09:22.925Z,,,,,,,,,,,,,,,,,,,,,,,,,,,,true,1,,961.7400000000052,,response,,,,,,,,,1,,1,click #choice-1,,,,,S,O,I,,108270,108265,107286.6,107289,107303.26,108286.58,,,
Trial,flow.Sequence,1_3_5,2021-04-24T18:09:22.926Z,,,,,,,,,,,,,,,,,,,,,,,,,,,,,,,5211.720000000001,,completion,,,,,,,,,1,,,,,,,,S,O,I,,108271,108265,103036.62,103034,103053.28,108286.58,,,
Task,flow.Loop,1_3,2021-04-24T18:09:22.928Z,,,,,,,,,,,,,,,,,,,,,,,,,,,,,,,31578.339999999997,,completion,,,1,,,,,,,,,,,,,,,,,,108273,108265,76670.02,76671,76686.66,108286.58,,,
Trap,html.Screen,1_4,2021-04-24T18:09:22.931Z,,,,,,,,,,,,,,,,,,,,,,,,,,,,,,,NaN,,skipped,,,,,,,,,,,,,,,,,,,,,108276,108265,,108276,,108286.58,,,
Thanks,html.Screen,1_5,2021-04-24T18:09:26.925Z,,,,,,,,,,,,,,,,,,,,,,,,,,,,,,,3977.4199999999983,,response,,,,,,,,,,,continue,click button,,,,,,,,,112271,112264,108269.92,108276,108286.58,118737.04,,,
Headphone screening,flow.Sequence,1,2021-04-24T18:09:26.926Z,,,,,,,,,,,,,,,,,,,,,,,,,,,,,,,77493.84,,completion,,,,,,,,,,,,,,,,,,,,,112271,112264,34753.46,34755,34770.16,118737.04,,,
Instructions,html.Page,2_0,2021-04-24T18:09:58.009Z,,,,,,,,,,,,,,,,,,,,,,,,,,,,,,,24614.960000000006,,form submission,,,,,,,,,,,,,,,,,,,,,143355,143352,118719.9,118690,118737.04,143369.8,,,
Holding screen,html.Screen,2_1_0_0,2021-04-24T18:10:08.010Z,,,,,,,,,,,,,,,,,,,,,,,,,,,,,,,9999.960000000021,,timeout,,,,,,,,,,,,,,,,,,,,,153354,153353.22,143353.12,143357,143369.8,153369.76,,,
screen,html.Screen,2_1_0_1_0,2021-04-24T18:10:09.070Z,,,,,,,,,,,,,,,,,53,,,,,,,,,,,,,,1040.2399999999907,,response,,,,99,,,,,,,Space,keypress(Space),,,,,,,,When -- ----- -- ------ - ------- --- ----------<br>------------- ------ ------ ---- ---- ------- ----- -- ----<br>-------- ------- -- ---------- --- - --- ----- ----- ----<br>---- --- --- ----- --- ---- ---- ------- ----- ---- -------<br>--- --- -- ----- -- --- ---- -- --- ---- -- ------ ------<br>--- ----- -- ----,154415,154410,153353.22,153356,153369.76,154436.58,,0,When
screen,html.Screen,2_1_0_1_1,2021-04-24T18:10:11.243Z,,,,,,,,,,,,,,,,,53,,,,,,,,,,,,,,2148.420000000013,,response,,,,99,,,,,,,Space,keypress(Space),,,,,,,,---- it ----- -- ------ - ------- --- ----------<br>------------- ------ ------ ---- ---- ------- ----- -- ----<br>-------- ------- -- ---------- --- - --- ----- ----- ----<br>---- --- --- ----- --- ---- ---- ------- ----- ---- -------<br>--- --- -- ----- -- --- ---- -- --- ---- -- ------ ------<br>--- ----- -- ----,156588,156585,154419.82,154417,154436.58,156619.78,,1,it
screen,html.Screen,2_1_0_1_2,2021-04-24T18:10:12.122Z,,,,,,,,,,,,,,,,,53,,,,,,,,,,,,,,845.2200000000012,,response,,,,99,,,,,,,Space,keypress(Space),,,,,,,,---- -- comes -- ------ - ------- --- ----------<br>------------- ------ ------ ---- ---- ------- ----- -- ----<br>-------- ------- -- ---------- --- - --- ----- ----- ----<br>---- --- --- ----- --- ---- ---- ------- ----- ---- -------<br>--- --- -- ----- -- --- ---- -- --- ---- -- ------ ------<br>--- ----- -- ----,157467,157465,156603.14,156589,156619.78,157486.44,,2,comes
screen,html.Screen,2_1_0_1_3,2021-04-24T18:10:12.759Z,,,,,,,,,,,,,,,,,53,,,,,,,,,,,,,,613.5599999999977,,response,,,,99,,,,,,,Space,keypress(Space),,,,,,,,---- -- ----- to ------ - ------- --- ----------<br>------------- ------ ------ ---- ---- ------- ----- -- ----<br>-------- ------- -- ---------- --- - --- ----- ----- ----<br>---- --- --- ----- --- ---- ---- ------- ----- ---- -------<br>--- --- -- ----- -- --- ---- -- --- ---- -- ------ ------<br>--- ----- -- ----,158104,158100,157469.78,157468,157486.44,158136.46,,3,to
screen,html.Screen,2_1_0_1_4,2021-04-24T18:10:13.478Z,,,,,,,,,,,,,,,,,53,,,,,,,,,,,,,,683.5400000000081,,response,,,,99,,,,,,,Space,keypress(Space),,,,,,,,---- -- ----- -- having - ------- --- ----------<br>------------- ------ ------ ---- ---- ------- ----- -- ----<br>-------- ------- -- ---------- --- - --- ----- ----- ----<br>---- --- --- ----- --- ---- ---- ------- ----- ---- -------<br>--- --- -- ----- -- --- ---- -- --- ---- -- ------ ------<br>--- ----- -- ----,158822,158820,158119.78,158106,158136.46,158853.42,,4,having
screen,html.Screen,2_1_0_1_5,2021-04-24T18:10:13.953Z,,,,,,,,,,,,,,,,,53,,,,,,,,,,,,,,441.5799999999872,,response,,,,99,,,,,,,Space,keypress(Space),,,,,,,,---- -- ----- -- ------ a ------- --- ----------<br>------------- ------ ------ ---- ---- ------- ----- -- ----<br>-------- ------- -- ---------- --- - --- ----- ----- ----<br>---- --- --- ----- --- ---- ---- ------- ----- ---- -------<br>--- --- -- ----- -- --- ---- -- --- ---- -- ------ ------<br>--- ----- -- ----,159298,159295,158836.46,158824,158853.42,159319.86,,5,a
screen,html.Screen,2_1_0_1_6,2021-04-24T18:10:14.816Z,,,,,,,,,,,,,,,,,53,,,,,,,,,,,,,,838.140000000014,,response,,,,99,,,,,,,Space,keypress(Space),,,,,,,,---- -- ----- -- ------ - lasting --- ----------<br>------------- ------ ------ ---- ---- ------- ----- -- ----<br>-------- ------- -- ---------- --- - --- ----- ----- ----<br>---- --- --- ----- --- ---- ---- ------- ----- ---- -------<br>--- --- -- ----- -- --- ---- -- --- ---- -- ------ ------<br>--- ----- -- ----,160161,160158,159303.18,159299,159319.86,160186.44,,6,lasting
screen,html.Screen,2_1_0_1_7,2021-04-24T18:10:15.275Z,,,,,,,,,,,,,,,,,53,,,,,,,,,,,,,,430.5599999999977,,response,,,,99,,,,,,,Space,keypress(Space),,,,,,,,---- -- ----- -- ------ - ------- and ----------<br>------------- ------ ------ ---- ---- ------- ----- -- ----<br>-------- ------- -- ---------- --- - --- ----- ----- ----<br>---- --- --- ----- --- ---- ---- ------- ----- ---- -------<br>--- --- -- ----- -- --- ---- -- --- ---- -- ------ ------<br>--- ----- -- ----,160619,160617,160169.74,160161,160186.44,160653.08,,7,and
screen,html.Screen,2_1_0_1_8,2021-04-24T18:10:15.733Z,,,,,,,,,,,,,,,,,53,,,,,,,,,,,,,,422.9200000000128,,response,,,,99,,,,,,,Space,keypress(Space),,,,,,,,---- -- ----- -- ------ - ------- --- fulfilling<br>------------- ------ ------ ---- ---- ------- ----- -- ----<br>-------- ------- -- ---------- --- - --- ----- ----- ----<br>---- --- --- ----- --- ---- ---- ------- ----- ---- -------<br>--- --- -- ----- -- --- ---- -- --- ---- -- ------ ------<br>--- ----- -- ----,161078,161076,160636.48,160620,160653.08,161103.26,,8,fulfilling
screen,html.Screen,2_1_0_1_9,2021-04-24T18:10:16.199Z,,,,,,,,,,,,,,,,,53,,,,,,,,,,,,,,439.7399999999907,,response,,,,99,,,,,,,Space,keypress(Space),,,,,,,,"---- -- ----- -- ------ - ------- --- ----------<br>relationship, ------ ------ ---- ---- ------- ----- -- ----<br>-------- ------- -- ---------- --- - --- ----- ----- ----<br>---- --- --- ----- --- ---- ---- ------- ----- ---- -------<br>--- --- -- ----- -- --- ---- -- --- ---- -- ------ ------<br>--- ----- -- ----",161545,161543,161086.46,161079,161103.26,161569.82,,9,"relationship,"
screen,html.Screen,2_1_0_1_10,2021-04-24T18:10:16.968Z,,,,,,,,,,,,,,,,,53,,,,,,,,,,,,,,742.179999999993,,response,,,,99,,,,,,,Space,keypress(Space),,,,,,,,---- -- ----- -- ------ - ------- --- ----------<br>------------- common ------ ---- ---- ------- ----- -- ----<br>-------- ------- -- ---------- --- - --- ----- ----- ----<br>---- --- --- ----- --- ---- ---- ------- ----- ---- -------<br>--- --- -- ----- -- --- ---- -- --- ---- -- ------ ------<br>--- ----- -- ----,162314,162312,161553.08,161545,161569.82,162336.44,,10,common
screen,html.Screen,2_1_0_1_11,2021-04-24T18:10:17.610Z,,,,,,,,,,,,,,,,,53,,,,,,,,,,,,,,616.5599999999977,,response,,,,99,,,,,,,Space,keypress(Space),,,,,,,,---- -- ----- -- ------ - ------- --- ----------<br>------------- ------ wisdom ---- ---- ------- ----- -- ----<br>-------- ------- -- ---------- --- - --- ----- ----- ----<br>---- --- --- ----- --- ---- ---- ------- ----- ---- -------<br>--- --- -- ----- -- --- ---- -- --- ---- -- ------ ------<br>--- ----- -- ----,162955,162953,162319.86,162315,162336.44,162986.42,,11,wisdom
screen,html.Screen,2_1_0_1_12,2021-04-24T18:10:18.304Z,,,,,,,,,,,,,,,,,53,,,,,,,,,,,,,,659.5799999999872,,response,,,,99,,,,,,,Space,keypress(Space),,,,,,,,---- -- ----- -- ------ - ------- --- ----------<br>------------- ------ ------ says ---- ------- ----- -- ----<br>-------- ------- -- ---------- --- - --- ----- ----- ----<br>---- --- --- ----- --- ---- ---- ------- ----- ---- -------<br>--- --- -- ----- -- --- ---- -- --- ---- -- ------ ------<br>--- ----- -- ----,163649,163646,162969.74,162955,162986.42,163670,,12,says
screen,html.Screen,2_1_0_1_13,2021-04-24T18:10:18.712Z,,,,,,,,,,,,,,,,,53,,,,,,,,,,,,,,386,,response,,,,99,,,,,,,Space,keypress(Space),,,,,,,,---- -- ----- -- ------ - ------- --- ----------<br>------------- ------ ------ ---- that ------- ----- -- ----<br>-------- ------- -- ---------- --- - --- ----- ----- ----<br>---- --- --- ----- --- ---- ---- ------- ----- ---- -------<br>--- --- -- ----- -- --- ---- -- --- ---- -- ------ ------<br>--- ----- -- ----,164057,164056,163653.08,163649,163670,164086.46,,13,that
screen,html.Screen,2_1_0_1_14,2021-04-24T18:10:19.148Z,,,,,,,,,,,,,,,,,53,,,,,,,,,,,,,,402.54000000000815,,response,,,,99,,,,,,,Space,keypress(Space),,,,,,,,---- -- ----- -- ------ - ------- --- ----------<br>------------- ------ ------ ---- ---- feeling ----- -- ----<br>-------- ------- -- ---------- --- - --- ----- ----- ----<br>---- --- --- ----- --- ---- ---- ------- ----- ---- -------<br>--- --- -- ----- -- --- ---- -- --- ---- -- ------ ------<br>--- ----- -- ----,164493,164489,164069.8,164058,164086.46,164519.78,,14,feeling
screen,html.Screen,2_1_0_1_15,2021-04-24T18:10:19.684Z,,,,,,,,,,,,,,,,,53,,,,,,,,,,,,,,507.22000000000116,,response,,,,99,,,,,,,Space,keypress(Space),,,,,,,,---- -- ----- -- ------ - ------- --- ----------<br>------------- ------ ------ ---- ---- ------- close -- ----<br>-------- ------- -- ---------- --- - --- ----- ----- ----<br>---- --- --- ----- --- ---- ---- ------- ----- ---- -------<br>--- --- -- ----- -- --- ---- -- --- ---- -- ------ ------<br>--- ----- -- ----,165029,165027,164503.12,164494,164519.78,165053.1,,15,close
screen,html.Screen,2_1_0_1_16,2021-04-24T18:10:20.104Z,,,,,,,,,,,,,,,,,53,,,,,,,,,,,,,,392.8999999999942,,response,,,,99,,,,,,,Space,keypress(Space),,,,,,,,---- -- ----- -- ------ - ------- --- ----------<br>------------- ------ ------ ---- ---- ------- ----- to ----<br>-------- ------- -- ---------- --- - --- ----- ----- ----<br>---- --- --- ----- --- ---- ---- ------- ----- ---- -------<br>--- --- -- ----- -- --- ---- -- --- ---- -- ------ ------<br>--- ----- -- ----,165448,165446,165036.44,165029,165053.1,165469.76,,16,to
screen,html.Screen,2_1_0_1_17,2021-04-24T18:10:20.769Z,,,,,,,,,,,,,,,,,53,,,,,,,,,,,,,,642.2399999999907,,response,,,,99,,,,,,,Space,keypress(Space),,,,,,,,---- -- ----- -- ------ - ------- --- ----------<br>------------- ------ ------ ---- ---- ------- ----- -- your<br>-------- ------- -- ---------- --- - --- ----- ----- ----<br>---- --- --- ----- --- ---- ---- ------- ----- ---- -------<br>--- --- -- ----- -- --- ---- -- --- ---- -- ------ ------<br>--- ----- -- ----,166114,166112,165453.06,165449,165469.76,166136.4,,17,your
screen,html.Screen,2_1_0_1_18,2021-04-24T18:10:21.450Z,,,,,,,,,,,,,,,,,53,,,,,,,,,,,,,,656.6000000000058,,response,,,,99,,,,,,,Space,keypress(Space),,,,,,,,---- -- ----- -- ------ - ------- --- ----------<br>------------- ------ ------ ---- ---- ------- ----- -- ----<br>romantic ------- -- ---------- --- - --- ----- ----- ----<br>---- --- --- ----- --- ---- ---- ------- ----- ---- -------<br>--- --- -- ----- -- --- ---- -- --- ---- -- ------ ------<br>--- ----- -- ----,166795,166793,166119.78,166114,166136.4,166819.8,,18,romantic
screen,html.Screen,2_1_0_1_19,2021-04-24T18:10:21.972Z,,,,,,,,,,,,,,,,,53,,,,,,,,,,,,,,495.20000000001164,,response,,,,99,,,,,,,Space,keypress(Space),,,,,,,,---- -- ----- -- ------ - ------- --- ----------<br>------------- ------ ------ ---- ---- ------- ----- -- ----<br>-------- partner -- ---------- --- - --- ----- ----- ----<br>---- --- --- ----- --- ---- ---- ------- ----- ---- -------<br>--- --- -- ----- -- --- ---- -- --- ---- -- ------ ------<br>--- ----- -- ----,167317,167315,166803.08,166796,166819.8,167336.42,,19,partner
screen,html.Screen,2_1_0_1_20,2021-04-24T18:10:22.495Z,,,,,,,,,,,,,,,,,53,,,,,,,,,,,,,,501.5799999999872,,response,,,,99,,,,,,,Space,keypress(Space),,,,,,,,---- -- ----- -- ------ - ------- --- ----------<br>------------- ------ ------ ---- ---- ------- ----- -- ----<br>-------- ------- is ---------- --- - --- ----- ----- ----<br>---- --- --- ----- --- ---- ---- ------- ----- ---- -------<br>--- --- -- ----- -- --- ---- -- --- ---- -- ------ ------<br>--- ----- -- ----,167840,167838,167319.72,167318,167336.42,167869.74,,20,is
screen,html.Screen,2_1_0_1_21,2021-04-24T18:10:23.271Z,,,,,,,,,,,,,,,,,53,,,,,,,,,,,,,,744.2600000000093,,response,,,,99,,,,,,,Space,keypress(Space),,,,,,,,---- -- ----- -- ------ - ------- --- ----------<br>------------- ------ ------ ---- ---- ------- ----- -- ----<br>-------- ------- -- paramount. --- - --- ----- ----- ----<br>---- --- --- ----- --- ---- ---- ------- ----- ---- -------<br>--- --- -- ----- -- --- ---- -- --- ---- -- ------ ------<br>--- ----- -- ----,168616,168614,167853.1,167841,167869.74,168636.46,,21,paramount.
screen,html.Screen,2_1_0_1_22,2021-04-24T18:10:24.145Z,,,,,,,,,,,,,,,,,53,,,,,,,,,,,,,,850.5400000000081,,response,,,,99,,,,,,,Space,keypress(Space),,,,,,,,---- -- ----- -- ------ - ------- --- ----------<br>------------- ------ ------ ---- ---- ------- ----- -- ----<br>-------- ------- -- ---------- But - --- ----- ----- ----<br>---- --- --- ----- --- ---- ---- ------- ----- ---- -------<br>--- --- -- ----- -- --- ---- -- --- ---- -- ------ ------<br>--- ----- -- ----,169490,169487,168619.76,168616,168636.46,169519.78,,22,But
screen,html.Screen,2_1_0_1_23,2021-04-24T18:10:24.785Z,,,,,,,,,,,,,,,,,53,,,,,,,,,,,,,,608.2200000000012,,response,,,,99,,,,,,,Space,keypress(Space),,,,,,,,---- -- ----- -- ------ - ------- --- ----------<br>------------- ------ ------ ---- ---- ------- ----- -- ----<br>-------- ------- -- ---------- --- a --- ----- ----- ----<br>---- --- --- ----- --- ---- ---- ------- ----- ---- -------<br>--- --- -- ----- -- --- ---- -- --- ---- -- ------ ------<br>--- ----- -- ----,170131,170128,169503.06,169491,169519.78,170153.06,,23,a
screen,html.Screen,2_1_0_1_24,2021-04-24T18:10:25.275Z,,,,,,,,,,,,,,,,,53,,,,,,,,,,,,,,464.9400000000023,,response,,,,99,,,,,,,Space,keypress(Space),,,,,,,,---- -- ----- -- ------ - ------- --- ----------<br>------------- ------ ------ ---- ---- ------- ----- -- ----<br>-------- ------- -- ---------- --- - new ----- ----- ----<br>---- --- --- ----- --- ---- ---- ------- ----- ---- -------<br>--- --- -- ----- -- --- ---- -- --- ---- -- ------ ------<br>--- ----- -- ----,170620,170618,170136.4,170131,170153.06,170653.26,,24,new
screen,html.Screen,2_1_0_1_25,2021-04-24T18:10:25.759Z,,,,,,,,,,,,,,,,,53,,,,,,,,,,,,,,448.7399999999907,,response,,,,99,,,,,,,Space,keypress(Space),,,,,,,,---- -- ----- -- ------ - ------- --- ----------<br>------------- ------ ------ ---- ---- ------- ----- -- ----<br>-------- ------- -- ---------- --- - --- study ----- ----<br>---- --- --- ----- --- ---- ---- ------- ----- ---- -------<br>--- --- -- ----- -- --- ---- -- --- ---- -- ------ ------<br>--- ----- -- ----,171104,171102,170636.56,170620,170653.26,171136.4,,25,study
screen,html.Screen,2_1_0_1_26,2021-04-24T18:10:26.201Z,,,,,,,,,,,,,,,,,53,,,,,,,,,,,,,,407.6000000000058,,response,,,,99,,,,,,,Space,keypress(Space),,,,,,,,---- -- ----- -- ------ - ------- --- ----------<br>------------- ------ ------ ---- ---- ------- ----- -- ----<br>-------- ------- -- ---------- --- - --- ----- finds ----<br>---- --- --- ----- --- ---- ---- ------- ----- ---- -------<br>--- --- -- ----- -- --- ---- -- --- ---- -- ------ ------<br>--- ----- -- ----,171545,171544,171119.72,171106,171136.4,171569.74,,26,finds
screen,html.Screen,2_1_0_1_27,2021-04-24T18:10:26.675Z,,,,,,,,,,,,,,,,,53,,,,,,,,,,,,,,448.2600000000093,,response,,,,99,,,,,,,Space,keypress(Space),,,,,,,,---- -- ----- -- ------ - ------- --- ----------<br>------------- ------ ------ ---- ---- ------- ----- -- ----<br>-------- ------- -- ---------- --- - --- ----- ----- that<br>---- --- --- ----- --- ---- ---- ------- ----- ---- -------<br>--- --- -- ----- -- --- ---- -- --- ---- -- ------ ------<br>--- ----- -- ----,172020,172018,171553.06,171546,171569.74,172053.1,,27,that
screen,html.Screen,2_1_0_1_28,2021-04-24T18:10:27.205Z,,,,,,,,,,,,,,,,,53,,,,,,,,,,,,,,494.8999999999942,,response,,,,99,,,,,,,Space,keypress(Space),,,,,,,,---- -- ----- -- ------ - ------- --- ----------<br>------------- ------ ------ ---- ---- ------- ----- -- ----<br>-------- ------- -- ---------- --- - --- ----- ----- ----<br>it's --- --- ----- --- ---- ---- ------- ----- ---- -------<br>--- --- -- ----- -- --- ---- -- --- ---- -- ------ ------<br>--- ----- -- ----,172550,172548,172036.48,172021,172053.1,172569.74,,28,it's
screen,html.Screen,2_1_0_1_29,2021-04-24T18:10:27.649Z,,,,,,,,,,,,,,,,,53,,,,,,,,,,,,,,422.2600000000093,,response,,,,99,,,,,,,Space,keypress(Space),,,,,,,,---- -- ----- -- ------ - ------- --- ----------<br>------------- ------ ------ ---- ---- ------- ----- -- ----<br>-------- ------- -- ---------- --- - --- ----- ----- ----<br>---- not --- ----- --- ---- ---- ------- ----- ---- -------<br>--- --- -- ----- -- --- ---- -- --- ---- -- ------ ------<br>--- ----- -- ----,172994,172992,172553.06,172550,172569.74,173019.8,,29,not
screen,html.Screen,2_1_0_1_30,2021-04-24T18:10:28.059Z,,,,,,,,,,,,,,,,,53,,,,,,,,,,,,,,383.20000000001164,,response,,,,99,,,,,,,Space,keypress(Space),,,,,,,,---- -- ----- -- ------ - ------- --- ----------<br>------------- ------ ------ ---- ---- ------- ----- -- ----<br>-------- ------- -- ---------- --- - --- ----- ----- ----<br>---- --- how ----- --- ---- ---- ------- ----- ---- -------<br>--- --- -- ----- -- --- ---- -- --- ---- -- ------ ------<br>--- ----- -- ----,173404,173403,173003.04,172995,173019.8,173436.56,,30,how
screen,html.Screen,2_1_0_1_31,2021-04-24T18:10:28.462Z,,,,,,,,,,,,,,,,,53,,,,,,,,,,,,,,370.4400000000023,,response,,,,99,,,,,,,Space,keypress(Space),,,,,,,,---- -- ----- -- ------ - ------- --- ----------<br>------------- ------ ------ ---- ---- ------- ----- -- ----<br>-------- ------- -- ---------- --- - --- ----- ----- ----<br>---- --- --- close --- ---- ---- ------- ----- ---- -------<br>--- --- -- ----- -- --- ---- -- --- ---- -- ------ ------<br>--- ----- -- ----,173808,173807,173419.8,173405,173436.56,173836.42,,31,close
screen,html.Screen,2_1_0_1_32,2021-04-24T18:10:28.875Z,,,,,,,,,,,,,,,,,53,,,,,,,,,,,,,,380.5799999999872,,response,,,,99,,,,,,,Space,keypress(Space),,,,,,,,---- -- ----- -- ------ - ------- --- ----------<br>------------- ------ ------ ---- ---- ------- ----- -- ----<br>-------- ------- -- ---------- --- - --- ----- ----- ----<br>---- --- --- ----- you ---- ---- ------- ----- ---- -------<br>--- --- -- ----- -- --- ---- -- --- ---- -- ------ ------<br>--- ----- -- ----,174220,174217,173819.74,173809,173836.42,174253.1,,32,you
screen,html.Screen,2_1_0_1_33,2021-04-24T18:10:29.262Z,,,,,,,,,,,,,,,,,53,,,,,,,,,,,,,,351.8999999999942,,response,,,,99,,,,,,,Space,keypress(Space),,,,,,,,---- -- ----- -- ------ - ------- --- ----------<br>------------- ------ ------ ---- ---- ------- ----- -- ----<br>-------- ------- -- ---------- --- - --- ----- ----- ----<br>---- --- --- ----- --- feel ---- ------- ----- ---- -------<br>--- --- -- ----- -- --- ---- -- --- ---- -- ------ ------<br>--- ----- -- ----,174607,174605,174236.48,174221,174253.1,174636.48,,33,feel
screen,html.Screen,2_1_0_1_34,2021-04-24T18:10:29.641Z,,,,,,,,,,,,,,,,,53,,,,,,,,,,,,,,347.5199999999895,,response,,,,99,,,,,,,Space,keypress(Space),,,,,,,,---- -- ----- -- ------ - ------- --- ----------<br>------------- ------ ------ ---- ---- ------- ----- -- ----<br>-------- ------- -- ---------- --- - --- ----- ----- ----<br>---- --- --- ----- --- ---- that ------- ----- ---- -------<br>--- --- -- ----- -- --- ---- -- --- ---- -- ------ ------<br>--- ----- -- ----,174986,174984,174619.86,174607,174636.48,175019.8,,34,that
screen,html.Screen,2_1_0_1_35,2021-04-24T18:10:30.044Z,,,,,,,,,,,,,,,,,53,,,,,,,,,,,,,,368.20000000001164,,response,,,,99,,,,,,,Space,keypress(Space),,,,,,,,---- -- ----- -- ------ - ------- --- ----------<br>------------- ------ ------ ---- ---- ------- ----- -- ----<br>-------- ------- -- ---------- --- - --- ----- ----- ----<br>---- --- --- ----- --- ---- ---- matters ----- ---- -------<br>--- --- -- ----- -- --- ---- -- --- ---- -- ------ ------<br>--- ----- -- ----,175389,175388,175003.04,174987,175019.8,175419.78,,35,matters
screen,html.Screen,2_1_0_1_36,2021-04-24T18:10:30.479Z,,,,,,,,,,,,,,,,,53,,,,,,,,,,,,,,402.22000000000116,,response,,,,99,,,,,,,Space,keypress(Space),,,,,,,,"---- -- ----- -- ------ - ------- --- ----------<br>------------- ------ ------ ---- ---- ------- ----- -- ----<br>-------- ------- -- ---------- --- - --- ----- ----- ----<br>---- --- --- ----- --- ---- ---- ------- most, ---- -------<br>--- --- -- ----- -- --- ---- -- --- ---- -- ------ ------<br>--- ----- -- ----",175825,175822,175403.08,175390,175419.78,175853.06,,36,"most,"
screen,html.Screen,2_1_0_1_37,2021-04-24T18:10:30.866Z,,,,,,,,,,,,,,,,,53,,,,,,,,,,,,,,356.9400000000023,,response,,,,99,,,,,,,Space,keypress(Space),,,,,,,,---- -- ----- -- ------ - ------- --- ----------<br>------------- ------ ------ ---- ---- ------- ----- -- ----<br>-------- ------- -- ---------- --- - --- ----- ----- ----<br>---- --- --- ----- --- ---- ---- ------- ----- it's -------<br>--- --- -- ----- -- --- ---- -- --- ---- -- ------ ------<br>--- ----- -- ----,176211,176210,175836.44,175825,175853.06,176236.46,,37,it's
screen,html.Screen,2_1_0_1_38,2021-04-24T18:10:31.340Z,,,,,,,,,,,,,,,,,53,,,,,,,,,,,,,,447.54000000000815,,response,,,,99,,,,,,,Space,keypress(Space),,,,,,,,---- -- ----- -- ------ - ------- --- ----------<br>------------- ------ ------ ---- ---- ------- ----- -- ----<br>-------- ------- -- ---------- --- - --- ----- ----- ----<br>---- --- --- ----- --- ---- ---- ------- ----- ---- whether<br>--- --- -- ----- -- --- ---- -- --- ---- -- ------ ------<br>--- ----- -- ----,176685,176684,176219.76,176211,176236.46,176703.28,,38,whether
screen,html.Screen,2_1_0_1_39,2021-04-24T18:10:31.808Z,,,,,,,,,,,,,,,,,53,,,,,,,,,,,,,,447.72000000000116,,response,,,,99,,,,,,,Space,keypress(Space),,,,,,,,---- -- ----- -- ------ - ------- --- ----------<br>------------- ------ ------ ---- ---- ------- ----- -- ----<br>-------- ------- -- ---------- --- - --- ----- ----- ----<br>---- --- --- ----- --- ---- ---- ------- ----- ---- -------<br>you --- -- ----- -- --- ---- -- --- ---- -- ------ ------<br>--- ----- -- ----,177153,177151,176686.36,176686,176703.28,177186.38,,39,you
screen,html.Screen,2_1_0_1_40,2021-04-24T18:10:32.259Z,,,,,,,,,,,,,,,,,53,,,,,,,,,,,,,,415.61999999999534,,response,,,,99,,,,,,,Space,keypress(Space),,,,,,,,---- -- ----- -- ------ - ------- --- ----------<br>------------- ------ ------ ---- ---- ------- ----- -- ----<br>-------- ------- -- ---------- --- - --- ----- ----- ----<br>---- --- --- ----- --- ---- ---- ------- ----- ---- -------<br>--- are -- ----- -- --- ---- -- --- ---- -- ------ ------<br>--- ----- -- ----,177604,177602,177169.74,177153,177186.38,177636.54,,40,are
screen,html.Screen,2_1_0_1_41,2021-04-24T18:10:33.156Z,,,,,,,,,,,,,,,,,53,,,,,,,,,,,,,,862.4599999999919,,response,,,,99,,,,,,,Space,keypress(Space),,,,,,,,---- -- ----- -- ------ - ------- --- ----------<br>------------- ------ ------ ---- ---- ------- ----- -- ----<br>-------- ------- -- ---------- --- - --- ----- ----- ----<br>---- --- --- ----- --- ---- ---- ------- ----- ---- -------<br>--- --- as ----- -- --- ---- -- --- ---- -- ------ ------<br>--- ----- -- ----,178501,178499,177619.7,177605,177636.54,178519.82,,41,as
screen,html.Screen,2_1_0_1_42,2021-04-24T18:10:33.575Z,,,,,,,,,,,,,,,,,53,,,,,,,,,,,,,,397.179999999993,,response,,,,99,,,,,,,Space,keypress(Space),,,,,,,,---- -- ----- -- ------ - ------- --- ----------<br>------------- ------ ------ ---- ---- ------- ----- -- ----<br>-------- ------- -- ---------- --- - --- ----- ----- ----<br>---- --- --- ----- --- ---- ---- ------- ----- ---- -------<br>--- --- -- close -- --- ---- -- --- ---- -- ------ ------<br>--- ----- -- ----,178919,178917,178503.06,178502,178519.82,178953.06,,42,close
screen,html.Screen,2_1_0_1_43,2021-04-24T18:10:33.979Z,,,,,,,,,,,,,,,,,53,,,,,,,,,,,,,,367.9400000000023,,response,,,,99,,,,,,,Space,keypress(Space),,,,,,,,---- -- ----- -- ------ - ------- --- ----------<br>------------- ------ ------ ---- ---- ------- ----- -- ----<br>-------- ------- -- ---------- --- - --- ----- ----- ----<br>---- --- --- ----- --- ---- ---- ------- ----- ---- -------<br>--- --- -- ----- as --- ---- -- --- ---- -- ------ ------<br>--- ----- -- ----,179323,179321,178936.4,178920,178953.06,179353.06,,43,as
screen,html.Screen,2_1_0_1_44,2021-04-24T18:10:34.411Z,,,,,,,,,,,,,,,,,53,,,,,,,,,,,,,,401.9400000000023,,response,,,,99,,,,,,,Space,keypress(Space),,,,,,,,---- -- ----- -- ------ - ------- --- ----------<br>------------- ------ ------ ---- ---- ------- ----- -- ----<br>-------- ------- -- ---------- --- - --- ----- ----- ----<br>---- --- --- ----- --- ---- ---- ------- ----- ---- -------<br>--- --- -- ----- -- you ---- -- --- ---- -- ------ ------<br>--- ----- -- ----,179756,179755,179336.4,179324,179353.06,179786.4,,44,you
screen,html.Screen,2_1_0_1_45,2021-04-24T18:10:34.839Z,,,,,,,,,,,,,,,,,53,,,,,,,,,,,,,,395.6000000000058,,response,,,,99,,,,,,,Space,keypress(Space),,,,,,,,---- -- ----- -- ------ - ------- --- ----------<br>------------- ------ ------ ---- ---- ------- ----- -- ----<br>-------- ------- -- ---------- --- - --- ----- ----- ----<br>---- --- --- ----- --- ---- ---- ------- ----- ---- -------<br>--- --- -- ----- -- --- want -- --- ---- -- ------ ------<br>--- ----- -- ----,180184,180182,179769.7,179757,179786.4,180203.04,,45,want
screen,html.Screen,2_1_0_1_46,2021-04-24T18:10:35.320Z,,,,,,,,,,,,,,,,,53,,,,,,,,,,,,,,461.95999999999185,,response,,,,99,,,,,,,Space,keypress(Space),,,,,,,,---- -- ----- -- ------ - ------- --- ----------<br>------------- ------ ------ ---- ---- ------- ----- -- ----<br>-------- ------- -- ---------- --- - --- ----- ----- ----<br>---- --- --- ----- --- ---- ---- ------- ----- ---- -------<br>--- --- -- ----- -- --- ---- to --- ---- -- ------ ------<br>--- ----- -- ----,180666,180665,180186.36,180184,180203.04,180686.36,,46,to
screen,html.Screen,2_1_0_1_47,2021-04-24T18:10:35.758Z,,,,,,,,,,,,,,,,,53,,,,,,,,,,,,,,413.64000000001397,,response,,,,99,,,,,,,Space,keypress(Space),,,,,,,,"---- -- ----- -- ------ - ------- --- ----------<br>------------- ------ ------ ---- ---- ------- ----- -- ----<br>-------- ------- -- ---------- --- - --- ----- ----- ----<br>---- --- --- ----- --- ---- ---- ------- ----- ---- -------<br>--- --- -- ----- -- --- ---- -- be, ---- -- ------ ------<br>--- ----- -- ----",181103,181100,180669.68,180666,180686.36,181136.4,,47,"be,"
screen,html.Screen,2_1_0_1_48,2021-04-24T18:10:36.207Z,,,,,,,,,,,,,,,,,53,,,,,,,,,,,,,,414.6000000000058,,response,,,,99,,,,,,,Space,keypress(Space),,,,,,,,---- -- ----- -- ------ - ------- --- ----------<br>------------- ------ ------ ---- ---- ------- ----- -- ----<br>-------- ------- -- ---------- --- - --- ----- ----- ----<br>---- --- --- ----- --- ---- ---- ------- ----- ---- -------<br>--- --- -- ----- -- --- ---- -- --- even -- ------ ------<br>--- ----- -- ----,181552,181551,181119.74,181104,181136.4,181569.68,,48,even
screen,html.Screen,2_1_0_1_49,2021-04-24T18:10:36.642Z,,,,,,,,,,,,,,,,,53,,,,,,,,,,,,,,415.320000000007,,response,,,,99,,,,,,,Space,keypress(Space),,,,,,,,---- -- ----- -- ------ - ------- --- ----------<br>------------- ------ ------ ---- ---- ------- ----- -- ----<br>-------- ------- -- ---------- --- - --- ----- ----- ----<br>---- --- --- ----- --- ---- ---- ------- ----- ---- -------<br>--- --- -- ----- -- --- ---- -- --- ---- if ------ ------<br>--- ----- -- ----,181988,181985,181553.02,181552,181569.68,182019.74,,49,if
screen,html.Screen,2_1_0_1_50,2021-04-24T18:10:37.134Z,,,,,,,,,,,,,,,,,53,,,,,,,,,,,,,,457.2600000000093,,response,,,,99,,,,,,,Space,keypress(Space),,,,,,,,---- -- ----- -- ------ - ------- --- ----------<br>------------- ------ ------ ---- ---- ------- ----- -- ----<br>-------- ------- -- ---------- --- - --- ----- ----- ----<br>---- --- --- ----- --- ---- ---- ------- ----- ---- -------<br>--- --- -- ----- -- --- ---- -- --- ---- -- that's ------<br>--- ----- -- ----,182479,182477,182003.02,181988,182019.74,182503.04,,50,that's
screen,html.Screen,2_1_0_1_51,2021-04-24T18:10:37.734Z,,,,,,,,,,,,,,,,,53,,,,,,,,,,,,,,574.9599999999919,,response,,,,99,,,,,,,Space,keypress(Space),,,,,,,,---- -- ----- -- ------ - ------- --- ----------<br>------------- ------ ------ ---- ---- ------- ----- -- ----<br>-------- ------- -- ---------- --- - --- ----- ----- ----<br>---- --- --- ----- --- ---- ---- ------- ----- ---- -------<br>--- --- -- ----- -- --- ---- -- --- ---- -- ------ really<br>--- ----- -- ----,183080,183078,182486.38,182479,182503.04,183103.06,,51,really
screen,html.Screen,2_1_0_1_52,2021-04-24T18:10:38.208Z,,,,,,,,,,,,,,,,,53,,,,,,,,,,,,,,448.9400000000023,,response,,,,99,,,,,,,Space,keypress(Space),,,,,,,,---- -- ----- -- ------ - ------- --- ----------<br>------------- ------ ------ ---- ---- ------- ----- -- ----<br>-------- ------- -- ---------- --- - --- ----- ----- ----<br>---- --- --- ----- --- ---- ---- ------- ----- ---- -------<br>--- --- -- ----- -- --- ---- -- --- ---- -- ------ ------<br>not ----- -- ----,183554,183552,183086.34,183081,183103.06,183586.34,,52,not
screen,html.Screen,2_1_0_1_53,2021-04-24T18:10:38.756Z,,,,,,,,,,,,,,,,,53,,,,,,,,,,,,,,512.6600000000035,,response,,,,99,,,,,,,Space,keypress(Space),,,,,,,,---- -- ----- -- ------ - ------- --- ----------<br>------------- ------ ------ ---- ---- ------- ----- -- ----<br>-------- ------- -- ---------- --- - --- ----- ----- ----<br>---- --- --- ----- --- ---- ---- ------- ----- ---- -------<br>--- --- -- ----- -- --- ---- -- --- ---- -- ------ ------<br>--- close -- ----,184101,184099,183569.72,183554,183586.34,184119.74,,53,close
screen,html.Screen,2_1_0_1_54,2021-04-24T18:10:39.332Z,,,,,,,,,,,,,,,,,53,,,,,,,,,,,,,,556.2600000000093,,response,,,,99,,,,,,,Space,keypress(Space),,,,,,,,---- -- ----- -- ------ - ------- --- ----------<br>------------- ------ ------ ---- ---- ------- ----- -- ----<br>-------- ------- -- ---------- --- - --- ----- ----- ----<br>---- --- --- ----- --- ---- ---- ------- ----- ---- -------<br>--- --- -- ----- -- --- ---- -- --- ---- -- ------ ------<br>--- ----- at ----,184678,184676,184103.06,184102,184119.74,184703.2,,54,at
screen,html.Screen,2_1_0_1_55,2021-04-24T18:10:39.881Z,,,,,,,,,,,,,,,,,53,,,,,,,,,,,,,,519.7999999999884,,response,,,,99,,,,,,,Space,keypress(Space),,,,,,,,---- -- ----- -- ------ - ------- --- ----------<br>------------- ------ ------ ---- ---- ------- ----- -- ----<br>-------- ------- -- ---------- --- - --- ----- ----- ----<br>---- --- --- ----- --- ---- ---- ------- ----- ---- -------<br>--- --- -- ----- -- --- ---- -- --- ---- -- ------ ------<br>--- ----- -- all.,185226,185223,184686.42,184678,184703.2,185253.04,,55,all.
Item 99,flow.Loop,2_1_0_1,2021-04-24T18:10:39.882Z,,,,,,,,,,,,,,,,,,,,,,,,,,,,,,,31853.23999999999,,completion,,,,,E,,,,,,,,,,,silence,,,,,185228,185223,153353.22,153356,153369.76,185253.04,,,
Question 1,html.Screen,2_1_0_2,2021-04-24T18:10:52.726Z,,,,,,,,,,,,,,,,,,,,,,,,,,,,true,FALSE,,12810.959999999992,,response,,,,99,E,,,,,,FALSE,click #choice-2,,,,silence,,,,,198072,198064,185236.46,185228,185253.04,198086.34,,,
Question 2,html.Screen,2_1_0_3,2021-04-24T18:10:58.972Z,,,,,,,,,,,,,,,,,,,,,,,,,,,,true,TRUE,,6226.6600000000035,,response,,,,99,E,,,,,,TRUE,click #choice-1,,,,silence,,,,,204317,204313,198069.68,198072,198086.34,204336.3,,,
Item 99,flow.Sequence,2_1_0,2021-04-24T18:10:58.973Z,,,,,,,,,,,,,,,,,,,,,,,,,,,,,,,60943.20000000001,,completion,,,,,,,,,,,,,,,,,,,,,204318,204313,143353.12,143357,143369.8,204336.3,,,
Holding screen,html.Screen,2_1_1_0,2021-04-24T18:11:08.976Z,,,,,,,,,,,,,,,,,,,,,,,,,,,,,,,9999.98000000001,,timeout,,,,,,,,,,,,,,,,,,,,,214321,214319.72,204319.66,204319,204336.3,214336.28,,,
screen,html.Screen,2_1_1_1_0,2021-04-24T18:11:10.662Z,,,,,,,,,,,,,,,,,54,,,,,,,,,,,,,,1668.7200000000012,,response,,,,100,,,,,,,Space,keypress(Space),,,,,,,,At --- ---- --- ------ ----- ------- ---- -- --- ------- --<br>------- ---------- ------ -- ----- -- ----- -- ---- ------<br>--- ----- --- --- ------ -------- ----- --- ------ ----- --<br>----- ----- ---------- --- --- ------ ------ ---- -- ------<br>------- --- ------ ----- --- ---- ------- -- ---- --- --<br>------- ------,216007,216005,214319.72,214322,214336.28,216036.34,,0,At
screen,html.Screen,2_1_1_1_1,2021-04-24T18:11:11.119Z,,,,,,,,,,,,,,,,,54,,,,,,,,,,,,,,427.6600000000035,,response,,,,100,,,,,,,Space,keypress(Space),,,,,,,,-- the ---- --- ------ ----- ------- ---- -- --- ------- --<br>------- ---------- ------ -- ----- -- ----- -- ---- ------<br>--- ----- --- --- ------ -------- ----- --- ------ ----- --<br>----- ----- ---------- --- --- ------ ------ ---- -- ------<br>------- --- ------ ----- --- ---- ------- -- ---- --- --<br>------- ------,216465,216464,216019.62,216008,216036.34,216486.3,,1,the
screen,html.Screen,2_1_1_1_2,2021-04-24T18:11:13.551Z,,,,,,,,,,,,,,,,,54,,,,,,,,,,,,,,2407.7000000000116,,response,,,,100,,,,,,,Space,keypress(Space),,,,,,,,-- --- time --- ------ ----- ------- ---- -- --- ------- --<br>------- ---------- ------ -- ----- -- ----- -- ---- ------<br>--- ----- --- --- ------ -------- ----- --- ------ ----- --<br>----- ----- ---------- --- --- ------ ------ ---- -- ------<br>------- --- ------ ----- --- ---- ------- -- ---- --- --<br>------- ------,218896,218894,216469.62,216466,216486.3,218919.58,,2,time
screen,html.Screen,2_1_1_1_3,2021-04-24T18:11:13.954Z,,,,,,,,,,,,,,,,,54,,,,,,,,,,,,,,377.4200000000128,,response,,,,100,,,,,,,Space,keypress(Space),,,,,,,,-- --- ---- the ------ ----- ------- ---- -- --- ------- --<br>------- ---------- ------ -- ----- -- ----- -- ---- ------<br>--- ----- --- --- ------ -------- ----- --- ------ ----- --<br>----- ----- ---------- --- --- ------ ------ ---- -- ------<br>------- --- ------ ----- --- ---- ------- -- ---- --- --<br>------- ------,219299,219297,218902.94,218896,218919.58,219319.66,,3,the
screen,html.Screen,2_1_1_1_4,2021-04-24T18:11:14.348Z,,,,,,,,,,,,,,,,,54,,,,,,,,,,,,,,372.3399999999965,,response,,,,100,,,,,,,Space,keypress(Space),,,,,,,,-- --- ---- --- French ----- ------- ---- -- --- ------- --<br>------- ---------- ------ -- ----- -- ----- -- ---- ------<br>--- ----- --- --- ------ -------- ----- --- ------ ----- --<br>----- ----- ---------- --- --- ------ ------ ---- -- ------<br>------- --- ------ ----- --- ---- ------- -- ---- --- --<br>------- ------,219693,219692,219302.94,219300,219319.66,219719.62,,4,French
screen,html.Screen,2_1_1_1_5,2021-04-24T18:11:14.791Z,,,,,,,,,,,,,,,,,54,,,,,,,,,,,,,,414.38000000000466,,response,,,,100,,,,,,,Space,keypress(Space),,,,,,,,-- --- ---- --- ------ crown ------- ---- -- --- ------- --<br>------- ---------- ------ -- ----- -- ----- -- ---- ------<br>--- ----- --- --- ------ -------- ----- --- ------ ----- --<br>----- ----- ---------- --- --- ------ ------ ---- -- ------<br>------- --- ------ ----- --- ---- ------- -- ---- --- --<br>------- ------,220136,220134,219702.92,219693,219719.62,220169.6,,5,crown
screen,html.Screen,2_1_1_1_6,2021-04-24T18:11:15.209Z,,,,,,,,,,,,,,,,,54,,,,,,,,,,,,,,384.3999999999942,,response,,,,100,,,,,,,Space,keypress(Space),,,,,,,,-- --- ---- --- ------ ----- secured ---- -- --- ------- --<br>------- ---------- ------ -- ----- -- ----- -- ---- ------<br>--- ----- --- --- ------ -------- ----- --- ------ ----- --<br>----- ----- ---------- --- --- ------ ------ ---- -- ------<br>------- --- ------ ----- --- ---- ------- -- ---- --- --<br>------- ------,220555,220554,220152.9,220136,220169.6,220586.24,,6,secured
screen,html.Screen,2_1_1_1_7,2021-04-24T18:11:15.711Z,,,,,,,,,,,,,,,,,54,,,,,,,,,,,,,,466.7600000000093,,response,,,,100,,,,,,,Space,keypress(Space),,,,,,,,-- --- ---- --- ------ ----- ------- much -- --- ------- --<br>------- ---------- ------ -- ----- -- ----- -- ---- ------<br>--- ----- --- --- ------ -------- ----- --- ------ ----- --<br>----- ----- ---------- --- --- ------ ------ ---- -- ------<br>------- --- ------ ----- --- ---- ------- -- ---- --- --<br>------- ------,221057,221053,220569.58,220556,220586.24,221086.26,,7,much
screen,html.Screen,2_1_1_1_8,2021-04-24T18:11:16.169Z,,,,,,,,,,,,,,,,,54,,,,,,,,,,,,,,424.7399999999907,,response,,,,100,,,,,,,Space,keypress(Space),,,,,,,,-- --- ---- --- ------ ----- ------- ---- of --- ------- --<br>------- ---------- ------ -- ----- -- ----- -- ---- ------<br>--- ----- --- --- ------ -------- ----- --- ------ ----- --<br>----- ----- ---------- --- --- ------ ------ ---- -- ------<br>------- --- ------ ----- --- ---- ------- -- ---- --- --<br>------- ------,221515,221511,221069.58,221057,221086.26,221536.26,,8,of
screen,html.Screen,2_1_1_1_9,2021-04-24T18:11:16.580Z,,,,,,,,,,,,,,,,,54,,,,,,,,,,,,,,385.7399999999907,,response,,,,100,,,,,,,Space,keypress(Space),,,,,,,,-- --- ---- --- ------ ----- ------- ---- -- its ------- --<br>------- ---------- ------ -- ----- -- ----- -- ---- ------<br>--- ----- --- --- ------ -------- ----- --- ------ ----- --<br>----- ----- ---------- --- --- ------ ------ ---- -- ------<br>------- --- ------ ----- --- ---- ------- -- ---- --- --<br>------- ------,221925,221922,221519.58,221515,221536.26,221952.9,,9,its
screen,html.Screen,2_1_1_1_10,2021-04-24T18:11:17.037Z,,,,,,,,,,,,,,,,,54,,,,,,,,,,,,,,428.1000000000058,,response,,,,100,,,,,,,Space,keypress(Space),,,,,,,,-- --- ---- --- ------ ----- ------- ---- -- --- revenue --<br>------- ---------- ------ -- ----- -- ----- -- ---- ------<br>--- ----- --- --- ------ -------- ----- --- ------ ----- --<br>----- ----- ---------- --- --- ------ ------ ---- -- ------<br>------- --- ------ ----- --- ---- ------- -- ---- --- --<br>------- ------,222382,222381,221936.24,221926,221952.9,222402.92,,10,revenue
screen,html.Screen,2_1_1_1_11,2021-04-24T18:11:17.527Z,,,,,,,,,,,,,,,,,54,,,,,,,,,,,,,,468.0799999999872,,response,,,,100,,,,,,,Space,keypress(Space),,,,,,,,-- --- ---- --- ------ ----- ------- ---- -- --- ------- by<br>------- ---------- ------ -- ----- -- ----- -- ---- ------<br>--- ----- --- --- ------ -------- ----- --- ------ ----- --<br>----- ----- ---------- --- --- ------ ------ ---- -- ------<br>------- --- ------ ----- --- ---- ------- -- ---- --- --<br>------- ------,222873,222871,222386.26,222382,222402.92,222903.26,,11,by
screen,html.Screen,2_1_1_1_12,2021-04-24T18:11:18.010Z,,,,,,,,,,,,,,,,,54,,,,,,,,,,,,,,449.7399999999907,,response,,,,100,,,,,,,Space,keypress(Space),,,,,,,,-- --- ---- --- ------ ----- ------- ---- -- --- ------- --<br>issuing ---------- ------ -- ----- -- ----- -- ---- ------<br>--- ----- --- --- ------ -------- ----- --- ------ ----- --<br>----- ----- ---------- --- --- ------ ------ ---- -- ------<br>------- --- ------ ----- --- ---- ------- -- ---- --- --<br>------- ------,223355,223353,222886.28,222873,222903.26,223386.24,,12,issuing
screen,html.Screen,2_1_1_1_13,2021-04-24T18:11:18.513Z,,,,,,,,,,,,,,,,,54,,,,,,,,,,,,,,466.7600000000093,,response,,,,100,,,,,,,Space,keypress(Space),,,,,,,,-- --- ---- --- ------ ----- ------- ---- -- --- ------- --<br>------- government ------ -- ----- -- ----- -- ---- ------<br>--- ----- --- --- ------ -------- ----- --- ------ ----- --<br>----- ----- ---------- --- --- ------ ------ ---- -- ------<br>------- --- ------ ----- --- ---- ------- -- ---- --- --<br>------- ------,223858,223853,223369.58,223355,223386.24,223886.36,,13,government
screen,html.Screen,2_1_1_1_14,2021-04-24T18:11:18.936Z,,,,,,,,,,,,,,,,,54,,,,,,,,,,,,,,393.64000000001397,,response,,,,100,,,,,,,Space,keypress(Space),,,,,,,,-- --- ---- --- ------ ----- ------- ---- -- --- ------- --<br>------- ---------- bonds. -- ----- -- ----- -- ---- ------<br>--- ----- --- --- ------ -------- ----- --- ------ ----- --<br>----- ----- ---------- --- --- ------ ------ ---- -- ------<br>------- --- ------ ----- --- ---- ------- -- ---- --- --<br>------- ------,224281,224280,223869.64,223859,223886.36,224303,,14,bonds.
screen,html.Screen,2_1_1_1_15,2021-04-24T18:11:19.380Z,,,,,,,,,,,,,,,,,54,,,,,,,,,,,,,,420,,response,,,,100,,,,,,,Space,keypress(Space),,,,,,,,-- --- ---- --- ------ ----- ------- ---- -- --- ------- --<br>------- ---------- ------ In ----- -- ----- -- ---- ------<br>--- ----- --- --- ------ -------- ----- --- ------ ----- --<br>----- ----- ---------- --- --- ------ ------ ---- -- ------<br>------- --- ------ ----- --- ---- ------- -- ---- --- --<br>------- ------,224725,224723,224286.3,224282,224303,224753.02,,15,In
screen,html.Screen,2_1_1_1_16,2021-04-24T18:11:19.800Z,,,,,,,,,,,,,,,,,54,,,,,,,,,,,,,,388.9800000000105,,response,,,,100,,,,,,,Space,keypress(Space),,,,,,,,"-- --- ---- --- ------ ----- ------- ---- -- --- ------- --<br>------- ---------- ------ -- 1727, -- ----- -- ---- ------<br>--- ----- --- --- ------ -------- ----- --- ------ ----- --<br>----- ----- ---------- --- --- ------ ------ ---- -- ------<br>------- --- ------ ----- --- ---- ------- -- ---- --- --<br>------- ------",225145,225142,224736.3,224725,224753.02,225169.66,,16,"1727,"
screen,html.Screen,2_1_1_1_17,2021-04-24T18:11:20.305Z,,,,,,,,,,,,,,,,,54,,,,,,,,,,,,,,479.3399999999965,,response,,,,100,,,,,,,Space,keypress(Space),,,,,,,,-- --- ---- --- ------ ----- ------- ---- -- --- ------- --<br>------- ---------- ------ -- ----- in ----- -- ---- ------<br>--- ----- --- --- ------ -------- ----- --- ------ ----- --<br>----- ----- ---------- --- --- ------ ------ ---- -- ------<br>------- --- ------ ----- --- ---- ------- -- ---- --- --<br>------- ------,225651,225649,225153,225145,225169.66,225669.68,,17,in
screen,html.Screen,2_1_1_1_18,2021-04-24T18:11:20.756Z,,,,,,,,,,,,,,,,,54,,,,,,,,,,,,,,429.320000000007,,response,,,,100,,,,,,,Space,keypress(Space),,,,,,,,-- --- ---- --- ------ ----- ------- ---- -- --- ------- --<br>------- ---------- ------ -- ----- -- order -- ---- ------<br>--- ----- --- --- ------ -------- ----- --- ------ ----- --<br>----- ----- ---------- --- --- ------ ------ ---- -- ------<br>------- --- ------ ----- --- ---- ------- -- ---- --- --<br>------- ------,226102,226099,225653.02,225651,225669.68,226119.7,,18,order
screen,html.Screen,2_1_1_1_19,2021-04-24T18:11:21.391Z,,,,,,,,,,,,,,,,,54,,,,,,,,,,,,,,613.2999999999884,,response,,,,100,,,,,,,Space,keypress(Space),,,,,,,,-- --- ---- --- ------ ----- ------- ---- -- --- ------- --<br>------- ---------- ------ -- ----- -- ----- to ---- ------<br>--- ----- --- --- ------ -------- ----- --- ------ ----- --<br>----- ----- ---------- --- --- ------ ------ ---- -- ------<br>------- --- ------ ----- --- ---- ------- -- ---- --- --<br>------- ------,226736,226733,226103.04,226102,226119.7,226769.72,,19,to
screen,html.Screen,2_1_1_1_20,2021-04-24T18:11:21.927Z,,,,,,,,,,,,,,,,,54,,,,,,,,,,,,,,501.27999999999884,,response,,,,100,,,,,,,Space,keypress(Space),,,,,,,,-- --- ---- --- ------ ----- ------- ---- -- --- ------- --<br>------- ---------- ------ -- ----- -- ----- -- save ------<br>--- ----- --- --- ------ -------- ----- --- ------ ----- --<br>----- ----- ---------- --- --- ------ ------ ---- -- ------<br>------- --- ------ ----- --- ---- ------- -- ---- --- --<br>------- ------,227272,227271,226753.1,226737,226769.72,227303.12,,20,save
screen,html.Screen,2_1_1_1_21,2021-04-24T18:11:22.465Z,,,,,,,,,,,,,,,,,54,,,,,,,,,,,,,,505.88000000000466,,response,,,,100,,,,,,,Space,keypress(Space),,,,,,,,"-- --- ---- --- ------ ----- ------- ---- -- --- ------- --<br>------- ---------- ------ -- ----- -- ----- -- ---- money,<br>--- ----- --- --- ------ -------- ----- --- ------ ----- --<br>----- ----- ---------- --- --- ------ ------ ---- -- ------<br>------- --- ------ ----- --- ---- ------- -- ---- --- --<br>------- ------",227810,227809,227286.42,227274,227303.12,227836.72,,21,"money,"
screen,html.Screen,2_1_1_1_22,2021-04-24T18:11:22.916Z,,,,,,,,,,,,,,,,,54,,,,,,,,,,,,,,423.27999999999884,,response,,,,100,,,,,,,Space,keypress(Space),,,,,,,,-- --- ---- --- ------ ----- ------- ---- -- --- ------- --<br>------- ---------- ------ -- ----- -- ----- -- ---- ------<br>the ----- --- --- ------ -------- ----- --- ------ ----- --<br>----- ----- ---------- --- --- ------ ------ ---- -- ------<br>------- --- ------ ----- --- ---- ------- -- ---- --- --<br>------- ------,228261,228260,227819.78,227810,227836.72,228286.46,,22,the
screen,html.Screen,2_1_1_1_23,2021-04-24T18:11:23.329Z,,,,,,,,,,,,,,,,,54,,,,,,,,,,,,,,386.54000000000815,,response,,,,100,,,,,,,Space,keypress(Space),,,,,,,,-- --- ---- --- ------ ----- ------- ---- -- --- ------- --<br>------- ---------- ------ -- ----- -- ----- -- ---- ------<br>--- state --- --- ------ -------- ----- --- ------ ----- --<br>----- ----- ---------- --- --- ------ ------ ---- -- ------<br>------- --- ------ ----- --- ---- ------- -- ---- --- --<br>------- ------,228675,228673,228269.8,228262,228286.46,228703.34,,23,state
screen,html.Screen,2_1_1_1_24,2021-04-24T18:11:23.709Z,,,,,,,,,,,,,,,,,54,,,,,,,,,,,,,,348.6600000000035,,response,,,,100,,,,,,,Space,keypress(Space),,,,,,,,-- --- ---- --- ------ ----- ------- ---- -- --- ------- --<br>------- ---------- ------ -- ----- -- ----- -- ---- ------<br>--- ----- cut --- ------ -------- ----- --- ------ ----- --<br>----- ----- ---------- --- --- ------ ------ ---- -- ------<br>------- --- ------ ----- --- ---- ------- -- ---- --- --<br>------- ------,229054,229052,228686.48,228675,228703.34,229086.5,,24,cut
screen,html.Screen,2_1_1_1_25,2021-04-24T18:11:24.103Z,,,,,,,,,,,,,,,,,54,,,,,,,,,,,,,,360.5,,response,,,,100,,,,,,,Space,keypress(Space),,,,,,,,-- --- ---- --- ------ ----- ------- ---- -- --- ------- --<br>------- ---------- ------ -- ----- -- ----- -- ---- ------<br>--- ----- --- the ------ -------- ----- --- ------ ----- --<br>----- ----- ---------- --- --- ------ ------ ---- -- ------<br>------- --- ------ ----- --- ---- ------- -- ---- --- --<br>------- ------,229449,229447,229069.84,229055,229086.5,229469.98,,25,the
screen,html.Screen,2_1_1_1_26,2021-04-24T18:11:24.499Z,,,,,,,,,,,,,,,,,54,,,,,,,,,,,,,,372.0199999999895,,response,,,,100,,,,,,,Space,keypress(Space),,,,,,,,-- --- ---- --- ------ ----- ------- ---- -- --- ------- --<br>------- ---------- ------ -- ----- -- ----- -- ---- ------<br>--- ----- --- --- bonds' -------- ----- --- ------ ----- --<br>----- ----- ---------- --- --- ------ ------ ---- -- ------<br>------- --- ------ ----- --- ---- ------- -- ---- --- --<br>------- ------,229844,229842,229453.2,229449,229469.98,229869.88,,26,bonds'
screen,html.Screen,2_1_1_1_27,2021-04-24T18:11:24.916Z,,,,,,,,,,,,,,,,,54,,,,,,,,,,,,,,390.11999999999534,,response,,,,100,,,,,,,Space,keypress(Space),,,,,,,,-- --- ---- --- ------ ----- ------- ---- -- --- ------- --<br>------- ---------- ------ -- ----- -- ----- -- ---- ------<br>--- ----- --- --- ------ interest ----- --- ------ ----- --<br>----- ----- ---------- --- --- ------ ------ ---- -- ------<br>------- --- ------ ----- --- ---- ------- -- ---- --- --<br>------- ------,230261,230260,229853.2,229844,229869.88,230286.56,,27,interest
screen,html.Screen,2_1_1_1_28,2021-04-24T18:11:25.377Z,,,,,,,,,,,,,,,,,54,,,,,,,,,,,,,,432.4400000000023,,response,,,,100,,,,,,,Space,keypress(Space),,,,,,,,-- --- ---- --- ------ ----- ------- ---- -- --- ------- --<br>------- ---------- ------ -- ----- -- ----- -- ---- ------<br>--- ----- --- --- ------ -------- rate. --- ------ ----- --<br>----- ----- ---------- --- --- ------ ------ ---- -- ------<br>------- --- ------ ----- --- ---- ------- -- ---- --- --<br>------- ------,230722,230719,230269.9,230261,230286.56,230753.22,,28,rate.
screen,html.Screen,2_1_1_1_29,2021-04-24T18:11:25.779Z,,,,,,,,,,,,,,,,,54,,,,,,,,,,,,,,369.77999999999884,,response,,,,100,,,,,,,Space,keypress(Space),,,,,,,,-- --- ---- --- ------ ----- ------- ---- -- --- ------- --<br>------- ---------- ------ -- ----- -- ----- -- ---- ------<br>--- ----- --- --- ------ -------- ----- The ------ ----- --<br>----- ----- ---------- --- --- ------ ------ ---- -- ------<br>------- --- ------ ----- --- ---- ------- -- ---- --- --<br>------- ------,231125,231123,230736.56,230723,230753.22,231153.26,,29,The
screen,html.Screen,2_1_1_1_30,2021-04-24T18:11:26.176Z,,,,,,,,,,,,,,,,,54,,,,,,,,,,,,,,364.7399999999907,,response,,,,100,,,,,,,Space,keypress(Space),,,,,,,,-- --- ---- --- ------ ----- ------- ---- -- --- ------- --<br>------- ---------- ------ -- ----- -- ----- -- ---- ------<br>--- ----- --- --- ------ -------- ----- --- market ----- --<br>----- ----- ---------- --- --- ------ ------ ---- -- ------<br>------- --- ------ ----- --- ---- ------- -- ---- --- --<br>------- ------,231520,231518,231136.6,231125,231153.26,231553.28,,30,market
screen,html.Screen,2_1_1_1_31,2021-04-24T18:11:26.609Z,,,,,,,,,,,,,,,,,54,,,,,,,,,,,,,,399.72000000000116,,response,,,,100,,,,,,,Space,keypress(Space),,,,,,,,-- --- ---- --- ------ ----- ------- ---- -- --- ------- --<br>------- ---------- ------ -- ----- -- ----- -- ---- ------<br>--- ----- --- --- ------ -------- ----- --- ------ value --<br>----- ----- ---------- --- --- ------ ------ ---- -- ------<br>------- --- ------ ----- --- ---- ------- -- ---- --- --<br>------- ------,231955,231953,231536.64,231521,231553.28,231986.62,,31,value
screen,html.Screen,2_1_1_1_32,2021-04-24T18:11:27.108Z,,,,,,,,,,,,,,,,,54,,,,,,,,,,,,,,465.38000000000466,,response,,,,100,,,,,,,Space,keypress(Space),,,,,,,,-- --- ---- --- ------ ----- ------- ---- -- --- ------- --<br>------- ---------- ------ -- ----- -- ----- -- ---- ------<br>--- ----- --- --- ------ -------- ----- --- ------ ----- of<br>----- ----- ---------- --- --- ------ ------ ---- -- ------<br>------- --- ------ ----- --- ---- ------- -- ---- --- --<br>------- ------,232454,232452,231969.98,231955,231986.62,232486.66,,32,of
screen,html.Screen,2_1_1_1_33,2021-04-24T18:11:27.614Z,,,,,,,,,,,,,,,,,54,,,,,,,,,,,,,,471.3399999999965,,response,,,,100,,,,,,,Space,keypress(Space),,,,,,,,-- --- ---- --- ------ ----- ------- ---- -- --- ------- --<br>------- ---------- ------ -- ----- -- ----- -- ---- ------<br>--- ----- --- --- ------ -------- ----- --- ------ ----- --<br>these ----- ---------- --- --- ------ ------ ---- -- ------<br>------- --- ------ ----- --- ---- ------- -- ---- --- --<br>------- ------,232960,232958,232470,232455,232486.66,232986.94,,33,these
screen,html.Screen,2_1_1_1_34,2021-04-24T18:11:28.082Z,,,,,,,,,,,,,,,,,54,,,,,,,,,,,,,,438.0599999999977,,response,,,,100,,,,,,,Space,keypress(Space),,,,,,,,-- --- ---- --- ------ ----- ------- ---- -- --- ------- --<br>------- ---------- ------ -- ----- -- ----- -- ---- ------<br>--- ----- --- --- ------ -------- ----- --- ------ ----- --<br>----- bonds ---------- --- --- ------ ------ ---- -- ------<br>------- --- ------ ----- --- ---- ------- -- ---- --- --<br>------- ------,233427,233425,232970.06,232960,232986.94,233453.82,,34,bonds
screen,html.Screen,2_1_1_1_35,2021-04-24T18:11:28.524Z,,,,,,,,,,,,,,,,,54,,,,,,,,,,,,,,413.179999999993,,response,,,,100,,,,,,,Space,keypress(Space),,,,,,,,"-- --- ---- --- ------ ----- ------- ---- -- --- ------- --<br>------- ---------- ------ -- ----- -- ----- -- ---- ------<br>--- ----- --- --- ------ -------- ----- --- ------ ----- --<br>----- ----- plummeted, --- --- ------ ------ ---- -- ------<br>------- --- ------ ----- --- ---- ------- -- ---- --- --<br>------- ------",233869,233867,233436.72,233428,233453.82,233903.38,,35,"plummeted,"
screen,html.Screen,2_1_1_1_36,2021-04-24T18:11:28.953Z,,,,,,,,,,,,,,,,,54,,,,,,,,,,,,,,391.61999999999534,,response,,,,100,,,,,,,Space,keypress(Space),,,,,,,,-- --- ---- --- ------ ----- ------- ---- -- --- ------- --<br>------- ---------- ------ -- ----- -- ----- -- ---- ------<br>--- ----- --- --- ------ -------- ----- --- ------ ----- --<br>----- ----- ---------- and --- ------ ------ ---- -- ------<br>------- --- ------ ----- --- ---- ------- -- ---- --- --<br>------- ------,234298,234295,233886.74,233870,233903.38,234320.1,,36,and
screen,html.Screen,2_1_1_1_37,2021-04-24T18:11:29.384Z,,,,,,,,,,,,,,,,,54,,,,,,,,,,,,,,408.8999999999942,,response,,,,100,,,,,,,Space,keypress(Space),,,,,,,,-- --- ---- --- ------ ----- ------- ---- -- --- ------- --<br>------- ---------- ------ -- ----- -- ----- -- ---- ------<br>--- ----- --- --- ------ -------- ----- --- ------ ----- --<br>----- ----- ---------- --- the ------ ------ ---- -- ------<br>------- --- ------ ----- --- ---- ------- -- ---- --- --<br>------- ------,234730,234729,234303.38,234299,234320.1,234753.4,,37,the
screen,html.Screen,2_1_1_1_38,2021-04-24T18:11:29.757Z,,,,,,,,,,,,,,,,,54,,,,,,,,,,,,,,347.6000000000058,,response,,,,100,,,,,,,Space,keypress(Space),,,,,,,,-- --- ---- --- ------ ----- ------- ---- -- --- ------- --<br>------- ---------- ------ -- ----- -- ----- -- ---- ------<br>--- ----- --- --- ------ -------- ----- --- ------ ----- --<br>----- ----- ---------- --- --- market ------ ---- -- ------<br>------- --- ------ ----- --- ---- ------- -- ---- --- --<br>------- ------,235102,235101,234736.76,234730,234753.4,235120.2,,38,market
screen,html.Screen,2_1_1_1_39,2021-04-24T18:11:30.200Z,,,,,,,,,,,,,,,,,54,,,,,,,,,,,,,,423.79999999998836,,response,,,,100,,,,,,,Space,keypress(Space),,,,,,,,-- --- ---- --- ------ ----- ------- ---- -- --- ------- --<br>------- ---------- ------ -- ----- -- ----- -- ---- ------<br>--- ----- --- --- ------ -------- ----- --- ------ ----- --<br>----- ----- ---------- --- --- ------ became ---- -- ------<br>------- --- ------ ----- --- ---- ------- -- ---- --- --<br>------- ------,235545,235544,235103.48,235103,235120.2,235570.1,,39,became
screen,html.Screen,2_1_1_1_40,2021-04-24T18:11:30.684Z,,,,,,,,,,,,,,,,,54,,,,,,,,,,,,,,456.8999999999942,,response,,,,100,,,,,,,Space,keypress(Space),,,,,,,,-- --- ---- --- ------ ----- ------- ---- -- --- ------- --<br>------- ---------- ------ -- ----- -- ----- -- ---- ------<br>--- ----- --- --- ------ -------- ----- --- ------ ----- --<br>----- ----- ---------- --- --- ------ ------ wary -- ------<br>------- --- ------ ----- --- ---- ------- -- ---- --- --<br>------- ------,236029,236027,235553.46,235545,235570.1,236053.52,,40,wary
screen,html.Screen,2_1_1_1_41,2021-04-24T18:11:31.110Z,,,,,,,,,,,,,,,,,54,,,,,,,,,,,,,,399.4800000000105,,response,,,,100,,,,,,,Space,keypress(Space),,,,,,,,-- --- ---- --- ------ ----- ------- ---- -- --- ------- --<br>------- ---------- ------ -- ----- -- ----- -- ---- ------<br>--- ----- --- --- ------ -------- ----- --- ------ ----- --<br>----- ----- ---------- --- --- ------ ------ ---- of ------<br>------- --- ------ ----- --- ---- ------- -- ---- --- --<br>------- ------,236456,236453,236036.84,236030,236053.52,236486.84,,41,of
screen,html.Screen,2_1_1_1_42,2021-04-24T18:11:31.600Z,,,,,,,,,,,,,,,,,54,,,,,,,,,,,,,,457.1600000000035,,response,,,,100,,,,,,,Space,keypress(Space),,,,,,,,-- --- ---- --- ------ ----- ------- ---- -- --- ------- --<br>------- ---------- ------ -- ----- -- ----- -- ---- ------<br>--- ----- --- --- ------ -------- ----- --- ------ ----- --<br>----- ----- ---------- --- --- ------ ------ ---- -- French<br>------- --- ------ ----- --- ---- ------- -- ---- --- --<br>------- ------,236945,236944,236470.16,236456,236486.84,236970.2,,42,French
screen,html.Screen,2_1_1_1_43,2021-04-24T18:11:32.352Z,,,,,,,,,,,,,,,,,54,,,,,,,,,,,,,,725.7999999999884,,response,,,,100,,,,,,,Space,keypress(Space),,,,,,,,-- --- ---- --- ------ ----- ------- ---- -- --- ------- --<br>------- ---------- ------ -- ----- -- ----- -- ---- ------<br>--- ----- --- --- ------ -------- ----- --- ------ ----- --<br>----- ----- ---------- --- --- ------ ------ ---- -- ------<br>credit. --- ------ ----- --- ---- ------- -- ---- --- --<br>------- ------,237698,237696,236953.5,236945,236970.2,237720.28,,43,credit.
screen,html.Screen,2_1_1_1_44,2021-04-24T18:11:32.843Z,,,,,,,,,,,,,,,,,54,,,,,,,,,,,,,,466.72000000000116,,response,,,,100,,,,,,,Space,keypress(Space),,,,,,,,-- --- ---- --- ------ ----- ------- ---- -- --- ------- --<br>------- ---------- ------ -- ----- -- ----- -- ---- ------<br>--- ----- --- --- ------ -------- ----- --- ------ ----- --<br>----- ----- ---------- --- --- ------ ------ ---- -- ------<br>------- The ------ ----- --- ---- ------- -- ---- --- --<br>------- ------,238188,238187,237703.52,237698,237720.28,238220.4,,44,The
screen,html.Screen,2_1_1_1_45,2021-04-24T18:11:33.271Z,,,,,,,,,,,,,,,,,54,,,,,,,,,,,,,,392.6000000000058,,response,,,,100,,,,,,,Space,keypress(Space),,,,,,,,-- --- ---- --- ------ ----- ------- ---- -- --- ------- --<br>------- ---------- ------ -- ----- -- ----- -- ---- ------<br>--- ----- --- --- ------ -------- ----- --- ------ ----- --<br>----- ----- ---------- --- --- ------ ------ ---- -- ------<br>------- --- French ----- --- ---- ------- -- ---- --- --<br>------- ------,238617,238613,238203.56,238189,238220.4,238637,,45,French
screen,html.Screen,2_1_1_1_46,2021-04-24T18:11:33.674Z,,,,,,,,,,,,,,,,,54,,,,,,,,,,,,,,380,,response,,,,100,,,,,,,Space,keypress(Space),,,,,,,,-- --- ---- --- ------ ----- ------- ---- -- --- ------- --<br>------- ---------- ------ -- ----- -- ----- -- ---- ------<br>--- ----- --- --- ------ -------- ----- --- ------ ----- --<br>----- ----- ---------- --- --- ------ ------ ---- -- ------<br>------- --- ------ state --- ---- ------- -- ---- --- --<br>------- ------,239019,239017,238620.36,238617,238637,239053.58,,46,state
screen,html.Screen,2_1_1_1_47,2021-04-24T18:11:34.149Z,,,,,,,,,,,,,,,,,54,,,,,,,,,,,,,,438.4200000000128,,response,,,,100,,,,,,,Space,keypress(Space),,,,,,,,-- --- ---- --- ------ ----- ------- ---- -- --- ------- --<br>------- ---------- ------ -- ----- -- ----- -- ---- ------<br>--- ----- --- --- ------ -------- ----- --- ------ ----- --<br>----- ----- ---------- --- --- ------ ------ ---- -- ------<br>------- --- ------ ----- was ---- ------- -- ---- --- --<br>------- ------,239494,239492,239037,239020,239053.58,239520.36,,47,was
screen,html.Screen,2_1_1_1_48,2021-04-24T18:11:34.576Z,,,,,,,,,,,,,,,,,54,,,,,,,,,,,,,,397.64000000001397,,response,,,,100,,,,,,,Space,keypress(Space),,,,,,,,-- --- ---- --- ------ ----- ------- ---- -- --- ------- --<br>------- ---------- ------ -- ----- -- ----- -- ---- ------<br>--- ----- --- --- ------ -------- ----- --- ------ ----- --<br>----- ----- ---------- --- --- ------ ------ ---- -- ------<br>------- --- ------ ----- --- left ------- -- ---- --- --<br>------- ------,239921,239918,239503.6,239494,239520.36,239953.64,,48,left
screen,html.Screen,2_1_1_1_49,2021-04-24T18:11:35.048Z,,,,,,,,,,,,,,,,,54,,,,,,,,,,,,,,439.35999999998603,,response,,,,100,,,,,,,Space,keypress(Space),,,,,,,,-- --- ---- --- ------ ----- ------- ---- -- --- ------- --<br>------- ---------- ------ -- ----- -- ----- -- ---- ------<br>--- ----- --- --- ------ -------- ----- --- ------ ----- --<br>----- ----- ---------- --- --- ------ ------ ---- -- ------<br>------- --- ------ ----- --- ---- without -- ---- --- --<br>------- ------,240394,240393,239937,239921,239953.64,240420.42,,49,without
screen,html.Screen,2_1_1_1_50,2021-04-24T18:11:35.563Z,,,,,,,,,,,,,,,,,54,,,,,,,,,,,,,,487.5799999999872,,response,,,,100,,,,,,,Space,keypress(Space),,,,,,,,-- --- ---- --- ------ ----- ------- ---- -- --- ------- --<br>------- ---------- ------ -- ----- -- ----- -- ---- ------<br>--- ----- --- --- ------ -------- ----- --- ------ ----- --<br>----- ----- ---------- --- --- ------ ------ ---- -- ------<br>------- --- ------ ----- --- ---- ------- an ---- --- --<br>------- ------,240909,240908,240403.66,240394,240420.42,240937.04,,50,an
screen,html.Screen,2_1_1_1_51,2021-04-24T18:11:36.046Z,,,,,,,,,,,,,,,,,54,,,,,,,,,,,,,,452.95999999999185,,response,,,,100,,,,,,,Space,keypress(Space),,,,,,,,-- --- ---- --- ------ ----- ------- ---- -- --- ------- --<br>------- ---------- ------ -- ----- -- ----- -- ---- ------<br>--- ----- --- --- ------ -------- ----- --- ------ ----- --<br>----- ----- ---------- --- --- ------ ------ ---- -- ------<br>------- --- ------ ----- --- ---- ------- -- easy --- --<br>------- ------,241392,241390,240920.4,240909,240937.04,241420.48,,51,easy
screen,html.Screen,2_1_1_1_52,2021-04-24T18:11:36.507Z,,,,,,,,,,,,,,,,,54,,,,,,,,,,,,,,428.5199999999895,,response,,,,100,,,,,,,Space,keypress(Space),,,,,,,,-- --- ---- --- ------ ----- ------- ---- -- --- ------- --<br>------- ---------- ------ -- ----- -- ----- -- ---- ------<br>--- ----- --- --- ------ -------- ----- --- ------ ----- --<br>----- ----- ---------- --- --- ------ ------ ---- -- ------<br>------- --- ------ ----- --- ---- ------- -- ---- way --<br>------- ------,241851,241849,241403.68,241393,241420.48,241870.38,,52,way
screen,html.Screen,2_1_1_1_53,2021-04-24T18:11:37.616Z,,,,,,,,,,,,,,,,,54,,,,,,,,,,,,,,1088.6199999999953,,response,,,,100,,,,,,,Space,keypress(Space),,,,,,,,-- --- ---- --- ------ ----- ------- ---- -- --- ------- --<br>------- ---------- ------ -- ----- -- ----- -- ---- ------<br>--- ----- --- --- ------ -------- ----- --- ------ ----- --<br>----- ----- ---------- --- --- ------ ------ ---- -- ------<br>------- --- ------ ----- --- ---- ------- -- ---- --- of<br>------- ------,242961,242959,241853.78,241852,241870.38,242987.1,,53,of
screen,html.Screen,2_1_1_1_54,2021-04-24T18:11:38.066Z,,,,,,,,,,,,,,,,,54,,,,,,,,,,,,,,422.8999999999942,,response,,,,100,,,,,,,Space,keypress(Space),,,,,,,,-- --- ---- --- ------ ----- ------- ---- -- --- ------- --<br>------- ---------- ------ -- ----- -- ----- -- ---- ------<br>--- ----- --- --- ------ -------- ----- --- ------ ----- --<br>----- ----- ---------- --- --- ------ ------ ---- -- ------<br>------- --- ------ ----- --- ---- ------- -- ---- --- --<br>raising ------,243411,243410,242970.44,242961,242987.1,243437.2,,54,raising
screen,html.Screen,2_1_1_1_55,2021-04-24T18:11:39.106Z,,,,,,,,,,,,,,,,,54,,,,,,,,,,,,,,1011.7999999999884,,response,,,,100,,,,,,,Space,keypress(Space),,,,,,,,-- --- ---- --- ------ ----- ------- ---- -- --- ------- --<br>------- ---------- ------ -- ----- -- ----- -- ---- ------<br>--- ----- --- --- ------ -------- ----- --- ------ ----- --<br>----- ----- ---------- --- --- ------ ------ ---- -- ------<br>------- --- ------ ----- --- ---- ------- -- ---- --- --<br>------- money.,244452,244449,243420.42,243411,243437.2,244470.54,,55,money.
Item 100,flow.Loop,2_1_1_1,2021-04-24T18:11:39.107Z,,,,,,,,,,,,,,,,,,,,,,,,,,,,,,,30112.72,,completion,,,,,E,,,,,,,,,,,silence,,,,,244453,244449,214319.72,214322,214336.28,244470.54,,,
Question 1,html.Screen,2_1_1_2,2021-04-24T18:11:44.985Z,,,,,,,,,,,,,,,,,,,,,,,,,,,,true,TRUE,,5850.459999999992,,response,,,,100,E,,,,,,TRUE,click #choice-1,,,,silence,,,,,250331,250321,244453.84,244453,244470.54,250354.08,,,
Question 2,html.Screen,2_1_1_3,2021-04-24T18:11:50.526Z,,,,,,,,,,,,,,,,,,,,,,,,,,,,true,FALSE,,5510.920000000013,,response,,,,100,E,,,,,,FALSE,click #choice-2,,,,silence,,,,,255871,255865,250337.4,250331,250354.08,255887.66,,,
Item 100,flow.Sequence,2_1_1,2021-04-24T18:11:50.527Z,,,,,,,,,,,,,,,,,,,,,,,,,,,,,,,51528.70000000001,,completion,,,,,,,,,,,,,,,,,,,,,255872,255865,204319.66,204319,204336.3,255887.66,,,
End of Practice,html.Page,2_1_2,2021-04-24T18:11:54.571Z,,,,,,,,,,,,,,,,,,,,,,,,,,,,,,,4026.3399999999965,,form submission,,,,,,,,,,,,,,,,,,,,,259917,259914,255871,255872,255887.66,259937.78,,,
Practice,flow.Sequence,2_1,2021-04-24T18:11:54.572Z,,,,,,,,,,,,,,,,,,,,,,,,,,,,,,,116544.20000000001,,completion,,,,,,,,,,,,,,,,,,,,,259917,259914,143353.12,143356,143369.8,259937.78,,,
Trap_instruction,html.Page,2_2_0,2021-04-24T18:11:59.788Z,,,,,,,,,,,,,,,,,,,,,,,,,,,,,,,5194.220000000001,,form submission,,,,,,,,,,,,,,,,,,,,,265133,265132,259921.22,259917,259937.78,265154.68,,,
trap_trial,html.Screen,2_2_1,2021-04-24T18:12:03.464Z,,,,,,,,,,,,,,,,,,,,,,,,,,,,true,1,,3646.320000000007,,response,,,,,,,,,,,1,click #choice-1,,,,,,,,,268810,268801,265138,265133,265154.68,268821.48,,,
end of trap trial,html.Page,2_2_2,2021-04-24T18:12:05.354Z,,,,,,,,,,,,,,,,,,,,,,,,,,,,,,,1875.5200000000186,,form submission,,,,,,,,,,,,,,,,,,,,,270700,270697,268804.82,268810,268821.48,270721.84,,,
Trap 1,flow.Sequence,2_2,2021-04-24T18:12:05.355Z,,,,,,,,,,,,,,,,,,,,,,,,,,,,,,,10759.220000000001,,completion,,,,,,,,,,,,,,,,,,,,,270700,270697,259921.22,259917,259937.78,270721.84,,,
Standby,html.Page,2_3_0,2021-04-24T18:12:13.361Z,,,,,,,,,,,,,,,,,,,,,,,,,,,,,,,8000.059999999998,,timeout,,,,,,,,,,,,,,,,,,,,,278706,278705.24,270704.94,270701,270721.84,278721.9,,,
Holding screen,html.Screen,2_3_1_0_0,2021-04-24T18:12:20.361Z,,,,,,,,,,,,,,,,,,,,,,,,,,,,,,,7000.259999999951,,timeout,,,,,,,,,,,,,,,,,,,,,285706,285705.5,278705.24,278706,278721.9,285722.16,,,
screen,html.Screen,2_3_1_0_1_0,2021-04-24T18:12:22.072Z,,,,,,,,,,,,,,,,,51,,,,,,,,,,,,,,1692.8400000000256,,response,,,,13,E,,,,,,Space,keypress(Space),,,,lyrical,,,,American -------- --- --- ---- --- --- ------ -- --------<br>---- --------- --- ------- ------------ ---------- ---------<br>--- ---------- ------- ---------- ------- -- -------- ----<br>---- --- ------ ----- ------ -- ---- --- ----- -- - -------<br>-------- -- --- --- -- ----- ----------- ----- -----------<br>---- --- ---------- --- ---- --- -- ----------,287417,287415,285705.5,285706,285722.16,287438.94,,0,American
screen,html.Screen,2_3_1_0_1_1,2021-04-24T18:12:22.515Z,,,,,,,,,,,,,,,,,51,,,,,,,,,,,,,,420.0599999999977,,response,,,,13,E,,,,,,Space,keypress(Space),,,,lyrical,,,,-------- industry --- --- ---- --- --- ------ -- --------<br>---- --------- --- ------- ------------ ---------- ---------<br>--- ---------- ------- ---------- ------- -- -------- ----<br>---- --- ------ ----- ------ -- ---- --- ----- -- - -------<br>-------- -- --- --- -- ----- ----------- ----- -----------<br>---- --- ---------- --- ---- --- -- ----------,287860,287859,287422.3,287418,287438.94,287888.94,,1,industry
screen,html.Screen,2_3_1_0_1_2,2021-04-24T18:12:22.943Z,,,,,,,,,,,,,,,,,51,,,,,,,,,,,,,,397.0599999999977,,response,,,,13,E,,,,,,Space,keypress(Space),,,,lyrical,,,,-------- -------- may --- ---- --- --- ------ -- --------<br>---- --------- --- ------- ------------ ---------- ---------<br>--- ---------- ------- ---------- ------- -- -------- ----<br>---- --- ------ ----- ------ -- ---- --- ----- -- - -------<br>-------- -- --- --- -- ----- ----------- ----- -----------<br>---- --- ---------- --- ---- --- -- ----------,288288,288286,287872.24,287860,287888.94,288322.26,,2,may
screen,html.Screen,2_3_1_0_1_3,2021-04-24T18:12:23.368Z,,,,,,,,,,,,,,,,,51,,,,,,,,,,,,,,389.7399999999907,,response,,,,13,E,,,,,,Space,keypress(Space),,,,lyrical,,,,-------- -------- --- not ---- --- --- ------ -- --------<br>---- --------- --- ------- ------------ ---------- ---------<br>--- ---------- ------- ---------- ------- -- -------- ----<br>---- --- ------ ----- ------ -- ---- --- ----- -- - -------<br>-------- -- --- --- -- ----- ----------- ----- -----------<br>---- --- ---------- --- ---- --- -- ----------,288713,288712,288305.6,288289,288322.26,288738.96,,3,not
screen,html.Screen,2_3_1_0_1_4,2021-04-24T18:12:23.783Z,,,,,,,,,,,,,,,,,51,,,,,,,,,,,,,,385.03999999997905,,response,,,,13,E,,,,,,Space,keypress(Space),,,,lyrical,,,,-------- -------- --- --- know --- --- ------ -- --------<br>---- --------- --- ------- ------------ ---------- ---------<br>--- ---------- ------- ---------- ------- -- -------- ----<br>---- --- ------ ----- ------ -- ---- --- ----- -- - -------<br>-------- -- --- --- -- ----- ----------- ----- -----------<br>---- --- ---------- --- ---- --- -- ----------,289128,289124,288722.3,288714,288738.96,289155.64,,4,know
screen,html.Screen,2_3_1_0_1_5,2021-04-24T18:12:24.199Z,,,,,,,,,,,,,,,,,51,,,,,,,,,,,,,,387.35999999998603,,response,,,,13,E,,,,,,Space,keypress(Space),,,,lyrical,,,,"-------- -------- --- --- ---- it, --- ------ -- --------<br>---- --------- --- ------- ------------ ---------- ---------<br>--- ---------- ------- ---------- ------- -- -------- ----<br>---- --- ------ ----- ------ -- ---- --- ----- -- - -------<br>-------- -- --- --- -- ----- ----------- ----- -----------<br>---- --- ---------- --- ---- --- -- ----------",289545,289543,289138.96,289128,289155.64,289572.32,,5,"it,"
screen,html.Screen,2_3_1_0_1_6,2021-04-24T18:12:24.625Z,,,,,,,,,,,,,,,,,51,,,,,,,,,,,,,,395.679999999993,,response,,,,13,E,,,,,,Space,keypress(Space),,,,lyrical,,,,-------- -------- --- --- ---- --- but ------ -- --------<br>---- --------- --- ------- ------------ ---------- ---------<br>--- ---------- ------- ---------- ------- -- -------- ----<br>---- --- ------ ----- ------ -- ---- --- ----- -- - -------<br>-------- -- --- --- -- ----- ----------- ----- -----------<br>---- --- ---------- --- ---- --- -- ----------,289970,289968,289555.66,289545,289572.32,289988.98,,6,but
screen,html.Screen,2_3_1_0_1_7,2021-04-24T18:12:25.061Z,,,,,,,,,,,,,,,,,51,,,,,,,,,,,,,,415.0200000000186,,response,,,,13,E,,,,,,Space,keypress(Space),,,,lyrical,,,,-------- -------- --- --- ---- --- --- debate -- --------<br>---- --------- --- ------- ------------ ---------- ---------<br>--- ---------- ------- ---------- ------- -- -------- ----<br>---- --- ------ ----- ------ -- ---- --- ----- -- - -------<br>-------- -- --- --- -- ----- ----------- ----- -----------<br>---- --- ---------- --- ---- --- -- ----------,290407,290404,289972.32,289970,289988.98,290439.16,,7,debate
screen,html.Screen,2_3_1_0_1_8,2021-04-24T18:12:25.456Z,,,,,,,,,,,,,,,,,51,,,,,,,,,,,,,,360.8400000000256,,response,,,,13,E,,,,,,Space,keypress(Space),,,,lyrical,,,,-------- -------- --- --- ---- --- --- ------ in --------<br>---- --------- --- ------- ------------ ---------- ---------<br>--- ---------- ------- ---------- ------- -- -------- ----<br>---- --- ------ ----- ------ -- ---- --- ----- -- - -------<br>-------- -- --- --- -- ----- ----------- ----- -----------<br>---- --- ---------- --- ---- --- -- ----------,290802,290800,290422.44,290407,290439.16,290822.4,,8,in
screen,html.Screen,2_3_1_0_1_9,2021-04-24T18:12:26.043Z,,,,,,,,,,,,,,,,,51,,,,,,,,,,,,,,563.5999999999767,,response,,,,13,E,,,,,,Space,keypress(Space),,,,lyrical,,,,-------- -------- --- --- ---- --- --- ------ -- Congress<br>---- --------- --- ------- ------------ ---------- ---------<br>--- ---------- ------- ---------- ------- -- -------- ----<br>---- --- ------ ----- ------ -- ---- --- ----- -- - -------<br>-------- -- --- --- -- ----- ----------- ----- -----------<br>---- --- ---------- --- ---- --- -- ----------,291388,291386,290805.68,290803,290822.4,291405.72,,9,Congress
screen,html.Screen,2_3_1_0_1_10,2021-04-24T18:12:26.477Z,,,,,,,,,,,,,,,,,51,,,,,,,,,,,,,,414.28000000002794,,response,,,,13,E,,,,,,Space,keypress(Space),,,,lyrical,,,,-------- -------- --- --- ---- --- --- ------ -- --------<br>over --------- --- ------- ------------ ---------- ---------<br>--- ---------- ------- ---------- ------- -- -------- ----<br>---- --- ------ ----- ------ -- ---- --- ----- -- - -------<br>-------- -- --- --- -- ----- ----------- ----- -----------<br>---- --- ---------- --- ---- --- -- ----------,291823,291820,291389.04,291389,291405.72,291855.76,,10,over
screen,html.Screen,2_3_1_0_1_11,2021-04-24T18:12:27.088Z,,,,,,,,,,,,,,,,,51,,,,,,,,,,,,,,574.2399999999907,,response,,,,13,E,,,,,,Space,keypress(Space),,,,lyrical,,,,-------- -------- --- --- ---- --- --- ------ -- --------<br>---- reforming --- ------- ------------ ---------- ---------<br>--- ---------- ------- ---------- ------- -- -------- ----<br>---- --- ------ ----- ------ -- ---- --- ----- -- - -------<br>-------- -- --- --- -- ----- ----------- ----- -----------<br>---- --- ---------- --- ---- --- -- ----------,292432,292430,291839.26,291823,291855.76,292455.8,,11,reforming
screen,html.Screen,2_3_1_0_1_12,2021-04-24T18:12:27.656Z,,,,,,,,,,,,,,,,,51,,,,,,,,,,,,,,543.2000000000116,,response,,,,13,E,,,,,,Space,keypress(Space),,,,lyrical,,,,-------- -------- --- --- ---- --- --- ------ -- --------<br>---- --------- the ------- ------------ ---------- ---------<br>--- ---------- ------- ---------- ------- -- -------- ----<br>---- --- ------ ----- ------ -- ---- --- ----- -- - -------<br>-------- -- --- --- -- ----- ----------- ----- -----------<br>---- --- ---------- --- ---- --- -- ----------,293001,292999,292439.16,292432,292455.8,293022.54,,12,the
screen,html.Screen,2_3_1_0_1_13,2021-04-24T18:12:28.075Z,,,,,,,,,,,,,,,,,51,,,,,,,,,,,,,,396.46000000002095,,response,,,,13,E,,,,,,Space,keypress(Space),,,,lyrical,,,,-------- -------- --- --- ---- --- --- ------ -- --------<br>---- --------- --- federal ------------ ---------- ---------<br>--- ---------- ------- ---------- ------- -- -------- ----<br>---- --- ------ ----- ------ -- ---- --- ----- -- - -------<br>-------- -- --- --- -- ----- ----------- ----- -----------<br>---- --- ---------- --- ---- --- -- ----------,293420,293419,293005.78,293001,293022.54,293439.22,,13,federal
screen,html.Screen,2_3_1_0_1_14,2021-04-24T18:12:28.504Z,,,,,,,,,,,,,,,,,51,,,,,,,,,,,,,,407.78000000002794,,response,,,,13,E,,,,,,Space,keypress(Space),,,,lyrical,,,,-------- -------- --- --- ---- --- --- ------ -- --------<br>---- --------- --- ------- government's ---------- ---------<br>--- ---------- ------- ---------- ------- -- -------- ----<br>---- --- ------ ----- ------ -- ---- --- ----- -- - -------<br>-------- -- --- --- -- ----- ----------- ----- -----------<br>---- --- ---------- --- ---- --- -- ----------,293850,293847,293422.5,293421,293439.22,293872.48,,14,government's
screen,html.Screen,2_3_1_0_1_15,2021-04-24T18:12:28.882Z,,,,,,,,,,,,,,,,,51,,,,,,,,,,,,,,352.5200000000186,,response,,,,13,E,,,,,,Space,keypress(Space),,,,lyrical,,,,-------- -------- --- --- ---- --- --- ------ -- --------<br>---- --------- --- ------- ------------ regulatory ---------<br>--- ---------- ------- ---------- ------- -- -------- ----<br>---- --- ------ ----- ------ -- ---- --- ----- -- - -------<br>-------- -- --- --- -- ----- ----------- ----- -----------<br>---- --- ---------- --- ---- --- -- ----------,294227,294225,293855.8,293850,293872.48,294255.8,,15,regulatory
screen,html.Screen,2_3_1_0_1_16,2021-04-24T18:12:29.323Z,,,,,,,,,,,,,,,,,51,,,,,,,,,,,,,,411.20000000001164,,response,,,,13,E,,,,,,Space,keypress(Space),,,,lyrical,,,,-------- -------- --- --- ---- --- --- ------ -- --------<br>---- --------- --- ------- ------------ ---------- apparatus<br>--- ---------- ------- ---------- ------- -- -------- ----<br>---- --- ------ ----- ------ -- ---- --- ----- -- - -------<br>-------- -- --- --- -- ----- ----------- ----- -----------<br>---- --- ---------- --- ---- --- -- ----------,294668,294667,294239.16,294227,294255.8,294689.42,,16,apparatus
screen,html.Screen,2_3_1_0_1_17,2021-04-24T18:12:29.846Z,,,,,,,,,,,,,,,,,51,,,,,,,,,,,,,,500.5800000000163,,response,,,,13,E,,,,,,Space,keypress(Space),,,,lyrical,,,,-------- -------- --- --- ---- --- --- ------ -- --------<br>---- --------- --- ------- ------------ ---------- ---------<br>may ---------- ------- ---------- ------- -- -------- ----<br>---- --- ------ ----- ------ -- ---- --- ----- -- - -------<br>-------- -- --- --- -- ----- ----------- ----- -----------<br>---- --- ---------- --- ---- --- -- ----------,295191,295190,294672.52,294669,294689.42,295222.54,,17,may
screen,html.Screen,2_3_1_0_1_18,2021-04-24T18:12:30.304Z,,,,,,,,,,,,,,,,,51,,,,,,,,,,,,,,425.46000000002095,,response,,,,13,E,,,,,,Space,keypress(Space),,,,lyrical,,,,-------- -------- --- --- ---- --- --- ------ -- --------<br>---- --------- --- ------- ------------ ---------- ---------<br>--- profoundly ------- ---------- ------- -- -------- ----<br>---- --- ------ ----- ------ -- ---- --- ----- -- - -------<br>-------- -- --- --- -- ----- ----------- ----- -----------<br>---- --- ---------- --- ---- --- -- ----------,295649,295648,295205.86,295191,295222.54,295672.54,,18,profoundly
screen,html.Screen,2_3_1_0_1_19,2021-04-24T18:12:30.733Z,,,,,,,,,,,,,,,,,51,,,,,,,,,,,,,,404.46000000002095,,response,,,,13,E,,,,,,Space,keypress(Space),,,,lyrical,,,,-------- -------- --- --- ---- --- --- ------ -- --------<br>---- --------- --- ------- ------------ ---------- ---------<br>--- ---------- improve ---------- ------- -- -------- ----<br>---- --- ------ ----- ------ -- ---- --- ----- -- - -------<br>-------- -- --- --- -- ----- ----------- ----- -----------<br>---- --- ---------- --- ---- --- -- ----------,296079,296077,295655.86,295649,295672.54,296105.9,,19,improve
screen,html.Screen,2_3_1_0_1_20,2021-04-24T18:12:31.176Z,,,,,,,,,,,,,,,,,51,,,,,,,,,,,,,,413.0999999999767,,response,,,,13,E,,,,,,Space,keypress(Space),,,,lyrical,,,,-------- -------- --- --- ---- --- --- ------ -- --------<br>---- --------- --- ------- ------------ ---------- ---------<br>--- ---------- ------- companies' ------- -- -------- ----<br>---- --- ------ ----- ------ -- ---- --- ----- -- - -------<br>-------- -- --- --- -- ----- ----------- ----- -----------<br>---- --- ---------- --- ---- --- -- ----------,296521,296519,296089.28,296079,296105.9,296539.26,,20,companies'
screen,html.Screen,2_3_1_0_1_21,2021-04-24T18:12:31.556Z,,,,,,,,,,,,,,,,,51,,,,,,,,,,,,,,358.7399999999907,,response,,,,13,E,,,,,,Space,keypress(Space),,,,lyrical,,,,-------- -------- --- --- ---- --- --- ------ -- --------<br>---- --------- --- ------- ------------ ---------- ---------<br>--- ---------- ------- ---------- ability -- -------- ----<br>---- --- ------ ----- ------ -- ---- --- ----- -- - -------<br>-------- -- --- --- -- ----- ----------- ----- -----------<br>---- --- ---------- --- ---- --- -- ----------,296900,296898,296522.58,296522,296539.26,296922.6,,21,ability
screen,html.Screen,2_3_1_0_1_22,2021-04-24T18:12:32.196Z,,,,,,,,,,,,,,,,,51,,,,,,,,,,,,,,616.4000000000233,,response,,,,13,E,,,,,,Space,keypress(Space),,,,lyrical,,,,-------- -------- --- --- ---- --- --- ------ -- --------<br>---- --------- --- ------- ------------ ---------- ---------<br>--- ---------- ------- ---------- ------- to -------- ----<br>---- --- ------ ----- ------ -- ---- --- ----- -- - -------<br>-------- -- --- --- -- ----- ----------- ----- -----------<br>---- --- ---------- --- ---- --- -- ----------,297541,297539,296905.98,296901,296922.6,297572.6,,22,to
screen,html.Screen,2_3_1_0_1_23,2021-04-24T18:12:32.734Z,,,,,,,,,,,,,,,,,51,,,,,,,,,,,,,,504.4000000000233,,response,,,,13,E,,,,,,Space,keypress(Space),,,,lyrical,,,,-------- -------- --- --- ---- --- --- ------ -- --------<br>---- --------- --- ------- ------------ ---------- ---------<br>--- ---------- ------- ---------- ------- -- survive. ----<br>---- --- ------ ----- ------ -- ---- --- ----- -- - -------<br>-------- -- --- --- -- ----- ----------- ----- -----------<br>---- --- ---------- --- ---- --- -- ----------,298079,298077,297555.98,297541,297572.6,298106.02,,23,survive.
screen,html.Screen,2_3_1_0_1_24,2021-04-24T18:12:33.407Z,,,,,,,,,,,,,,,,,51,,,,,,,,,,,,,,644.9799999999814,,response,,,,13,E,,,,,,Space,keypress(Space),,,,lyrical,,,,-------- -------- --- --- ---- --- --- ------ -- --------<br>---- --------- --- ------- ------------ ---------- ---------<br>--- ---------- ------- ---------- ------- -- -------- This<br>---- --- ------ ----- ------ -- ---- --- ----- -- - -------<br>-------- -- --- --- -- ----- ----------- ----- -----------<br>---- --- ---------- --- ---- --- -- ----------,298753,298751,298089.32,298079,298106.02,298772.64,,24,This
screen,html.Screen,2_3_1_0_1_25,2021-04-24T18:12:33.859Z,,,,,,,,,,,,,,,,,51,,,,,,,,,,,,,,428.35999999998603,,response,,,,13,E,,,,,,Space,keypress(Space),,,,lyrical,,,,-------- -------- --- --- ---- --- --- ------ -- --------<br>---- --------- --- ------- ------------ ---------- ---------<br>--- ---------- ------- ---------- ------- -- -------- ----<br>week --- ------ ----- ------ -- ---- --- ----- -- - -------<br>-------- -- --- --- -- ----- ----------- ----- -----------<br>---- --- ---------- --- ---- --- -- ----------,299204,299201,298755.98,298753,298772.64,299222.74,,25,week
screen,html.Screen,2_3_1_0_1_26,2021-04-24T18:12:34.373Z,,,,,,,,,,,,,,,,,51,,,,,,,,,,,,,,493.2600000000093,,response,,,,13,E,,,,,,Space,keypress(Space),,,,lyrical,,,,-------- -------- --- --- ---- --- --- ------ -- --------<br>---- --------- --- ------- ------------ ---------- ---------<br>--- ---------- ------- ---------- ------- -- -------- ----<br>---- the ------ ----- ------ -- ---- --- ----- -- - -------<br>-------- -- --- --- -- ----- ----------- ----- -----------<br>---- --- ---------- --- ---- --- -- ----------,299718,299716,299206,299204,299222.74,299739.36,,26,the
screen,html.Screen,2_3_1_0_1_27,2021-04-24T18:12:34.905Z,,,,,,,,,,,,,,,,,51,,,,,,,,,,,,,,507.64000000001397,,response,,,,13,E,,,,,,Space,keypress(Space),,,,lyrical,,,,-------- -------- --- --- ---- --- --- ------ -- --------<br>---- --------- --- ------- ------------ ---------- ---------<br>--- ---------- ------- ---------- ------- -- -------- ----<br>---- --- Senate ----- ------ -- ---- --- ----- -- - -------<br>-------- -- --- --- -- ----- ----------- ----- -----------<br>---- --- ---------- --- ---- --- -- ----------,300250,300247,299722.7,299718,299739.36,300272.82,,27,Senate
screen,html.Screen,2_3_1_0_1_28,2021-04-24T18:12:35.378Z,,,,,,,,,,,,,,,,,51,,,,,,,,,,,,,,447.179999999993,,response,,,,13,E,,,,,,Space,keypress(Space),,,,lyrical,,,,-------- -------- --- --- ---- --- --- ------ -- --------<br>---- --------- --- ------- ------------ ---------- ---------<br>--- ---------- ------- ---------- ------- -- -------- ----<br>---- --- ------ seems ------ -- ---- --- ----- -- - -------<br>-------- -- --- --- -- ----- ----------- ----- -----------<br>---- --- ---------- --- ---- --- -- ----------,300723,300720,300256.04,300251,300272.82,300756.1,,28,seems
screen,html.Screen,2_3_1_0_1_29,2021-04-24T18:12:35.987Z,,,,,,,,,,,,,,,,,51,,,,,,,,,,,,,,573.9000000000233,,response,,,,13,E,,,,,,Space,keypress(Space),,,,lyrical,,,,-------- -------- --- --- ---- --- --- ------ -- --------<br>---- --------- --- ------- ------------ ---------- ---------<br>--- ---------- ------- ---------- ------- -- -------- ----<br>---- --- ------ ----- poised -- ---- --- ----- -- - -------<br>-------- -- --- --- -- ----- ----------- ----- -----------<br>---- --- ---------- --- ---- --- -- ----------,301332,301330,300739.42,300724,300756.1,301356.12,,29,poised
screen,html.Screen,2_3_1_0_1_30,2021-04-24T18:12:36.414Z,,,,,,,,,,,,,,,,,51,,,,,,,,,,,,,,401.88000000000466,,response,,,,13,E,,,,,,Space,keypress(Space),,,,lyrical,,,,-------- -------- --- --- ---- --- --- ------ -- --------<br>---- --------- --- ------- ------------ ---------- ---------<br>--- ---------- ------- ---------- ------- -- -------- ----<br>---- --- ------ ----- ------ to ---- --- ----- -- - -------<br>-------- -- --- --- -- ----- ----------- ----- -----------<br>---- --- ---------- --- ---- --- -- ----------,301760,301758,301339.4,301332,301356.12,301789.44,,30,to
screen,html.Screen,2_3_1_0_1_31,2021-04-24T18:12:36.816Z,,,,,,,,,,,,,,,,,51,,,,,,,,,,,,,,370.5599999999977,,response,,,,13,E,,,,,,Space,keypress(Space),,,,lyrical,,,,-------- -------- --- --- ---- --- --- ------ -- --------<br>---- --------- --- ------- ------------ ---------- ---------<br>--- ---------- ------- ---------- ------- -- -------- ----<br>---- --- ------ ----- ------ -- join --- ----- -- - -------<br>-------- -- --- --- -- ----- ----------- ----- -----------<br>---- --- ---------- --- ---- --- -- ----------,302162,302160,301772.78,301760,301789.44,302189.48,,31,join
screen,html.Screen,2_3_1_0_1_32,2021-04-24T18:12:37.266Z,,,,,,,,,,,,,,,,,51,,,,,,,,,,,,,,420.5200000000186,,response,,,,13,E,,,,,,Space,keypress(Space),,,,lyrical,,,,-------- -------- --- --- ---- --- --- ------ -- --------<br>---- --------- --- ------- ------------ ---------- ---------<br>--- ---------- ------- ---------- ------- -- -------- ----<br>---- --- ------ ----- ------ -- ---- the ----- -- - -------<br>-------- -- --- --- -- ----- ----------- ----- -----------<br>---- --- ---------- --- ---- --- -- ----------,302612,302610,302172.78,302162,302189.48,302639.5,,32,the
screen,html.Screen,2_3_1_0_1_33,2021-04-24T18:12:37.623Z,,,,,,,,,,,,,,,,,51,,,,,,,,,,,,,,327.5,,response,,,,13,E,,,,,,Space,keypress(Space),,,,lyrical,,,,-------- -------- --- --- ---- --- --- ------ -- --------<br>---- --------- --- ------- ------------ ---------- ---------<br>--- ---------- ------- ---------- ------- -- -------- ----<br>---- --- ------ ----- ------ -- ---- --- House -- - -------<br>-------- -- --- --- -- ----- ----------- ----- -----------<br>---- --- ---------- --- ---- --- -- ----------,302968,302967,302622.88,302612,302639.5,302989.56,,33,House
screen,html.Screen,2_3_1_0_1_34,2021-04-24T18:12:38.003Z,,,,,,,,,,,,,,,,,51,,,,,,,,,,,,,,356.4400000000023,,response,,,,13,E,,,,,,Space,keypress(Space),,,,lyrical,,,,-------- -------- --- --- ---- --- --- ------ -- --------<br>---- --------- --- ------- ------------ ---------- ---------<br>--- ---------- ------- ---------- ------- -- -------- ----<br>---- --- ------ ----- ------ -- ---- --- ----- in - -------<br>-------- -- --- --- -- ----- ----------- ----- -----------<br>---- --- ---------- --- ---- --- -- ----------,303348,303346,302972.84,302969,302989.56,303372.84,,34,in
screen,html.Screen,2_3_1_0_1_35,2021-04-24T18:12:38.356Z,,,,,,,,,,,,,,,,,51,,,,,,,,,,,,,,327.1599999999744,,response,,,,13,E,,,,,,Space,keypress(Space),,,,lyrical,,,,-------- -------- --- --- ---- --- --- ------ -- --------<br>---- --------- --- ------- ------------ ---------- ---------<br>--- ---------- ------- ---------- ------- -- -------- ----<br>---- --- ------ ----- ------ -- ---- --- ----- -- a -------<br>-------- -- --- --- -- ----- ----------- ----- -----------<br>---- --- ---------- --- ---- --- -- ----------,303701,303700,303356.16,303348,303372.84,303722.9,,35,a
screen,html.Screen,2_3_1_0_1_36,2021-04-24T18:12:38.849Z,,,,,,,,,,,,,,,,,51,,,,,,,,,,,,,,470.0999999999767,,response,,,,13,E,,,,,,Space,keypress(Space),,,,lyrical,,,,-------- -------- --- --- ---- --- --- ------ -- --------<br>---- --------- --- ------- ------------ ---------- ---------<br>--- ---------- ------- ---------- ------- -- -------- ----<br>---- --- ------ ----- ------ -- ---- --- ----- -- - massive<br>-------- -- --- --- -- ----- ----------- ----- -----------<br>---- --- ---------- --- ---- --- -- ----------,304194,304193,303706.18,303702,303722.9,304223.02,,36,massive
screen,html.Screen,2_3_1_0_1_37,2021-04-24T18:12:39.259Z,,,,,,,,,,,,,,,,,51,,,,,,,,,,,,,,378.9799999999814,,response,,,,13,E,,,,,,Space,keypress(Space),,,,lyrical,,,,-------- -------- --- --- ---- --- --- ------ -- --------<br>---- --------- --- ------- ------------ ---------- ---------<br>--- ---------- ------- ---------- ------- -- -------- ----<br>---- --- ------ ----- ------ -- ---- --- ----- -- - -------<br>overhaul -- --- --- -- ----- ----------- ----- -----------<br>---- --- ---------- --- ---- --- -- ----------,304604,304602,304206.22,304195,304223.02,304623,,37,overhaul
screen,html.Screen,2_3_1_0_1_38,2021-04-24T18:12:39.631Z,,,,,,,,,,,,,,,,,51,,,,,,,,,,,,,,350,,response,,,,13,E,,,,,,Space,keypress(Space),,,,lyrical,,,,-------- -------- --- --- ---- --- --- ------ -- --------<br>---- --------- --- ------- ------------ ---------- ---------<br>--- ---------- ------- ---------- ------- -- -------- ----<br>---- --- ------ ----- ------ -- ---- --- ----- -- - -------<br>-------- of --- --- -- ----- ----------- ----- -----------<br>---- --- ---------- --- ---- --- -- ----------,304976,304973,304606.22,304604,304623,305006.24,,38,of
screen,html.Screen,2_3_1_0_1_39,2021-04-24T18:12:39.970Z,,,,,,,,,,,,,,,,,51,,,,,,,,,,,,,,307.7600000000093,,response,,,,13,E,,,,,,Space,keypress(Space),,,,lyrical,,,,-------- -------- --- --- ---- --- --- ------ -- --------<br>---- --------- --- ------- ------------ ---------- ---------<br>--- ---------- ------- ---------- ------- -- -------- ----<br>---- --- ------ ----- ------ -- ---- --- ----- -- - -------<br>-------- -- the --- -- ----- ----------- ----- -----------<br>---- --- ---------- --- ---- --- -- ----------,305316,305314,304989.6,304976,305006.24,305339.58,,39,the
screen,html.Screen,2_3_1_0_1_40,2021-04-24T18:12:40.245Z,,,,,,,,,,,,,,,,,51,,,,,,,,,,,,,,249.4199999999837,,response,,,,13,E,,,,,,Space,keypress(Space),,,,lyrical,,,,-------- -------- --- --- ---- --- --- ------ -- --------<br>---- --------- --- ------- ------------ ---------- ---------<br>--- ---------- ------- ---------- ------- -- -------- ----<br>---- --- ------ ----- ------ -- ---- --- ----- -- - -------<br>-------- -- --- way -- ----- ----------- ----- -----------<br>---- --- ---------- --- ---- --- -- ----------,305590,305589,305322.9,305317,305339.58,305623.04,,40,way
screen,html.Screen,2_3_1_0_1_41,2021-04-24T18:12:40.571Z,,,,,,,,,,,,,,,,,51,,,,,,,,,,,,,,289.96000000002095,,response,,,,13,E,,,,,,Space,keypress(Space),,,,lyrical,,,,-------- -------- --- --- ---- --- --- ------ -- --------<br>---- --------- --- ------- ------------ ---------- ---------<br>--- ---------- ------- ---------- ------- -- -------- ----<br>---- --- ------ ----- ------ -- ---- --- ----- -- - -------<br>-------- -- --- --- in ----- ----------- ----- -----------<br>---- --- ---------- --- ---- --- -- ----------,305916,305913,305606.26,305590,305623.04,305939.64,,41,in
screen,html.Screen,2_3_1_0_1_42,2021-04-24T18:12:41.053Z,,,,,,,,,,,,,,,,,51,,,,,,,,,,,,,,456.35999999998603,,response,,,,13,E,,,,,,Space,keypress(Space),,,,lyrical,,,,-------- -------- --- --- ---- --- --- ------ -- --------<br>---- --------- --- ------- ------------ ---------- ---------<br>--- ---------- ------- ---------- ------- -- -------- ----<br>---- --- ------ ----- ------ -- ---- --- ----- -- - -------<br>-------- -- --- --- -- which ----------- ----- -----------<br>---- --- ---------- --- ---- --- -- ----------,306399,306396,305922.94,305916,305939.64,306423.02,,42,which
screen,html.Screen,2_3_1_0_1_43,2021-04-24T18:12:41.408Z,,,,,,,,,,,,,,,,,51,,,,,,,,,,,,,,327.9799999999814,,response,,,,13,E,,,,,,Space,keypress(Space),,,,lyrical,,,,-------- -------- --- --- ---- --- --- ------ -- --------<br>---- --------- --- ------- ------------ ---------- ---------<br>--- ---------- ------- ---------- ------- -- -------- ----<br>---- --- ------ ----- ------ -- ---- --- ----- -- - -------<br>-------- -- --- --- -- ----- bureaucrats ----- -----------<br>---- --- ---------- --- ---- --- -- ----------,306753,306751,306406.28,306399,306423.02,306772.98,,43,bureaucrats
screen,html.Screen,2_3_1_0_1_44,2021-04-24T18:12:41.810Z,,,,,,,,,,,,,,,,,51,,,,,,,,,,,,,,381.0200000000186,,response,,,,13,E,,,,,,Space,keypress(Space),,,,lyrical,,,,-------- -------- --- --- ---- --- --- ------ -- --------<br>---- --------- --- ------- ------------ ---------- ---------<br>--- ---------- ------- ---------- ------- -- -------- ----<br>---- --- ------ ----- ------ -- ---- --- ----- -- - -------<br>-------- -- --- --- -- ----- ----------- enact -----------<br>---- --- ---------- --- ---- --- -- ----------,307155,307154,306756.28,306753,306772.98,307173,,44,enact
screen,html.Screen,2_3_1_0_1_45,2021-04-24T18:12:42.238Z,,,,,,,,,,,,,,,,,51,,,,,,,,,,,,,,409,,response,,,,13,E,,,,,,Space,keypress(Space),,,,lyrical,,,,-------- -------- --- --- ---- --- --- ------ -- --------<br>---- --------- --- ------- ------------ ---------- ---------<br>--- ---------- ------- ---------- ------- -- -------- ----<br>---- --- ------ ----- ------ -- ---- --- ----- -- - -------<br>-------- -- --- --- -- ----- ----------- ----- regulations<br>---- --- ---------- --- ---- --- -- ----------,307584,307582,307156.3,307155,307173,307606.34,,45,regulations
screen,html.Screen,2_3_1_0_1_46,2021-04-24T18:12:42.738Z,,,,,,,,,,,,,,,,,51,,,,,,,,,,,,,,474.6599999999744,,response,,,,13,E,,,,,,Space,keypress(Space),,,,lyrical,,,,-------- -------- --- --- ---- --- --- ------ -- --------<br>---- --------- --- ------- ------------ ---------- ---------<br>--- ---------- ------- ---------- ------- -- -------- ----<br>---- --- ------ ----- ------ -- ---- --- ----- -- - -------<br>-------- -- --- --- -- ----- ----------- ----- -----------<br>that --- ---------- --- ---- --- -- ----------,308082,308081,307589.64,307585,307606.34,308106.36,,46,that
screen,html.Screen,2_3_1_0_1_47,2021-04-24T18:12:43.204Z,,,,,,,,,,,,,,,,,51,,,,,,,,,,,,,,440.64000000001397,,response,,,,13,E,,,,,,Space,keypress(Space),,,,lyrical,,,,-------- -------- --- --- ---- --- --- ------ -- --------<br>---- --------- --- ------- ------------ ---------- ---------<br>--- ---------- ------- ---------- ------- -- -------- ----<br>---- --- ------ ----- ------ -- ---- --- ----- -- - -------<br>-------- -- --- --- -- ----- ----------- ----- -----------<br>---- are ---------- --- ---- --- -- ----------,308549,308547,308089.72,308084,308106.36,308573.06,,47,are
screen,html.Screen,2_3_1_0_1_48,2021-04-24T18:12:43.663Z,,,,,,,,,,,,,,,,,51,,,,,,,,,,,,,,431.9400000000023,,response,,,,13,E,,,,,,Space,keypress(Space),,,,lyrical,,,,-------- -------- --- --- ---- --- --- ------ -- --------<br>---- --------- --- ------- ------------ ---------- ---------<br>--- ---------- ------- ---------- ------- -- -------- ----<br>---- --- ------ ----- ------ -- ---- --- ----- -- - -------<br>-------- -- --- --- -- ----- ----------- ----- -----------<br>---- --- strangling --- ---- --- -- ----------,309008,309005,308556.34,308549,308573.06,309039.8,,48,strangling
screen,html.Screen,2_3_1_0_1_49,2021-04-24T18:12:44.090Z,,,,,,,,,,,,,,,,,51,,,,,,,,,,,,,,392.20000000001164,,response,,,,13,E,,,,,,Space,keypress(Space),,,,lyrical,,,,-------- -------- --- --- ---- --- --- ------ -- --------<br>---- --------- --- ------- ------------ ---------- ---------<br>--- ---------- ------- ---------- ------- -- -------- ----<br>---- --- ------ ----- ------ -- ---- --- ----- -- - -------<br>-------- -- --- --- -- ----- ----------- ----- -----------<br>---- --- ---------- the ---- --- -- ----------,309435,309432,309023.16,309008,309039.8,309456.42,,49,the
screen,html.Screen,2_3_1_0_1_50,2021-04-24T18:12:44.453Z,,,,,,,,,,,,,,,,,51,,,,,,,,,,,,,,339.5800000000163,,response,,,,13,E,,,,,,Space,keypress(Space),,,,lyrical,,,,-------- -------- --- --- ---- --- --- ------ -- --------<br>---- --------- --- ------- ------------ ---------- ---------<br>--- ---------- ------- ---------- ------- -- -------- ----<br>---- --- ------ ----- ------ -- ---- --- ----- -- - -------<br>-------- -- --- --- -- ----- ----------- ----- -----------<br>---- --- ---------- --- life --- -- ----------,309799,309796,309439.88,309435,309456.42,309823.1,,50,life
