sender,sender_type,sender_id,timestamp,meta,,Blues,Classical,Country,Dance,Electronic,Folk,Gospel,Hip-Hop,Jazz,Latin,Musical/Film,New-age,Pop,Prolific_id,Provo_ID,R&B,Rap,Reggae,Religious,Rock,Soul,Swing,Traditional,age,artist_name,correct,correctResponse,distraction,duration,education,ended_on,familiarity,gender,headphone_check_performance,item,list,music_frequency,offensiveness,pleasantness,position_correct,preference,response,response_action,snippet_file,song_name,song_rating,sound,stimulus_1,stimulus_2,stimulus_3,text,time_commit,time_end,time_render,time_run,time_show,time_switch,url,word,word_ID
Prolific ID,html.Form,0,2021-04-24T14:49:40.186Z,"{""labjs_version"":""20.2.2"",""labjs_build"":{""flavor"":""production"",""commit"":""a25486e0c714a0ae2ce03ff94b7bb6896854dcfa""},""location"":""https://run.pavlovia.org/mvasilev/prolific_music_c/"",""userAgent"":""Mozilla/5.0 (Macintosh; Intel Mac OS X 11_2_1) AppleWebKit/537.36 (KHTML, like Gecko) Chrome/89.0.4389.128 Safari/537.36"",""platform"":""MacIntel"",""language"":""en-GB"",""locale"":""en-GB"",""timeZone"":""Europe/London"",""timezoneOffset"":-60,""screen_width"":1280,""screen_height"":800,""scroll_width"":1280,""scroll_height"":641,""window_innerWidth"":1280,""window_innerHeight"":689,""devicePixelRatio"":2}",,,,,,,,,,,,,,,601409d55844d4358c7a254a,,,,,,,,,,,,,,,10238.453000003712,,form submission,,,,,,,,,,,,,,,,,,,,,42390.88000000629,42389.11000000371,32117.311,32123.895000004268,32150.657,42393.408,{},,
Introduction,html.Screen,1_0,2021-04-24T14:49:45.278Z,,,,,,,,,,,,,,,,,,,,,,,,,,,,,,,5083.192000001778,,response,,,,,,,,,,,continue,click button,,,,,,,,,47482.19000000245,47476.60000000178,42376.735,42393.68500000273,42393.408,47489.627,,,
Volume calibration,html.Screen,1_1,2021-04-24T14:50:13.051Z,,,,,,,,,,,,,,,,,,,,,,,,,,,,,,,27760.388000005078,,response,,,,,,,,,,,continue,click button,,,,,,,,,75254.98000000516,75250.01500000508,47472.954,47482.44500000146,47489.627,75261.574,,,
Task instructions,html.Screen,1_2,2021-04-24T14:50:19.527Z,,,,,,,,,,,,,,,,,,,,,,,,,,,,,,,6465.921000006463,,response,,,,,,,,,,,continue,click button,,,,,,,,,81730.74500000075,81727.49500000646,75244.901,75255.11000000552,75261.574,81733.025,,,
Sounds,html.Screen,1_3_0_0,2021-04-24T14:50:23.772Z,,,,,,,,,,,,,,,,,,,,,,,,,,,,,,,4251.615000000005,,timeout,,,,,,,,,1,,,,,,,,S,O,I,,85975.43500000029,85967.967,81716.352,81731.1650000047,81733.025,85984.64,,,
Judgement,html.Screen,1_3_0_1,2021-04-24T14:50:24.966Z,,,,,,,,,,,,,,,,,,,,,,,,,,,,true,1,,1181.335000003528,,response,,,,,,,,,1,,1,click #choice-1,,,,,S,O,I,,87169.31000000477,87165.97500000353,85967.967,85975.70000000269,85984.64,87185.096,,,
Trial,flow.Sequence,1_3_0,2021-04-24T14:50:24.967Z,,,,,,,,,,,,,,,,,,,,,,,,,,,,,,,5432.950000003533,,completion,,,,,,,,,1,,,,,,,,S,O,I,,87169.87499999959,87165.97500000353,81716.352,81731.06000000553,81733.025,87185.096,,,
Sounds,html.Screen,1_3_1_0,2021-04-24T14:50:29.219Z,,,,,,,,,,,,,,,,,,,,,,,,,,,,,,,4251.614999999991,,timeout,,,,,,,,,2,,,,,,,,O,S,I,,91422.57000000245,91420.038,87168.423,87170.1350000003,87185.096,91436.711,,,
Judgement,html.Screen,1_3_1_1,2021-04-24T14:50:29.891Z,,,,,,,,,,,,,,,,,,,,,,,,,,,,true,2,,654.2840000059368,,response,,,,,,,,,2,,2,click #choice-2,,,,,O,S,I,,92093.95500000392,92090.99500000593,91420.038,91422.78500000248,91436.711,92109.731,,,
Trial,flow.Sequence,1_3_1,2021-04-24T14:50:29.891Z,,,,,,,,,,,,,,,,,,,,,,,,,,,,,,,4905.8990000059275,,completion,,,,,,,,,2,,,,,,,,O,S,I,,92094.45500000584,92090.99500000593,87168.423,87170.05500000232,87185.096,92109.731,,,
Sounds,html.Screen,1_3_2_0,2021-04-24T14:50:34.144Z,,,,,,,,,,,,,,,,,,,,,,,,,,,,,,,4251.615000000005,,timeout,,,,,,,,,2,,,,,,,,I,S,O,,96346.6000000044,96344.673,92093.058,92094.69000000536,92109.731,96361.346,,,
Judgement,html.Screen,1_3_2_1,2021-04-24T14:50:34.891Z,,,,,,,,,,,,,,,,,,,,,,,,,,,,true,2,,729.673999999839,,response,,,,,,,,,2,,2,click #choice-2,,,,,I,S,O,,97094.24000000581,97091.01999999984,96344.673,96346.74500000256,96361.346,97094.958,,,
Trial,flow.Sequence,1_3_2,2021-04-24T14:50:34.892Z,,,,,,,,,,,,,,,,,,,,,,,,,,,,,,,4981.288999999844,,completion,,,,,,,,,2,,,,,,,,I,S,O,,97094.56499999942,97091.01999999984,92093.058,92094.6150000018,92109.731,97094.958,,,
Sounds,html.Screen,1_3_3_0,2021-04-24T14:50:39.128Z,,,,,,,,,,,,,,,,,,,,,,,,,,,,,,,4251.615000000005,,timeout,,,,,,,,,3,,,,,,,,O,I,S,,101331.34500000597,101329.9,97078.285,97094.80000000622,97094.958,101346.573,,,
Judgement,html.Screen,1_3_3_1,2021-04-24T14:50:39.827Z,,,,,,,,,,,,,,,,,,,,,,,,,,,,true,3,,680.2020000057237,,response,,,,,,,,,3,,3,click #choice-3,,,,,O,I,S,,102029.74499999982,102026.77500000573,101329.9,101331.73499999975,101346.573,102030.166,,,
Trial,flow.Sequence,1_3_3,2021-04-24T14:50:39.827Z,,,,,,,,,,,,,,,,,,,,,,,,,,,,,,,4931.817000005729,,completion,,,,,,,,,3,,,,,,,,O,I,S,,102030.04499999952,102026.77500000573,97078.285,97094.71000000485,97094.958,102030.166,,,
Sounds,html.Screen,1_3_4_0,2021-04-24T14:50:44.064Z,,,,,,,,,,,,,,,,,,,,,,,,,,,,,,,4250.710000000006,,timeout,,,,,,,,,1,,,,,,,,S,I,O,,106266.53000000078,106264.203,102013.493,102030.45000000566,102030.166,106280.876,,,
Judgement,html.Screen,1_3_4_1,2021-04-24T14:50:44.787Z,,,,,,,,,,,,,,,,,,,,,,,,,,,,true,1,,705.894000003158,,response,,,,,,,,,1,,1,click #choice-1,,,,,S,I,O,,106989.79500000132,106986.77000000316,106264.203,106266.85500000167,106280.876,106997.815,,,
Trial,flow.Sequence,1_3_4,2021-04-24T14:50:44.787Z,,,,,,,,,,,,,,,,,,,,,,,,,,,,,,,4956.604000003164,,completion,,,,,,,,,1,,,,,,,,S,I,O,,106990.08500000491,106986.77000000316,102013.493,102030.3750000021,102030.166,106997.815,,,
Sounds,html.Screen,1_3_5_0,2021-04-24T14:50:49.033Z,,,,,,,,,,,,,,,,,,,,,,,,,,,,,,,4251.614999999991,,timeout,,,,,,,,,3,,,,,,,,I,O,S,,111235.99000000104,111232.757,106981.142,106990.36999999953,106997.815,111249.43,,,
Judgement,html.Screen,1_3_5_1,2021-04-24T14:50:49.608Z,,,,,,,,,,,,,,,,,,,,,,,,,,,,true,3,,558.2000000029802,,response,,,,,,,,,3,,3,click #choice-3,,,,,I,O,S,,111810.58500000654,111807.63000000297,111232.757,111236.19500000495,111249.43,111816.312,,,
Trial,flow.Sequence,1_3_5,2021-04-24T14:50:49.608Z,,,,,,,,,,,,,,,,,,,,,,,,,,,,,,,4809.815000002971,,completion,,,,,,,,,3,,,,,,,,I,O,S,,111810.86000000505,111807.63000000297,106981.142,106990.23000000307,106997.815,111816.312,,,
Task,flow.Loop,1_3,2021-04-24T14:50:49.617Z,,,,,,,,,,,,,,,,,,,,,,,,,,,,,,,30074.60500000298,,completion,,,1,,,,,,,,,,,,,,,,,,111819.0950000062,111807.63000000297,81716.352,81730.95500000636,81733.025,111816.312,,,
Trap,html.Screen,1_4,2021-04-24T14:50:49.619Z,,,,,,,,,,,,,,,,,,,,,,,,,,,,,,,NaN,,skipped,,,,,,,,,,,,,,,,,,,,,111821.57000000007,111807.63000000297,,111821.28500000545,,111816.312,,,
Thanks,html.Screen,1_5,2021-04-24T14:50:52.250Z,,,,,,,,,,,,,,,,,,,,,,,,,,,,,,,2632.2830000016547,,response,,,,,,,,,,,continue,click button,,,,,,,,,114452.19999999972,114448.59500000166,111799.639,111821.70000000042,111816.312,118878.888,,,
Headphone screening,flow.Sequence,1,2021-04-24T14:50:52.250Z,,,,,,,,,,,,,,,,,,,,,,,,,,,,,,,72055.18700000166,,completion,,,,,,,,,,,,,,,,,,,,,114452.4750000055,114448.59500000166,42376.735,42393.25500000268,42393.408,118878.888,,,
Instructions,html.Page,2_0,2021-04-24T14:51:15.544Z,,,,,,,,,,,,,,,,,,,,,,,,,,,,,,,18866.511999999784,,form submission,,,,,,,,,,,,,,,,,,,,,137745.76499999966,137745.3999999998,118862.215,118880.66000000254,118878.888,137758.999,,,
Holding screen,html.Screen,2_1_0_0,2021-04-24T14:51:25.547Z,,,,,,,,,,,,,,,,,,,,,,,,,,,,,,,10020.472999999998,,timeout,,,,,,,,,,,,,,,,,,,,,147748.12999999995,147746.126,137742.326,137746.07500000275,137758.999,147779.472,,,
screen,html.Screen,2_1_0_1_0,2021-04-24T14:51:26.563Z,,,,,,,,,,,,,,,,,53,,,,,,,,,,,,,,977.7430000050808,,response,,,,99,,,,,,,Space,keypress(Space),,,,,,,,When -- ----- -- ------ - ------- --- ----------<br>------------- ------ ------ ---- ---- ------- ----- -- ----<br>-------- ------- -- ---------- --- - --- ----- ----- ----<br>---- --- --- ----- --- ---- ---- ------- ----- ---- -------<br>--- --- -- ----- -- --- ---- -- --- ---- -- ------ ------<br>--- ----- -- ----,148764.80500000616,148757.2150000051,147746.126,147748.44500000472,147779.472,148779.852,,0,When
screen,html.Screen,2_1_0_1_1,2021-04-24T14:51:27.020Z,,,,,,,,,,,,,,,,,53,,,,,,,,,,,,,,438.3130000056699,,response,,,,99,,,,,,,Space,keypress(Space),,,,,,,,---- it ----- -- ------ - ------- --- ----------<br>------------- ------ ------ ---- ---- ------- ----- -- ----<br>-------- ------- -- ---------- --- - --- ----- ----- ----<br>---- --- --- ----- --- ---- ---- ------- ----- ---- -------<br>--- --- -- ----- -- --- ---- -- --- ---- -- ------ ------<br>--- ----- -- ----,149221.6750000007,149218.16500000568,148763.179,148765.0300000023,148779.852,149232.141,,1,it
screen,html.Screen,2_1_0_1_2,2021-04-24T14:51:27.511Z,,,,,,,,,,,,,,,,,53,,,,,,,,,,,,,,476.0640000026324,,response,,,,99,,,,,,,Space,keypress(Space),,,,,,,,---- -- comes -- ------ - ------- --- ----------<br>------------- ------ ------ ---- ---- ------- ----- -- ----<br>-------- ------- -- ---------- --- - --- ----- ----- ----<br>---- --- --- ----- --- ---- ---- ------- ----- ---- -------<br>--- --- -- ----- -- --- ---- -- --- ---- -- ------ ------<br>--- ----- -- ----,149712.3800000045,149708.20500000264,149215.468,149221.8600000051,149232.141,149715.658,,2,comes
screen,html.Screen,2_1_0_1_3,2021-04-24T14:51:27.957Z,,,,,,,,,,,,,,,,,53,,,,,,,,,,,,,,438.58700000518,,response,,,,99,,,,,,,Space,keypress(Space),,,,,,,,---- -- ----- to ------ - ------- --- ----------<br>------------- ------ ------ ---- ---- ------- ----- -- ----<br>-------- ------- -- ---------- --- - --- ----- ----- ----<br>---- --- --- ----- --- ---- ---- ------- ----- ---- -------<br>--- --- -- ----- -- --- ---- -- --- ---- -- ------ ------<br>--- ----- -- ----,150158.39000000415,150154.24500000518,149698.985,149712.57000000332,149715.658,150165.829,,3,to
screen,html.Screen,2_1_0_1_4,2021-04-24T14:51:28.427Z,,,,,,,,,,,,,,,,,53,,,,,,,,,,,,,,458.44600000194623,,response,,,,99,,,,,,,Space,keypress(Space),,,,,,,,---- -- ----- -- having - ------- --- ----------<br>------------- ------ ------ ---- ---- ------- ----- -- ----<br>-------- ------- -- ---------- --- - --- ----- ----- ----<br>---- --- --- ----- --- ---- ---- ------- ----- ---- -------<br>--- --- -- ----- -- --- ---- -- --- ---- -- ------ ------<br>--- ----- -- ----,150627.97000000137,150624.27500000194,150149.156,150158.5750000013,150165.829,150632.673,,4,having
screen,html.Screen,2_1_0_1_5,2021-04-24T14:51:28.842Z,,,,,,,,,,,,,,,,,53,,,,,,,,,,,,,,407.2620000006864,,response,,,,99,,,,,,,Space,keypress(Space),,,,,,,,---- -- ----- -- ------ a ------- --- ----------<br>------------- ------ ------ ---- ---- ------- ----- -- ----<br>-------- ------- -- ---------- --- - --- ----- ----- ----<br>---- --- --- ----- --- ---- ---- ------- ----- ---- -------<br>--- --- -- ----- -- --- ---- -- --- ---- -- ------ ------<br>--- ----- -- ----,151043.3850000045,151039.9350000007,150616,150628.1600000002,150632.673,151049.498,,5,a
screen,html.Screen,2_1_0_1_6,2021-04-24T14:51:29.422Z,,,,,,,,,,,,,,,,,53,,,,,,,,,,,,,,570.6120000034862,,response,,,,99,,,,,,,Space,keypress(Space),,,,,,,,---- -- ----- -- ------ - lasting --- ----------<br>------------- ------ ------ ---- ---- ------- ----- -- ----<br>-------- ------- -- ---------- --- - --- ----- ----- ----<br>---- --- --- ----- --- ---- ---- ------- ----- ---- -------<br>--- --- -- ----- -- --- ---- -- --- ---- -- ------ ------<br>--- ----- -- ----,151623.7650000039,151620.11000000348,151032.825,151043.57000000164,151049.498,151633.053,,6,lasting
screen,html.Screen,2_1_0_1_7,2021-04-24T14:51:29.834Z,,,,,,,,,,,,,,,,,53,,,,,,,,,,,,,,398.0820000047097,,response,,,,99,,,,,,,Space,keypress(Space),,,,,,,,---- -- ----- -- ------ - ------- and ----------<br>------------- ------ ------ ---- ---- ------- ----- -- ----<br>-------- ------- -- ---------- --- - --- ----- ----- ----<br>---- --- --- ----- --- ---- ---- ------- ----- ---- -------<br>--- --- -- ----- -- --- ---- -- --- ---- -- ------ ------<br>--- ----- -- ----,152035.15500000503,152031.13500000472,151616.38,151623.94499999937,151633.053,152049.878,,7,and
screen,html.Screen,2_1_0_1_8,2021-04-24T14:51:30.314Z,,,,,,,,,,,,,,,,,53,,,,,,,,,,,,,,461.31700000641285,,response,,,,99,,,,,,,Space,keypress(Space),,,,,,,,---- -- ----- -- ------ - ------- --- fulfilling<br>------------- ------ ------ ---- ---- ------- ----- -- ----<br>-------- ------- -- ---------- --- - --- ----- ----- ----<br>---- --- --- ----- --- ---- ---- ------- ----- ---- -------<br>--- --- -- ----- -- --- ---- -- --- ---- -- ------ ------<br>--- ----- -- ----,152514.92000000144,152511.1950000064,152033.205,152035.36000000167,152049.878,152516.722,,8,fulfilling
screen,html.Screen,2_1_0_1_9,2021-04-24T14:51:30.824Z,,,,,,,,,,,,,,,,,53,,,,,,,,,,,,,,504.3880000014906,,response,,,,99,,,,,,,Space,keypress(Space),,,,,,,,"---- -- ----- -- ------ - ------- --- ----------<br>relationship, ------ ------ ---- ---- ------- ----- -- ----<br>-------- ------- -- ---------- --- - --- ----- ----- ----<br>---- --- --- ----- --- ---- ---- ------- ----- ---- -------<br>--- --- -- ----- -- --- ---- -- --- ---- -- ------ ------<br>--- ----- -- ----",153025.07000000332,153021.1100000015,152500.049,152515.10000000417,152516.722,153033.585,,9,"relationship,"
screen,html.Screen,2_1_0_1_10,2021-04-24T14:51:31.305Z,,,,,,,,,,,,,,,,,53,,,,,,,,,,,,,,468.07500000172877,,response,,,,99,,,,,,,Space,keypress(Space),,,,,,,,---- -- ----- -- ------ - ------- --- ----------<br>------------- common ------ ---- ---- ------- ----- -- ----<br>-------- ------- -- ---------- --- - --- ----- ----- ----<br>---- --- --- ----- --- ---- ---- ------- ----- ---- -------<br>--- --- -- ----- -- --- ---- -- --- ---- -- ------ ------<br>--- ----- -- ----,153506.21500000125,153501.66000000172,153016.912,153025.25000000605,153033.585,153517.102,,10,common
screen,html.Screen,2_1_0_1_11,2021-04-24T14:51:31.808Z,,,,,,,,,,,,,,,,,53,,,,,,,,,,,,,,488.97800000646384,,response,,,,99,,,,,,,Space,keypress(Space),,,,,,,,---- -- ----- -- ------ - ------- --- ----------<br>------------- ------ wisdom ---- ---- ------- ----- -- ----<br>-------- ------- -- ---------- --- - --- ----- ----- ----<br>---- --- --- ----- --- ---- ---- ------- ----- ---- -------<br>--- --- -- ----- -- --- ---- -- --- ---- -- ------ ------<br>--- ----- -- ----,154009.55500000418,154006.08000000648,153500.429,153506.80000000284,153517.102,154017.292,,11,wisdom
screen,html.Screen,2_1_0_1_12,2021-04-24T14:51:32.281Z,,,,,,,,,,,,,,,,,53,,,,,,,,,,,,,,460.82300000535906,,response,,,,99,,,,,,,Space,keypress(Space),,,,,,,,---- -- ----- -- ------ - ------- --- ----------<br>------------- ------ ------ says ---- ------- ----- -- ----<br>-------- ------- -- ---------- --- - --- ----- ----- ----<br>---- --- --- ----- --- ---- ---- ------- ----- ---- -------<br>--- --- -- ----- -- --- ---- -- --- ---- -- ------ ------<br>--- ----- -- ----,154482.52000000502,154478.11500000535,154000.619,154009.74000000133,154017.292,154484.136,,12,says
screen,html.Screen,2_1_0_1_13,2021-04-24T14:51:32.739Z,,,,,,,,,,,,,,,,,53,,,,,,,,,,,,,,451.9340000033844,,response,,,,99,,,,,,,Space,keypress(Space),,,,,,,,---- -- ----- -- ------ - ------- --- ----------<br>------------- ------ ------ ---- that ------- ----- -- ----<br>-------- ------- -- ---------- --- - --- ----- ----- ----<br>---- --- --- ----- --- ---- ---- ------- ----- ---- -------<br>--- --- -- ----- -- --- ---- -- --- ---- -- ------ ------<br>--- ----- -- ----,154939.88000000536,154936.07000000338,154467.463,154482.71000000386,154484.136,154950.98,,13,that
screen,html.Screen,2_1_0_1_14,2021-04-24T14:51:33.192Z,,,,,,,,,,,,,,,,,53,,,,,,,,,,,,,,439.05000000228756,,response,,,,99,,,,,,,Space,keypress(Space),,,,,,,,---- -- ----- -- ------ - ------- --- ----------<br>------------- ------ ------ ---- ---- feeling ----- -- ----<br>-------- ------- -- ---------- --- - --- ----- ----- ----<br>---- --- --- ----- --- ---- ---- ------- ----- ---- -------<br>--- --- -- ----- -- --- ---- -- --- ---- -- ------ ------<br>--- ----- -- ----,155393.70500000223,155390.0300000023,154934.307,154940.0600000008,154950.98,155401.151,,14,feeling
screen,html.Screen,2_1_0_1_15,2021-04-24T14:51:33.705Z,,,,,,,,,,,,,,,,,53,,,,,,,,,,,,,,501.87399999960326,,response,,,,99,,,,,,,Space,keypress(Space),,,,,,,,---- -- ----- -- ------ - ------- --- ----------<br>------------- ------ ------ ---- ---- ------- close -- ----<br>-------- ------- -- ---------- --- - --- ----- ----- ----<br>---- --- --- ----- --- ---- ---- ------- ----- ---- -------<br>--- --- -- ----- -- --- ---- -- --- ---- -- ------ ------<br>--- ----- -- ----,155906.59500000038,155903.02499999962,155384.478,155393.88999999937,155401.151,155918.014,,15,close
screen,html.Screen,2_1_0_1_16,2021-04-24T14:51:34.117Z,,,,,,,,,,,,,,,,,53,,,,,,,,,,,,,,396.8560000019788,,response,,,,99,,,,,,,Space,keypress(Space),,,,,,,,---- -- ----- -- ------ - ------- --- ----------<br>------------- ------ ------ ---- ---- ------- ----- to ----<br>-------- ------- -- ---------- --- - --- ----- ----- ----<br>---- --- --- ----- --- ---- ---- ------- ----- ---- -------<br>--- --- -- ----- -- --- ---- -- --- ---- -- ------ ------<br>--- ----- -- ----,156318.40500000544,156314.87000000197,155901.341,155906.7800000048,155918.014,156334.839,,16,to
screen,html.Screen,2_1_0_1_17,2021-04-24T14:51:34.554Z,,,,,,,,,,,,,,,,,53,,,,,,,,,,,,,,417.06100000292645,,response,,,,99,,,,,,,Space,keypress(Space),,,,,,,,---- -- ----- -- ------ - ------- --- ----------<br>------------- ------ ------ ---- ---- ------- ----- -- your<br>-------- ------- -- ---------- --- - --- ----- ----- ----<br>---- --- --- ----- --- ---- ---- ------- ----- ---- -------<br>--- --- -- ----- -- --- ---- -- --- ---- -- ------ ------<br>--- ----- -- ----,156755.36000000284,156751.90000000293,156318.166,156318.60000000597,156334.839,156768.337,,17,your
screen,html.Screen,2_1_0_1_18,2021-04-24T14:51:35.071Z,,,,,,,,,,,,,,,,,53,,,,,,,,,,,,,,500.4780000030878,,response,,,,99,,,,,,,Space,keypress(Space),,,,,,,,---- -- ----- -- ------ - ------- --- ----------<br>------------- ------ ------ ---- ---- ------- ----- -- ----<br>romantic ------- -- ---------- --- - --- ----- ----- ----<br>---- --- --- ----- --- ---- ---- ------- ----- ---- -------<br>--- --- -- ----- -- --- ---- -- --- ---- -- ------ ------<br>--- ----- -- ----,157272.16000000044,157268.8150000031,156751.664,156755.54499999998,156768.337,157285.2,,18,romantic
screen,html.Screen,2_1_0_1_19,2021-04-24T14:51:35.518Z,,,,,,,,,,,,,,,,,53,,,,,,,,,,,,,,430.7600000013481,,response,,,,99,,,,,,,Space,keypress(Space),,,,,,,,---- -- ----- -- ------ - ------- --- ----------<br>------------- ------ ------ ---- ---- ------- ----- -- ----<br>-------- partner -- ---------- --- - --- ----- ----- ----<br>---- --- --- ----- --- ---- ---- ------- ----- ---- -------<br>--- --- -- ----- -- --- ---- -- --- ---- -- ------ ------<br>--- ----- -- ----,157719.3299999999,157715.96000000136,157268.527,157272.35000000655,157285.2,157735.371,,19,partner
screen,html.Screen,2_1_0_1_20,2021-04-24T14:51:35.970Z,,,,,,,,,,,,,,,,,53,,,,,,,,,,,,,,432.4340000045777,,response,,,,99,,,,,,,Space,keypress(Space),,,,,,,,---- -- ----- -- ------ - ------- --- ----------<br>------------- ------ ------ ---- ---- ------- ----- -- ----<br>-------- ------- is ---------- --- - --- ----- ----- ----<br>---- --- --- ----- --- ---- ---- ------- ----- ---- -------<br>--- --- -- ----- -- --- ---- -- --- ---- -- ------ ------<br>--- ----- -- ----,158171.41500000434,158167.8050000046,157718.698,157719.50500000094,157735.371,158185.542,,20,is
screen,html.Screen,2_1_0_1_21,2021-04-24T14:51:36.444Z,,,,,,,,,,,,,,,,,53,,,,,,,,,,,,,,456.41800000084913,,response,,,,99,,,,,,,Space,keypress(Space),,,,,,,,---- -- ----- -- ------ - ------- --- ----------<br>------------- ------ ------ ---- ---- ------- ----- -- ----<br>-------- ------- -- paramount. --- - --- ----- ----- ----<br>---- --- --- ----- --- ---- ---- ------- ----- ---- -------<br>--- --- -- ----- -- --- ---- -- --- ---- -- ------ ------<br>--- ----- -- ----,158645.66500000365,158641.96000000084,158168.869,158171.6000000015,158185.542,158652.386,,21,paramount.
screen,html.Screen,2_1_0_1_22,2021-04-24T14:51:36.980Z,,,,,,,,,,,,,,,,,53,,,,,,,,,,,,,,524.5890000021318,,response,,,,99,,,,,,,Space,keypress(Space),,,,,,,,---- -- ----- -- ------ - ------- --- ----------<br>------------- ------ ------ ---- ---- ------- ----- -- ----<br>-------- ------- -- ---------- But - --- ----- ----- ----<br>---- --- --- ----- --- ---- ---- ------- ----- ---- -------<br>--- --- -- ----- -- --- ---- -- --- ---- -- ------ ------<br>--- ----- -- ----,159181.4000000013,159176.97500000213,158635.713,158645.85500000248,158652.386,159189.316,,22,But
screen,html.Screen,2_1_0_1_23,2021-04-24T14:51:37.778Z,,,,,,,,,,,,,,,,,53,,,,,,,,,,,,,,786.7290000030771,,response,,,,99,,,,,,,Space,keypress(Space),,,,,,,,---- -- ----- -- ------ - ------- --- ----------<br>------------- ------ ------ ---- ---- ------- ----- -- ----<br>-------- ------- -- ---------- --- a --- ----- ----- ----<br>---- --- --- ----- --- ---- ---- ------- ----- ---- -------<br>--- --- -- ----- -- --- ---- -- --- ---- -- ------ ------<br>--- ----- -- ----,159979.46500000398,159976.04500000307,159172.643,159181.58500000573,159189.316,159989.62,,23,a
screen,html.Screen,2_1_0_1_24,2021-04-24T14:51:38.279Z,,,,,,,,,,,,,,,,,53,,,,,,,,,,,,,,487.32000000047265,,response,,,,99,,,,,,,Space,keypress(Space),,,,,,,,---- -- ----- -- ------ - ------- --- ----------<br>------------- ------ ------ ---- ---- ------- ----- -- ----<br>-------- ------- -- ---------- --- - new ----- ----- ----<br>---- --- --- ----- --- ---- ---- ------- ----- ---- -------<br>--- --- -- ----- -- --- ---- -- --- ---- -- ------ ------<br>--- ----- -- ----,160480.41500000545,160476.94000000047,159972.947,159979.64499999944,159989.62,160489.81,,24,new
screen,html.Screen,2_1_0_1_25,2021-04-24T14:51:38.727Z,,,,,,,,,,,,,,,,,53,,,,,,,,,,,,,,435.1200000010431,,response,,,,99,,,,,,,Space,keypress(Space),,,,,,,,---- -- ----- -- ------ - ------- --- ----------<br>------------- ------ ------ ---- ---- ------- ----- -- ----<br>-------- ------- -- ---------- --- - --- study ----- ----<br>---- --- --- ----- --- ---- ---- ------- ----- ---- -------<br>--- --- -- ----- -- --- ---- -- --- ---- -- ------ ------<br>--- ----- -- ----,160928.43500000163,160924.93000000104,160473.137,160480.5950000009,160489.81,160939.981,,25,study
screen,html.Screen,2_1_0_1_26,2021-04-24T14:51:39.183Z,,,,,,,,,,,,,,,,,53,,,,,,,,,,,,,,440.95400000104564,,response,,,,99,,,,,,,Space,keypress(Space),,,,,,,,---- -- ----- -- ------ - ------- --- ----------<br>------------- ------ ------ ---- ---- ------- ----- -- ----<br>-------- ------- -- ---------- --- - --- ----- finds ----<br>---- --- --- ----- --- ---- ---- ------- ----- ---- -------<br>--- --- -- ----- -- --- ---- -- --- ---- -- ------ ------<br>--- ----- -- ----,161384.4950000057,161380.93500000105,160923.308,160928.61500000436,160939.981,161390.152,,26,finds
screen,html.Screen,2_1_0_1_27,2021-04-24T14:51:39.620Z,,,,,,,,,,,,,,,,,53,,,,,,,,,,,,,,427.70300000114366,,response,,,,99,,,,,,,Space,keypress(Space),,,,,,,,---- -- ----- -- ------ - ------- --- ----------<br>------------- ------ ------ ---- ---- ------- ----- -- ----<br>-------- ------- -- ---------- --- - --- ----- ----- that<br>---- --- --- ----- --- ---- ---- ------- ----- ---- -------<br>--- --- -- ----- -- --- ---- -- --- ---- -- ------ ------<br>--- ----- -- ----,161821.2050000002,161817.85500000115,161373.479,161384.67500000115,161390.152,161823.65,,27,that
screen,html.Screen,2_1_0_1_28,2021-04-24T14:51:40.167Z,,,,,,,,,,,,,,,,,53,,,,,,,,,,,,,,541.245000006078,,response,,,,99,,,,,,,Space,keypress(Space),,,,,,,,---- -- ----- -- ------ - ------- --- ----------<br>------------- ------ ------ ---- ---- ------- ----- -- ----<br>-------- ------- -- ---------- --- - --- ----- ----- ----<br>it's --- --- ----- --- ---- ---- ------- ----- ---- -------<br>--- --- -- ----- -- --- ---- -- --- ---- -- ------ ------<br>--- ----- -- ----,162368.43000000226,162364.89500000607,161806.977,161821.3900000046,161823.65,162373.859,,28,it's
screen,html.Screen,2_1_0_1_29,2021-04-24T14:51:40.641Z,,,,,,,,,,,,,,,,,53,,,,,,,,,,,,,,463.01100000645965,,response,,,,99,,,,,,,Space,keypress(Space),,,,,,,,---- -- ----- -- ------ - ------- --- ----------<br>------------- ------ ------ ---- ---- ------- ----- -- ----<br>-------- ------- -- ---------- --- - --- ----- ----- ----<br>---- not --- ----- --- ---- ---- ------- ----- ---- -------<br>--- --- -- ----- -- --- ---- -- --- ---- -- ------ ------<br>--- ----- -- ----,162842.0100000003,162836.87000000646,162357.186,162368.610000005,162373.859,162857.376,,29,not
screen,html.Screen,2_1_0_1_30,2021-04-24T14:51:41.083Z,,,,,,,,,,,,,,,,,53,,,,,,,,,,,,,,423.49900000402704,,response,,,,99,,,,,,,Space,keypress(Space),,,,,,,,---- -- ----- -- ------ - ------- --- ----------<br>------------- ------ ------ ---- ---- ------- ----- -- ----<br>-------- ------- -- ---------- --- - --- ----- ----- ----<br>---- --- how ----- --- ---- ---- ------- ----- ---- -------<br>--- --- -- ----- -- --- ---- -- --- ---- -- ------ ------<br>--- ----- -- ----,163284.48500000377,163280.87500000402,162840.703,162842.21000000252,162857.376,163290.874,,30,how
screen,html.Screen,2_1_0_1_31,2021-04-24T14:51:41.528Z,,,,,,,,,,,,,,,,,53,,,,,,,,,,,,,,434.9960000020219,,response,,,,99,,,,,,,Space,keypress(Space),,,,,,,,---- -- ----- -- ------ - ------- --- ----------<br>------------- ------ ------ ---- ---- ------- ----- -- ----<br>-------- ------- -- ---------- --- - --- ----- ----- ----<br>---- --- --- close --- ---- ---- ------- ----- ---- -------<br>--- --- -- ----- -- --- ---- -- --- ---- -- ------ ------<br>--- ----- -- ----,163729.37500000262,163725.87000000203,163274.201,163284.6950000021,163290.874,163741.045,,31,close
screen,html.Screen,2_1_0_1_32,2021-04-24T14:51:41.988Z,,,,,,,,,,,,,,,,,53,,,,,,,,,,,,,,444.93500000200584,,response,,,,99,,,,,,,Space,keypress(Space),,,,,,,,---- -- ----- -- ------ - ------- --- ----------<br>------------- ------ ------ ---- ---- ------- ----- -- ----<br>-------- ------- -- ---------- --- - --- ----- ----- ----<br>---- --- --- ----- you ---- ---- ------- ----- ---- -------<br>--- --- -- ----- -- --- ---- -- --- ---- -- ------ ------<br>--- ----- -- ----,164189.5000000004,164185.98000000202,163724.372,163729.55999999976,163741.045,164191.216,,32,you
screen,html.Screen,2_1_0_1_33,2021-04-24T14:51:42.483Z,,,,,,,,,,,,,,,,,53,,,,,,,,,,,,,,489.6340000042983,,response,,,,99,,,,,,,Space,keypress(Space),,,,,,,,---- -- ----- -- ------ - ------- --- ----------<br>------------- ------ ------ ---- ---- ------- ----- -- ----<br>-------- ------- -- ---------- --- - --- ----- ----- ----<br>---- --- --- ----- --- feel ---- ------- ----- ---- -------<br>--- --- -- ----- -- --- ---- -- --- ---- -- ------ ------<br>--- ----- -- ----,164684.43000000116,164680.85000000428,164174.543,164189.67500000144,164191.216,164691.406,,33,feel
screen,html.Screen,2_1_0_1_34,2021-04-24T14:51:42.928Z,,,,,,,,,,,,,,,,,53,,,,,,,,,,,,,,435.1540000042587,,response,,,,99,,,,,,,Space,keypress(Space),,,,,,,,---- -- ----- -- ------ - ------- --- ----------<br>------------- ------ ------ ---- ---- ------- ----- -- ----<br>-------- ------- -- ---------- --- - --- ----- ----- ----<br>---- --- --- ----- --- ---- that ------- ----- ---- -------<br>--- --- -- ----- -- --- ---- -- --- ---- -- ------ ------<br>--- ----- -- ----,165129.05500000488,165126.56000000425,164674.733,164684.6100000039,164691.406,165141.577,,34,that
screen,html.Screen,2_1_0_1_35,2021-04-24T14:51:43.358Z,,,,,,,,,,,,,,,,,53,,,,,,,,,,,,,,414.22800000361167,,response,,,,99,,,,,,,Space,keypress(Space),,,,,,,,---- -- ----- -- ------ - ------- --- ----------<br>------------- ------ ------ ---- ---- ------- ----- -- ----<br>-------- ------- -- ---------- --- - --- ----- ----- ----<br>---- --- --- ----- --- ---- ---- matters ----- ---- -------<br>--- --- -- ----- -- --- ---- -- --- ---- -- ------ ------<br>--- ----- -- ----,165559.25500000012,165555.8050000036,165124.904,165129.16500000574,165141.577,165575.075,,35,matters
screen,html.Screen,2_1_0_1_36,2021-04-24T14:51:43.966Z,,,,,,,,,,,,,,,,,53,,,,,,,,,,,,,,587.8100000051782,,response,,,,99,,,,,,,Space,keypress(Space),,,,,,,,"---- -- ----- -- ------ - ------- --- ----------<br>------------- ------ ------ ---- ---- ------- ----- -- ----<br>-------- ------- -- ---------- --- - --- ----- ----- ----<br>---- --- --- ----- --- ---- ---- ------- most, ---- -------<br>--- --- -- ----- -- --- ---- -- --- ---- -- ------ ------<br>--- ----- -- ----",166166.70500000328,166162.8850000052,165558.402,165559.43000000116,165575.075,166175.303,,36,"most,"
screen,html.Screen,2_1_0_1_37,2021-04-24T14:51:44.398Z,,,,,,,,,,,,,,,,,53,,,,,,,,,,,,,,420.4520000020857,,response,,,,99,,,,,,,Space,keypress(Space),,,,,,,,---- -- ----- -- ------ - ------- --- ----------<br>------------- ------ ------ ---- ---- ------- ----- -- ----<br>-------- ------- -- ---------- --- - --- ----- ----- ----<br>---- --- --- ----- --- ---- ---- ------- ----- it's -------<br>--- --- -- ----- -- --- ---- -- --- ---- -- ------ ------<br>--- ----- -- ----,166599.40500000084,166595.7550000021,166158.63,166167.32000000047,166175.303,166608.801,,37,it's
screen,html.Screen,2_1_0_1_38,2021-04-24T14:51:44.906Z,,,,,,,,,,,,,,,,,53,,,,,,,,,,,,,,494.0440000012459,,response,,,,99,,,,,,,Space,keypress(Space),,,,,,,,---- -- ----- -- ------ - ------- --- ----------<br>------------- ------ ------ ---- ---- ------- ----- -- ----<br>-------- ------- -- ---------- --- - --- ----- ----- ----<br>---- --- --- ----- --- ---- ---- ------- ----- ---- whether<br>--- --- -- ----- -- --- ---- -- --- ---- -- ------ ------<br>--- ----- -- ----,167106.4750000005,167102.84500000125,166592.128,166599.5750000002,166608.801,167108.991,,38,whether
screen,html.Screen,2_1_0_1_39,2021-04-24T14:51:45.288Z,,,,,,,,,,,,,,,,,53,,,,,,,,,,,,,,376.7490000037069,,response,,,,99,,,,,,,Space,keypress(Space),,,,,,,,---- -- ----- -- ------ - ------- --- ----------<br>------------- ------ ------ ---- ---- ------- ----- -- ----<br>-------- ------- -- ---------- --- - --- ----- ----- ----<br>---- --- --- ----- --- ---- ---- ------- ----- ---- -------<br>you --- -- ----- -- --- ---- -- --- ---- -- ------ ------<br>--- ----- -- ----,167489.20999999973,167485.74000000372,167092.318,167106.65500000323,167108.991,167492.47,,39,you
screen,html.Screen,2_1_0_1_40,2021-04-24T14:51:45.780Z,,,,,,,,,,,,,,,,,53,,,,,,,,,,,,,,485.3100000010745,,response,,,,99,,,,,,,Space,keypress(Space),,,,,,,,---- -- ----- -- ------ - ------- --- ----------<br>------------- ------ ------ ---- ---- ------- ----- -- ----<br>-------- ------- -- ---------- --- - --- ----- ----- ----<br>---- --- --- ----- --- ---- ---- ------- ----- ---- -------<br>--- are -- ----- -- --- ---- -- --- ---- -- ------ ------<br>--- ----- -- ----,167981.1550000013,167977.78000000108,167475.797,167489.39000000246,167492.47,167992.66,,40,are
screen,html.Screen,2_1_0_1_41,2021-04-24T14:51:46.192Z,,,,,,,,,,,,,,,,,53,,,,,,,,,,,,,,396.9950000063109,,response,,,,99,,,,,,,Space,keypress(Space),,,,,,,,---- -- ----- -- ------ - ------- --- ----------<br>------------- ------ ------ ---- ---- ------- ----- -- ----<br>-------- ------- -- ---------- --- - --- ----- ----- ----<br>---- --- --- ----- --- ---- ---- ------- ----- ---- -------<br>--- --- as ----- -- --- ---- -- --- ---- -- ------ ------<br>--- ----- -- ----,168393.16500000132,168389.6550000063,167975.987,167983.34500000055,167992.66,168409.485,,41,as
screen,html.Screen,2_1_0_1_42,2021-04-24T14:51:46.748Z,,,,,,,,,,,,,,,,,53,,,,,,,,,,,,,,535.2750000057858,,response,,,,99,,,,,,,Space,keypress(Space),,,,,,,,---- -- ----- -- ------ - ------- --- ----------<br>------------- ------ ------ ---- ---- ------- ----- -- ----<br>-------- ------- -- ---------- --- - --- ----- ----- ----<br>---- --- --- ----- --- ---- ---- ------- ----- ---- -------<br>--- --- -- close -- --- ---- -- --- ---- -- ------ ------<br>--- ----- -- ----,168948.40500000282,168944.76000000577,168392.812,168393.36000000185,168409.485,168959.694,,42,close
screen,html.Screen,2_1_0_1_43,2021-04-24T14:51:47.217Z,,,,,,,,,,,,,,,,,53,,,,,,,,,,,,,,453.93100000105915,,response,,,,99,,,,,,,Space,keypress(Space),,,,,,,,---- -- ----- -- ------ - ------- --- ----------<br>------------- ------ ------ ---- ---- ------- ----- -- ----<br>-------- ------- -- ---------- --- - --- ----- ----- ----<br>---- --- --- ----- --- ---- ---- ------- ----- ---- -------<br>--- --- -- ----- as --- ---- -- --- ---- -- ------ ------<br>--- ----- -- ----,169417.7850000051,169413.62500000105,168943.021,168948.57500000217,168959.694,169432.361,,43,as
screen,html.Screen,2_1_0_1_44,2021-04-24T14:51:47.677Z,,,,,,,,,,,,,,,,,53,,,,,,,,,,,,,,442.32900000418886,,response,,,,99,,,,,,,Space,keypress(Space),,,,,,,,---- -- ----- -- ------ - ------- --- ----------<br>------------- ------ ------ ---- ---- ------- ----- -- ----<br>-------- ------- -- ---------- --- - --- ----- ----- ----<br>---- --- --- ----- --- ---- ---- ------- ----- ---- -------<br>--- --- -- ----- -- you ---- -- --- ---- -- ------ ------<br>--- ----- -- ----,169878.1650000019,169874.6900000042,169415.688,169417.95500000444,169432.361,169882.532,,44,you
screen,html.Screen,2_1_0_1_45,2021-04-24T14:51:48.066Z,,,,,,,,,,,,,,,,,53,,,,,,,,,,,,,,381.2030000004452,,response,,,,99,,,,,,,Space,keypress(Space),,,,,,,,---- -- ----- -- ------ - ------- --- ----------<br>------------- ------ ------ ---- ---- ------- ----- -- ----<br>-------- ------- -- ---------- --- - --- ----- ----- ----<br>---- --- --- ----- --- ---- ---- ------- ----- ---- -------<br>--- --- -- ----- -- --- want -- --- ---- -- ------ ------<br>--- ----- -- ----,170267.3200000063,170263.73500000045,169865.859,169878.33500000124,169882.532,170282.684,,45,want
screen,html.Screen,2_1_0_1_46,2021-04-24T14:51:48.509Z,,,,,,,,,,,,,,,,,53,,,,,,,,,,,,,,423.98599999956787,,response,,,,99,,,,,,,Space,keypress(Space),,,,,,,,---- -- ----- -- ------ - ------- --- ----------<br>------------- ------ ------ ---- ---- ------- ----- -- ----<br>-------- ------- -- ---------- --- - --- ----- ----- ----<br>---- --- --- ----- --- ---- ---- ------- ----- ---- -------<br>--- --- -- ----- -- --- ---- to --- ---- -- ------ ------<br>--- ----- -- ----,170710.21000000474,170706.66999999958,170266.011,170267.49000000564,170282.684,170716.182,,46,to
screen,html.Screen,2_1_0_1_47,2021-04-24T14:51:48.928Z,,,,,,,,,,,,,,,,,53,,,,,,,,,,,,,,409.32300000361283,,response,,,,99,,,,,,,Space,keypress(Space),,,,,,,,"---- -- ----- -- ------ - ------- --- ----------<br>------------- ------ ------ ---- ---- ------- ----- -- ----<br>-------- ------- -- ---------- --- - --- ----- ----- ----<br>---- --- --- ----- --- ---- ---- ------- ----- ---- -------<br>--- --- -- ----- -- --- ---- -- be, ---- -- ------ ------<br>--- ----- -- ----",171129.06000000658,171125.5050000036,170699.509,170710.38500000577,170716.182,171133.007,,47,"be,"
screen,html.Screen,2_1_0_1_48,2021-04-24T14:51:49.298Z,,,,,,,,,,,,,,,,,53,,,,,,,,,,,,,,361.62800000273273,,response,,,,99,,,,,,,Space,keypress(Space),,,,,,,,---- -- ----- -- ------ - ------- --- ----------<br>------------- ------ ------ ---- ---- ------- ----- -- ----<br>-------- ------- -- ---------- --- - --- ----- ----- ----<br>---- --- --- ----- --- ---- ---- ------- ----- ---- -------<br>--- --- -- ----- -- --- ---- -- --- even -- ------ ------<br>--- ----- -- ----,171498.34000000556,171494.63500000275,171116.334,171129.23000000592,171133.007,171499.813,,48,even
screen,html.Screen,2_1_0_1_49,2021-04-24T14:51:49.618Z,,,,,,,,,,,,,,,,,53,,,,,,,,,,,,,,315.8320000024105,,response,,,,99,,,,,,,Space,keypress(Space),,,,,,,,---- -- ----- -- ------ - ------- --- ----------<br>------------- ------ ------ ---- ---- ------- ----- -- ----<br>-------- ------- -- ---------- --- - --- ----- ----- ----<br>---- --- --- ----- --- ---- ---- ------- ----- ---- -------<br>--- --- -- ----- -- --- ---- -- --- ---- if ------ ------<br>--- ----- -- ----,171819.1850000003,171815.6450000024,171483.14,171498.5050000032,171499.813,171833.273,,49,if
screen,html.Screen,2_1_0_1_50,2021-04-24T14:51:50.064Z,,,,,,,,,,,,,,,,,53,,,,,,,,,,,,,,428.19200000324054,,response,,,,99,,,,,,,Space,keypress(Space),,,,,,,,---- -- ----- -- ------ - ------- --- ----------<br>------------- ------ ------ ---- ---- ------- ----- -- ----<br>-------- ------- -- ---------- --- - --- ----- ----- ----<br>---- --- --- ----- --- ---- ---- ------- ----- ---- -------<br>--- --- -- ----- -- --- ---- -- --- ---- -- that's ------<br>--- ----- -- ----,172265.12500000536,172261.46500000323,171816.6,171819.34500000352,171833.273,172266.771,,50,that's
screen,html.Screen,2_1_0_1_51,2021-04-24T14:51:50.485Z,,,,,,,,,,,,,,,,,53,,,,,,,,,,,,,,415.75900000549154,,response,,,,99,,,,,,,Space,keypress(Space),,,,,,,,---- -- ----- -- ------ - ------- --- ----------<br>------------- ------ ------ ---- ---- ------- ----- -- ----<br>-------- ------- -- ---------- --- - --- ----- ----- ----<br>---- --- --- ----- --- ---- ---- ------- ----- ---- -------<br>--- --- -- ----- -- --- ---- -- --- ---- -- ------ really<br>--- ----- -- ----,172686.0400000005,172682.5300000055,172250.098,172265.3050000008,172266.771,172700.269,,51,really
screen,html.Screen,2_1_0_1_52,2021-04-24T14:51:50.894Z,,,,,,,,,,,,,,,,,53,,,,,,,,,,,,,,390.40100000504754,,response,,,,99,,,,,,,Space,keypress(Space),,,,,,,,---- -- ----- -- ------ - ------- --- ----------<br>------------- ------ ------ ---- ---- ------- ----- -- ----<br>-------- ------- -- ---------- --- - --- ----- ----- ----<br>---- --- --- ----- --- ---- ---- ------- ----- ---- -------<br>--- --- -- ----- -- --- ---- -- --- ---- -- ------ ------<br>not ----- -- ----,173094.2900000009,173090.67000000505,172683.596,172686.20999999985,172700.269,173100.421,,52,not
screen,html.Screen,2_1_0_1_53,2021-04-24T14:51:51.261Z,,,,,,,,,,,,,,,,,53,,,,,,,,,,,,,,358.2340000021795,,response,,,,99,,,,,,,Space,keypress(Space),,,,,,,,---- -- ----- -- ------ - ------- --- ----------<br>------------- ------ ------ ---- ---- ------- ----- -- ----<br>-------- ------- -- ---------- --- - --- ----- ----- ----<br>---- --- --- ----- --- ---- ---- ------- ----- ---- -------<br>--- --- -- ----- -- --- ---- -- --- ---- -- ------ ------<br>--- close -- ----,173462.15500000108,173458.65500000218,173083.748,173094.47000000364,173100.421,173467.227,,53,close
screen,html.Screen,2_1_0_1_54,2021-04-24T14:51:51.623Z,,,,,,,,,,,,,,,,,53,,,,,,,,,,,,,,353.3630000029807,,response,,,,99,,,,,,,Space,keypress(Space),,,,,,,,---- -- ----- -- ------ - ------- --- ----------<br>------------- ------ ------ ---- ---- ------- ----- -- ----<br>-------- ------- -- ---------- --- - --- ----- ----- ----<br>---- --- --- ----- --- ---- ---- ------- ----- ---- -------<br>--- --- -- ----- -- --- ---- -- --- ---- -- ------ ------<br>--- ----- at ----,173824.11000000138,173820.590000003,173450.554,173462.32500000042,173467.227,173834.033,,54,at
screen,html.Screen,2_1_0_1_55,2021-04-24T14:51:52.169Z,,,,,,,,,,,,,,,,,53,,,,,,,,,,,,,,531.607000003627,,response,,,,99,,,,,,,Space,keypress(Space),,,,,,,,---- -- ----- -- ------ - ------- --- ----------<br>------------- ------ ------ ---- ---- ------- ----- -- ----<br>-------- ------- -- ---------- --- - --- ----- ----- ----<br>---- --- --- ----- --- ---- ---- ------- ----- ---- -------<br>--- --- -- ----- -- --- ---- -- --- ---- -- ------ ------<br>--- ----- -- all.,174369.29500000406,174365.64000000362,173817.36,173824.28000000073,173834.033,174384.242,,55,all.
Item 99,flow.Loop,2_1_0_1,2021-04-24T14:51:52.169Z,,,,,,,,,,,,,,,,,,,,,,,,,,,,,,,26586.168000003614,,completion,,,,,C,,,,,,,,,,,silence,,,,,174369.65500000224,174365.64000000362,147746.126,147748.36000000505,147779.472,174384.242,,,
Question 1,html.Screen,2_1_0_2,2021-04-24T14:51:55.297Z,,,,,,,,,,,,,,,,,,,,,,,,,,,,true,FALSE,,3110.518000001408,,response,,,,99,C,,,,,,FALSE,click #choice-2,,,,silence,,,,,177497.79500000295,177494.7600000014,174367.569,174370.11500000517,174384.242,177502.093,,,
Question 2,html.Screen,2_1_0_3,2021-04-24T14:52:01.149Z,,,,,,,,,,,,,,,,,,,,,,,,,,,,true,TRUE,,5844.497000001022,,response,,,,99,C,,,,,,TRUE,click #choice-1,,,,silence,,,,,183349.72500000003,183346.59000000102,177485.42,177497.99000000348,177502.093,183350.382,,,
Item 99,flow.Sequence,2_1_0,2021-04-24T14:52:01.150Z,,,,,,,,,,,,,,,,,,,,,,,,,,,,,,,45587.591000001004,,completion,,,,,,,,,,,,,,,,,,,,,183350.01000000193,183346.59000000102,137742.326,137746.03000000207,137758.999,183350.382,,,
Holding screen,html.Screen,2_1_1_0,2021-04-24T14:52:11.141Z,,,,,,,,,,,,,,,,,,,,,,,,,,,,,,,10005.194999999978,,timeout,,,,,,,,,,,,,,,,,,,,,193340.99000000424,193338.904,183333.709,183350.19500000635,183350.382,193355.577,,,
screen,html.Screen,2_1_1_1_0,2021-04-24T14:52:11.762Z,,,,,,,,,,,,,,,,,54,,,,,,,,,,,,,,601.5730000020121,,response,,,,100,,,,,,,Space,keypress(Space),,,,,,,,At --- ---- --- ------ ----- ------- ---- -- --- ------- --<br>------- ---------- ------ -- ----- -- ----- -- ---- ------<br>--- ----- --- --- ------ -------- ----- --- ------ ----- --<br>----- ----- ---------- --- --- ------ ------ ---- -- ------<br>------- --- ------ ----- --- ---- ------- -- ---- --- --<br>------- ------,193961.63000000524,193957.150000002,193338.904,193341.21000000596,193355.577,193972.478,,0,At
screen,html.Screen,2_1_1_1_1,2021-04-24T14:52:12.154Z,,,,,,,,,,,,,,,,,54,,,,,,,,,,,,,,377.59200000041164,,response,,,,100,,,,,,,Space,keypress(Space),,,,,,,,-- the ---- --- ------ ----- ------- ---- -- --- ------- --<br>------- ---------- ------ -- ----- -- ----- -- ---- ------<br>--- ----- --- --- ------ -------- ----- --- ------ ----- --<br>----- ----- ---------- --- --- ------ ------ ---- -- ------<br>------- --- ------ ----- --- ---- ------- -- ---- --- --<br>------- ------,194353.74000000593,194350.0700000004,193955.805,193961.8000000046,193972.478,194355.957,,1,the
screen,html.Screen,2_1_1_1_2,2021-04-24T14:52:12.539Z,,,,,,,,,,,,,,,,,54,,,,,,,,,,,,,,379.9680000008666,,response,,,,100,,,,,,,Space,keypress(Space),,,,,,,,-- --- time --- ------ ----- ------- ---- -- --- ------- --<br>------- ---------- ------ -- ----- -- ----- -- ---- ------<br>--- ----- --- --- ------ -------- ----- --- ------ ----- --<br>----- ----- ---------- --- --- ------ ------ ---- -- ------<br>------- --- ------ ----- --- ---- ------- -- ---- --- --<br>------- ------,194739.2949999994,194735.92500000086,194339.284,194353.90500000358,194355.957,194756.109,,2,time
screen,html.Screen,2_1_1_1_3,2021-04-24T14:52:13.004Z,,,,,,,,,,,,,,,,,54,,,,,,,,,,,,,,444.82600000075763,,response,,,,100,,,,,,,Space,keypress(Space),,,,,,,,-- --- ---- the ------ ----- ------- ---- -- --- ------- --<br>------- ---------- ------ -- ----- -- ----- -- ---- ------<br>--- ----- --- --- ------ -------- ----- --- ------ ----- --<br>----- ----- ---------- --- --- ------ ------ ---- -- ------<br>------- --- ------ ----- --- ---- ------- -- ---- --- --<br>------- ------,195203.71500000329,195200.93500000075,194739.436,194739.47000000044,194756.109,195206.28,,3,the
screen,html.Screen,2_1_1_1_4,2021-04-24T14:52:13.417Z,,,,,,,,,,,,,,,,,54,,,,,,,,,,,,,,407.66500000460655,,response,,,,100,,,,,,,Space,keypress(Space),,,,,,,,-- --- ---- --- French ----- ------- ---- -- --- ------- --<br>------- ---------- ------ -- ----- -- ----- -- ---- ------<br>--- ----- --- --- ------ -------- ----- --- ------ ----- --<br>----- ----- ---------- --- --- ------ ------ ---- -- ------<br>------- --- ------ ----- --- ---- ------- -- ---- --- --<br>------- ------,195617.40000000282,195613.9450000046,195189.607,195203.83500000025,195206.28,195623.105,,4,French
screen,html.Screen,2_1_1_1_5,2021-04-24T14:52:13.810Z,,,,,,,,,,,,,,,,,54,,,,,,,,,,,,,,383.03500000495114,,response,,,,100,,,,,,,Space,keypress(Space),,,,,,,,-- --- ---- --- ------ crown ------- ---- -- --- ------- --<br>------- ---------- ------ -- ----- -- ----- -- ---- ------<br>--- ----- --- --- ------ -------- ----- --- ------ ----- --<br>----- ----- ---------- --- --- ------ ------ ---- -- ------<br>------- --- ------ ----- --- ---- ------- -- ---- --- --<br>------- ------,196009.865,196006.14000000496,195606.432,195617.60499999946,195623.105,196023.257,,5,crown
screen,html.Screen,2_1_1_1_6,2021-04-24T14:52:14.285Z,,,,,,,,,,,,,,,,,54,,,,,,,,,,,,,,457.8330000011192,,response,,,,100,,,,,,,Space,keypress(Space),,,,,,,,-- --- ---- --- ------ ----- secured ---- -- --- ------- --<br>------- ---------- ------ -- ----- -- ----- -- ---- ------<br>--- ----- --- --- ------ -------- ----- --- ------ ----- --<br>----- ----- ---------- --- --- ------ ------ ---- -- ------<br>------- --- ------ ----- --- ---- ------- -- ---- --- --<br>------- ------,196485.38499999995,196481.09000000113,196006.584,196010.04000000103,196023.257,196490.101,,6,secured
screen,html.Screen,2_1_1_1_7,2021-04-24T14:52:14.747Z,,,,,,,,,,,,,,,,,54,,,,,,,,,,,,,,453.80400000009104,,response,,,,100,,,,,,,Space,keypress(Space),,,,,,,,-- --- ---- --- ------ ----- ------- much -- --- ------- --<br>------- ---------- ------ -- ----- -- ----- -- ---- ------<br>--- ----- --- --- ------ -------- ----- --- ------ ----- --<br>----- ----- ---------- --- --- ------ ------ ---- -- ------<br>------- --- ------ ----- --- ---- ------- -- ---- --- --<br>------- ------,196947.2700000042,196943.9050000001,196473.428,196485.55500000657,196490.101,196956.945,,7,much
screen,html.Screen,2_1_1_1_8,2021-04-24T14:52:15.231Z,,,,,,,,,,,,,,,,,54,,,,,,,,,,,,,,470.9450000062934,,response,,,,100,,,,,,,Space,keypress(Space),,,,,,,,-- --- ---- --- ------ ----- ------- ---- of --- ------- --<br>------- ---------- ------ -- ----- -- ----- -- ---- ------<br>--- ----- --- --- ------ -------- ----- --- ------ ----- --<br>----- ----- ---------- --- --- ------ ------ ---- -- ------<br>------- --- ------ ----- --- ---- ------- -- ---- --- --<br>------- ------,197430.95500000345,197427.8900000063,196940.272,196947.43500000186,196956.945,197440.462,,8,of
screen,html.Screen,2_1_1_1_9,2021-04-24T14:52:15.693Z,,,,,,,,,,,,,,,,,54,,,,,,,,,,,,,,449.4330000002519,,response,,,,100,,,,,,,Space,keypress(Space),,,,,,,,-- --- ---- --- ------ ----- ------- ---- -- its ------- --<br>------- ---------- ------ -- ----- -- ----- -- ---- ------<br>--- ----- --- --- ------ -------- ----- --- ------ ----- --<br>----- ----- ---------- --- --- ------ ------ ---- -- ------<br>------- --- ------ ----- --- ---- ------- -- ---- --- --<br>------- ------,197893.30999999947,197889.89500000025,197423.789,197431.19500000466,197440.462,197907.306,,9,its
screen,html.Screen,2_1_1_1_10,2021-04-24T14:52:16.166Z,,,,,,,,,,,,,,,,,54,,,,,,,,,,,,,,455.5489999993879,,response,,,,100,,,,,,,Space,keypress(Space),,,,,,,,-- --- ---- --- ------ ----- ------- ---- -- --- revenue --<br>------- ---------- ------ -- ----- -- ----- -- ---- ------<br>--- ----- --- --- ------ -------- ----- --- ------ ----- --<br>----- ----- ---------- --- --- ------ ------ ---- -- ------<br>------- --- ------ ----- --- ---- ------- -- ---- --- --<br>------- ------,198366.22000000352,198362.8549999994,197890.633,197893.4800000061,197907.306,198374.15,,10,revenue
screen,html.Screen,2_1_1_1_11,2021-04-24T14:52:16.598Z,,,,,,,,,,,,,,,,,54,,,,,,,,,,,,,,420.85499999995227,,response,,,,100,,,,,,,Space,keypress(Space),,,,,,,,-- --- ---- --- ------ ----- ------- ---- -- --- ------- by<br>------- ---------- ------ -- ----- -- ----- -- ---- ------<br>--- ----- --- --- ------ -------- ----- --- ------ ----- --<br>----- ----- ---------- --- --- ------ ------ ---- -- ------<br>------- --- ------ ----- --- ---- ------- -- ---- --- --<br>------- ------,198798.43500000425,198795.00499999995,198357.477,198366.34500000218,198374.15,198807.648,,11,by
screen,html.Screen,2_1_1_1_12,2021-04-24T14:52:17.512Z,,,,,,,,,,,,,,,,,54,,,,,,,,,,,,,,900.367000003811,,response,,,,100,,,,,,,Space,keypress(Space),,,,,,,,-- --- ---- --- ------ ----- ------- ---- -- --- ------- --<br>issuing ---------- ------ -- ----- -- ----- -- ---- ------<br>--- ----- --- --- ------ -------- ----- --- ------ ----- --<br>----- ----- ---------- --- --- ------ ------ ---- -- ------<br>------- --- ------ ----- --- ---- ------- -- ---- --- --<br>------- ------,199711.4600000059,199708.0150000038,198790.975,198798.6050000036,198807.648,199724.663,,12,issuing
screen,html.Screen,2_1_1_1_13,2021-04-24T14:52:18.045Z,,,,,,,,,,,,,,,,,54,,,,,,,,,,,,,,516.337000001804,,response,,,,100,,,,,,,Space,keypress(Space),,,,,,,,-- --- ---- --- ------ ----- ------- ---- -- --- ------- --<br>------- government ------ -- ----- -- ----- -- ---- ------<br>--- ----- --- --- ------ -------- ----- --- ------ ----- --<br>----- ----- ---------- --- --- ------ ------ ---- -- ------<br>------- --- ------ ----- --- ---- ------- -- ---- --- --<br>------- ------,200244.5399999997,200241.0000000018,199707.99,199712.0550000036,199724.663,200258.199,,13,government
screen,html.Screen,2_1_1_1_14,2021-04-24T14:52:19.008Z,,,,,,,,,,,,,,,,,54,,,,,,,,,,,,,,945.8160000029893,,response,,,,100,,,,,,,Space,keypress(Space),,,,,,,,-- --- ---- --- ------ ----- ------- ---- -- --- ------- --<br>------- ---------- bonds. -- ----- -- ----- -- ---- ------<br>--- ----- --- --- ------ -------- ----- --- ------ ----- --<br>----- ----- ---------- --- --- ------ ------ ---- -- ------<br>------- --- ------ ----- --- ---- ------- -- ---- --- --<br>------- ------,201207.52000000357,201204.01500000298,200241.526,200244.70000000292,200258.199,201218.862,,14,bonds.
screen,html.Screen,2_1_1_1_15,2021-04-24T14:52:19.535Z,,,,,,,,,,,,,,,,,54,,,,,,,,,,,,,,512.1430000014661,,response,,,,100,,,,,,,Space,keypress(Space),,,,,,,,-- --- ---- --- ------ ----- ------- ---- -- --- ------- --<br>------- ---------- ------ In ----- -- ----- -- ---- ------<br>--- ----- --- --- ------ -------- ----- --- ------ ----- --<br>----- ----- ---------- --- --- ------ ------ ---- -- ------<br>------- --- ------ ----- --- ---- ------- -- ---- --- --<br>------- ------,201734.50500000035,201731.00500000146,201202.189,201207.6950000046,201218.862,201735.725,,15,In
screen,html.Screen,2_1_1_1_16,2021-04-24T14:52:19.974Z,,,,,,,,,,,,,,,,,54,,,,,,,,,,,,,,434.290000003326,,response,,,,100,,,,,,,Space,keypress(Space),,,,,,,,"-- --- ---- --- ------ ----- ------- ---- -- --- ------- --<br>------- ---------- ------ -- 1727, -- ----- -- ---- ------<br>--- ----- --- --- ------ -------- ----- --- ------ ----- --<br>----- ----- ---------- --- --- ------ ------ ---- -- ------<br>------- --- ------ ----- --- ---- ------- -- ---- --- --<br>------- ------",202173.43000000255,202170.01500000333,201719.052,201734.6749999997,201735.725,202185.896,,16,"1727,"
screen,html.Screen,2_1_1_1_17,2021-04-24T14:52:20.420Z,,,,,,,,,,,,,,,,,54,,,,,,,,,,,,,,430.05399999942165,,response,,,,100,,,,,,,Space,keypress(Space),,,,,,,,-- --- ---- --- ------ ----- ------- ---- -- --- ------- --<br>------- ---------- ------ -- ----- in ----- -- ---- ------<br>--- ----- --- --- ------ -------- ----- --- ------ ----- --<br>----- ----- ---------- --- --- ------ ------ ---- -- ------<br>------- --- ------ ----- --- ---- ------- -- ---- --- --<br>------- ------,202619.4800000012,202615.94999999943,202169.223,202173.5950000002,202185.896,202636.067,,17,in
screen,html.Screen,2_1_1_1_18,2021-04-24T14:52:20.904Z,,,,,,,,,,,,,,,,,54,,,,,,,,,,,,,,463.90300000293064,,response,,,,100,,,,,,,Space,keypress(Space),,,,,,,,-- --- ---- --- ------ ----- ------- ---- -- --- ------- --<br>------- ---------- ------ -- ----- -- order -- ---- ------<br>--- ----- --- --- ------ -------- ----- --- ------ ----- --<br>----- ----- ---------- --- --- ------ ------ ---- -- ------<br>------- --- ------ ----- --- ---- ------- -- ---- --- --<br>------- ------,203103.39000000386,203099.97000000294,202619.394,202619.65000000055,202636.067,203119.584,,18,order
screen,html.Screen,2_1_1_1_19,2021-04-24T14:52:21.300Z,,,,,,,,,,,,,,,,,54,,,,,,,,,,,,,,376.44100000036997,,response,,,,100,,,,,,,Space,keypress(Space),,,,,,,,-- --- ---- --- ------ ----- ------- ---- -- --- ------- --<br>------- ---------- ------ -- ----- -- ----- to ---- ------<br>--- ----- --- --- ------ -------- ----- --- ------ ----- --<br>----- ----- ---------- --- --- ------ ------ ---- -- ------<br>------- --- ------ ----- --- ---- ------- -- ---- --- --<br>------- ------,203499.6750000064,203496.02500000037,203102.911,203103.5550000015,203119.584,203503.063,,19,to
screen,html.Screen,2_1_1_1_20,2021-04-24T14:52:21.698Z,,,,,,,,,,,,,,,,,54,,,,,,,,,,,,,,390.8770000017539,,response,,,,100,,,,,,,Space,keypress(Space),,,,,,,,-- --- ---- --- ------ ----- ------- ---- -- --- ------- --<br>------- ---------- ------ -- ----- -- ----- -- save ------<br>--- ----- --- --- ------ -------- ----- --- ------ ----- --<br>----- ----- ---------- --- --- ------ ------ ---- -- ------<br>------- --- ------ ----- --- ---- ------- -- ---- --- --<br>------- ------,203897.47000000352,203893.94000000175,203486.39,203499.84000000404,203503.063,203903.215,,20,save
screen,html.Screen,2_1_1_1_21,2021-04-24T14:52:22.150Z,,,,,,,,,,,,,,,,,54,,,,,,,,,,,,,,441.78500000116765,,response,,,,100,,,,,,,Space,keypress(Space),,,,,,,,"-- --- ---- --- ------ ----- ------- ---- -- --- ------- --<br>------- ---------- ------ -- ----- -- ----- -- ---- money,<br>--- ----- --- --- ------ -------- ----- --- ------ ----- --<br>----- ----- ---------- --- --- ------ ------ ---- -- ------<br>------- --- ------ ----- --- ---- ------- -- ---- --- --<br>------- ------",204349.31000000506,204345.00000000116,203886.542,203897.62999999948,203903.215,204353.386,,21,"money,"
screen,html.Screen,2_1_1_1_22,2021-04-24T14:52:22.553Z,,,,,,,,,,,,,,,,,54,,,,,,,,,,,,,,395.544000001566,,response,,,,100,,,,,,,Space,keypress(Space),,,,,,,,-- --- ---- --- ------ ----- ------- ---- -- --- ------- --<br>------- ---------- ------ -- ----- -- ----- -- ---- ------<br>the ----- --- --- ------ -------- ----- --- ------ ----- --<br>----- ----- ---------- --- --- ------ ------ ---- -- ------<br>------- --- ------ ----- --- ---- ------- -- ---- --- --<br>------- ------,204752.34000000637,204748.93000000156,204336.713,204349.4800000044,204353.386,204770.211,,22,the
screen,html.Screen,2_1_1_1_23,2021-04-24T14:52:22.983Z,,,,,,,,,,,,,,,,,54,,,,,,,,,,,,,,408.52400000131456,,response,,,,100,,,,,,,Space,keypress(Space),,,,,,,,-- --- ---- --- ------ ----- ------- ---- -- --- ------- --<br>------- ---------- ------ -- ----- -- ----- -- ---- ------<br>--- state --- --- ------ -------- ----- --- ------ ----- --<br>----- ----- ---------- --- --- ------ ------ ---- -- ------<br>------- --- ------ ----- --- ---- ------- -- ---- --- --<br>------- ------,205182.3199999999,205178.73500000132,204753.538,204752.50000000233,204770.211,205187.036,,23,state
screen,html.Screen,2_1_1_1_24,2021-04-24T14:52:23.419Z,,,,,,,,,,,,,,,,,54,,,,,,,,,,,,,,427.9740000013553,,response,,,,100,,,,,,,Space,keypress(Space),,,,,,,,-- --- ---- --- ------ ----- ------- ---- -- --- ------- --<br>------- ---------- ------ -- ----- -- ----- -- ---- ------<br>--- ----- cut --- ------ -------- ----- --- ------ ----- --<br>----- ----- ---------- --- --- ------ ------ ---- -- ------<br>------- --- ------ ----- --- ---- ------- -- ---- --- --<br>------- ------,205618.47000000125,205615.01000000135,205170.363,205182.4900000065,205187.036,205620.534,,24,cut
screen,html.Screen,2_1_1_1_25,2021-04-24T14:52:23.899Z,,,,,,,,,,,,,,,,,54,,,,,,,,,,,,,,474.38100000147824,,response,,,,100,,,,,,,Space,keypress(Space),,,,,,,,-- --- ---- --- ------ ----- ------- ---- -- --- ------- --<br>------- ---------- ------ -- ----- -- ----- -- ---- ------<br>--- ----- --- the ------ -------- ----- --- ------ ----- --<br>----- ----- ---------- --- --- ------ ------ ---- -- ------<br>------- --- ------ ----- --- ---- ------- -- ---- --- --<br>------- ------,206098.6000000048,206094.9150000015,205603.861,205618.63500000618,205620.534,206104.051,,25,the
screen,html.Screen,2_1_1_1_26,2021-04-24T14:52:24.377Z,,,,,,,,,,,,,,,,,54,,,,,,,,,,,,,,468.8890000054671,,response,,,,100,,,,,,,Space,keypress(Space),,,,,,,,-- --- ---- --- ------ ----- ------- ---- -- --- ------- --<br>------- ---------- ------ -- ----- -- ----- -- ---- ------<br>--- ----- --- --- bonds' -------- ----- --- ------ ----- --<br>----- ----- ---------- --- --- ------ ------ ---- -- ------<br>------- --- ------ ----- --- ---- ------- -- ---- --- --<br>------- ------,206576.47500000166,206572.94000000547,206087.378,206098.76500000246,206104.051,206587.568,,26,bonds'
screen,html.Screen,2_1_1_1_27,2021-04-24T14:52:24.762Z,,,,,,,,,,,,,,,,,54,,,,,,,,,,,,,,370.3020000056422,,response,,,,100,,,,,,,Space,keypress(Space),,,,,,,,-- --- ---- --- ------ ----- ------- ---- -- --- ------- --<br>------- ---------- ------ -- ----- -- ----- -- ---- ------<br>--- ----- --- --- ------ interest ----- --- ------ ----- --<br>----- ----- ---------- --- --- ------ ------ ---- -- ------<br>------- --- ------ ----- --- ---- ------- -- ---- --- --<br>------- ------,206961.27500000148,206957.87000000564,206570.895,206576.645000001,206587.568,206971.047,,27,interest
screen,html.Screen,2_1_1_1_28,2021-04-24T14:52:25.208Z,,,,,,,,,,,,,,,,,54,,,,,,,,,,,,,,433.81300000238116,,response,,,,100,,,,,,,Space,keypress(Space),,,,,,,,-- --- ---- --- ------ ----- ------- ---- -- --- ------- --<br>------- ---------- ------ -- ----- -- ----- -- ---- ------<br>--- ----- --- --- ------ -------- rate. --- ------ ----- --<br>----- ----- ---------- --- --- ------ ------ ---- -- ------<br>------- --- ------ ----- --- ---- ------- -- ---- --- --<br>------- ------,207408.19000000192,207404.86000000237,206954.374,206961.4400000064,206971.047,207421.218,,28,rate.
screen,html.Screen,2_1_1_1_29,2021-04-24T14:52:25.674Z,,,,,,,,,,,,,,,,,54,,,,,,,,,,,,,,448.59700000548037,,response,,,,100,,,,,,,Space,keypress(Space),,,,,,,,-- --- ---- --- ------ ----- ------- ---- -- --- ------- --<br>------- ---------- ------ -- ----- -- ----- -- ---- ------<br>--- ----- --- --- ------ -------- ----- The ------ ----- --<br>----- ----- ---------- --- --- ------ ------ ---- -- ------<br>------- --- ------ ----- --- ---- ------- -- ---- --- --<br>------- ------,207873.29500000487,207869.81500000547,207404.545,207408.35499999957,207421.218,207888.062,,29,The
screen,html.Screen,2_1_1_1_30,2021-04-24T14:52:26.169Z,,,,,,,,,,,,,,,,,54,,,,,,,,,,,,,,476.72799999962444,,response,,,,100,,,,,,,Space,keypress(Space),,,,,,,,-- --- ---- --- ------ ----- ------- ---- -- --- ------- --<br>------- ---------- ------ -- ----- -- ----- -- ---- ------<br>--- ----- --- --- ------ -------- ----- --- market ----- --<br>----- ----- ---------- --- --- ------ ------ ---- -- ------<br>------- --- ------ ----- --- ---- ------- -- ---- --- --<br>------- ------,208368.2650000046,208364.78999999963,207871.389,207873.46000000252,207888.062,208371.579,,30,market
screen,html.Screen,2_1_1_1_31,2021-04-24T14:52:26.657Z,,,,,,,,,,,,,,,,,54,,,,,,,,,,,,,,481.24600000175997,,response,,,,100,,,,,,,Space,keypress(Space),,,,,,,,-- --- ---- --- ------ ----- ------- ---- -- --- ------- --<br>------- ---------- ------ -- ----- -- ----- -- ---- ------<br>--- ----- --- --- ------ -------- ----- --- ------ value --<br>----- ----- ---------- --- --- ------ ------ ---- -- ------<br>------- --- ------ ----- --- ---- ------- -- ---- --- --<br>------- ------,208856.27500000555,208852.82500000176,208354.906,208368.43500000396,208371.579,208871.769,,31,value
screen,html.Screen,2_1_1_1_32,2021-04-24T14:52:27.054Z,,,,,,,,,,,,,,,,,54,,,,,,,,,,,,,,378.8610000022745,,response,,,,100,,,,,,,Space,keypress(Space),,,,,,,,-- --- ---- --- ------ ----- ------- ---- -- --- ------- --<br>------- ---------- ------ -- ----- -- ----- -- ---- ------<br>--- ----- --- --- ------ -------- ----- --- ------ ----- of<br>----- ----- ---------- --- --- ------ ------ ---- -- ------<br>------- --- ------ ----- --- ---- ------- -- ---- --- --<br>------- ------,209253.93000000622,209250.63000000227,208855.096,208856.50500000338,208871.769,209255.248,,32,of
screen,html.Screen,2_1_1_1_33,2021-04-24T14:52:27.471Z,,,,,,,,,,,,,,,,,54,,,,,,,,,,,,,,411.58200000194483,,response,,,,100,,,,,,,Space,keypress(Space),,,,,,,,-- --- ---- --- ------ ----- ------- ---- -- --- ------- --<br>------- ---------- ------ -- ----- -- ----- -- ---- ------<br>--- ----- --- --- ------ -------- ----- --- ------ ----- --<br>these ----- ---------- --- --- ------ ------ ---- -- ------<br>------- --- ------ ----- --- ---- ------- -- ---- --- --<br>------- ------,209670.33000000083,209666.83000000194,209238.575,209254.09500000387,209255.248,209672.073,,33,these
screen,html.Screen,2_1_1_1_34,2021-04-24T14:52:27.858Z,,,,,,,,,,,,,,,,,54,,,,,,,,,,,,,,381.66200000132085,,response,,,,100,,,,,,,Space,keypress(Space),,,,,,,,-- --- ---- --- ------ ----- ------- ---- -- --- ------- --<br>------- ---------- ------ -- ----- -- ----- -- ---- ------<br>--- ----- --- --- ------ -------- ----- --- ------ ----- --<br>----- bonds ---------- --- --- ------ ------ ---- -- ------<br>------- --- ------ ----- --- ---- ------- -- ---- --- --<br>------- ------,210057.39000000176,210053.73500000132,209655.4,209670.50000000017,209672.073,210072.225,,34,bonds
screen,html.Screen,2_1_1_1_35,2021-04-24T14:52:28.200Z,,,,,,,,,,,,,,,,,54,,,,,,,,,,,,,,323.56500000230153,,response,,,,100,,,,,,,Space,keypress(Space),,,,,,,,"-- --- ---- --- ------ ----- ------- ---- -- --- ------- --<br>------- ---------- ------ -- ----- -- ----- -- ---- ------<br>--- ----- --- --- ------ -------- ----- --- ------ ----- --<br>----- ----- plummeted, --- --- ------ ------ ---- -- ------<br>------- --- ------ ----- --- ---- ------- -- ---- --- --<br>------- ------",210399.22500000102,210395.7900000023,210055.552,210057.5600000011,210072.225,210405.685,,35,"plummeted,"
screen,html.Screen,2_1_1_1_36,2021-04-24T14:52:28.725Z,,,,,,,,,,,,,,,,,54,,,,,,,,,,,,,,515.0900000059628,,response,,,,100,,,,,,,Space,keypress(Space),,,,,,,,-- --- ---- --- ------ ----- ------- ---- -- --- ------- --<br>------- ---------- ------ -- ----- -- ----- -- ---- ------<br>--- ----- --- --- ------ -------- ----- --- ------ ----- --<br>----- ----- ---------- and --- ------ ------ ---- -- ------<br>------- --- ------ ----- --- ---- ------- -- ---- --- --<br>------- ------,210924.30000000604,210920.77500000596,210389.012,210399.39500000037,210405.685,210935.401,,36,and
screen,html.Screen,2_1_1_1_37,2021-04-24T14:52:29.193Z,,,,,,,,,,,,,,,,,54,,,,,,,,,,,,,,453.3690000050119,,response,,,,100,,,,,,,Space,keypress(Space),,,,,,,,-- --- ---- --- ------ ----- ------- ---- -- --- ------- --<br>------- ---------- ------ -- ----- -- ----- -- ---- ------<br>--- ----- --- --- ------ -------- ----- --- ------ ----- --<br>----- ----- ---------- --- the ------ ------ ---- -- ------<br>------- --- ------ ----- --- ---- ------- -- ---- --- --<br>------- ------,211392.19500000036,211388.77000000502,210918.728,210924.47000000539,210935.401,211402.245,,37,the
screen,html.Screen,2_1_1_1_38,2021-04-24T14:52:29.660Z,,,,,,,,,,,,,,,,,54,,,,,,,,,,,,,,453.3000000058091,,response,,,,100,,,,,,,Space,keypress(Space),,,,,,,,-- --- ---- --- ------ ----- ------- ---- -- --- ------- --<br>------- ---------- ------ -- ----- -- ----- -- ---- ------<br>--- ----- --- --- ------ -------- ----- --- ------ ----- --<br>----- ----- ---------- --- --- market ------ ---- -- ------<br>------- --- ------ ----- --- ---- ------- -- ---- --- --<br>------- ------,211859.24499999965,211855.5450000058,211385.572,211392.3649999997,211402.245,211869.089,,38,market
screen,html.Screen,2_1_1_1_39,2021-04-24T14:52:30.134Z,,,,,,,,,,,,,,,,,54,,,,,,,,,,,,,,461.4859999999462,,response,,,,100,,,,,,,Space,keypress(Space),,,,,,,,-- --- ---- --- ------ ----- ------- ---- -- --- ------- --<br>------- ---------- ------ -- ----- -- ----- -- ---- ------<br>--- ----- --- --- ------ -------- ----- --- ------ ----- --<br>----- ----- ---------- --- --- ------ became ---- -- ------<br>------- --- ------ ----- --- ---- ------- -- ---- --- --<br>------- ------,212333.81000000372,212330.57499999995,211852.416,211859.41500000627,211869.089,212335.933,,39,became
screen,html.Screen,2_1_1_1_40,2021-04-24T14:52:30.556Z,,,,,,,,,,,,,,,,,54,,,,,,,,,,,,,,415.7720000024128,,response,,,,100,,,,,,,Space,keypress(Space),,,,,,,,-- --- ---- --- ------ ----- ------- ---- -- --- ------- --<br>------- ---------- ------ -- ----- -- ----- -- ---- ------<br>--- ----- --- --- ------ -------- ----- --- ------ ----- --<br>----- ----- ---------- --- --- ------ ------ wary -- ------<br>------- --- ------ ----- --- ---- ------- -- ---- --- --<br>------- ------,212755.1999999996,212751.7050000024,212319.26,212333.97500000137,212335.933,212769.431,,40,wary
screen,html.Screen,2_1_1_1_41,2021-04-24T14:52:31.013Z,,,,,,,,,,,,,,,,,54,,,,,,,,,,,,,,439.30400000014924,,response,,,,100,,,,,,,Space,keypress(Space),,,,,,,,-- --- ---- --- ------ ----- ------- ---- -- --- ------- --<br>------- ---------- ------ -- ----- -- ----- -- ---- ------<br>--- ----- --- --- ------ -------- ----- --- ------ ----- --<br>----- ----- ---------- --- --- ------ ------ ---- of ------<br>------- --- ------ ----- --- ---- ------- -- ---- --- --<br>------- ------,213212.0950000026,213208.73500000016,212752.758,212755.37000000622,212769.431,213219.602,,41,of
screen,html.Screen,2_1_1_1_42,2021-04-24T14:52:31.430Z,,,,,,,,,,,,,,,,,54,,,,,,,,,,,,,,406.11800000362564,,response,,,,100,,,,,,,Space,keypress(Space),,,,,,,,-- --- ---- --- ------ ----- ------- ---- -- --- ------- --<br>------- ---------- ------ -- ----- -- ----- -- ---- ------<br>--- ----- --- --- ------ -------- ----- --- ------ ----- --<br>----- ----- ---------- --- --- ------ ------ ---- -- French<br>------- --- ------ ----- --- ---- ------- -- ---- --- --<br>------- ------,213629.20000000304,213625.72000000364,213202.929,213212.26500000193,213219.602,213636.427,,42,French
screen,html.Screen,2_1_1_1_43,2021-04-24T14:52:31.836Z,,,,,,,,,,,,,,,,,54,,,,,,,,,,,,,,395.3230000019248,,response,,,,100,,,,,,,Space,keypress(Space),,,,,,,,-- --- ---- --- ------ ----- ------- ---- -- --- ------- --<br>------- ---------- ------ -- ----- -- ----- -- ---- ------<br>--- ----- --- --- ------ -------- ----- --- ------ ----- --<br>----- ----- ---------- --- --- ------ ------ ---- -- ------<br>credit. --- ------ ----- --- ---- ------- -- ---- --- --<br>------- ------,214035.2400000047,214031.75000000192,213619.754,213629.3650000007,213636.427,214036.579,,43,credit.
screen,html.Screen,2_1_1_1_44,2021-04-24T14:52:32.343Z,,,,,,,,,,,,,,,,,54,,,,,,,,,,,,,,502.0060000020603,,response,,,,100,,,,,,,Space,keypress(Space),,,,,,,,-- --- ---- --- ------ ----- ------- ---- -- --- ------- --<br>------- ---------- ------ -- ----- -- ----- -- ---- ------<br>--- ----- --- --- ------ -------- ----- --- ------ ----- --<br>----- ----- ---------- --- --- ------ ------ ---- -- ------<br>------- The ------ ----- --- ---- ------- -- ---- --- --<br>------- ------,214542.7899999995,214538.58500000206,214019.906,214035.40500000236,214036.579,214553.442,,44,The
screen,html.Screen,2_1_1_1_45,2021-04-24T14:52:32.837Z,,,,,,,,,,,,,,,,,54,,,,,,,,,,,,,,479.3780000003462,,response,,,,100,,,,,,,Space,keypress(Space),,,,,,,,-- --- ---- --- ------ ----- ------- ---- -- --- ------- --<br>------- ---------- ------ -- ----- -- ----- -- ---- ------<br>--- ----- --- --- ------ -------- ----- --- ------ ----- --<br>----- ----- ---------- --- --- ------ ------ ---- -- ------<br>------- --- French ----- --- ---- ------- -- ---- --- --<br>------- ------,215036.4550000013,215032.82000000036,214536.769,214542.96000000613,214553.442,215053.632,,45,French
screen,html.Screen,2_1_1_1_46,2021-04-24T14:52:33.287Z,,,,,,,,,,,,,,,,,54,,,,,,,,,,,,,,428.89299999942887,,response,,,,100,,,,,,,Space,keypress(Space),,,,,,,,-- --- ---- --- ------ ----- ------- ---- -- --- ------- --<br>------- ---------- ------ -- ----- -- ----- -- ---- ------<br>--- ----- --- --- ------ -------- ----- --- ------ ----- --<br>----- ----- ---------- --- --- ------ ------ ---- -- ------<br>------- --- ------ state --- ---- ------- -- ---- --- --<br>------- ------,215486.0850000041,215482.52499999944,215036.959,215036.62500000064,215053.632,215503.803,,46,state
screen,html.Screen,2_1_1_1_47,2021-04-24T14:52:33.734Z,,,,,,,,,,,,,,,,,54,,,,,,,,,,,,,,426.73700000118697,,response,,,,100,,,,,,,Space,keypress(Space),,,,,,,,-- --- ---- --- ------ ----- ------- ---- -- --- ------- --<br>------- ---------- ------ -- ----- -- ----- -- ---- ------<br>--- ----- --- --- ------ -------- ----- --- ------ ----- --<br>----- ----- ---------- --- --- ------ ------ ---- -- ------<br>------- --- ------ ----- was ---- ------- -- ---- --- --<br>------- ------,215933.83000000176,215930.5400000012,215487.13,215486.25500000344,215503.803,215937.301,,47,was
screen,html.Screen,2_1_1_1_48,2021-04-24T14:52:34.113Z,,,,,,,,,,,,,,,,,54,,,,,,,,,,,,,,371.3890000052925,,response,,,,100,,,,,,,Space,keypress(Space),,,,,,,,-- --- ---- --- ------ ----- ------- ---- -- --- ------- --<br>------- ---------- ------ -- ----- -- ----- -- ---- ------<br>--- ----- --- --- ------ -------- ----- --- ------ ----- --<br>----- ----- ---------- --- --- ------ ------ ---- -- ------<br>------- --- ------ ----- --- left ------- -- ---- --- --<br>------- ------,216312.31000000116,216308.6900000053,215920.628,215933.9949999994,215937.301,216320.78,,48,left
screen,html.Screen,2_1_1_1_49,2021-04-24T14:52:34.499Z,,,,,,,,,,,,,,,,,54,,,,,,,,,,,,,,373.88500000271597,,response,,,,100,,,,,,,Space,keypress(Space),,,,,,,,-- --- ---- --- ------ ----- ------- ---- -- --- ------- --<br>------- ---------- ------ -- ----- -- ----- -- ---- ------<br>--- ----- --- --- ------ -------- ----- --- ------ ----- --<br>----- ----- ---------- --- --- ------ ------ ---- -- ------<br>------- --- ------ ----- --- ---- without -- ---- --- --<br>------- ------,216698.7850000005,216694.66500000271,216304.107,216312.4900000039,216320.78,216704.259,,49,without
screen,html.Screen,2_1_1_1_50,2021-04-24T14:52:34.863Z,,,,,,,,,,,,,,,,,54,,,,,,,,,,,,,,354.4010000024282,,response,,,,100,,,,,,,Space,keypress(Space),,,,,,,,-- --- ---- --- ------ ----- ------- ---- -- --- ------- --<br>------- ---------- ------ -- ----- -- ----- -- ---- ------<br>--- ----- --- --- ------ -------- ----- --- ------ ----- --<br>----- ----- ---------- --- --- ------ ------ ---- -- ------<br>------- --- ------ ----- --- ---- ------- an ---- --- --<br>------- ------,217062.25500000437,217058.66000000242,216687.586,216698.95000000542,216704.259,217071.065,,50,an
screen,html.Screen,2_1_1_1_51,2021-04-24T14:52:35.288Z,,,,,,,,,,,,,,,,,54,,,,,,,,,,,,,,412.57000000413973,,response,,,,100,,,,,,,Space,keypress(Space),,,,,,,,-- --- ---- --- ------ ----- ------- ---- -- --- ------- --<br>------- ---------- ------ -- ----- -- ----- -- ---- ------<br>--- ----- --- --- ------ -------- ----- --- ------ ----- --<br>----- ----- ---------- --- --- ------ ------ ---- -- ------<br>------- --- ------ ----- --- ---- ------- -- easy --- --<br>------- ------,217487.2600000017,217483.63500000414,217054.392,217062.4250000037,217071.065,217504.563,,51,easy
screen,html.Screen,2_1_1_1_52,2021-04-24T14:52:35.705Z,,,,,,,,,,,,,,,,,54,,,,,,,,,,,,,,396.04700000424054,,response,,,,100,,,,,,,Space,keypress(Space),,,,,,,,-- --- ---- --- ------ ----- ------- ---- -- --- ------- --<br>------- ---------- ------ -- ----- -- ----- -- ---- ------<br>--- ----- --- --- ------ -------- ----- --- ------ ----- --<br>----- ----- ---------- --- --- ------ ------ ---- -- ------<br>------- --- ------ ----- --- ---- ------- -- ---- way --<br>------- ------,217904.1700000016,217900.61000000424,217487.89,217487.43500000273,217504.563,217921.388,,52,way
screen,html.Screen,2_1_1_1_53,2021-04-24T14:52:36.125Z,,,,,,,,,,,,,,,,,54,,,,,,,,,,,,,,399.22700000417535,,response,,,,100,,,,,,,Space,keypress(Space),,,,,,,,-- --- ---- --- ------ ----- ------- ---- -- --- ------- --<br>------- ---------- ------ -- ----- -- ----- -- ---- ------<br>--- ----- --- --- ------ -------- ----- --- ------ ----- --<br>----- ----- ---------- --- --- ------ ------ ---- -- ------<br>------- --- ------ ----- --- ---- ------- -- ---- --- of<br>------- ------,218324.13500000257,218320.61500000418,217904.715,217904.33500000654,217921.388,218338.213,,53,of
screen,html.Screen,2_1_1_1_54,2021-04-24T14:52:36.631Z,,,,,,,,,,,,,,,,,54,,,,,,,,,,,,,,488.3370000052382,,response,,,,100,,,,,,,Space,keypress(Space),,,,,,,,-- --- ---- --- ------ ----- ------- ---- -- --- ------- --<br>------- ---------- ------ -- ----- -- ----- -- ---- ------<br>--- ----- --- --- ------ -------- ----- --- ------ ----- --<br>----- ----- ---------- --- --- ------ ------ ---- -- ------<br>------- --- ------ ----- --- ---- ------- -- ---- --- --<br>raising ------,218830.1550000033,218826.55000000523,218321.54,218324.3050000019,218338.213,218838.403,,54,raising
screen,html.Screen,2_1_1_1_55,2021-04-24T14:52:37.388Z,,,,,,,,,,,,,,,,,54,,,,,,,,,,,,,,745.1620000008261,,response,,,,100,,,,,,,Space,keypress(Space),,,,,,,,-- --- ---- --- ------ ----- ------- ---- -- --- ------- --<br>------- ---------- ------ -- ----- -- ----- -- ---- ------<br>--- ----- --- --- ------ -------- ----- --- ------ ----- --<br>----- ----- ---------- --- --- ------ ------ ---- -- ------<br>------- --- ------ ----- --- ---- ------- -- ---- --- --<br>------- money.,219586.91499999986,219583.56500000082,218821.73,218830.33000000432,218838.403,219588.688,,55,money.
Item 100,flow.Loop,2_1_1_1,2021-04-24T14:52:37.388Z,,,,,,,,,,,,,,,,,,,,,,,,,,,,,,,26227.988000000827,,completion,,,,,C,,,,,,,,,,,silence,,,,,219587.20000000176,219583.56500000082,193338.904,193341.1550000019,193355.577,219588.688,,,
Question 1,html.Screen,2_1_1_2,2021-04-24T14:52:40.042Z,,,,,,,,,,,,,,,,,,,,,,,,,,,,true,TRUE,,2649.887000003044,,response,,,,100,C,,,,,,TRUE,click #choice-1,,,,silence,,,,,222241.64500000188,222238.57500000304,219572.015,219587.3300000021,219588.688,222248.962,,,
Question 2,html.Screen,2_1_1_3,2021-04-24T14:52:42.429Z,,,,,,,,,,,,,,,,,,,,,,,,,,,,false,FALSE,,2375.9230000047246,,response,,,,100,C,,,,,,TRUE,click #choice-1,,,,silence,,,,,224627.84000000102,224624.88500000472,222232.289,222241.82000000292,222248.962,224633.201,,,
Item 100,flow.Sequence,2_1_1,2021-04-24T14:52:42.429Z,,,,,,,,,,,,,,,,,,,,,,,,,,,,,,,41274.50300000471,,completion,,,,,,,,,,,,,,,,,,,,,224628.10500000342,224624.88500000472,183333.709,183350.14000000228,183350.382,224633.201,,,
End of Practice,html.Page,2_1_2,2021-04-24T14:52:47.006Z,,,,,,,,,,,,,,,,,,,,,,,,,,,,,,,4571.114000002679,,form submission,,,,,,,,,,,,,,,,,,,,,229204.62500000576,229204.31500000268,224616.528,224628.23500000377,224633.201,229218.276,,,
Practice,flow.Sequence,2_1,2021-04-24T14:52:47.006Z,,,,,,,,,,,,,,,,,,,,,,,,,,,,,,,91445.31600000267,,completion,,,,,,,,,,,,,,,,,,,,,229204.88500000647,229204.31500000268,137742.326,137745.97000000358,137758.999,229218.276,,,
Trap_instruction,html.Page,2_2_0,2021-04-24T14:52:51.573Z,,,,,,,,,,,,,,,,,,,,,,,,,,,,,,,4553.664000005985,,form submission,,,,,,,,,,,,,,,,,,,,,233772.22500000062,233771.940000006,229201.603,229205.0550000058,229218.276,233801.752,,,
trap_trial,html.Screen,2_2_1,2021-04-24T14:52:56.480Z,,,,,,,,,,,,,,,,,,,,,,,,,,,,true,1,,4874.233000001666,,response,,,,,,,,,,,1,click #choice-1,,,,,,,,,238679.21500000375,238675.98500000167,233768.406,233772.38500000385,233801.752,238686.941,,,
end of trap trial,html.Page,2_2_2,2021-04-24T14:52:58.434Z,,,,,,,,,,,,,,,,,,,,,,,,,,,,,,,1945.7790000014356,,form submission,,,,,,,,,,,,,,,,,,,,,240633.00500000332,240632.72000000143,238670.268,238679.6850000028,238686.941,240637.682,,,
Trap 1,flow.Sequence,2_2,2021-04-24T14:52:58.435Z,,,,,,,,,,,,,,,,,,,,,,,,,,,,,,,11414.444000001415,,completion,,,,,,,,,,,,,,,,,,,,,240633.24500000454,240632.72000000143,229201.603,229205.00500000344,229218.276,240637.682,,,
Standby,html.Page,2_3_0,2021-04-24T14:53:06.428Z,,,,,,,,,,,,,,,,,,,,,,,,,,,,,,,8003.040000000008,,timeout,,,,,,,,,,,,,,,,,,,,,248626.85000000056,248624.049,240621.009,240633.4100000022,240637.682,248640.722,,,
Holding screen,html.Screen,2_3_1_0_0,2021-04-24T14:53:13.429Z,,,,,,,,,,,,,,,,,,,,,,,,,,,,,,,7000.661999999982,,timeout,,,,,,,,,,,,,,,,,,,,,255627.48000000283,255624.711,248624.049,248627.12000000465,248640.722,255641.384,,,
screen,html.Screen,2_3_1_0_1_0,2021-04-24T14:53:14.473Z,,,,,,,,,,,,,,,,,51,,,,,,,,,,,,,,1024.535999999469,,response,,,,13,C,,,,,,Space,keypress(Space),,,,instrumental,,,,American -------- --- --- ---- --- --- ------ -- --------<br>---- --------- --- ------- ------------ ---------- ---------<br>--- ---------- ------- ---------- ------- -- -------- ----<br>---- --- ------ ----- ------ -- ---- --- ----- -- - -------<br>-------- -- --- --- -- ----- ----------- ----- -----------<br>---- --- ---------- --- ---- --- -- ----------,256671.5200000035,256665.91999999946,255624.711,255627.78000000253,255641.384,256675.11,,0,American
screen,html.Screen,2_3_1_0_1_1,2021-04-24T14:53:15.053Z,,,,,,,,,,,,,,,,,51,,,,,,,,,,,,,,572.6550000000861,,response,,,,13,C,,,,,,Space,keypress(Space),,,,instrumental,,,,-------- industry --- --- ---- --- --- ------ -- --------<br>---- --------- --- ------- ------------ ---------- ---------<br>--- ---------- ------- ---------- ------- -- -------- ----<br>---- --- ------ ----- ------ -- ---- --- ----- -- - -------<br>-------- -- --- --- -- ----- ----------- ----- -----------<br>---- --- ---------- --- ---- --- -- ----------,257251.33000000642,257247.76500000007,256658.437,256671.72000000573,256675.11,257258.665,,1,industry
screen,html.Screen,2_3_1_0_1_2,2021-04-24T14:53:15.579Z,,,,,,,,,,,,,,,,,51,,,,,,,,,,,,,,514.8650000058406,,response,,,,13,C,,,,,,Space,keypress(Space),,,,instrumental,,,,-------- -------- may --- ---- --- --- ------ -- --------<br>---- --------- --- ------- ------------ ---------- ---------<br>--- ---------- ------- ---------- ------- -- -------- ----<br>---- --- ------ ----- ------ -- ---- --- ----- -- - -------<br>-------- -- --- --- -- ----- ----------- ----- -----------<br>---- --- ---------- --- ---- --- -- ----------,257777.07500000542,257773.53000000585,257241.992,257251.49500000407,257258.665,257792.201,,2,may
screen,html.Screen,2_3_1_0_1_3,2021-04-24T14:53:16.047Z,,,,,,,,,,,,,,,,,51,,,,,,,,,,,,,,449.35400000051595,,response,,,,13,C,,,,,,Space,keypress(Space),,,,instrumental,,,,-------- -------- --- not ---- --- --- ------ -- --------<br>---- --------- --- ------- ------------ ---------- ---------<br>--- ---------- ------- ---------- ------- -- -------- ----<br>---- --- ------ ----- ------ -- ---- --- ----- -- - -------<br>-------- -- --- --- -- ----- ----------- ----- -----------<br>---- --- ---------- --- ---- --- -- ----------,258245.26000000333,258241.55500000052,257775.528,257777.24000000308,257792.201,258259.045,,3,not
screen,html.Screen,2_3_1_0_1_4,2021-04-24T14:53:16.536Z,,,,,,,,,,,,,,,,,51,,,,,,,,,,,,,,470.76000000265776,,response,,,,13,C,,,,,,Space,keypress(Space),,,,instrumental,,,,-------- -------- --- --- know --- --- ------ -- --------<br>---- --------- --- ------- ------------ ---------- ---------<br>--- ---------- ------- ---------- ------- -- -------- ----<br>---- --- ------ ----- ------ -- ---- --- ----- -- - -------<br>-------- -- --- --- -- ----- ----------- ----- -----------<br>---- --- ---------- --- ---- --- -- ----------,258733.82500000298,258729.80500000267,258242.372,258245.43000000267,258259.045,258742.562,,4,know
screen,html.Screen,2_3_1_0_1_5,2021-04-24T14:53:17.019Z,,,,,,,,,,,,,,,,,51,,,,,,,,,,,,,,470.9730000025884,,response,,,,13,C,,,,,,Space,keypress(Space),,,,instrumental,,,,"-------- -------- --- --- ---- it, --- ------ -- --------<br>---- --------- --- ------- ------------ ---------- ---------<br>--- ---------- ------- ---------- ------- -- -------- ----<br>---- --- ------ ----- ------ -- ---- --- ----- -- - -------<br>-------- -- --- --- -- ----- ----------- ----- -----------<br>---- --- ---------- --- ---- --- -- ----------",259216.92500000063,259213.5350000026,258725.889,258734.080000002,258742.562,259226.079,,5,"it,"
screen,html.Screen,2_3_1_0_1_6,2021-04-24T14:53:17.525Z,,,,,,,,,,,,,,,,,51,,,,,,,,,,,,,,493.7310000023281,,response,,,,13,C,,,,,,Space,keypress(Space),,,,instrumental,,,,-------- -------- --- --- ---- --- but ------ -- --------<br>---- --------- --- ------- ------------ ---------- ---------<br>--- ---------- ------- ---------- ------- -- -------- ----<br>---- --- ------ ----- ------ -- ---- --- ----- -- - -------<br>-------- -- --- --- -- ----- ----------- ----- -----------<br>---- --- ---------- --- ---- --- -- ----------,259723.18500000256,259719.81000000233,259209.406,259217.09000000556,259226.079,259724.664,,6,but
screen,html.Screen,2_3_1_0_1_7,2021-04-24T14:53:18.000Z,,,,,,,,,,,,,,,,,51,,,,,,,,,,,,,,470.17100000206847,,response,,,,13,C,,,,,,Space,keypress(Space),,,,instrumental,,,,-------- -------- --- --- ---- --- --- debate -- --------<br>---- --------- --- ------- ------------ ---------- ---------<br>--- ---------- ------- ---------- ------- -- -------- ----<br>---- --- ------ ----- ------ -- ---- --- ----- -- - -------<br>-------- -- --- --- -- ----- ----------- ----- -----------<br>---- --- ---------- --- ---- --- -- ----------,260198.1850000011,260194.83500000206,259707.991,259723.3550000019,259724.664,260208.181,,7,debate
screen,html.Screen,2_3_1_0_1_8,2021-04-24T14:53:18.471Z,,,,,,,,,,,,,,,,,51,,,,,,,,,,,,,,457.45400000482914,,response,,,,13,C,,,,,,Space,keypress(Space),,,,instrumental,,,,-------- -------- --- --- ---- --- --- ------ in --------<br>---- --------- --- ------- ------------ ---------- ---------<br>--- ---------- ------- ---------- ------- -- -------- ----<br>---- --- ------ ----- ------ -- ---- --- ----- -- - -------<br>-------- -- --- --- -- ----- ----------- ----- -----------<br>---- --- ---------- --- ---- --- -- ----------,260669.34000000037,260665.63500000484,260191.508,260198.34500000434,260208.181,260675.025,,8,in
screen,html.Screen,2_3_1_0_1_9,2021-04-24T14:53:18.988Z,,,,,,,,,,,,,,,,,51,,,,,,,,,,,,,,507.6450000019686,,response,,,,13,C,,,,,,Space,keypress(Space),,,,instrumental,,,,-------- -------- --- --- ---- --- --- ------ -- Congress<br>---- --------- --- ------- ------------ ---------- ---------<br>--- ---------- ------- ---------- ------- -- -------- ----<br>---- --- ------ ----- ------ -- ---- --- ----- -- - -------<br>-------- -- --- --- -- ----- ----------- ----- -----------<br>---- --- ---------- --- ---- --- -- ----------,261186.57499999972,261182.67000000196,260658.352,260669.5050000053,260675.025,261191.888,,9,Congress
screen,html.Screen,2_3_1_0_1_10,2021-04-24T14:53:19.472Z,,,,,,,,,,,,,,,,,51,,,,,,,,,,,,,,473.7770000004384,,response,,,,13,C,,,,,,Space,keypress(Space),,,,instrumental,,,,-------- -------- --- --- ---- --- --- ------ -- --------<br>over --------- --- ------- ------------ ---------- ---------<br>--- ---------- ------- ---------- ------- -- -------- ----<br>---- --- ------ ----- ------ -- ---- --- ----- -- - -------<br>-------- -- --- --- -- ----- ----------- ----- -----------<br>---- --- ---------- --- ---- --- -- ----------,261669.60000000108,261665.66500000044,261175.215,261186.83500000043,261191.888,261675.405,,10,over
screen,html.Screen,2_3_1_0_1_11,2021-04-24T14:53:20.039Z,,,,,,,,,,,,,,,,,51,,,,,,,,,,,,,,558.1350000010862,,response,,,,13,C,,,,,,Space,keypress(Space),,,,instrumental,,,,-------- -------- --- --- ---- --- --- ------ -- --------<br>---- reforming --- ------- ------------ ---------- ---------<br>--- ---------- ------- ---------- ------- -- -------- ----<br>---- --- ------ ----- ------ -- ---- --- ----- -- - -------<br>-------- -- --- --- -- ----- ----------- ----- -----------<br>---- --- ---------- --- ---- --- -- ----------,262237.41500000324,262233.5400000011,261658.732,261669.765000006,261675.405,262242.287,,11,reforming
screen,html.Screen,2_3_1_0_1_12,2021-04-24T14:53:20.554Z,,,,,,,,,,,,,,,,,51,,,,,,,,,,,,,,506.29299999948125,,response,,,,13,C,,,,,,Space,keypress(Space),,,,instrumental,,,,-------- -------- --- --- ---- --- --- ------ -- --------<br>---- --------- the ------- ------------ ---------- ---------<br>--- ---------- ------- ---------- ------- -- -------- ----<br>---- --- ------ ----- ------ -- ---- --- ----- -- - -------<br>-------- -- --- --- -- ----- ----------- ----- -----------<br>---- --- ---------- --- ---- --- -- ----------,262752.1850000048,262748.5799999995,262225.614,262237.5750000065,262242.287,262759.15,,12,the
screen,html.Screen,2_3_1_0_1_13,2021-04-24T14:53:21.083Z,,,,,,,,,,,,,,,,,51,,,,,,,,,,,,,,517.325000006007,,response,,,,13,C,,,,,,Space,keypress(Space),,,,instrumental,,,,-------- -------- --- --- ---- --- --- ------ -- --------<br>---- --------- --- federal ------------ ---------- ---------<br>--- ---------- ------- ---------- ------- -- -------- ----<br>---- --- ------ ----- ------ -- ---- --- ----- -- - -------<br>-------- -- --- --- -- ----- ----------- ----- -----------<br>---- --- ---------- --- ---- --- -- ----------,263280.835000005,263276.47500000603,262742.477,262752.3550000042,262759.15,263292.686,,13,federal
screen,html.Screen,2_3_1_0_1_14,2021-04-24T14:53:21.700Z,,,,,,,,,,,,,,,,,51,,,,,,,,,,,,,,600.9190000047674,,response,,,,13,C,,,,,,Space,keypress(Space),,,,instrumental,,,,-------- -------- --- --- ---- --- --- ------ -- --------<br>---- --------- --- ------- government's ---------- ---------<br>--- ---------- ------- ---------- ------- -- -------- ----<br>---- --- ------ ----- ------ -- ---- --- ----- -- - -------<br>-------- -- --- --- -- ----- ----------- ----- -----------<br>---- --- ---------- --- ---- --- -- ----------,263897.67000000575,263893.60500000475,263276.013,263281.0000000027,263292.686,263909.587,,14,government's
screen,html.Screen,2_3_1_0_1_15,2021-04-24T14:53:23.129Z,,,,,,,,,,,,,,,,,51,,,,,,,,,,,,,,1412.9930000000168,,response,,,,13,C,,,,,,Space,keypress(Space),,,,instrumental,,,,-------- -------- --- --- ---- --- --- ------ -- --------<br>---- --------- --- ------- ------------ regulatory ---------<br>--- ---------- ------- ---------- ------- -- -------- ----<br>---- --- ------ ----- ------ -- ---- --- ----- -- - -------<br>-------- -- --- --- -- ----- ----------- ----- -----------<br>---- --- ---------- --- ---- --- -- ----------,265326.685,265322.58,263892.914,263898.0350000056,263909.587,265343.465,,15,regulatory
screen,html.Screen,2_3_1_0_1_16,2021-04-24T14:53:24.622Z,,,,,,,,,,,,,,,,,51,,,,,,,,,,,,,,1472.0800000049057,,response,,,,13,C,,,,,,Space,keypress(Space),,,,instrumental,,,,-------- -------- --- --- ---- --- --- ------ -- --------<br>---- --------- --- ------- ------------ ---------- apparatus<br>--- ---------- ------- ---------- ------- -- -------- ----<br>---- --- ------ ----- ------ -- ---- --- ----- -- - -------<br>-------- -- --- --- -- ----- ----------- ----- -----------<br>---- --- ---------- --- ---- --- -- ----------,266820.3700000013,266815.54500000493,265326.792,265326.86000000103,265343.465,266827.362,,16,apparatus
screen,html.Screen,2_3_1_0_1_17,2021-04-24T14:53:25.171Z,,,,,,,,,,,,,,,,,51,,,,,,,,,,,,,,538.2330000029178,,response,,,,13,C,,,,,,Space,keypress(Space),,,,instrumental,,,,-------- -------- --- --- ---- --- --- ------ -- --------<br>---- --------- --- ------- ------------ ---------- ---------<br>may ---------- ------- ---------- ------- -- -------- ----<br>---- --- ------ ----- ------ -- ---- --- ----- -- - -------<br>-------- -- --- --- -- ----- ----------- ----- -----------<br>---- --- ---------- --- ---- --- -- ----------,267369.27500000456,267365.59500000294,266810.689,266820.5450000023,266827.362,267377.571,,17,may
screen,html.Screen,2_3_1_0_1_18,2021-04-24T14:53:25.829Z,,,,,,,,,,,,,,,,,51,,,,,,,,,,,,,,646.0740000011283,,response,,,,13,C,,,,,,Space,keypress(Space),,,,instrumental,,,,-------- -------- --- --- ---- --- --- ------ -- --------<br>---- --------- --- ------- ------------ ---------- ---------<br>--- profoundly ------- ---------- ------- -- -------- ----<br>---- --- ------ ----- ------ -- ---- --- ----- -- - -------<br>-------- -- --- --- -- ----- ----------- ----- -----------<br>---- --- ---------- --- ---- --- -- ----------,268027.00000000186,268023.6450000011,267360.898,267369.4400000022,267377.571,268044.491,,18,profoundly
screen,html.Screen,2_3_1_0_1_19,2021-04-24T14:53:26.585Z,,,,,,,,,,,,,,,,,51,,,,,,,,,,,,,,735.024000002013,,response,,,,13,C,,,,,,Space,keypress(Space),,,,instrumental,,,,-------- -------- --- --- ---- --- --- ------ -- --------<br>---- --------- --- ------- ------------ ---------- ---------<br>--- ---------- improve ---------- ------- -- -------- ----<br>---- --- ------ ----- ------ -- ---- --- ----- -- - -------<br>-------- -- --- --- -- ----- ----------- ----- -----------<br>---- --- ---------- --- ---- --- -- ----------,268783.37500000634,268779.515000002,268027.818,268027.1600000051,268044.491,268794.776,,19,improve
screen,html.Screen,2_3_1_0_1_20,2021-04-24T14:53:27.162Z,,,,,,,,,,,,,,,,,51,,,,,,,,,,,,,,561.5290000011446,,response,,,,13,C,,,,,,Space,keypress(Space),,,,instrumental,,,,-------- -------- --- --- ---- --- --- ------ -- --------<br>---- --------- --- ------- ------------ ---------- ---------<br>--- ---------- ------- companies' ------- -- -------- ----<br>---- --- ------ ----- ------ -- ---- --- ----- -- - -------<br>-------- -- --- --- -- ----- ----------- ----- -----------<br>---- --- ---------- --- ---- --- -- ----------,269359.9600000016,269356.30500000116,268778.103,268783.540000004,268794.776,269361.658,,20,companies'
screen,html.Screen,2_3_1_0_1_21,2021-04-24T14:53:27.942Z,,,,,,,,,,,,,,,,,51,,,,,,,,,,,,,,774.5870000015129,,response,,,,13,C,,,,,,Space,keypress(Space),,,,instrumental,,,,-------- -------- --- --- ---- --- --- ------ -- --------<br>---- --------- --- ------- ------------ ---------- ---------<br>--- ---------- ------- ---------- ability -- -------- ----<br>---- --- ------ ----- ------ -- ---- --- ----- -- - -------<br>-------- -- --- --- -- ----- ----------- ----- -----------<br>---- --- ---------- --- ---- --- -- ----------,270139.62500000343,270136.2450000015,269344.985,269360.1250000065,269361.658,270155.423,,21,ability
screen,html.Screen,2_3_1_0_1_22,2021-04-24T14:53:28.621Z,,,,,,,,,,,,,,,,,51,,,,,,,,,,,,,,659.0270000052988,,response,,,,13,C,,,,,,Space,keypress(Space),,,,instrumental,,,,-------- -------- --- --- ---- --- --- ------ -- --------<br>---- --------- --- ------- ------------ ---------- ---------<br>--- ---------- ------- ---------- ------- to -------- ----<br>---- --- ------ ----- ------ -- ---- --- ----- -- - -------<br>-------- -- --- --- -- ----- ----------- ----- -----------<br>---- --- ---------- --- ---- --- -- ----------,270818.40500000544,270814.4500000053,270138.75,270139.7900000011,270155.423,270822.343,,22,to
screen,html.Screen,2_3_1_0_1_23,2021-04-24T14:53:30.190Z,,,,,,,,,,,,,,,,,51,,,,,,,,,,,,,,1561.0720000038855,,response,,,,13,C,,,,,,Space,keypress(Space),,,,instrumental,,,,-------- -------- --- --- ---- --- --- ------ -- --------<br>---- --------- --- ------- ------------ ---------- ---------<br>--- ---------- ------- ---------- ------- -- survive. ----<br>---- --- ------ ----- ------ -- ---- --- ----- -- - -------<br>-------- -- --- --- -- ----- ----------- ----- -----------<br>---- --- ---------- --- ---- --- -- ----------,272387.48500000656,272383.4150000039,270805.67,270818.5800000065,270822.343,272389.605,,23,survive.
screen,html.Screen,2_3_1_0_1_24,2021-04-24T14:53:30.675Z,,,,,,,,,,,,,,,,,51,,,,,,,,,,,,,,479.5950000010198,,response,,,,13,C,,,,,,Space,keypress(Space),,,,instrumental,,,,-------- -------- --- --- ---- --- --- ------ -- --------<br>---- --------- --- ------- ------------ ---------- ---------<br>--- ---------- ------- ---------- ------- -- -------- This<br>---- --- ------ ----- ------ -- ---- --- ----- -- - -------<br>-------- -- --- --- -- ----- ----------- ----- -----------<br>---- --- ---------- --- ---- --- -- ----------,272872.7100000033,272869.200000001,272372.932,272387.79500000237,272389.605,272889.795,,24,This
screen,html.Screen,2_3_1_0_1_25,2021-04-24T14:53:31.093Z,,,,,,,,,,,,,,,,,51,,,,,,,,,,,,,,397.63500000396743,,response,,,,13,C,,,,,,Space,keypress(Space),,,,instrumental,,,,-------- -------- --- --- ---- --- --- ------ -- --------<br>---- --------- --- ------- ------------ ---------- ---------<br>--- ---------- ------- ---------- ------- -- -------- ----<br>week --- ------ ----- ------ -- ---- --- ----- -- - -------<br>-------- -- --- --- -- ----- ----------- ----- -----------<br>---- --- ---------- --- ---- --- -- ----------,273290.860000001,273287.43000000395,272873.122,272872.87500000093,272889.795,273306.62,,25,week
screen,html.Screen,2_3_1_0_1_26,2021-04-24T14:53:31.476Z,,,,,,,,,,,,,,,,,51,,,,,,,,,,,,,,363.5200000019977,,response,,,,13,C,,,,,,Space,keypress(Space),,,,instrumental,,,,-------- -------- --- --- ---- --- --- ------ -- --------<br>---- --------- --- ------- ------------ ---------- ---------<br>--- ---------- ------- ---------- ------- -- -------- ----<br>---- the ------ ----- ------ -- ---- --- ----- -- - -------<br>-------- -- --- --- -- ----- ----------- ----- -----------<br>---- --- ---------- --- ---- --- -- ----------,273673.870000006,273670.140000002,273289.947,273291.0200000042,273306.62,273690.099,,26,the
screen,html.Screen,2_3_1_0_1_27,2021-04-24T14:53:31.870Z,,,,,,,,,,,,,,,,,51,,,,,,,,,,,,,,374.2909999995609,,response,,,,13,C,,,,,,Space,keypress(Space),,,,instrumental,,,,-------- -------- --- --- ---- --- --- ------ -- --------<br>---- --------- --- ------- ------------ ---------- ---------<br>--- ---------- ------- ---------- ------- -- -------- ----<br>---- --- Senate ----- ------ -- ---- --- ----- -- - -------<br>-------- -- --- --- -- ----- ----------- ----- -----------<br>---- --- ---------- --- ---- --- -- ----------,274067.9450000025,274064.38999999955,273673.426,273674.03500000364,273690.099,274073.578,,27,Senate
screen,html.Screen,2_3_1_0_1_28,2021-04-24T14:53:32.288Z,,,,,,,,,,,,,,,,,51,,,,,,,,,,,,,,408.9520000011544,,response,,,,13,C,,,,,,Space,keypress(Space),,,,instrumental,,,,-------- -------- --- --- ---- --- --- ------ -- --------<br>---- --------- --- ------- ------------ ---------- ---------<br>--- ---------- ------- ---------- ------- -- -------- ----<br>---- --- ------ seems ------ -- ---- --- ----- -- - -------<br>-------- -- --- --- -- ----- ----------- ----- -----------<br>---- --- ---------- --- ---- --- -- ----------,274486.1500000043,274482.53000000113,274056.905,274068.1500000064,274073.578,274490.403,,28,seems
screen,html.Screen,2_3_1_0_1_29,2021-04-24T14:53:32.687Z,,,,,,,,,,,,,,,,,51,,,,,,,,,,,,,,390.77700000396,,response,,,,13,C,,,,,,Space,keypress(Space),,,,instrumental,,,,-------- -------- --- --- ---- --- --- ------ -- --------<br>---- --------- --- ------- ------------ ---------- ---------<br>--- ---------- ------- ---------- ------- -- -------- ----<br>---- --- ------ ----- poised -- ---- --- ----- -- - -------<br>-------- -- --- --- -- ----- ----------- ----- -----------<br>---- --- ---------- --- ---- --- -- ----------,274885.0500000044,274881.18000000395,274473.73,274486.3200000036,274490.403,274890.555,,29,poised
screen,html.Screen,2_3_1_0_1_30,2021-04-24T14:53:33.433Z,,,,,,,,,,,,,,,,,51,,,,,,,,,,,,,,735.7900000042282,,response,,,,13,C,,,,,,Space,keypress(Space),,,,instrumental,,,,-------- -------- --- --- ---- --- --- ------ -- --------<br>---- --------- --- ------- ------------ ---------- ---------<br>--- ---------- ------- ---------- ------- -- -------- ----<br>---- --- ------ ----- ------ to ---- --- ----- -- - -------<br>-------- -- --- --- -- ----- ----------- ----- -----------<br>---- --- ---------- --- ---- --- -- ----------,275630.1999999996,275626.3450000042,274873.882,274885.22000000376,274890.555,275640.84,,30,to
screen,html.Screen,2_3_1_0_1_31,2021-04-24T14:53:33.954Z,,,,,,,,,,,,,,,,,51,,,,,,,,,,,,,,507.49500000529224,,response,,,,13,C,,,,,,Space,keypress(Space),,,,instrumental,,,,-------- -------- --- --- ---- --- --- ------ -- --------<br>---- --------- --- ------- ------------ ---------- ---------<br>--- ---------- ------- ---------- ------- -- -------- ----<br>---- --- ------ ----- ------ -- join --- ----- -- - -------<br>-------- -- --- --- -- ----- ----------- ----- -----------<br>---- --- ---------- --- ---- --- -- ----------,276151.890000001,276148.3350000053,275624.167,275630.4350000064,275640.84,276157.703,,31,join
screen,html.Screen,2_3_1_0_1_32,2021-04-24T14:53:34.424Z,,,,,,,,,,,,,,,,,51,,,,,,,,,,,,,,459.64200000604615,,response,,,,13,C,,,,,,Space,keypress(Space),,,,instrumental,,,,-------- -------- --- --- ---- --- --- ------ -- --------<br>---- --------- --- ------- ------------ ---------- ---------<br>--- ---------- ------- ---------- ------- -- -------- ----<br>---- --- ------ ----- ------ -- ---- the ----- -- - -------<br>-------- -- --- --- -- ----- ----------- ----- -----------<br>---- --- ---------- --- ---- --- -- ----------,276621.1650000041,276617.345000006,276141.03,276152.05000000424,276157.703,276624.547,,32,the
screen,html.Screen,2_3_1_0_1_33,2021-04-24T14:53:34.920Z,,,,,,,,,,,,,,,,,51,,,,,,,,,,,,,,488.76800000231015,,response,,,,13,C,,,,,,Space,keypress(Space),,,,instrumental,,,,-------- -------- --- --- ---- --- --- ------ -- --------<br>---- --------- --- ------- ------------ ---------- ---------<br>--- ---------- ------- ---------- ------- -- -------- ----<br>---- --- ------ ----- ------ -- ---- --- House -- - -------<br>-------- -- --- --- -- ----- ----------- ----- -----------<br>---- --- ---------- --- ---- --- -- ----------,277117.8250000012,277113.31500000233,276607.874,276621.33500000346,276624.547,277124.737,,33,House
screen,html.Screen,2_3_1_0_1_34,2021-04-24T14:53:35.488Z,,,,,,,,,,,,,,,,,51,,,,,,,,,,,,,,557.6830000046175,,response,,,,13,C,,,,,,Space,keypress(Space),,,,instrumental,,,,-------- -------- --- --- ---- --- --- ------ -- --------<br>---- --------- --- ------- ------------ ---------- ---------<br>--- ---------- ------- ---------- ------- -- -------- ----<br>---- --- ------ ----- ------ -- ---- --- ----- in - -------<br>-------- -- --- --- -- ----- ----------- ----- -----------<br>---- --- ---------- --- ---- --- -- ----------,277685.95500000083,277682.42000000464,277108.064,277117.9900000061,277124.737,277691.619,,34,in
screen,html.Screen,2_3_1_0_1_35,2021-04-24T14:53:35.923Z,,,,,,,,,,,,,,,,,51,,,,,,,,,,,,,,425.63100000296254,,response,,,,13,C,,,,,,Space,keypress(Space),,,,instrumental,,,,-------- -------- --- --- ---- --- --- ------ -- --------<br>---- --------- --- ------- ------------ ---------- ---------<br>--- ---------- ------- ---------- ------- -- -------- ----<br>---- --- ------ ----- ------ -- ---- --- ----- -- a -------<br>-------- -- --- --- -- ----- ----------- ----- -----------<br>---- --- ---------- --- ---- --- -- ----------,278120.9050000034,278117.25000000297,277674.946,277686.13000000187,277691.619,278125.117,,35,a
screen,html.Screen,2_3_1_0_1_36,2021-04-24T14:53:36.385Z,,,,,,,,,,,,,,,,,51,,,,,,,,,,,,,,453.9330000002519,,response,,,,13,C,,,,,,Space,keypress(Space),,,,instrumental,,,,-------- -------- --- --- ---- --- --- ------ -- --------<br>---- --------- --- ------- ------------ ---------- ---------<br>--- ---------- ------- ---------- ------- -- -------- ----<br>---- --- ------ ----- ------ -- ---- --- ----- -- - massive<br>-------- -- --- --- -- ----- ----------- ----- -----------<br>---- --- ---------- --- ---- --- -- ----------,278582.25500000117,278579.0500000003,278108.444,278121.07000000105,278125.117,278591.961,,36,massive
