sender,sender_type,sender_id,timestamp,meta,,Blues,Classical,Country,Dance,Electronic,Folk,Gospel,Hip-Hop,Jazz,Latin,Musical/Film,New-age,Pop,Prolific_id,Provo_ID,R&B,Rap,Reggae,Religious,Rock,Soul,Swing,Traditional,age,artist_name,correct,correctResponse,distraction,duration,education,ended_on,familiarity,gender,headphone_check_performance,item,list,music_frequency,offensiveness,pleasantness,position_correct,preference,response,response_action,snippet_file,song_name,song_rating,sound,stimulus_1,stimulus_2,stimulus_3,text,time_commit,time_end,time_render,time_run,time_show,time_switch,url,word,word_ID
Prolific ID,html.Form,0,2021-04-24T14:02:33.154Z,"{""labjs_version"":""20.2.2"",""labjs_build"":{""flavor"":""production"",""commit"":""a25486e0c714a0ae2ce03ff94b7bb6896854dcfa""},""location"":""https://run.pavlovia.org/mvasilev/prolific_music_b/"",""userAgent"":""Mozilla/5.0 (Windows NT 10.0; Win64; x64) AppleWebKit/537.36 (KHTML, like Gecko) Chrome/90.0.4430.85 Safari/537.36"",""platform"":""Win32"",""language"":""en-US"",""locale"":""en-US"",""timeZone"":""Europe/London"",""timezoneOffset"":-60,""screen_width"":1920,""screen_height"":1080,""scroll_width"":1920,""scroll_height"":921,""window_innerWidth"":1920,""window_innerHeight"":969,""devicePixelRatio"":1}",,,,,,,,,,,,,,,5de4eb36c4ba0907aedd3443,,,,,,,,,,,,,,,9452.373000020674,,form submission,,,,,,,,,,,,,,,,,,,,,15381.300000008196,15380.950000020675,5901.349,5912.430000025779,5928.577,15385.342,{},,
Introduction,html.Screen,1_0,2021-04-24T14:02:37.285Z,,,,,,,,,,,,,,,,,,,,,,,,,,,,,,,4125.483000004842,,response,,,,,,,,,,,continue,click button,,,,,,,,,19512.22500001313,19510.825000004843,15371.998,15381.670000002487,15385.342,19520.185,,,
Volume calibration,html.Screen,1_1,2021-04-24T14:02:51.628Z,,,,,,,,,,,,,,,,,,,,,,,,,,,,,,,14332.645000018001,,response,,,,,,,,,,,continue,click button,,,,,,,,,33854.68500002753,33852.830000018,19506.808,19512.345000024652,19520.185,33858.724,,,
Task instructions,html.Screen,1_2,2021-04-24T14:02:56.969Z,,,,,,,,,,,,,,,,,,,,,,,,,,,,,,,5337.216000005064,,response,,,,,,,,,,,continue,click button,,,,,,,,,39196.41000000411,39195.94000000507,33845.415,33854.770000005374,33858.724,39207.341,,,
Sounds,html.Screen,1_3_0_0,2021-04-24T14:03:01.224Z,,,,,,,,,,,,,,,,,,,,,,,,,,,,,,,4254.906000000003,,timeout,,,,,,,,,1,,,,,,,,S,O,I,,43451.83000000543,43448.913,39194.197,39196.570000000065,39207.341,43462.247,,,
Judgement,html.Screen,1_3_0_1,2021-04-24T14:03:02.387Z,,,,,,,,,,,,,,,,,,,,,,,,,,,,true,1,,1151.5130000074569,,response,,,,,,,,,1,,1,click #choice-1,,,,,S,O,I,,44614.45000002277,44613.76000000746,43448.913,43452.06000001053,43462.247,44622.644,,,
Trial,flow.Sequence,1_3_0,2021-04-24T14:03:02.387Z,,,,,,,,,,,,,,,,,,,,,,,,,,,,,,,5406.4190000074595,,completion,,,,,,,,,1,,,,,,,,S,O,I,,44614.66500000097,44613.76000000746,39194.197,39196.54000000446,39207.341,44622.644,,,
Sounds,html.Screen,1_3_1_0,2021-04-24T14:03:06.637Z,,,,,,,,,,,,,,,,,,,,,,,,,,,,,,,4254.9000000000015,,timeout,,,,,,,,,1,,,,,,,,S,I,O,,48864.71500000334,48864.198,44609.294,44614.76000002585,44622.644,48877.544,,,
Judgement,html.Screen,1_3_1_1,2021-04-24T14:03:06.987Z,,,,,,,,,,,,,,,,,,,,,,,,,,,,true,1,,337.2410000183081,,response,,,,,,,,,1,,1,click #choice-1,,,,,S,I,O,,49215.25500001735,49214.78500001831,48864.198,48864.910000003874,48877.544,49224.315,,,
Trial,flow.Sequence,1_3_1,2021-04-24T14:03:06.988Z,,,,,,,,,,,,,,,,,,,,,,,,,,,,,,,4592.14100001831,,completion,,,,,,,,,1,,,,,,,,S,I,O,,49215.39000002667,49214.78500001831,44609.294,44614.730000001146,44622.644,49224.315,,,
Sounds,html.Screen,1_3_2_0,2021-04-24T14:03:11.239Z,,,,,,,,,,,,,,,,,,,,,,,,,,,,,,,4254.913999999997,,timeout,,,,,,,,,3,,,,,,,,I,O,S,,53466.62000002107,53465.888,49210.97,49215.47000002465,49224.315,53479.229,,,
Judgement,html.Screen,1_3_2_1,2021-04-24T14:03:11.708Z,,,,,,,,,,,,,,,,,,,,,,,,,,,,true,3,,456.5210000041916,,response,,,,,,,,,3,,3,click #choice-3,,,,,I,O,S,,53936.26000001677,53935.75000000419,53465.888,53466.855000006035,53479.229,53946.038,,,
Trial,flow.Sequence,1_3_2,2021-04-24T14:03:11.709Z,,,,,,,,,,,,,,,,,,,,,,,,,,,,,,,4711.435000004189,,completion,,,,,,,,,3,,,,,,,,I,O,S,,53936.395000026096,53935.75000000419,49210.97,49215.44500000891,49224.315,53946.038,,,
Sounds,html.Screen,1_3_3_0,2021-04-24T14:03:15.960Z,,,,,,,,,,,,,,,,,,,,,,,,,,,,,,,4254.9259999999995,,timeout,,,,,,,,,2,,,,,,,,O,S,I,,58188.225000019884,58187.599,53932.717,53936.48500001291,53946.038,58200.964,,,
Judgement,html.Screen,1_3_3_1,2021-04-24T14:03:16.279Z,,,,,,,,,,,,,,,,,,,,,,,,,,,,true,2,,305.68100001585117,,response,,,,,,,,,2,,2,click #choice-2,,,,,O,S,I,,58507.345000019995,58506.64500001585,58187.599,58188.395000004675,58200.964,58521.034,,,
Trial,flow.Sequence,1_3_3,2021-04-24T14:03:16.280Z,,,,,,,,,,,,,,,,,,,,,,,,,,,,,,,4560.607000015851,,completion,,,,,,,,,2,,,,,,,,O,S,I,,58507.51500000479,58506.64500001585,53932.717,53936.450000008335,53946.038,58521.034,,,
Sounds,html.Screen,1_3_4_0,2021-04-24T14:03:20.535Z,,,,,,,,,,,,,,,,,,,,,,,,,,,,,,,4254.917000000001,,timeout,,,,,,,,,3,,,,,,,,O,I,S,,62763.25000001816,62762.595,58507.696,58507.6050000207,58521.034,62775.951,,,
Judgement,html.Screen,1_3_4_1,2021-04-24T14:03:20.869Z,,,,,,,,,,,,,,,,,,,,,,,,,,,,true,3,,320.7790000193054,,response,,,,,,,,,3,,3,click #choice-3,,,,,O,I,S,,63097.29500001413,63096.730000019306,62762.595,62763.42000000295,62775.951,63109.396,,,
Trial,flow.Sequence,1_3_4,2021-04-24T14:03:20.870Z,,,,,,,,,,,,,,,,,,,,,,,,,,,,,,,4575.696000019307,,completion,,,,,,,,,3,,,,,,,,O,I,S,,63097.40500000771,63096.730000019306,58507.696,58507.58500001393,58521.034,63109.396,,,
Sounds,html.Screen,1_3_5_0,2021-04-24T14:03:25.124Z,,,,,,,,,,,,,,,,,,,,,,,,,,,,,,,4254.908999999992,,timeout,,,,,,,,,2,,,,,,,,I,S,O,,67351.61000001244,67351.102,63096.036,63097.48500000569,63109.396,67364.305,,,
Judgement,html.Screen,1_3_5_1,2021-04-24T14:03:25.477Z,,,,,,,,,,,,,,,,,,,,,,,,,,,,true,2,,339.4550000039744,,response,,,,,,,,,2,,2,click #choice-2,,,,,I,S,O,,67704.5700000017,67703.76000000397,67351.102,67351.7700000084,67364.305,67711.075,,,
Trial,flow.Sequence,1_3_5,2021-04-24T14:03:25.477Z,,,,,,,,,,,,,,,,,,,,,,,,,,,,,,,4594.364000003967,,completion,,,,,,,,,2,,,,,,,,I,S,O,,67704.74500002456,67703.76000000397,63096.036,63097.46500002802,63109.396,67711.075,,,
Task,flow.Loop,1_3,2021-04-24T14:03:25.479Z,,,,,,,,,,,,,,,,,,,,,,,,,,,,,,,28496.419000003967,,completion,,,1,,,,,,,,,,,,,,,,,,67707.150000002,67703.76000000397,39194.197,39196.50000002002,39207.341,67711.075,,,
Trap,html.Screen,1_4,2021-04-24T14:03:25.481Z,,,,,,,,,,,,,,,,,,,,,,,,,,,,,,,NaN,,skipped,,,,,,,,,,,,,,,,,,,,,67708.75000001979,67703.76000000397,,67708.68500001961,,67711.075,,,
Thanks,html.Screen,1_5,2021-04-24T14:03:29.085Z,,,,,,,,,,,,,,,,,,,,,,,,,,,,,,,3600.620000011244,,response,,,,,,,,,,,continue,click button,,,,,,,,,71312.4700000044,71311.69500001124,67697.717,67708.81999999983,67711.075,75727.326,,,
Headphone screening,flow.Sequence,1,2021-04-24T14:03:29.085Z,,,,,,,,,,,,,,,,,,,,,,,,,,,,,,,55926.35300001124,,completion,,,,,,,,,,,,,,,,,,,,,71312.61500000255,71311.69500001124,15371.998,15381.640000006882,15385.342,75727.326,,,
Instructions,html.Page,2_0,2021-04-24T14:03:47.905Z,,,,,,,,,,,,,,,,,,,,,,,,,,,,,,,14405.039000026765,,form submission,,,,,,,,,,,,,,,,,,,,,90132.61500000954,90132.36500002677,75713.982,75721.91000002204,75727.326,90150.632,,,
Holding screen,html.Screen,2_1_0_0,2021-04-24T14:03:57.913Z,,,,,,,,,,,,,,,,,,,,,,,,,,,,,,,9998.951000000001,,timeout,,,,,,,,,,,,,,,,,,,,,100139.96000000043,100136.215,90119.234,90132.78000001446,90150.632,100149.583,,,
screen,html.Screen,2_1_0_1_0,2021-04-24T14:03:58.962Z,,,,,,,,,,,,,,,,,53,,,,,,,,,,,,,,1036.926999999545,,response,,,,99,,,,,,,Space,keypress(Space),,,,,,,,When -- ----- -- ------ - ------- --- ----------<br>------------- ------ ------ ---- ---- ------- ----- -- ----<br>-------- ------- -- ---------- --- - --- ----- ----- ----<br>---- --- --- ----- --- ---- ---- ------- ----- ---- -------<br>--- --- -- ----- -- --- ---- -- --- ---- -- ------ ------<br>--- ----- -- ----,101189.29000000935,101186.50999999954,100136.215,100140.23500002804,100149.583,101203.304,,0,When
screen,html.Screen,2_1_0_1_1,2021-04-24T14:03:59.599Z,,,,,,,,,,,,,,,,,53,,,,,,,,,,,,,,622.6760000232607,,response,,,,99,,,,,,,Space,keypress(Space),,,,,,,,---- it ----- -- ------ - ------- --- ----------<br>------------- ------ ------ ---- ---- ------- ----- -- ----<br>-------- ------- -- ---------- --- - --- ----- ----- ----<br>---- --- --- ----- --- ---- ---- ------- ----- ---- -------<br>--- --- -- ----- -- --- ---- -- --- ---- -- ------ ------<br>--- ----- -- ----,101826.55500000692,101825.98000002326,101189.517,101189.51000002562,101203.304,101830.193,,1,it
screen,html.Screen,2_1_0_1_2,2021-04-24T14:04:01.191Z,,,,,,,,,,,,,,,,,53,,,,,,,,,,,,,,1587.7770000095188,,response,,,,99,,,,,,,Space,keypress(Space),,,,,,,,---- -- comes -- ------ - ------- --- ----------<br>------------- ------ ------ ---- ---- ------- ----- -- ----<br>-------- ------- -- ---------- --- - --- ----- ----- ----<br>---- --- --- ----- --- ---- ---- ------- ----- ---- -------<br>--- --- -- ----- -- --- ---- -- --- ---- -- ------ ------<br>--- ----- -- ----,103418.5250000155,103417.97000000952,101816.612,101826.72500002082,101830.193,103430.768,,2,comes
screen,html.Screen,2_1_0_1_3,2021-04-24T14:04:02.087Z,,,,,,,,,,,,,,,,,53,,,,,,,,,,,,,,883.0520000103133,,response,,,,99,,,,,,,Space,keypress(Space),,,,,,,,---- -- ----- to ------ - ------- --- ----------<br>------------- ------ ------ ---- ---- ------- ----- -- ----<br>-------- ------- -- ---------- --- - --- ----- ----- ----<br>---- --- --- ----- --- ---- ---- ------- ----- ---- -------<br>--- --- -- ----- -- --- ---- -- --- ---- -- ------ ------<br>--- ----- -- ----,104314.39500002307,104313.82000001031,103416.802,103418.70000000927,103430.768,104324.398,,3,to
screen,html.Screen,2_1_0_1_4,2021-04-24T14:04:03.055Z,,,,,,,,,,,,,,,,,53,,,,,,,,,,,,,,957.6070000154868,,response,,,,99,,,,,,,Space,keypress(Space),,,,,,,,---- -- ----- -- having - ------- --- ----------<br>------------- ------ ------ ---- ---- ------- ----- -- ----<br>-------- ------- -- ---------- --- - --- ----- ----- ----<br>---- --- --- ----- --- ---- ---- ------- ----- ---- -------<br>--- --- -- ----- -- --- ---- -- --- ---- -- ------ ------<br>--- ----- -- ----,105282.55500001251,105282.00500001549,104310.751,104314.55500001903,104324.398,105284.78,,4,having
screen,html.Screen,2_1_0_1_5,2021-04-24T14:04:03.495Z,,,,,,,,,,,,,,,,,53,,,,,,,,,,,,,,437.200000002078,,response,,,,99,,,,,,,Space,keypress(Space),,,,,,,,---- -- ----- -- ------ a ------- --- ----------<br>------------- ------ ------ ---- ---- ------- ----- -- ----<br>-------- ------- -- ---------- --- - --- ----- ----- ----<br>---- --- --- ----- --- ---- ---- ------- ----- ---- -------<br>--- --- -- ----- -- --- ---- -- --- ---- -- ------ ------<br>--- ----- -- ----,105722.545000026,105721.98000000208,105271.053,105282.7250000264,105284.78,105724.948,,5,a
screen,html.Screen,2_1_0_1_6,2021-04-24T14:04:04.079Z,,,,,,,,,,,,,,,,,53,,,,,,,,,,,,,,581.0270000247692,,response,,,,99,,,,,,,Space,keypress(Space),,,,,,,,---- -- ----- -- ------ - lasting --- ----------<br>------------- ------ ------ ---- ---- ------- ----- -- ----<br>-------- ------- -- ---------- --- - --- ----- ----- ----<br>---- --- --- ----- --- ---- ---- ------- ----- ---- -------<br>--- --- -- ----- -- --- ---- -- --- ---- -- ------ ------<br>--- ----- -- ----,106306.51500000386,106305.97500002477,105711.449,105722.72499999963,105724.948,106311.798,,6,lasting
screen,html.Screen,2_1_0_1_7,2021-04-24T14:04:04.831Z,,,,,,,,,,,,,,,,,53,,,,,,,,,,,,,,746.2820000170759,,response,,,,99,,,,,,,Space,keypress(Space),,,,,,,,---- -- ----- -- ------ - ------- and ----------<br>------------- ------ ------ ---- ---- ------- ----- -- ----<br>-------- ------- -- ---------- --- - --- ----- ----- ----<br>---- --- --- ----- --- ---- ---- ------- ----- ---- -------<br>--- --- -- ----- -- --- ---- -- --- ---- -- ------ ------<br>--- ----- -- ----,107058.62500000512,107058.08000001707,106298.275,106306.68500001775,106311.798,107072.111,,7,and
screen,html.Screen,2_1_0_1_8,2021-04-24T14:04:05.535Z,,,,,,,,,,,,,,,,,53,,,,,,,,,,,,,,689.859000021388,,response,,,,99,,,,,,,Space,keypress(Space),,,,,,,,---- -- ----- -- ------ - ------- --- fulfilling<br>------------- ------ ------ ---- ---- ------- ----- -- ----<br>-------- ------- -- ---------- --- - --- ----- ----- ----<br>---- --- --- ----- --- ---- ---- ------- ----- ---- -------<br>--- --- -- ----- -- --- ---- -- --- ---- -- ------ ------<br>--- ----- -- ----,107762.54500000505,107761.97000002139,107058.462,107058.79500001902,107072.111,107765.681,,8,fulfilling
screen,html.Screen,2_1_0_1_9,2021-04-24T14:04:06.448Z,,,,,,,,,,,,,,,,,53,,,,,,,,,,,,,,908.5640000019775,,response,,,,99,,,,,,,Space,keypress(Space),,,,,,,,"---- -- ----- -- ------ - ------- --- ----------<br>relationship, ------ ------ ---- ---- ------- ----- -- ----<br>-------- ------- -- ---------- --- - --- ----- ----- ----<br>---- --- --- ----- --- ---- ---- ------- ----- ---- -------<br>--- --- -- ----- -- --- ---- -- --- ---- -- ------ ------<br>--- ----- -- ----",108674.86000002827,108674.24500000197,107752.102,107762.72000002791,107765.681,108686.057,,9,"relationship,"
screen,html.Screen,2_1_0_1_10,2021-04-24T14:04:07.120Z,,,,,,,,,,,,,,,,,53,,,,,,,,,,,,,,660.0480000041716,,response,,,,99,,,,,,,Space,keypress(Space),,,,,,,,---- -- ----- -- ------ - ------- --- ----------<br>------------- common ------ ---- ---- ------- ----- -- ----<br>-------- ------- -- ---------- --- - --- ----- ----- ----<br>---- --- --- ----- --- ---- ---- ------- ----- ---- -------<br>--- --- -- ----- -- --- ---- -- --- ---- -- ------ ------<br>--- ----- -- ----,109346.64000000339,109346.10500000417,108672.392,108675.03500002204,108686.057,109352.964,,10,common
screen,html.Screen,2_1_0_1_11,2021-04-24T14:04:07.647Z,,,,,,,,,,,,,,,,,53,,,,,,,,,,,,,,521.0110000240675,,response,,,,99,,,,,,,Space,keypress(Space),,,,,,,,---- -- ----- -- ------ - ------- --- ----------<br>------------- ------ wisdom ---- ---- ------- ----- -- ----<br>-------- ------- -- ---------- --- - --- ----- ----- ----<br>---- --- --- ----- --- ---- ---- ------- ----- ---- -------<br>--- --- -- ----- -- --- ---- -- --- ---- -- ------ ------<br>--- ----- -- ----,109874.55000000773,109873.97500002407,109339.32,109346.80500000832,109352.964,109886.447,,11,wisdom
screen,html.Screen,2_1_0_1_12,2021-04-24T14:04:08.255Z,,,,,,,,,,,,,,,,,53,,,,,,,,,,,,,,595.5130000046192,,response,,,,99,,,,,,,Space,keypress(Space),,,,,,,,---- -- ----- -- ------ - ------- --- ----------<br>------------- ------ ------ says ---- ------- ----- -- ----<br>-------- ------- -- ---------- --- - --- ----- ----- ----<br>---- --- --- ----- --- ---- ---- ------- ----- ---- -------<br>--- --- -- ----- -- --- ---- -- --- ---- -- ------ ------<br>--- ----- -- ----,110482.53500001738,110481.96000000462,109872.928,109874.72000002163,109886.447,110486.703,,12,says
screen,html.Screen,2_1_0_1_13,2021-04-24T14:04:08.808Z,,,,,,,,,,,,,,,,,53,,,,,,,,,,,,,,547.33700002775,,response,,,,99,,,,,,,Space,keypress(Space),,,,,,,,---- -- ----- -- ------ - ------- --- ----------<br>------------- ------ ------ ---- that ------- ----- -- ----<br>-------- ------- -- ---------- --- - --- ----- ----- ----<br>---- --- --- ----- --- ---- ---- ------- ----- ---- -------<br>--- --- -- ----- -- --- ---- -- --- ---- -- ------ ------<br>--- ----- -- ----,111034.64000002714,111034.04000002774,110473.085,110482.71999999997,110486.703,111046.877,,13,that
screen,html.Screen,2_1_0_1_14,2021-04-24T14:04:09.368Z,,,,,,,,,,,,,,,,,53,,,,,,,,,,,,,,547.5530000264844,,response,,,,99,,,,,,,Space,keypress(Space),,,,,,,,---- -- ----- -- ------ - ------- --- ----------<br>------------- ------ ------ ---- ---- feeling ----- -- ----<br>-------- ------- -- ---------- --- - --- ----- ----- ----<br>---- --- --- ----- --- ---- ---- ------- ----- ---- -------<br>--- --- -- ----- -- --- ---- -- --- ---- -- ------ ------<br>--- ----- -- ----,111595.00000000116,111594.43000002648,111033.34,111034.81000001193,111046.877,111607.102,,14,feeling
screen,html.Screen,2_1_0_1_15,2021-04-24T14:04:09.816Z,,,,,,,,,,,,,,,,,53,,,,,,,,,,,,,,435.06800000062503,,response,,,,99,,,,,,,Space,keypress(Space),,,,,,,,---- -- ----- -- ------ - ------- --- ----------<br>------------- ------ ------ ---- ---- ------- close -- ----<br>-------- ------- -- ---------- --- - --- ----- ----- ----<br>---- --- --- ----- --- ---- ---- ------- ----- ---- -------<br>--- --- -- ----- -- --- ---- -- --- ---- -- ------ ------<br>--- ----- -- ----,112042.71500001778,112042.17000000062,111593.693,111595.16500000609,111607.102,112047.238,,15,close
screen,html.Screen,2_1_0_1_16,2021-04-24T14:04:10.271Z,,,,,,,,,,,,,,,,,53,,,,,,,,,,,,,,450.7820000281936,,response,,,,99,,,,,,,Space,keypress(Space),,,,,,,,---- -- ----- -- ------ - ------- --- ----------<br>------------- ------ ------ ---- ---- ------- ----- to ----<br>-------- ------- -- ---------- --- - --- ----- ----- ----<br>---- --- --- ----- --- ---- ---- ------- ----- ---- -------<br>--- --- -- ----- -- --- ---- -- --- ---- -- ------ ------<br>--- ----- -- ----,112498.59000000288,112498.02000002819,112033.764,112042.89000001154,112047.238,112500.743,,16,to
screen,html.Screen,2_1_0_1_17,2021-04-24T14:04:10.816Z,,,,,,,,,,,,,,,,,53,,,,,,,,,,,,,,541.4470000073925,,response,,,,99,,,,,,,Space,keypress(Space),,,,,,,,---- -- ----- -- ------ - ------- --- ----------<br>------------- ------ ------ ---- ---- ------- ----- -- your<br>-------- ------- -- ---------- --- - --- ----- ----- ----<br>---- --- --- ----- --- ---- ---- ------- ----- ---- -------<br>--- --- -- ----- -- --- ---- -- --- ---- -- ------ ------<br>--- ----- -- ----,113042.75500000222,113042.1900000074,112487.232,112498.7550000078,112500.743,113047.606,,17,your
screen,html.Screen,2_1_0_1_18,2021-04-24T14:04:11.279Z,,,,,,,,,,,,,,,,,53,,,,,,,,,,,,,,458.33900001170696,,response,,,,99,,,,,,,Space,keypress(Space),,,,,,,,---- -- ----- -- ------ - ------- --- ----------<br>------------- ------ ------ ---- ---- ------- ----- -- ----<br>romantic ------- -- ---------- --- - --- ----- ----- ----<br>---- --- --- ----- --- ---- ---- ------- ----- ---- -------<br>--- --- -- ----- -- --- ---- -- --- ---- -- ------ ------<br>--- ----- -- ----,113506.50500002666,113505.9450000117,113034.069,113042.92500001611,113047.606,113514.431,,18,romantic
screen,html.Screen,2_1_0_1_19,2021-04-24T14:04:11.720Z,,,,,,,,,,,,,,,,,53,,,,,,,,,,,,,,431.7240000123711,,response,,,,99,,,,,,,Space,keypress(Space),,,,,,,,---- -- ----- -- ------ - ------- --- ----------<br>------------- ------ ------ ---- ---- ------- ----- -- ----<br>-------- partner -- ---------- --- - --- ----- ----- ----<br>---- --- --- ----- --- ---- ---- ------- ----- ---- -------<br>--- --- -- ----- -- --- ---- -- --- ---- -- ------ ------<br>--- ----- -- ----,113946.68500000262,113946.15500001237,113500.955,113506.69000000926,113514.431,113954.621,,19,partner
screen,html.Screen,2_1_0_1_20,2021-04-24T14:04:12.127Z,,,,,,,,,,,,,,,,,53,,,,,,,,,,,,,,399.3940000189905,,response,,,,99,,,,,,,Space,keypress(Space),,,,,,,,---- -- ----- -- ------ - ------- --- ----------<br>------------- ------ ------ ---- ---- ------- ----- -- ----<br>-------- ------- is ---------- --- - --- ----- ----- ----<br>---- --- --- ----- --- ---- ---- ------- ----- ---- -------<br>--- --- -- ----- -- --- ---- -- --- ---- -- ------ ------<br>--- ----- -- ----,114354.57500000484,114354.01500001899,113941.1,113946.86500000535,113954.621,114368.135,,20,is
screen,html.Screen,2_1_0_1_21,2021-04-24T14:04:12.551Z,,,,,,,,,,,,,,,,,53,,,,,,,,,,,,,,409.8300000156887,,response,,,,99,,,,,,,Space,keypress(Space),,,,,,,,---- -- ----- -- ------ - ------- --- ----------<br>------------- ------ ------ ---- ---- ------- ----- -- ----<br>-------- ------- -- paramount. --- - --- ----- ----- ----<br>---- --- --- ----- --- ---- ---- ------- ----- ---- -------<br>--- --- -- ----- -- --- ---- -- --- ---- -- ------ ------<br>--- ----- -- ----,114778.55500002624,114777.96500001568,114354.618,114354.74500001874,114368.135,114781.593,,21,paramount.
screen,html.Screen,2_1_0_1_22,2021-04-24T14:04:13.055Z,,,,,,,,,,,,,,,,,53,,,,,,,,,,,,,,500.4870000045048,,response,,,,99,,,,,,,Space,keypress(Space),,,,,,,,---- -- ----- -- ------ - ------- --- ----------<br>------------- ------ ------ ---- ---- ------- ----- -- ----<br>-------- ------- -- ---------- But - --- ----- ----- ----<br>---- --- --- ----- --- ---- ---- ------- ----- ---- -------<br>--- --- -- ----- -- --- ---- -- --- ---- -- ------ ------<br>--- ----- -- ----,115282.57000001031,115282.0800000045,114768.231,114778.72000000207,114781.593,115288.41,,22,But
screen,html.Screen,2_1_0_1_23,2021-04-24T14:04:13.423Z,,,,,,,,,,,,,,,,,53,,,,,,,,,,,,,,361.57000001650886,,response,,,,99,,,,,,,Space,keypress(Space),,,,,,,,---- -- ----- -- ------ - ------- --- ----------<br>------------- ------ ------ ---- ---- ------- ----- -- ----<br>-------- ------- -- ---------- --- a --- ----- ----- ----<br>---- --- --- ----- --- ---- ---- ------- ----- ---- -------<br>--- --- -- ----- -- --- ---- -- --- ---- -- ------ ------<br>--- ----- -- ----,115650.52500000456,115649.98000001651,115274.921,115282.73000000627,115288.41,115661.868,,23,a
screen,html.Screen,2_1_0_1_24,2021-04-24T14:04:13.815Z,,,,,,,,,,,,,,,,,53,,,,,,,,,,,,,,380.0620000066847,,response,,,,99,,,,,,,Space,keypress(Space),,,,,,,,---- -- ----- -- ------ - ------- --- ----------<br>------------- ------ ------ ---- ---- ------- ----- -- ----<br>-------- ------- -- ---------- --- - new ----- ----- ----<br>---- --- --- ----- --- ---- ---- ------- ----- ---- -------<br>--- --- -- ----- -- --- ---- -- --- ---- -- ------ ------<br>--- ----- -- ----,116042.47500002384,116041.93000000669,115648.417,115650.70500000729,115661.868,116048.696,,24,new
screen,html.Screen,2_1_0_1_25,2021-04-24T14:04:14.199Z,,,,,,,,,,,,,,,,,53,,,,,,,,,,,,,,377.269000002183,,response,,,,99,,,,,,,Space,keypress(Space),,,,,,,,---- -- ----- -- ------ - ------- --- ----------<br>------------- ------ ------ ---- ---- ------- ----- -- ----<br>-------- ------- -- ---------- --- - --- study ----- ----<br>---- --- --- ----- --- ---- ---- ------- ----- ---- -------<br>--- --- -- ----- -- --- ---- -- --- ---- -- ------ ------<br>--- ----- -- ----,116426.49000001256,116425.96500000218,116035.219,116042.65500002657,116048.696,116435.499,,25,study
screen,html.Screen,2_1_0_1_26,2021-04-24T14:04:14.560Z,,,,,,,,,,,,,,,,,53,,,,,,,,,,,,,,350.6310000222438,,response,,,,99,,,,,,,Space,keypress(Space),,,,,,,,---- -- ----- -- ------ - ------- --- ----------<br>------------- ------ ------ ---- ---- ------- ----- -- ----<br>-------- ------- -- ---------- --- - --- ----- finds ----<br>---- --- --- ----- --- ---- ---- ------- ----- ---- -------<br>--- --- -- ----- -- --- ---- -- --- ---- -- ------ ------<br>--- ----- -- ----,116786.65500000352,116786.13000002224,116422.026,116426.66000002646,116435.499,116795.658,,26,finds
screen,html.Screen,2_1_0_1_27,2021-04-24T14:04:14.975Z,,,,,,,,,,,,,,,,,53,,,,,,,,,,,,,,406.3720000149333,,response,,,,99,,,,,,,Space,keypress(Space),,,,,,,,---- -- ----- -- ------ - ------- --- ----------<br>------------- ------ ------ ---- ---- ------- ----- -- ----<br>-------- ------- -- ---------- --- - --- ----- ----- that<br>---- --- --- ----- --- ---- ---- ------- ----- ---- -------<br>--- --- -- ----- -- --- ---- -- --- ---- -- ------ ------<br>--- ----- -- ----,117202.57500000298,117202.03000001493,116782.167,116786.82000000845,116795.658,117209.109,,27,that
screen,html.Screen,2_1_0_1_28,2021-04-24T14:04:15.335Z,,,,,,,,,,,,,,,,,53,,,,,,,,,,,,,,352.86600001872284,,response,,,,99,,,,,,,Space,keypress(Space),,,,,,,,---- -- ----- -- ------ - ------- --- ----------<br>------------- ------ ------ ---- ---- ------- ----- -- ----<br>-------- ------- -- ---------- --- - --- ----- ----- ----<br>it's --- --- ----- --- ---- ---- ------- ----- ---- -------<br>--- --- -- ----- -- --- ---- -- --- ---- -- ------ ------<br>--- ----- -- ----,117562.52500001574,117561.97500001872,117195.657,117202.7400000079,117209.109,117569.249,,28,it's
screen,html.Screen,2_1_0_1_29,2021-04-24T14:04:15.647Z,,,,,,,,,,,,,,,,,53,,,,,,,,,,,,,,304.69599999937054,,response,,,,99,,,,,,,Space,keypress(Space),,,,,,,,---- -- ----- -- ------ - ------- --- ----------<br>------------- ------ ------ ---- ---- ------- ----- -- ----<br>-------- ------- -- ---------- --- - --- ----- ----- ----<br>---- not --- ----- --- ---- ---- ------- ----- ---- -------<br>--- --- -- ----- -- --- ---- -- --- ---- -- ------ ------<br>--- ----- -- ----,117874.50000000536,117873.94499999937,117555.787,117562.69000002067,117569.249,117876.052,,29,not
screen,html.Screen,2_1_0_1_30,2021-04-24T14:04:15.951Z,,,,,,,,,,,,,,,,,53,,,,,,,,,,,,,,301.9530000234081,,response,,,,99,,,,,,,Space,keypress(Space),,,,,,,,---- -- ----- -- ------ - ------- --- ----------<br>------------- ------ ------ ---- ---- ------- ----- -- ----<br>-------- ------- -- ---------- --- - --- ----- ----- ----<br>---- --- how ----- --- ---- ---- ------- ----- ---- -------<br>--- --- -- ----- -- --- ---- -- --- ---- -- ------ ------<br>--- ----- -- ----,118178.54000002262,118178.0050000234,117862.636,117874.67500002822,117876.052,118182.794,,30,how
screen,html.Screen,2_1_0_1_31,2021-04-24T14:04:16.295Z,,,,,,,,,,,,,,,,,53,,,,,,,,,,,,,,339.15100001497194,,response,,,,99,,,,,,,Space,keypress(Space),,,,,,,,---- -- ----- -- ------ - ------- --- ----------<br>------------- ------ ------ ---- ---- ------- ----- -- ----<br>-------- ------- -- ---------- --- - --- ----- ----- ----<br>---- --- --- close --- ---- ---- ------- ----- ---- -------<br>--- --- -- ----- -- --- ---- -- --- ---- -- ------ ------<br>--- ----- -- ----,118522.52000002773,118521.94500001497,118169.339,118178.72500000522,118182.794,118529.603,,31,close
screen,html.Screen,2_1_0_1_32,2021-04-24T14:04:16.695Z,,,,,,,,,,,,,,,,,53,,,,,,,,,,,,,,392.33200002030935,,response,,,,99,,,,,,,Space,keypress(Space),,,,,,,,---- -- ----- -- ------ - ------- --- ----------<br>------------- ------ ------ ---- ---- ------- ----- -- ----<br>-------- ------- -- ---------- --- - --- ----- ----- ----<br>---- --- --- ----- you ---- ---- ------- ----- ---- -------<br>--- --- -- ----- -- --- ---- -- --- ---- -- ------ ------<br>--- ----- -- ----,118922.50000001513,118921.93500002031,118516.122,118522.69500002149,118529.603,118929.743,,32,you
screen,html.Screen,2_1_0_1_33,2021-04-24T14:04:17.064Z,,,,,,,,,,,,,,,,,53,,,,,,,,,,,,,,360.27200000594894,,response,,,,99,,,,,,,Space,keypress(Space),,,,,,,,---- -- ----- -- ------ - ------- --- ----------<br>------------- ------ ------ ---- ---- ------- ----- -- ----<br>-------- ------- -- ---------- --- - --- ----- ----- ----<br>---- --- --- ----- --- feel ---- ------- ----- ---- -------<br>--- --- -- ----- -- --- ---- -- --- ---- -- ------ ------<br>--- ----- -- ----,119290.75000001467,119290.01500000595,118916.268,118924.10000000382,118929.743,119303.25,,33,feel
screen,html.Screen,2_1_0_1_34,2021-04-24T14:04:17.431Z,,,,,,,,,,,,,,,,,53,,,,,,,,,,,,,,354.7600000137463,,response,,,,99,,,,,,,Space,keypress(Space),,,,,,,,---- -- ----- -- ------ - ------- --- ----------<br>------------- ------ ------ ---- ---- ------- ----- -- ----<br>-------- ------- -- ---------- --- - --- ----- ----- ----<br>---- --- --- ----- --- ---- that ------- ----- ---- -------<br>--- --- -- ----- -- --- ---- -- --- ---- -- ------ ------<br>--- ----- -- ----,119658.55000002193,119658.01000001375,119289.721,119290.9150000196,119303.25,119663.341,,34,that
screen,html.Screen,2_1_0_1_35,2021-04-24T14:04:17.783Z,,,,,,,,,,,,,,,,,53,,,,,,,,,,,,,,346.6990000228543,,response,,,,99,,,,,,,Space,keypress(Space),,,,,,,,---- -- ----- -- ------ - ------- --- ----------<br>------------- ------ ------ ---- ---- ------- ----- -- ----<br>-------- ------- -- ---------- --- - --- ----- ----- ----<br>---- --- --- ----- --- ---- ---- matters ----- ---- -------<br>--- --- -- ----- -- --- ---- -- --- ---- -- ------ ------<br>--- ----- -- ----,120010.5700000131,120010.04000002285,119649.861,119658.71500002686,119663.341,120023.483,,35,matters
screen,html.Screen,2_1_0_1_36,2021-04-24T14:04:18.199Z,,,,,,,,,,,,,,,,,53,,,,,,,,,,,,,,402.4969999999885,,response,,,,99,,,,,,,Space,keypress(Space),,,,,,,,"---- -- ----- -- ------ - ------- --- ----------<br>------------- ------ ------ ---- ---- ------- ----- -- ----<br>-------- ------- -- ---------- --- - --- ----- ----- ----<br>---- --- --- ----- --- ---- ---- ------- most, ---- -------<br>--- --- -- ----- -- --- ---- -- --- ---- -- ------ ------<br>--- ----- -- ----",120426.52000000817,120425.97999999998,120010.014,120011.56000001356,120023.483,120436.985,,36,"most,"
screen,html.Screen,2_1_0_1_37,2021-04-24T14:04:18.568Z,,,,,,,,,,,,,,,,,53,,,,,,,,,,,,,,357.1250000170985,,response,,,,99,,,,,,,Space,keypress(Space),,,,,,,,---- -- ----- -- ------ - ------- --- ----------<br>------------- ------ ------ ---- ---- ------- ----- -- ----<br>-------- ------- -- ---------- --- - --- ----- ----- ----<br>---- --- --- ----- --- ---- ---- ------- ----- it's -------<br>--- --- -- ----- -- --- ---- -- --- ---- -- ------ ------<br>--- ----- -- ----,120794.67000000295,120794.1100000171,120423.461,120426.68000000413,120436.985,120797.104,,37,it's
screen,html.Screen,2_1_0_1_38,2021-04-24T14:04:18.991Z,,,,,,,,,,,,,,,,,53,,,,,,,,,,,,,,420.88600000464066,,response,,,,99,,,,,,,Space,keypress(Space),,,,,,,,---- -- ----- -- ------ - ------- --- ----------<br>------------- ------ ------ ---- ---- ------- ----- -- ----<br>-------- ------- -- ---------- --- - --- ----- ----- ----<br>---- --- --- ----- --- ---- ---- ------- ----- ---- whether<br>--- --- -- ----- -- --- ---- -- --- ---- -- ------ ------<br>--- ----- -- ----,121218.54000000167,121217.99000000465,120783.635,120794.83000002801,120797.104,121223.91,,38,whether
screen,html.Screen,2_1_0_1_39,2021-04-24T14:04:19.343Z,,,,,,,,,,,,,,,,,53,,,,,,,,,,,,,,346.02000002693967,,response,,,,99,,,,,,,Space,keypress(Space),,,,,,,,---- -- ----- -- ------ - ------- --- ----------<br>------------- ------ ------ ---- ---- ------- ----- -- ----<br>-------- ------- -- ---------- --- - --- ----- ----- ----<br>---- --- --- ----- --- ---- ---- ------- ----- ---- -------<br>you --- -- ----- -- --- ---- -- --- ---- -- ------ ------<br>--- ----- -- ----,121570.46000001719,121569.93000002694,121210.545,121218.70000002673,121223.91,121584.047,,39,you
screen,html.Screen,2_1_0_1_40,2021-04-24T14:04:19.640Z,,,,,,,,,,,,,,,,,53,,,,,,,,,,,,,,282.2080000008136,,response,,,,99,,,,,,,Space,keypress(Space),,,,,,,,---- -- ----- -- ------ - ------- --- ----------<br>------------- ------ ------ ---- ---- ------- ----- -- ----<br>-------- ------- -- ---------- --- - --- ----- ----- ----<br>---- --- --- ----- --- ---- ---- ------- ----- ---- -------<br>--- are -- ----- -- --- ---- -- --- ---- -- ------ ------<br>--- ----- -- ----,121866.79000000004,121866.25500000082,121570.576,121570.61500000418,121584.047,121877.495,,40,are
screen,html.Screen,2_1_0_1_41,2021-04-24T14:04:19.983Z,,,,,,,,,,,,,,,,,53,,,,,,,,,,,,,,332.47500002535526,,response,,,,99,,,,,,,Space,keypress(Space),,,,,,,,---- -- ----- -- ------ - ------- --- ----------<br>------------- ------ ------ ---- ---- ------- ----- -- ----<br>-------- ------- -- ---------- --- - --- ----- ----- ----<br>---- --- --- ----- --- ---- ---- ------- ----- ---- -------<br>--- --- as ----- -- --- ---- -- --- ---- -- ------ ------<br>--- ----- -- ----,122210.49500000663,122209.97000002535,121864.046,121866.95500000496,121877.495,122224.284,,41,as
screen,html.Screen,2_1_0_1_42,2021-04-24T14:04:20.311Z,,,,,,,,,,,,,,,,,53,,,,,,,,,,,,,,313.68600000486185,,response,,,,99,,,,,,,Space,keypress(Space),,,,,,,,---- -- ----- -- ------ - ------- --- ----------<br>------------- ------ ------ ---- ---- ------- ----- -- ----<br>-------- ------- -- ---------- --- - --- ----- ----- ----<br>---- --- --- ----- --- ---- ---- ------- ----- ---- -------<br>--- --- -- close -- --- ---- -- --- ---- -- ------ ------<br>--- ----- -- ----,122538.50500000408,122537.97000000486,122210.797,122210.65000002272,122224.284,122544.401,,42,close
screen,html.Screen,2_1_0_1_43,2021-04-24T14:04:20.647Z,,,,,,,,,,,,,,,,,53,,,,,,,,,,,,,,329.5490000083373,,response,,,,99,,,,,,,Space,keypress(Space),,,,,,,,---- -- ----- -- ------ - ------- --- ----------<br>------------- ------ ------ ---- ---- ------- ----- -- ----<br>-------- ------- -- ---------- --- - --- ----- ----- ----<br>---- --- --- ----- --- ---- ---- ------- ----- ---- -------<br>--- --- -- ----- as --- ---- -- --- ---- -- ------ ------<br>--- ----- -- ----,122874.48000002769,122873.95000000834,122530.925,122538.66000002017,122544.401,122877.861,,43,as
screen,html.Screen,2_1_0_1_44,2021-04-24T14:04:20.968Z,,,,,,,,,,,,,,,,,53,,,,,,,,,,,,,,316.1040000131179,,response,,,,99,,,,,,,Space,keypress(Space),,,,,,,,---- -- ----- -- ------ - ------- --- ----------<br>------------- ------ ------ ---- ---- ------- ----- -- ----<br>-------- ------- -- ---------- --- - --- ----- ----- ----<br>---- --- --- ----- --- ---- ---- ------- ----- ---- -------<br>--- --- -- ----- -- you ---- -- --- ---- -- ------ ------<br>--- ----- -- ----,123194.68000001507,123193.96500001312,122864.375,122874.64000002365,122877.861,123197.977,,44,you
screen,html.Screen,2_1_0_1_45,2021-04-24T14:04:21.296Z,,,,,,,,,,,,,,,,,53,,,,,,,,,,,,,,324.1530000266648,,response,,,,99,,,,,,,Space,keypress(Space),,,,,,,,---- -- ----- -- ------ - ------- --- ----------<br>------------- ------ ------ ---- ---- ------- ----- -- ----<br>-------- ------- -- ---------- --- - --- ----- ----- ----<br>---- --- --- ----- --- ---- ---- ------- ----- ---- -------<br>--- --- -- ----- -- --- want -- --- ---- -- ------ ------<br>--- ----- -- ----,123522.64500001911,123522.13000002666,123184.503,123194.8300000222,123197.977,123531.424,,45,want
screen,html.Screen,2_1_0_1_46,2021-04-24T14:04:21.623Z,,,,,,,,,,,,,,,,,53,,,,,,,,,,,,,,318.54600001021754,,response,,,,99,,,,,,,Space,keypress(Space),,,,,,,,---- -- ----- -- ------ - ------- --- ----------<br>------------- ------ ------ ---- ---- ------- ----- -- ----<br>-------- ------- -- ---------- --- - --- ----- ----- ----<br>---- --- --- ----- --- ---- ---- ------- ----- ---- -------<br>--- --- -- ----- -- --- ---- to --- ---- -- ------ ------<br>--- ----- -- ----,123850.5100000184,123849.97000001022,123517.967,123522.80500001507,123531.424,123870.345,,46,to
screen,html.Screen,2_1_0_1_47,2021-04-24T14:04:21.944Z,,,,,,,,,,,,,,,,,53,,,,,,,,,,,,,,299.775000024325,,response,,,,99,,,,,,,Space,keypress(Space),,,,,,,,"---- -- ----- -- ------ - ------- --- ----------<br>------------- ------ ------ ---- ---- ------- ----- -- ----<br>-------- ------- -- ---------- --- - --- ----- ----- ----<br>---- --- --- ----- --- ---- ---- ------- ----- ---- -------<br>--- --- -- ----- -- --- ---- -- be, ---- -- ------ ------<br>--- ----- -- ----",124170.65500002354,124170.12000002433,123838.098,123850.66500000539,123870.345,124193.763,,47,"be,"
screen,html.Screen,2_1_0_1_48,2021-04-24T14:04:22.287Z,,,,,,,,,,,,,,,,,53,,,,,,,,,,,,,,320.1720000244968,,response,,,,99,,,,,,,Space,keypress(Space),,,,,,,,---- -- ----- -- ------ - ------- --- ----------<br>------------- ------ ------ ---- ---- ------- ----- -- ----<br>-------- ------- -- ---------- --- - --- ----- ----- ----<br>---- --- --- ----- --- ---- ---- ------- ----- ---- -------<br>--- --- -- ----- -- --- ---- -- --- even -- ------ ------<br>--- ----- -- ----,124514.44500000798,124513.9350000245,124158.214,124170.8000000217,124193.763,124518.757,,48,even
screen,html.Screen,2_1_0_1_49,2021-04-24T14:04:22.656Z,,,,,,,,,,,,,,,,,53,,,,,,,,,,,,,,363.3680000037275,,response,,,,99,,,,,,,Space,keypress(Space),,,,,,,,---- -- ----- -- ------ - ------- --- ----------<br>------------- ------ ------ ---- ---- ------- ----- -- ----<br>-------- ------- -- ---------- --- - --- ----- ----- ----<br>---- --- --- ----- --- ---- ---- ------- ----- ---- -------<br>--- --- -- ----- -- --- ---- -- --- ---- if ------ ------<br>--- ----- -- ----,124882.68500001868,124882.12500000373,124505.019,124514.5950000151,124518.757,124891.944,,49,if
screen,html.Screen,2_1_0_1_50,2021-04-24T14:04:23.000Z,,,,,,,,,,,,,,,,,53,,,,,,,,,,,,,,334.17100002676307,,response,,,,99,,,,,,,Space,keypress(Space),,,,,,,,---- -- ----- -- ------ - ------- --- ----------<br>------------- ------ ------ ---- ---- ------- ----- -- ----<br>-------- ------- -- ---------- --- - --- ----- ----- ----<br>---- --- --- ----- --- ---- ---- ------- ----- ---- -------<br>--- --- -- ----- -- --- ---- -- --- ---- -- that's ------<br>--- ----- -- ----,125226.69500001939,125226.11500002677,124878.601,124882.8350000258,124891.944,125238.737,,50,that's
screen,html.Screen,2_1_0_1_51,2021-04-24T14:04:23.423Z,,,,,,,,,,,,,,,,,53,,,,,,,,,,,,,,411.23800000755,,response,,,,99,,,,,,,Space,keypress(Space),,,,,,,,---- -- ----- -- ------ - ------- --- ----------<br>------------- ------ ------ ---- ---- ------- ----- -- ----<br>-------- ------- -- ---------- --- - --- ----- ----- ----<br>---- --- --- ----- --- ---- ---- ------- ----- ---- -------<br>--- --- -- ----- -- --- ---- -- --- ---- -- ------ really<br>--- ----- -- ----,125650.51000000676,125649.97500000754,125225.227,125226.84000001755,125238.737,125652.207,,51,really
screen,html.Screen,2_1_0_1_52,2021-04-24T14:04:23.744Z,,,,,,,,,,,,,,,,,53,,,,,,,,,,,,,,317.95300002623117,,response,,,,99,,,,,,,Space,keypress(Space),,,,,,,,---- -- ----- -- ------ - ------- --- ----------<br>------------- ------ ------ ---- ---- ------- ----- -- ----<br>-------- ------- -- ---------- --- - --- ----- ----- ----<br>---- --- --- ----- --- ---- ---- ------- ----- ---- -------<br>--- --- -- ----- -- --- ---- -- --- ---- -- ------ ------<br>not ----- -- ----,125970.67500001867,125970.16000002623,125638.716,125650.66500002285,125652.207,125972.327,,52,not
screen,html.Screen,2_1_0_1_53,2021-04-24T14:04:24.071Z,,,,,,,,,,,,,,,,,53,,,,,,,,,,,,,,325.58300002296164,,response,,,,99,,,,,,,Space,keypress(Space),,,,,,,,---- -- ----- -- ------ - ------- --- ----------<br>------------- ------ ------ ---- ---- ------- ----- -- ----<br>-------- ------- -- ---------- --- - --- ----- ----- ----<br>---- --- --- ----- --- ---- ---- ------- ----- ---- -------<br>--- --- -- ----- -- --- ---- -- --- ---- -- ------ ------<br>--- close -- ----,126298.43000002438,126297.91000002297,125958.892,125970.83000000566,125972.327,126305.791,,53,close
screen,html.Screen,2_1_0_1_54,2021-04-24T14:04:24.391Z,,,,,,,,,,,,,,,,,53,,,,,,,,,,,,,,312.16900000322494,,response,,,,99,,,,,,,Space,keypress(Space),,,,,,,,---- -- ----- -- ------ - ------- --- ----------<br>------------- ------ ------ ---- ---- ------- ----- -- ----<br>-------- ------- -- ---------- --- - --- ----- ----- ----<br>---- --- --- ----- --- ---- ---- ------- ----- ---- -------<br>--- --- -- ----- -- --- ---- -- --- ---- -- ------ ------<br>--- ----- at ----,126618.48000000464,126617.96000000322,126292.304,126298.58500001137,126305.791,126625.91,,54,at
screen,html.Screen,2_1_0_1_55,2021-04-24T14:04:24.847Z,,,,,,,,,,,,,,,,,53,,,,,,,,,,,,,,448.07000001557753,,response,,,,99,,,,,,,Space,keypress(Space),,,,,,,,---- -- ----- -- ------ - ------- --- ----------<br>------------- ------ ------ ---- ---- ------- ----- -- ----<br>-------- ------- -- ---------- --- - --- ----- ----- ----<br>---- --- --- ----- --- ---- ---- ------- ----- ---- -------<br>--- --- -- ----- -- --- ---- -- --- ---- -- ------ ------<br>--- ----- -- all.,127074.4850000192,127073.98000001558,126612.583,126618.63000001176,126625.91,127079.394,,55,all.
Item 99,flow.Loop,2_1_0_1,2021-04-24T14:04:24.848Z,,,,,,,,,,,,,,,,,,,,,,,,,,,,,,,26924.397000015582,,completion,,,,,B,,,,,,,,,,,silence,,,,,127074.78500000434,127073.98000001558,100136.215,100140.16000000993,100149.583,127079.394,,,
Question 1,html.Screen,2_1_0_2,2021-04-24T14:04:31.648Z,,,,,,,,,,,,,,,,,,,,,,,,,,,,true,FALSE,,6795.241000014677,,response,,,,99,B,,,,,,FALSE,click #choice-2,,,,silence,,,,,133875.40500002797,133874.63500001468,127066.032,127075.10500002536,127079.394,133881.827,,,
Question 2,html.Screen,2_1_0_3,2021-04-24T14:04:36.761Z,,,,,,,,,,,,,,,,,,,,,,,,,,,,true,TRUE,,5105.508000012545,,response,,,,99,B,,,,,,TRUE,click #choice-1,,,,silence,,,,,138987.87000001175,138987.33500001254,133868.666,133875.4900000058,133881.827,138990.388,,,
Item 99,flow.Sequence,2_1_0,2021-04-24T14:04:36.761Z,,,,,,,,,,,,,,,,,,,,,,,,,,,,,,,48836.70300001254,,completion,,,,,,,,,,,,,,,,,,,,,138987.9850000143,138987.33500001254,90119.234,90132.75500002783,90150.632,138990.388,,,
Holding screen,html.Screen,2_1_1_0,2021-04-24T14:04:46.754Z,,,,,,,,,,,,,,,,,,,,,,,,,,,,,,,10003.660999999993,,timeout,,,,,,,,,,,,,,,,,,,,,148981.2850000162,148980.858,138976.99,138988.06000000332,138990.388,148994.049,,,
screen,html.Screen,2_1_1_1_0,2021-04-24T14:04:47.456Z,,,,,,,,,,,,,,,,,54,,,,,,,,,,,,,,688.166000008001,,response,,,,100,,,,,,,Space,keypress(Space),,,,,,,,At --- ---- --- ------ ----- ------- ---- -- --- ------- --<br>------- ---------- ------ -- ----- -- ----- -- ---- ------<br>--- ----- --- --- ------ -------- ----- --- ------ ----- --<br>----- ----- ---------- --- --- ------ ------ ---- -- ------<br>------- --- ------ ----- --- ---- ------- -- ---- --- --<br>------- ------,149682.76500000502,149682.215000008,148980.858,148981.4700000279,148994.049,149687.619,,0,At
screen,html.Screen,2_1_1_1_1,2021-04-24T14:04:47.855Z,,,,,,,,,,,,,,,,,54,,,,,,,,,,,,,,394.35100002837135,,response,,,,100,,,,,,,Space,keypress(Space),,,,,,,,-- the ---- --- ------ ----- ------- ---- -- --- ------- --<br>------- ---------- ------ -- ----- -- ----- -- ---- ------<br>--- ----- --- --- ------ -------- ----- --- ------ ----- --<br>----- ----- ---------- --- --- ------ ------ ---- -- ------<br>------- --- ------ ----- --- ---- ------- -- ---- --- --<br>------- ------,150082.44000002742,150081.97000002838,149674.046,149682.91500001214,149687.619,150087.759,,1,the
screen,html.Screen,2_1_1_1_2,2021-04-24T14:04:48.191Z,,,,,,,,,,,,,,,,,54,,,,,,,,,,,,,,330.1560000272875,,response,,,,100,,,,,,,Space,keypress(Space),,,,,,,,-- --- time --- ------ ----- ------- ---- -- --- ------- --<br>------- ---------- ------ -- ----- -- ----- -- ---- ------<br>--- ----- --- --- ------ -------- ----- --- ------ ----- --<br>----- ----- ---------- --- --- ------ ------ ---- -- ------<br>------- --- ------ ----- --- ---- ------- -- ---- --- --<br>------- ------,150418.405000004,150417.91500002728,150074.28,150082.58500002557,150087.759,150421.263,,2,time
screen,html.Screen,2_1_1_1_3,2021-04-24T14:04:48.559Z,,,,,,,,,,,,,,,,,54,,,,,,,,,,,,,,364.7920000041195,,response,,,,100,,,,,,,Space,keypress(Space),,,,,,,,-- --- ---- the ------ ----- ------- ---- -- --- ------- --<br>------- ---------- ------ -- ----- -- ----- -- ---- ------<br>--- ----- --- --- ------ -------- ----- --- ------ ----- --<br>----- ----- ---------- --- --- ------ ------ ---- -- ------<br>------- --- ------ ----- --- ---- ------- -- ---- --- --<br>------- ------,150786.60500000115,150786.05500000413,150407.745,150418.56499999994,150421.263,150794.717,,3,the
screen,html.Screen,2_1_1_1_4,2021-04-24T14:04:48.951Z,,,,,,,,,,,,,,,,,54,,,,,,,,,,,,,,383.1880000186502,,response,,,,100,,,,,,,Space,keypress(Space),,,,,,,,-- --- ---- --- French ----- ------- ---- -- --- ------- --<br>------- ---------- ------ -- ----- -- ----- -- ---- ------<br>--- ----- --- --- ------ -------- ----- --- ------ ----- --<br>----- ----- ---------- --- --- ------ ------ ---- -- ------<br>------- --- ------ ----- --- ---- ------- -- ---- --- --<br>------- ------,151178.4500000067,151177.90500001865,150781.211,150786.75500000827,150794.717,151181.508,,4,French
screen,html.Screen,2_1_1_1_5,2021-04-24T14:04:49.311Z,,,,,,,,,,,,,,,,,54,,,,,,,,,,,,,,356.34700000230805,,response,,,,100,,,,,,,Space,keypress(Space),,,,,,,,-- --- ---- --- ------ crown ------- ---- -- --- ------- --<br>------- ---------- ------ -- ----- -- ----- -- ---- ------<br>--- ----- --- --- ------ -------- ----- --- ------ ----- --<br>----- ----- ---------- --- --- ------ ------ ---- -- ------<br>------- --- ------ ----- --- ---- ------- -- ---- --- --<br>------- ------,151538.40500002843,151537.8550000023,151168.171,151178.590000025,151181.508,151541.65,,5,crown
screen,html.Screen,2_1_1_1_6,2021-04-24T14:04:49.983Z,,,,,,,,,,,,,,,,,54,,,,,,,,,,,,,,668.3250000052212,,response,,,,100,,,,,,,Space,keypress(Space),,,,,,,,-- --- ---- --- ------ ----- secured ---- -- --- ------- --<br>------- ---------- ------ -- ----- -- ----- -- ---- ------<br>--- ----- --- --- ------ -------- ----- --- ------ ----- --<br>----- ----- ---------- --- --- ------ ------ ---- -- ------<br>------- --- ------ ----- --- ---- ------- -- ---- --- --<br>------- ------,152210.52500000224,152209.97500000522,151528.194,151538.55500000645,151541.65,152222.054,,6,secured
screen,html.Screen,2_1_1_1_7,2021-04-24T14:04:50.631Z,,,,,,,,,,,,,,,,,54,,,,,,,,,,,,,,635.8360000138637,,response,,,,100,,,,,,,Space,keypress(Space),,,,,,,,-- --- ---- --- ------ ----- ------- much -- --- ------- --<br>------- ---------- ------ -- ----- -- ----- -- ---- ------<br>--- ----- --- --- ------ -------- ----- --- ------ ----- --<br>----- ----- ---------- --- --- ------ ------ ---- -- ------<br>------- --- ------ ----- --- ---- ------- -- ---- --- --<br>------- ------,152858.40000002645,152857.89000001387,152208.299,152210.6700000004,152222.054,152862.119,,7,much
screen,html.Screen,2_1_1_1_8,2021-04-24T14:04:51.039Z,,,,,,,,,,,,,,,,,54,,,,,,,,,,,,,,403.9410000235657,,response,,,,100,,,,,,,Space,keypress(Space),,,,,,,,-- --- ---- --- ------ ----- ------- ---- of --- ------- --<br>------- ---------- ------ -- ----- -- ----- -- ---- ------<br>--- ----- --- --- ------ -------- ----- --- ------ ----- --<br>----- ----- ---------- --- --- ------ ------ ---- -- ------<br>------- --- ------ ----- --- ---- ------- -- ---- --- --<br>------- ------,153266.580000025,153266.06000002357,152848.563,152858.55000000447,152862.119,153275.755,,8,of
screen,html.Screen,2_1_1_1_9,2021-04-24T14:04:51.456Z,,,,,,,,,,,,,,,,,54,,,,,,,,,,,,,,406.3100000008708,,response,,,,100,,,,,,,Space,keypress(Space),,,,,,,,-- --- ---- --- ------ ----- ------- ---- -- its ------- --<br>------- ---------- ------ -- ----- -- ----- -- ---- ------<br>--- ----- --- --- ------ -------- ----- --- ------ ----- --<br>----- ----- ---------- --- --- ------ ------ ---- -- ------<br>------- --- ------ ----- --- ---- ------- -- ---- --- --<br>------- ------,153682.65500001144,153682.06500000088,153262.092,153266.730000003,153275.755,153689.104,,9,its
screen,html.Screen,2_1_1_1_10,2021-04-24T14:04:51.919Z,,,,,,,,,,,,,,,,,54,,,,,,,,,,,,,,456.78600001434097,,response,,,,100,,,,,,,Space,keypress(Space),,,,,,,,-- --- ---- --- ------ ----- ------- ---- -- --- revenue --<br>------- ---------- ------ -- ----- -- ----- -- ---- ------<br>--- ----- --- --- ------ -------- ----- --- ------ ----- --<br>----- ----- ---------- --- --- ------ ------ ---- -- ------<br>------- --- ------ ----- --- ---- ------- -- ---- --- --<br>------- ------,154146.39000000898,154145.89000001433,153675.744,153682.80500001856,153689.104,154155.929,,10,revenue
screen,html.Screen,2_1_1_1_11,2021-04-24T14:04:52.351Z,,,,,,,,,,,,,,,,,54,,,,,,,,,,,,,,421.97100000386126,,response,,,,100,,,,,,,Space,keypress(Space),,,,,,,,-- --- ---- --- ------ ----- ------- ---- -- --- ------- by<br>------- ---------- ------ -- ----- -- ----- -- ---- ------<br>--- ----- --- --- ------ -------- ----- --- ------ ----- --<br>----- ----- ---------- --- --- ------ ------ ---- -- ------<br>------- --- ------ ----- --- ---- ------- -- ---- --- --<br>------- ------,154578.44500002102,154577.90000000386,154142.546,154146.54500002507,154155.929,154582.735,,11,by
screen,html.Screen,2_1_1_1_12,2021-04-24T14:04:52.759Z,,,,,,,,,,,,,,,,,54,,,,,,,,,,,,,,403.30000000901055,,response,,,,100,,,,,,,Space,keypress(Space),,,,,,,,-- --- ---- --- ------ ----- ------- ---- -- --- ------- --<br>issuing ---------- ------ -- ----- -- ----- -- ---- ------<br>--- ----- --- --- ------ -------- ----- --- ------ ----- --<br>----- ----- ---------- --- --- ------ ------ ---- -- ------<br>------- --- ------ ----- --- ---- ------- -- ---- --- --<br>------- ------,154986.61000002176,154986.035000009,154569.244,154578.600000008,154582.735,154996.247,,12,issuing
screen,html.Screen,2_1_1_1_13,2021-04-24T14:04:53.383Z,,,,,,,,,,,,,,,,,54,,,,,,,,,,,,,,613.5030000032566,,response,,,,100,,,,,,,Space,keypress(Space),,,,,,,,-- --- ---- --- ------ ----- ------- ---- -- --- ------- --<br>------- government ------ -- ----- -- ----- -- ---- ------<br>--- ----- --- --- ------ -------- ----- --- ------ ----- --<br>----- ----- ---------- --- --- ------ ------ ---- -- ------<br>------- --- ------ ----- --- ---- ------- -- ---- --- --<br>------- ------,155610.31000001822,155609.75000000326,154982.888,154986.76500000875,154996.247,155623.121,,13,government
screen,html.Screen,2_1_1_1_14,2021-04-24T14:04:54.671Z,,,,,,,,,,,,,,,,,54,,,,,,,,,,,,,,1274.894000013388,,response,,,,100,,,,,,,Space,keypress(Space),,,,,,,,-- --- ---- --- ------ ----- ------- ---- -- --- ------- --<br>------- ---------- bonds. -- ----- -- ----- -- ---- ------<br>--- ----- --- --- ------ -------- ----- --- ------ ----- --<br>----- ----- ---------- --- --- ------ ------ ---- -- ------<br>------- --- ------ ----- --- ---- ------- -- ---- --- --<br>------- ------,156898.57500002836,156898.0150000134,155609.713,155610.48500001198,155623.121,156903.603,,14,bonds.
screen,html.Screen,2_1_1_1_15,2021-04-24T14:04:55.119Z,,,,,,,,,,,,,,,,,54,,,,,,,,,,,,,,442.3870000016177,,response,,,,100,,,,,,,Space,keypress(Space),,,,,,,,-- --- ---- --- ------ ----- ------- ---- -- --- ------- --<br>------- ---------- ------ In ----- -- ----- -- ---- ------<br>--- ----- --- --- ------ -------- ----- --- ------ ----- --<br>----- ----- ---------- --- --- ------ ------ ---- -- ------<br>------- --- ------ ----- --- ---- ------- -- ---- --- --<br>------- ------,157346.5300000098,157345.99000000162,156889.739,156898.72500000638,156903.603,157357.089,,15,In
screen,html.Screen,2_1_1_1_16,2021-04-24T14:04:55.680Z,,,,,,,,,,,,,,,,,54,,,,,,,,,,,,,,549.2510000159091,,response,,,,100,,,,,,,Space,keypress(Space),,,,,,,,"-- --- ---- --- ------ ----- ------- ---- -- --- ------- --<br>------- ---------- ------ -- 1727, -- ----- -- ---- ------<br>--- ----- --- --- ------ -------- ----- --- ------ ----- --<br>----- ----- ---------- --- --- ------ ------ ---- -- ------<br>------- --- ------ ----- --- ---- ------- -- ---- --- --<br>------- ------",157906.87500001513,157906.34000001592,157343.61,157346.68000001693,157357.089,157917.297,,16,"1727,"
screen,html.Screen,2_1_1_1_17,2021-04-24T14:04:56.087Z,,,,,,,,,,,,,,,,,54,,,,,,,,,,,,,,396.6480000017036,,response,,,,100,,,,,,,Space,keypress(Space),,,,,,,,-- --- ---- --- ------ ----- ------- ---- -- --- ------- --<br>------- ---------- ------ -- ----- in ----- -- ---- ------<br>--- ----- --- --- ------ -------- ----- --- ------ ----- --<br>----- ----- ---------- --- --- ------ ------ ---- -- ------<br>------- --- ------ ----- --- ---- ------- -- ---- --- --<br>------- ------,158314.47500002105,158313.9450000017,157903.741,157907.02500002226,157917.297,158317.446,,17,in
screen,html.Screen,2_1_1_1_18,2021-04-24T14:04:56.463Z,,,,,,,,,,,,,,,,,54,,,,,,,,,,,,,,372.4389999997802,,response,,,,100,,,,,,,Space,keypress(Space),,,,,,,,-- --- ---- --- ------ ----- ------- ---- -- --- ------- --<br>------- ---------- ------ -- ----- -- order -- ---- ------<br>--- ----- --- --- ------ -------- ----- --- ------ ----- --<br>----- ----- ---------- --- --- ------ ------ ---- -- ------<br>------- --- ------ ----- --- ---- ------- -- ---- --- --<br>------- ------,158690.4650000215,158689.88499999978,158303.931,158314.64000002597,158317.446,158704.237,,18,order
screen,html.Screen,2_1_1_1_19,2021-04-24T14:04:56.791Z,,,,,,,,,,,,,,,,,54,,,,,,,,,,,,,,313.67800000400166,,response,,,,100,,,,,,,Space,keypress(Space),,,,,,,,-- --- ---- --- ------ ----- ------- ---- -- --- ------- --<br>------- ---------- ------ -- ----- -- ----- to ---- ------<br>--- ----- --- --- ------ -------- ----- --- ------ ----- --<br>----- ----- ---------- --- --- ------ ------ ---- -- ------<br>------- --- ------ ----- --- ---- ------- -- ---- --- --<br>------- ------,159018.4850000078,159017.915000004,158690.777,158690.61499999953,158704.237,159024.559,,19,to
screen,html.Screen,2_1_1_1_20,2021-04-24T14:04:57.151Z,,,,,,,,,,,,,,,,,54,,,,,,,,,,,,,,353.41100000136066,,response,,,,100,,,,,,,Space,keypress(Space),,,,,,,,-- --- ---- --- ------ ----- ------- ---- -- --- ------- --<br>------- ---------- ------ -- ----- -- ----- -- save ------<br>--- ----- --- --- ------ -------- ----- --- ------ ----- --<br>----- ----- ---------- --- --- ------ ------ ---- -- ------<br>------- --- ------ ----- --- ---- ------- -- ---- --- --<br>------- ------,159378.5200000275,159377.97000000137,159010.934,159018.64000002388,159024.559,159384.51,,20,save
screen,html.Screen,2_1_1_1_21,2021-04-24T14:04:57.632Z,,,,,,,,,,,,,,,,,54,,,,,,,,,,,,,,473.98500002222136,,response,,,,100,,,,,,,Space,keypress(Space),,,,,,,,"-- --- ---- --- ------ ----- ------- ---- -- --- ------- --<br>------- ---------- ------ -- ----- -- ----- -- ---- money,<br>--- ----- --- --- ------ -------- ----- --- ------ ----- --<br>----- ----- ---------- --- --- ------ ------ ---- -- ------<br>------- --- ------ ----- --- ---- ------- -- ---- --- --<br>------- ------",159859.05000002822,159858.49500002223,159371.045,159378.63000002108,159384.51,159864.677,,21,"money,"
screen,html.Screen,2_1_1_1_22,2021-04-24T14:04:58.063Z,,,,,,,,,,,,,,,,,54,,,,,,,,,,,,,,425.2530000281113,,response,,,,100,,,,,,,Space,keypress(Space),,,,,,,,-- --- ---- --- ------ ----- ------- ---- -- --- ------- --<br>------- ---------- ------ -- ----- -- ----- -- ---- ------<br>the ----- --- --- ------ -------- ----- --- ------ ----- --<br>----- ----- ---------- --- --- ------ ------ ---- -- ------<br>------- --- ------ ----- --- ---- ------- -- ---- --- --<br>------- ------,160290.44500002055,160289.9300000281,159851.139,159859.19500002638,159864.677,160307.73,,22,the
screen,html.Screen,2_1_1_1_23,2021-04-24T14:04:58.391Z,,,,,,,,,,,,,,,,,54,,,,,,,,,,,,,,310.1700000120036,,response,,,,100,,,,,,,Space,keypress(Space),,,,,,,,-- --- ---- --- ------ ----- ------- ---- -- --- ------- --<br>------- ---------- ------ -- ----- -- ----- -- ---- ------<br>--- state --- --- ------ -------- ----- --- ------ ----- --<br>----- ----- ---------- --- --- ------ ------ ---- -- ------<br>------- --- ------ ----- --- ---- ------- -- ---- --- --<br>------- ------,160618.45000000903,160617.900000012,160278.156,160290.60000000754,160307.73,160624.967,,23,state
screen,html.Screen,2_1_1_1_24,2021-04-24T14:04:58.711Z,,,,,,,,,,,,,,,,,54,,,,,,,,,,,,,,312.898000014422,,response,,,,100,,,,,,,Space,keypress(Space),,,,,,,,-- --- ---- --- ------ ----- ------- ---- -- --- ------- --<br>------- ---------- ------ -- ----- -- ----- -- ---- ------<br>--- ----- cut --- ------ -------- ----- --- ------ ----- --<br>----- ----- ---------- --- --- ------ ------ ---- -- ------<br>------- --- ------ ----- --- ---- ------- -- ---- --- --<br>------- ------,160938.37000001804,160937.86500001443,160611.657,160618.60500002513,160624.967,160945.061,,24,cut
screen,html.Screen,2_1_1_1_25,2021-04-24T14:04:59.087Z,,,,,,,,,,,,,,,,,54,,,,,,,,,,,,,,368.78900000592694,,response,,,,100,,,,,,,Space,keypress(Space),,,,,,,,-- --- ---- --- ------ ----- ------- ---- -- --- ------- --<br>------- ---------- ------ -- ----- -- ----- -- ---- ------<br>--- ----- --- the ------ -------- ----- --- ------ ----- --<br>----- ----- ---------- --- --- ------ ------ ---- -- ------<br>------- --- ------ ----- --- ---- ------- -- ---- --- --<br>------- ------,161314.38500000513,161313.8500000059,160931.761,160938.52500000503,160945.061,161318.511,,25,the
screen,html.Screen,2_1_1_1_26,2021-04-24T14:04:59.463Z,,,,,,,,,,,,,,,,,54,,,,,,,,,,,,,,371.3390000243089,,response,,,,100,,,,,,,Space,keypress(Space),,,,,,,,-- --- ---- --- ------ ----- ------- ---- -- --- ------- --<br>------- ---------- ------ -- ----- -- ----- -- ---- ------<br>--- ----- --- --- bonds' -------- ----- --- ------ ----- --<br>----- ----- ---------- --- --- ------ ------ ---- -- ------<br>------- --- ------ ----- --- ---- ------- -- ---- --- --<br>------- ------,161690.43000001693,161689.8500000243,161305.053,161314.5300000033,161318.511,161692.019,,26,bonds'
screen,html.Screen,2_1_1_1_27,2021-04-24T14:04:59.895Z,,,,,,,,,,,,,,,,,54,,,,,,,,,,,,,,429.84600002280786,,response,,,,100,,,,,,,Space,keypress(Space),,,,,,,,-- --- ---- --- ------ ----- ------- ---- -- --- ------- --<br>------- ---------- ------ -- ----- -- ----- -- ---- ------<br>--- ----- --- --- ------ interest ----- --- ------ ----- --<br>----- ----- ---------- --- --- ------ ------ ---- -- ------<br>------- --- ------ ----- --- ---- ------- -- ---- --- --<br>------- ------,162122.4050000019,162121.8650000228,161678.509,161690.57000000612,161692.019,162132.16,,27,interest
screen,html.Screen,2_1_1_1_28,2021-04-24T14:05:00.391Z,,,,,,,,,,,,,,,,,54,,,,,,,,,,,,,,485.7100000164064,,response,,,,100,,,,,,,Space,keypress(Space),,,,,,,,-- --- ---- --- ------ ----- ------- ---- -- --- ------- --<br>------- ---------- ------ -- ----- -- ----- -- ---- ------<br>--- ----- --- --- ------ -------- rate. --- ------ ----- --<br>----- ----- ---------- --- --- ------ ------ ---- -- ------<br>------- --- ------ ----- --- ---- ------- -- ---- --- --<br>------- ------,162618.38500000886,162617.8700000164,162118.667,162122.56500002695,162132.16,162625.663,,28,rate.
screen,html.Screen,2_1_1_1_29,2021-04-24T14:05:00.935Z,,,,,,,,,,,,,,,,,54,,,,,,,,,,,,,,536.2920000177692,,response,,,,100,,,,,,,Space,keypress(Space),,,,,,,,-- --- ---- --- ------ ----- ------- ---- -- --- ------- --<br>------- ---------- ------ -- ----- -- ----- -- ---- ------<br>--- ----- --- --- ------ -------- ----- The ------ ----- --<br>----- ----- ---------- --- --- ------ ------ ---- -- ------<br>------- --- ------ ----- --- ---- ------- -- ---- --- --<br>------- ------,163162.48500000802,163161.95500001777,162612.13,162618.54000002495,162625.663,163172.561,,29,The
screen,html.Screen,2_1_1_1_30,2021-04-24T14:05:01.271Z,,,,,,,,,,,,,,,,,54,,,,,,,,,,,,,,325.3040000121109,,response,,,,100,,,,,,,Space,keypress(Space),,,,,,,,-- --- ---- --- ------ ----- ------- ---- -- --- ------- --<br>------- ---------- ------ -- ----- -- ----- -- ---- ------<br>--- ----- --- --- ------ -------- ----- --- market ----- --<br>----- ----- ---------- --- --- ------ ------ ---- -- ------<br>------- --- ------ ----- --- ---- ------- -- ---- --- --<br>------- ------,163498.41500000912,163497.8650000121,163158.985,163162.6400000241,163172.561,163506.005,,30,market
screen,html.Screen,2_1_1_1_31,2021-04-24T14:05:01.615Z,,,,,,,,,,,,,,,,,54,,,,,,,,,,,,,,335.9700000175508,,response,,,,100,,,,,,,Space,keypress(Space),,,,,,,,-- --- ---- --- ------ ----- ------- ---- -- --- ------- --<br>------- ---------- ------ -- ----- -- ----- -- ---- ------<br>--- ----- --- --- ------ -------- ----- --- ------ value --<br>----- ----- ---------- --- --- ------ ------ ---- -- ------<br>------- --- ------ ----- --- ---- ------- -- ---- --- --<br>------- ------,163842.5350000034,163841.97500001756,163492.559,163498.56500001624,163506.005,163852.946,,31,value
screen,html.Screen,2_1_1_1_32,2021-04-24T14:05:02.023Z,,,,,,,,,,,,,,,,,54,,,,,,,,,,,,,,396.90900000184774,,response,,,,100,,,,,,,Space,keypress(Space),,,,,,,,-- --- ---- --- ------ ----- ------- ---- -- --- ------- --<br>------- ---------- ------ -- ----- -- ----- -- ---- ------<br>--- ----- --- --- ------ -------- ----- --- ------ ----- of<br>----- ----- ---------- --- --- ------ ------ ---- -- ------<br>------- --- ------ ----- --- ---- ------- -- ---- --- --<br>------- ------,164250.400000019,164249.85500000184,163839.309,163842.6900000195,163852.946,164252.941,,32,of
screen,html.Screen,2_1_1_1_33,2021-04-24T14:05:02.359Z,,,,,,,,,,,,,,,,,54,,,,,,,,,,,,,,333.0890000058571,,response,,,,100,,,,,,,Space,keypress(Space),,,,,,,,-- --- ---- --- ------ ----- ------- ---- -- --- ------- --<br>------- ---------- ------ -- ----- -- ----- -- ---- ------<br>--- ----- --- --- ------ -------- ----- --- ------ ----- --<br>these ----- ---------- --- --- ------ ------ ---- -- ------<br>------- --- ------ ----- --- ---- ------- -- ---- --- --<br>------- ------,164586.60000000964,164586.03000000585,164239.455,164250.55000002612,164252.941,164599.908,,33,these
screen,html.Screen,2_1_1_1_34,2021-04-24T14:05:03.039Z,,,,,,,,,,,,,,,,,54,,,,,,,,,,,,,,666.0720000255969,,response,,,,100,,,,,,,Space,keypress(Space),,,,,,,,-- --- ---- --- ------ ----- ------- ---- -- --- ------- --<br>------- ---------- ------ -- ----- -- ----- -- ---- ------<br>--- ----- --- --- ------ -------- ----- --- ------ ----- --<br>----- bonds ---------- --- --- ------ ------ ---- -- ------<br>------- --- ------ ----- --- ---- ------- -- ---- --- --<br>------- ------,165266.53500000248,165265.9800000256,164586.287,164586.75000001676,164599.908,165279.999,,34,bonds
screen,html.Screen,2_1_1_1_35,2021-04-24T14:05:03.439Z,,,,,,,,,,,,,,,,,54,,,,,,,,,,,,,,385.98100001976127,,response,,,,100,,,,,,,Space,keypress(Space),,,,,,,,"-- --- ---- --- ------ ----- ------- ---- -- --- ------- --<br>------- ---------- ------ -- ----- -- ----- -- ---- ------<br>--- ----- --- --- ------ -------- ----- --- ------ ----- --<br>----- ----- plummeted, --- --- ------ ------ ---- -- ------<br>------- --- ------ ----- --- ---- ------- -- ---- --- --<br>------- ------",165666.50500000105,165665.98000001977,165266.381,165266.69500002754,165279.999,165680.147,,35,"plummeted,"
screen,html.Screen,2_1_1_1_36,2021-04-24T14:05:03.887Z,,,,,,,,,,,,,,,,,54,,,,,,,,,,,,,,433.6930000054417,,response,,,,100,,,,,,,Space,keypress(Space),,,,,,,,-- --- ---- --- ------ ----- ------- ---- -- --- ------- --<br>------- ---------- ------ -- ----- -- ----- -- ---- ------<br>--- ----- --- --- ------ -------- ----- --- ------ ----- --<br>----- ----- ---------- and --- ------ ------ ---- -- ------<br>------- --- ------ ----- --- ---- ------- -- ---- --- --<br>------- ------,166114.4000000204,166113.84000000544,165666.618,165666.66000001715,165680.147,166120.307,,36,and
screen,html.Screen,2_1_1_1_37,2021-04-24T14:05:04.191Z,,,,,,,,,,,,,,,,,54,,,,,,,,,,,,,,297.55300001593423,,response,,,,100,,,,,,,Space,keypress(Space),,,,,,,,-- --- ---- --- ------ ----- ------- ---- -- --- ------- --<br>------- ---------- ------ -- ----- -- ----- -- ---- ------<br>--- ----- --- --- ------ -------- ----- --- ------ ----- --<br>----- ----- ---------- --- the ------ ------ ---- -- ------<br>------- --- ------ ----- --- ---- ------- -- ---- --- --<br>------- ------,166418.38000001735,166417.86000001593,166106.76,166114.55500000739,166120.307,166427.054,,37,the
screen,html.Screen,2_1_1_1_38,2021-04-24T14:05:04.471Z,,,,,,,,,,,,,,,,,54,,,,,,,,,,,,,,270.80600001476705,,response,,,,100,,,,,,,Space,keypress(Space),,,,,,,,-- --- ---- --- ------ ----- ------- ---- -- --- ------- --<br>------- ---------- ------ -- ----- -- ----- -- ---- ------<br>--- ----- --- --- ------ -------- ----- --- ------ ----- --<br>----- ----- ---------- --- --- market ------ ---- -- ------<br>------- --- ------ ----- --- ---- ------- -- ---- --- --<br>------- ------,166698.37000002735,166697.86000001477,166413.612,166418.53000002448,166427.054,166707.158,,38,market
screen,html.Screen,2_1_1_1_39,2021-04-24T14:05:04.775Z,,,,,,,,,,,,,,,,,54,,,,,,,,,,,,,,294.64700000715675,,response,,,,100,,,,,,,Space,keypress(Space),,,,,,,,-- --- ---- --- ------ ----- ------- ---- -- --- ------- --<br>------- ---------- ------ -- ----- -- ----- -- ---- ------<br>--- ----- --- --- ------ -------- ----- --- ------ ----- --<br>----- ----- ---------- --- --- ------ became ---- -- ------<br>------- --- ------ ----- --- ---- ------- -- ---- --- --<br>------- ------,167002.18500001938,167001.80500000715,166693.721,166698.52000000537,166707.158,167013.964,,39,became
screen,html.Screen,2_1_1_1_40,2021-04-24T14:05:05.231Z,,,,,,,,,,,,,,,,,54,,,,,,,,,,,,,,443.9360000085144,,response,,,,100,,,,,,,Space,keypress(Space),,,,,,,,-- --- ---- --- ------ ----- ------- ---- -- --- ------- --<br>------- ---------- ------ -- ----- -- ----- -- ---- ------<br>--- ----- --- --- ------ -------- ----- --- ------ ----- --<br>----- ----- ---------- --- --- ------ ------ wary -- ------<br>------- --- ------ ----- --- ---- ------- -- ---- --- --<br>------- ------,167458.4100000211,167457.90000000852,167000.492,167002.26500001736,167013.964,167467.431,,40,wary
screen,html.Screen,2_1_1_1_41,2021-04-24T14:05:05.559Z,,,,,,,,,,,,,,,,,54,,,,,,,,,,,,,,318.6140000152809,,response,,,,100,,,,,,,Space,keypress(Space),,,,,,,,-- --- ---- --- ------ ----- ------- ---- -- --- ------- --<br>------- ---------- ------ -- ----- -- ----- -- ---- ------<br>--- ----- --- --- ------ -------- ----- --- ------ ----- --<br>----- ----- ---------- --- --- ------ ------ ---- of ------<br>------- --- ------ ----- --- ---- ------- -- ---- --- --<br>------- ------,167786.65000002366,167786.0450000153,167454.091,167458.5650000081,167467.431,167807.512,,41,of
screen,html.Screen,2_1_1_1_42,2021-04-24T14:05:05.903Z,,,,,,,,,,,,,,,,,54,,,,,,,,,,,,,,322.4030000268249,,response,,,,100,,,,,,,Space,keypress(Space),,,,,,,,-- --- ---- --- ------ ----- ------- ---- -- --- ------- --<br>------- ---------- ------ -- ----- -- ----- -- ---- ------<br>--- ----- --- --- ------ -------- ----- --- ------ ----- --<br>----- ----- ---------- --- --- ------ ------ ---- -- French<br>------- --- ------ ----- --- ---- ------- -- ---- --- --<br>------- ------,168130.48000002163,168129.9150000268,167774.092,167786.7950000218,167807.512,168134.38,,42,French
screen,html.Screen,2_1_1_1_43,2021-04-24T14:05:06.263Z,,,,,,,,,,,,,,,,,54,,,,,,,,,,,,,,355.49000001943205,,response,,,,100,,,,,,,Space,keypress(Space),,,,,,,,-- --- ---- --- ------ ----- ------- ---- -- --- ------- --<br>------- ---------- ------ -- ----- -- ----- -- ---- ------<br>--- ----- --- --- ------ -------- ----- --- ------ ----- --<br>----- ----- ---------- --- --- ------ ------ ---- -- ------<br>credit. --- ------ ----- --- ---- ------- -- ---- --- --<br>------- ------,168490.38000000292,168489.87000001944,168120.897,168130.62999999966,168134.38,168494.503,,43,credit.
screen,html.Screen,2_1_1_1_44,2021-04-24T14:05:06.647Z,,,,,,,,,,,,,,,,,54,,,,,,,,,,,,,,379.35200001255726,,response,,,,100,,,,,,,Space,keypress(Space),,,,,,,,-- --- ---- --- ------ ----- ------- ---- -- --- ------- --<br>------- ---------- ------ -- ----- -- ----- -- ---- ------<br>--- ----- --- --- ------ -------- ----- --- ------ ----- --<br>----- ----- ---------- --- --- ------ ------ ---- -- ------<br>------- The ------ ----- --- ---- ------- -- ---- --- --<br>------- ------,168874.39500002074,168873.85500001255,168480.99,168490.535000019,168494.503,168881.288,,44,The
screen,html.Screen,2_1_1_1_45,2021-04-24T14:05:06.999Z,,,,,,,,,,,,,,,,,54,,,,,,,,,,,,,,344.5970000216621,,response,,,,100,,,,,,,Space,keypress(Space),,,,,,,,-- --- ---- --- ------ ----- ------- ---- -- --- ------- --<br>------- ---------- ------ -- ----- -- ----- -- ---- ------<br>--- ----- --- --- ------ -------- ----- --- ------ ----- --<br>----- ----- ---------- --- --- ------ ------ ---- -- ------<br>------- --- French ----- --- ---- ------- -- ---- --- --<br>------- ------,169226.42000002088,169225.88500002166,168867.837,168874.55000000773,168881.288,169228.103,,45,French
screen,html.Screen,2_1_1_1_46,2021-04-24T14:05:07.351Z,,,,,,,,,,,,,,,,,54,,,,,,,,,,,,,,349.7570000194246,,response,,,,100,,,,,,,Space,keypress(Space),,,,,,,,-- --- ---- --- ------ ----- ------- ---- -- --- ------- --<br>------- ---------- ------ -- ----- -- ----- -- ---- ------<br>--- ----- --- --- ------ -------- ----- --- ------ ----- --<br>----- ----- ---------- --- --- ------ ------ ---- -- ------<br>------- --- ------ state --- ---- ------- -- ---- --- --<br>------- ------,169578.3700000029,169577.86000001943,169214.595,169226.570000028,169228.103,169588.205,,46,state
screen,html.Screen,2_1_1_1_47,2021-04-24T14:05:07.687Z,,,,,,,,,,,,,,,,,54,,,,,,,,,,,,,,326.05000001061126,,response,,,,100,,,,,,,Space,keypress(Space),,,,,,,,-- --- ---- --- ------ ----- ------- ---- -- --- ------- --<br>------- ---------- ------ -- ----- -- ----- -- ---- ------<br>--- ----- --- --- ------ -------- ----- --- ------ ----- --<br>----- ----- ---------- --- --- ------ ------ ---- -- ------<br>------- --- ------ ----- was ---- ------- -- ---- --- --<br>------- ------,169914.79000000982,169914.2550000106,169574.737,169578.525000019,169588.205,169921.66,,47,was
screen,html.Screen,2_1_1_1_48,2021-04-24T14:05:08.039Z,,,,,,,,,,,,,,,,,54,,,,,,,,,,,,,,344.2050000230374,,response,,,,100,,,,,,,Space,keypress(Space),,,,,,,,-- --- ---- --- ------ ----- ------- ---- -- --- ------- --<br>------- ---------- ------ -- ----- -- ----- -- ---- ------<br>--- ----- --- --- ------ -------- ----- --- ------ ----- --<br>----- ----- ---------- --- --- ------ ------ ---- -- ------<br>------- --- ------ ----- --- left ------- -- ---- --- --<br>------- ------,170266.43500002683,170265.86500002304,169908.194,169914.95000000577,169921.66,170268.464,,48,left
screen,html.Screen,2_1_1_1_49,2021-04-24T14:05:08.367Z,,,,,,,,,,,,,,,,,54,,,,,,,,,,,,,,325.35600000913837,,response,,,,100,,,,,,,Space,keypress(Space),,,,,,,,-- --- ---- --- ------ ----- ------- ---- -- --- ------- --<br>------- ---------- ------ -- ----- -- ----- -- ---- ------<br>--- ----- --- --- ------ -------- ----- --- ------ ----- --<br>----- ----- ---------- --- --- ------ ------ ---- -- ------<br>------- --- ------ ----- --- ---- without -- ---- --- --<br>------- ------,170594.34500001953,170593.82000000915,170255.009,170266.59000001382,170268.464,170601.918,,49,without
screen,html.Screen,2_1_1_1_50,2021-04-24T14:05:08.695Z,,,,,,,,,,,,,,,,,54,,,,,,,,,,,,,,319.9569999999949,,response,,,,100,,,,,,,Space,keypress(Space),,,,,,,,-- --- ---- --- ------ ----- ------- ---- -- --- ------- --<br>------- ---------- ------ -- ----- -- ----- -- ---- ------<br>--- ----- --- --- ------ -------- ----- --- ------ ----- --<br>----- ----- ---------- --- --- ------ ------ ---- -- ------<br>------- --- ------ ----- --- ---- ------- an ---- --- --<br>------- ------,170922.40000001038,170921.875,170588.444,170594.5050000155,170601.918,170935.37,,50,an
screen,html.Screen,2_1_1_1_51,2021-04-24T14:05:09.023Z,,,,,,,,,,,,,,,,,54,,,,,,,,,,,,,,314.4650000241818,,response,,,,100,,,,,,,Space,keypress(Space),,,,,,,,-- --- ---- --- ------ ----- ------- ---- -- --- ------- --<br>------- ---------- ------ -- ----- -- ----- -- ---- ------<br>--- ----- --- --- ------ -------- ----- --- ------ ----- --<br>----- ----- ---------- --- --- ------ ------ ---- -- ------<br>------- --- ------ ----- --- ---- ------- -- easy --- --<br>------- ------,171250.38000001223,171249.83500002418,170921.927,170922.5650000153,170935.37,171255.476,,51,easy
screen,html.Screen,2_1_1_1_52,2021-04-24T14:05:09.279Z,,,,,,,,,,,,,,,,,54,,,,,,,,,,,,,,250.38900001373258,,response,,,,100,,,,,,,Space,keypress(Space),,,,,,,,-- --- ---- --- ------ ----- ------- ---- -- --- ------- --<br>------- ---------- ------ -- ----- -- ----- -- ---- ------<br>--- ----- --- --- ------ -------- ----- --- ------ ----- --<br>----- ----- ---------- --- --- ------ ------ ---- -- ------<br>------- --- ------ ----- --- ---- ------- -- ---- way --<br>------- ------,171506.43000000855,171505.86500001373,171242.01,171250.5400000082,171255.476,171508.931,,52,way
screen,html.Screen,2_1_1_1_53,2021-04-24T14:05:09.615Z,,,,,,,,,,,,,,,,,54,,,,,,,,,,,,,,332.9090000082215,,response,,,,100,,,,,,,Space,keypress(Space),,,,,,,,-- --- ---- --- ------ ----- ------- ---- -- --- ------- --<br>------- ---------- ------ -- ----- -- ----- -- ---- ------<br>--- ----- --- --- ------ -------- ----- --- ------ ----- --<br>----- ----- ---------- --- --- ------ ------ ---- -- ------<br>------- --- ------ ----- --- ---- ------- -- ---- --- of<br>------- ------,171842.38000001642,171841.84000000823,171495.46,171506.58000001567,171508.931,171855.681,,53,of
screen,html.Screen,2_1_1_1_54,2021-04-24T14:05:09.959Z,,,,,,,,,,,,,,,,,54,,,,,,,,,,,,,,330.1490000021586,,response,,,,100,,,,,,,Space,keypress(Space),,,,,,,,-- --- ---- --- ------ ----- ------- ---- -- --- ------- --<br>------- ---------- ------ -- ----- -- ----- -- ---- ------<br>--- ----- --- --- ------ -------- ----- --- ------ ----- --<br>----- ----- ---------- --- --- ------ ------ ---- -- ------<br>------- --- ------ ----- --- ---- ------- -- ---- --- --<br>raising ------,172186.37000001036,172185.83000000217,171842.222,171842.5350000034,171855.681,172189.187,,54,raising
screen,html.Screen,2_1_1_1_55,2021-04-24T14:05:10.343Z,,,,,,,,,,,,,,,,,54,,,,,,,,,,,,,,380.80800002711476,,response,,,,100,,,,,,,Space,keypress(Space),,,,,,,,-- --- ---- --- ------ ----- ------- ---- -- --- ------- --<br>------- ---------- ------ -- ----- -- ----- -- ---- ------<br>--- ----- --- --- ------ -------- ----- --- ------ ----- --<br>----- ----- ---------- --- --- ------ ------ ---- -- ------<br>------- --- ------ ----- --- ---- ------- -- ---- --- --<br>------- money.,172570.5799999996,172569.99500002712,172175.707,172186.5300000063,172189.187,172575.999,,55,money.
Item 100,flow.Loop,2_1_1_1,2021-04-24T14:05:10.343Z,,,,,,,,,,,,,,,,,,,,,,,,,,,,,,,23575.94600002712,,completion,,,,,B,,,,,,,,,,,silence,,,,,172570.83000001148,172569.99500002712,148980.858,148981.4250000054,148994.049,172575.999,,,
Question 1,html.Screen,2_1_1_2,2021-04-24T14:05:14.869Z,,,,,,,,,,,,,,,,,,,,,,,,,,,,false,TRUE,,4519.471000000194,,response,,,,100,B,,,,,,FALSE,click #choice-2,,,,silence,,,,,177095.98500002176,177095.4700000002,172562.476,172570.96000001184,172575.999,177097.597,,,
Question 2,html.Screen,2_1_1_3,2021-04-24T14:05:17.470Z,,,,,,,,,,,,,,,,,,,,,,,,,,,,true,FALSE,,2598.9030000200146,,response,,,,100,B,,,,,,FALSE,click #choice-2,,,,silence,,,,,179696.98500001687,179696.50000002002,177084.268,177096.07500000857,177097.597,179698.513,,,
Item 100,flow.Sequence,2_1_1,2021-04-24T14:05:17.470Z,,,,,,,,,,,,,,,,,,,,,,,,,,,,,,,40706.11200002002,,completion,,,,,,,,,,,,,,,,,,,,,179697.1050000284,179696.50000002002,138976.99,138988.03500001668,138990.388,179698.513,,,
End of Practice,html.Page,2_1_2,2021-04-24T14:05:21.819Z,,,,,,,,,,,,,,,,,,,,,,,,,,,,,,,4347.68200000262,,form submission,,,,,,,,,,,,,,,,,,,,,184046.38000001432,184046.19500000263,179685.215,179697.16000001063,179698.513,184070.939,,,
Practice,flow.Sequence,2_1,2021-04-24T14:05:21.819Z,,,,,,,,,,,,,,,,,,,,,,,,,,,,,,,93895.56300000263,,completion,,,,,,,,,,,,,,,,,,,,,184046.48500002804,184046.19500000263,90119.234,90132.72500000312,90150.632,184070.939,,,
Trap_instruction,html.Page,2_2_0,2021-04-24T14:05:27.026Z,,,,,,,,,,,,,,,,,,,,,,,,,,,,,,,5182.016000003554,,form submission,,,,,,,,,,,,,,,,,,,,,189253.11000001966,189252.95500000357,184033.433,184046.56000001705,184070.939,189262.037,,,
trap_trial,html.Screen,2_2_1,2021-04-24T14:05:30.238Z,,,,,,,,,,,,,,,,,,,,,,,,,,,,true,1,,3203.402999999933,,response,,,,,,,,,,,1,click #choice-1,,,,,,,,,192465.93000000576,192465.43999999994,189248.669,189253.18500000867,189262.037,192476.529,,,
end of trap trial,html.Page,2_2_2,2021-04-24T14:05:32.119Z,,,,,,,,,,,,,,,,,,,,,,,,,,,,,,,1869.7610000158602,,form submission,,,,,,,,,,,,,,,,,,,,,194346.4550000208,194346.29000001587,192463.181,192466.02000002167,192476.529,194357.204,,,
Trap 1,flow.Sequence,2_2,2021-04-24T14:05:32.119Z,,,,,,,,,,,,,,,,,,,,,,,,,,,,,,,10275.351000015857,,completion,,,,,,,,,,,,,,,,,,,,,194346.55500002555,194346.29000001587,184033.433,184046.54000001028,184070.939,194357.204,,,
Standby,html.Page,2_3_0,2021-04-24T14:05:40.120Z,,,,,,,,,,,,,,,,,,,,,,,,,,,,,,,8002.939000000013,,timeout,,,,,,,,,,,,,,,,,,,,,202347.54000001703,202347.044,194343.876,194346.6250000056,194357.204,202360.143,,,
Holding screen,html.Screen,2_3_1_0_0,2021-04-24T14:05:47.122Z,,,,,,,,,,,,,,,,,,,,,,,,,,,,,,,7002.551999999996,,timeout,,,,,,,,,,,,,,,,,,,,,209349.84000000986,209349.367,202347.044,202347.775000002,202360.143,209362.695,,,
screen,html.Screen,2_3_1_0_1_0,2021-04-24T14:05:48.135Z,,,,,,,,,,,,,,,,,48,,,,,,,,,,,,,,999.3650000140187,,response,,,,10,B,,,,,,Space,keypress(Space),,,,lyrical,,,,As -- --- ------ ------- --------- ----------- --------<br>--------- -------- --- ------- -- ------- ---- -- ------<br>-- --- -------- -------- ---------- ---- ---- ---- ------<br>-- --------- -- ---- -- --- -- --- ------- -- - -----<br>---------- -- -- -- ---- ----- -- ------ -- --- ------<br>-------,210362.70000002696,210362.06000001403,209349.367,209350.05500001716,209362.695,210381.331,,0,As
screen,html.Screen,2_3_1_0_1_1,2021-04-24T14:05:48.495Z,,,,,,,,,,,,,,,,,48,,,,,,,,,,,,,,340.49400001508184,,response,,,,10,B,,,,,,Space,keypress(Space),,,,lyrical,,,,-- in --- ------ ------- --------- ----------- --------<br>--------- -------- --- ------- -- ------- ---- -- ------<br>-- --- -------- -------- ---------- ---- ---- ---- ------<br>-- --------- -- ---- -- --- -- --- ------- -- - -----<br>---------- -- -- -- ---- ----- -- ------ -- --- ------<br>-------,210722.40000002785,210721.8250000151,210349.359,210362.8800000006,210381.331,210740.565,,1,in
screen,html.Screen,2_3_1_0_1_2,2021-04-24T14:05:48.855Z,,,,,,,,,,,,,,,,,48,,,,,,,,,,,,,,341.2250000256463,,response,,,,10,B,,,,,,Space,keypress(Space),,,,lyrical,,,,-- -- the ------ ------- --------- ----------- --------<br>--------- -------- --- ------- -- ------- ---- -- ------<br>-- --- -------- -------- ---------- ---- ---- ---- ------<br>-- --------- -- ---- -- --- -- --- ------- -- - -----<br>---------- -- -- -- ---- ----- -- ------ -- --- ------<br>-------,211082.9200000153,211081.79000002565,210709.727,210722.5600000238,210740.565,211096.695,,2,the
screen,html.Screen,2_3_1_0_1_3,2021-04-24T14:05:49.239Z,,,,,,,,,,,,,,,,,48,,,,,,,,,,,,,,368.9450000094366,,response,,,,10,B,,,,,,Space,keypress(Space),,,,lyrical,,,,-- -- --- United ------- --------- ----------- --------<br>--------- -------- --- ------- -- ------- ---- -- ------<br>-- --- -------- -------- ---------- ---- ---- ---- ------<br>-- --------- -- ---- -- --- -- --- ------- -- - -----<br>---------- -- -- -- ---- ----- -- ------ -- --- ------<br>-------,211466.12000002642,211465.64000000944,211083.173,211083.12500000466,211096.695,211470.152,,3,United
screen,html.Screen,2_3_1_0_1_4,2021-04-24T14:05:49.671Z,,,,,,,,,,,,,,,,,48,,,,,,,,,,,,,,427.6230000194628,,response,,,,10,B,,,,,,Space,keypress(Space),,,,lyrical,,,,"-- -- --- ------ States, --------- ----------- --------<br>--------- -------- --- ------- -- ------- ---- -- ------<br>-- --- -------- -------- ---------- ---- ---- ---- ------<br>-- --------- -- ---- -- --- -- --- ------- -- - -----<br>---------- -- -- -- ---- ----- -- ------ -- --- ------<br>-------",211898.39500002563,211897.77500001946,211456.655,211466.2150000222,211470.152,211910.3,,4,"States,"
screen,html.Screen,2_3_1_0_1_5,2021-04-24T14:05:50.303Z,,,,,,,,,,,,,,,,,48,,,,,,,,,,,,,,619.2900000201189,,response,,,,10,B,,,,,,Space,keypress(Space),,,,lyrical,,,,-- -- --- ------ ------- Colombian ----------- --------<br>--------- -------- --- ------- -- ------- ---- -- ------<br>-- --- -------- -------- ---------- ---- ---- ---- ------<br>-- --------- -- ---- -- --- -- --- ------- -- - -----<br>---------- -- -- -- ---- ----- -- ------ -- --- ------<br>-------,212530.07500001695,212529.5900000201,211896.82,211898.54500000365,211910.3,212537.192,,5,Colombian
screen,html.Screen,2_3_1_0_1_6,2021-04-24T14:05:50.727Z,,,,,,,,,,,,,,,,,48,,,,,,,,,,,,,,416.60800001749885,,response,,,,10,B,,,,,,Space,keypress(Space),,,,lyrical,,,,-- -- --- ------ ------- --------- legislation --------<br>--------- -------- --- ------- -- ------- ---- -- ------<br>-- --- -------- -------- ---------- ---- ---- ---- ------<br>-- --------- -- ---- -- --- -- --- ------- -- - -----<br>---------- -- -- -- ---- ----- -- ------ -- --- ------<br>-------,212954.34500000556,212953.8000000175,212523.606,212530.21000002627,212537.192,212964.003,,6,legislation
screen,html.Screen,2_3_1_0_1_7,2021-04-24T14:05:51.199Z,,,,,,,,,,,,,,,,,48,,,,,,,,,,,,,,461.91199999980745,,response,,,,10,B,,,,,,Space,keypress(Space),,,,lyrical,,,,-- -- --- ------ ------- --------- ----------- requires<br>--------- -------- --- ------- -- ------- ---- -- ------<br>-- --- -------- -------- ---------- ---- ---- ---- ------<br>-- --------- -- ---- -- --- -- --- ------- -- - -----<br>---------- -- -- -- ---- ----- -- ------ -- --- ------<br>-------,213426.48000002373,213425.9149999998,212950.526,212954.50000002165,212964.003,213430.848,,7,requires
screen,html.Screen,2_3_1_0_1_8,2021-04-24T14:05:51.631Z,,,,,,,,,,,,,,,,,48,,,,,,,,,,,,,,426.9420000091195,,response,,,,10,B,,,,,,Space,keypress(Space),,,,lyrical,,,,-- -- --- ------ ------- --------- ----------- --------<br>travelers -------- --- ------- -- ------- ---- -- ------<br>-- --- -------- -------- ---------- ---- ---- ---- ------<br>-- --------- -- ---- -- --- -- --- ------- -- - -----<br>---------- -- -- -- ---- ----- -- ------ -- --- ------<br>-------,213858.34000000614,213857.79000000912,213417.311,213426.63500001072,213430.848,213871.003,,8,travelers
screen,html.Screen,2_3_1_0_1_9,2021-04-24T14:05:52.111Z,,,,,,,,,,,,,,,,,48,,,,,,,,,,,,,,466.772000021796,,response,,,,10,B,,,,,,Space,keypress(Space),,,,lyrical,,,,-- -- --- ------ ------- --------- ----------- --------<br>--------- entering --- ------- -- ------- ---- -- ------<br>-- --- -------- -------- ---------- ---- ---- ---- ------<br>-- --------- -- ---- -- --- -- --- ------- -- - -----<br>---------- -- -- -- ---- ----- -- ------ -- --- ------<br>-------,214338.32000000984,214337.7750000218,213857.5,213858.49000001326,213871.003,214351.209,,9,entering
screen,html.Screen,2_3_1_0_1_10,2021-04-24T14:05:52.543Z,,,,,,,,,,,,,,,,,48,,,,,,,,,,,,,,418.7010000027076,,response,,,,10,B,,,,,,Space,keypress(Space),,,,lyrical,,,,-- -- --- ------ ------- --------- ----------- --------<br>--------- -------- the ------- -- ------- ---- -- ------<br>-- --- -------- -------- ---------- ---- ---- ---- ------<br>-- --------- -- ---- -- --- -- --- ------- -- - -----<br>---------- -- -- -- ---- ----- -- ------ -- --- ------<br>-------,214770.44500000193,214769.9100000027,214337.682,214338.465000008,214351.209,214778.042,,10,the
screen,html.Screen,2_3_1_0_1_11,2021-04-24T14:05:53.231Z,,,,,,,,,,,,,,,,,48,,,,,,,,,,,,,,679.888000004139,,response,,,,10,B,,,,,,Space,keypress(Space),,,,lyrical,,,,-- -- --- ------ ------- --------- ----------- --------<br>--------- -------- --- country -- ------- ---- -- ------<br>-- --- -------- -------- ---------- ---- ---- ---- ------<br>-- --------- -- ---- -- --- -- --- ------- -- - -----<br>---------- -- -- -- ---- ----- -- ------ -- --- ------<br>-------,215458.4400000167,215457.93000000413,214764.501,214770.59500000905,214778.042,215471.594,,11,country
screen,html.Screen,2_3_1_0_1_12,2021-04-24T14:05:53.519Z,,,,,,,,,,,,,,,,,48,,,,,,,,,,,,,,274.2160000221629,,response,,,,10,B,,,,,,Space,keypress(Space),,,,lyrical,,,,-- -- --- ------ ------- --------- ----------- --------<br>--------- -------- --- ------- to ------- ---- -- ------<br>-- --- -------- -------- ---------- ---- ---- ---- ------<br>-- --------- -- ---- -- --- -- --- ------- -- - -----<br>---------- -- -- -- ---- ----- -- ------ -- --- ------<br>-------,215746.2200000009,215745.81000002217,215458.025,215458.58500001486,215471.594,215751.697,,12,to
screen,html.Screen,2_3_1_0_1_13,2021-04-24T14:05:53.879Z,,,,,,,,,,,,,,,,,48,,,,,,,,,,,,,,354.0730000237818,,response,,,,10,B,,,,,,Space,keypress(Space),,,,lyrical,,,,-- -- --- ------ ------- --------- ----------- --------<br>--------- -------- --- ------- -- declare ---- -- ------<br>-- --- -------- -------- ---------- ---- ---- ---- ------<br>-- --------- -- ---- -- --- -- --- ------- -- - -----<br>---------- -- -- -- ---- ----- -- ------ -- --- ------<br>-------,216106.30000001402,216105.77000002377,215738.272,215746.3150000258,215751.697,216111.824,,13,declare
screen,html.Screen,2_3_1_0_1_14,2021-04-24T14:05:54.271Z,,,,,,,,,,,,,,,,,48,,,,,,,,,,,,,,385.95600000515697,,response,,,,10,B,,,,,,Space,keypress(Space),,,,lyrical,,,,-- -- --- ------ ------- --------- ----------- --------<br>--------- -------- --- ------- -- ------- cash -- ------<br>-- --- -------- -------- ---------- ---- ---- ---- ------<br>-- --------- -- ---- -- --- -- --- ------- -- - -----<br>---------- -- -- -- ---- ----- -- ------ -- --- ------<br>-------,216498.3250000223,216497.78000000515,216098.357,216106.46000000997,216111.824,216511.961,,14,cash
screen,html.Screen,2_3_1_0_1_15,2021-04-24T14:05:54.607Z,,,,,,,,,,,,,,,,,48,,,,,,,,,,,,,,321.82900000421796,,response,,,,10,B,,,,,,Space,keypress(Space),,,,lyrical,,,,-- -- --- ------ ------- --------- ----------- --------<br>--------- -------- --- ------- -- ------- ---- in ------<br>-- --- -------- -------- ---------- ---- ---- ---- ------<br>-- --------- -- ---- -- --- -- --- ------- -- - -----<br>---------- -- -- -- ---- ----- -- ------ -- --- ------<br>-------,216834.38500002376,216833.79000000423,216498.496,216498.47000002046,216511.961,216845.439,,15,in
screen,html.Screen,2_3_1_0_1_16,2021-04-24T14:05:55.007Z,,,,,,,,,,,,,,,,,48,,,,,,,,,,,,,,388.3310000207275,,response,,,,10,B,,,,,,Space,keypress(Space),,,,lyrical,,,,-- -- --- ------ ------- --------- ----------- --------<br>--------- -------- --- ------- -- ------- ---- -- excess<br>-- --- -------- -------- ---------- ---- ---- ---- ------<br>-- --------- -- ---- -- --- -- --- ------- -- - -----<br>---------- -- -- -- ---- ----- -- ------ -- --- ------<br>-------,217234.30999999982,217233.77000002074,216831.959,216834.53500000178,216845.439,217245.586,,16,excess
screen,html.Screen,2_3_1_0_1_17,2021-04-24T14:05:55.671Z,,,,,,,,,,,,,,,,,48,,,,,,,,,,,,,,652.2090000262251,,response,,,,10,B,,,,,,Space,keypress(Space),,,,lyrical,,,,-- -- --- ------ ------- --------- ----------- --------<br>--------- -------- --- ------- -- ------- ---- -- ------<br>of --- -------- -------- ---------- ---- ---- ---- ------<br>-- --------- -- ---- -- --- -- --- ------- -- - -----<br>---------- -- -- -- ---- ----- -- ------ -- --- ------<br>-------,217898.31500002765,217897.79500002624,217232.133,217234.4500000181,217245.586,217918.701,,17,of
screen,html.Screen,2_3_1_0_1_18,2021-04-24T14:05:56.543Z,,,,,,,,,,,,,,,,,48,,,,,,,,,,,,,,851.0790000023553,,response,,,,10,B,,,,,,Space,keypress(Space),,,,lyrical,,,,-- -- --- ------ ------- --------- ----------- --------<br>--------- -------- --- ------- -- ------- ---- -- ------<br>-- ten -------- -------- ---------- ---- ---- ---- ------<br>-- --------- -- ---- -- --- -- --- ------- -- - -----<br>---------- -- -- -- ---- ----- -- ------ -- --- ------<br>-------,218770.32000001054,218769.78000000236,217885.574,217898.4600000258,217918.701,218779.474,,18,ten
screen,html.Screen,2_3_1_0_1_19,2021-04-24T14:05:56.999Z,,,,,,,,,,,,,,,,,48,,,,,,,,,,,,,,446.50600001745624,,response,,,,10,B,,,,,,Space,keypress(Space),,,,lyrical,,,,-- -- --- ------ ------- --------- ----------- --------<br>--------- -------- --- ------- -- ------- ---- -- ------<br>-- --- thousand -------- ---------- ---- ---- ---- ------<br>-- --------- -- ---- -- --- -- --- ------- -- - -----<br>---------- -- -- -- ---- ----- -- ------ -- --- ------<br>-------,219226.50500002783,219225.98000001744,218766.046,218770.47500002664,218779.474,219232.972,,19,thousand
screen,html.Screen,2_3_1_0_1_20,2021-04-24T14:05:57.479Z,,,,,,,,,,,,,,,,,48,,,,,,,,,,,,,,472.9180000119959,,response,,,,10,B,,,,,,Space,keypress(Space),,,,lyrical,,,,-- -- --- ------ ------- --------- ----------- --------<br>--------- -------- --- ------- -- ------- ---- -- ------<br>-- --- -------- dollars. ---------- ---- ---- ---- ------<br>-- --------- -- ---- -- --- -- --- ------- -- - -----<br>---------- -- -- -- ---- ----- -- ------ -- --- ------<br>-------,219706.42500001122,219705.890000012,219219.468,219226.65000002598,219232.972,219713.142,,20,dollars.
screen,html.Screen,2_3_1_0_1_21,2021-04-24T14:05:57.943Z,,,,,,,,,,,,,,,,,48,,,,,,,,,,,,,,456.6280000077095,,response,,,,10,B,,,,,,Space,keypress(Space),,,,lyrical,,,,-- -- --- ------ ------- --------- ----------- --------<br>--------- -------- --- ------- -- ------- ---- -- ------<br>-- --- -------- -------- Concealing ---- ---- ---- ------<br>-- --------- -- ---- -- --- -- --- ------- -- - -----<br>---------- -- -- -- ---- ----- -- ------ -- --- ------<br>-------,220170.53000000305,220169.7700000077,219699.617,219706.57000000938,219713.142,220179.997,,21,Concealing
screen,html.Screen,2_3_1_0_1_22,2021-04-24T14:05:58.463Z,,,,,,,,,,,,,,,,,48,,,,,,,,,,,,,,510.103000007075,,response,,,,10,B,,,,,,Space,keypress(Space),,,,lyrical,,,,-- -- --- ------ ------- --------- ----------- --------<br>--------- -------- --- ------- -- ------- ---- -- ------<br>-- --- -------- -------- ---------- more ---- ---- ------<br>-- --------- -- ---- -- --- -- --- ------- -- - -----<br>---------- -- -- -- ---- ----- -- ------ -- --- ------<br>-------,220690.67000001087,220690.10000000708,220166.482,220170.68000001018,220179.997,220700.176,,22,more
screen,html.Screen,2_3_1_0_1_23,2021-04-24T14:05:58.783Z,,,,,,,,,,,,,,,,,48,,,,,,,,,,,,,,309.51900001519243,,response,,,,10,B,,,,,,Space,keypress(Space),,,,lyrical,,,,-- -- --- ------ ------- --------- ----------- --------<br>--------- -------- --- ------- -- ------- ---- -- ------<br>-- --- -------- -------- ---------- ---- than ---- ------<br>-- --------- -- ---- -- --- -- --- ------- -- - -----<br>---------- -- -- -- ---- ----- -- ------ -- --- ------<br>-------,221010.21500001661,221009.6950000152,220686.612,220690.820000018,220700.176,221020.491,,23,than
screen,html.Screen,2_3_1_0_1_24,2021-04-24T14:05:59.135Z,,,,,,,,,,,,,,,,,48,,,,,,,,,,,,,,341.30900001330883,,response,,,,10,B,,,,,,Space,keypress(Space),,,,lyrical,,,,-- -- --- ------ ------- --------- ----------- --------<br>--------- -------- --- ------- -- ------- ---- -- ------<br>-- --- -------- -------- ---------- ---- ---- that ------<br>-- --------- -- ---- -- --- -- --- ------- -- - -----<br>---------- -- -- -- ---- ----- -- ------ -- --- ------<br>-------,221362.3400000215,221361.80000001332,221006.839,221010.36500002374,221020.491,221367.076,,24,that
screen,html.Screen,2_3_1_0_1_25,2021-04-24T14:05:59.527Z,,,,,,,,,,,,,,,,,48,,,,,,,,,,,,,,386.6690000236267,,response,,,,10,B,,,,,,Space,keypress(Space),,,,lyrical,,,,-- -- --- ------ ------- --------- ----------- --------<br>--------- -------- --- ------- -- ------- ---- -- ------<br>-- --- -------- -------- ---------- ---- ---- ---- amount<br>-- --------- -- ---- -- --- -- --- ------- -- - -----<br>---------- -- -- -- ---- ----- -- ------ -- --- ------<br>-------,221754.2850000027,221753.74500002363,221353.775,221362.48999999953,221367.076,221767.26,,25,amount
screen,html.Screen,2_3_1_0_1_26,2021-04-24T14:05:59.831Z,,,,,,,,,,,,,,,,,48,,,,,,,,,,,,,,290.4700000004377,,response,,,,10,B,,,,,,Space,keypress(Space),,,,lyrical,,,,-- -- --- ------ ------- --------- ----------- --------<br>--------- -------- --- ------- -- ------- ---- -- ------<br>-- --- -------- -------- ---------- ---- ---- ---- ------<br>to --------- -- ---- -- --- -- --- ------- -- - -----<br>---------- -- -- -- ---- ----- -- ------ -- --- ------<br>-------,222058.25000000186,222057.73000000045,221753.753,221754.43000000087,221767.26,222060.681,,26,to
screen,html.Screen,2_3_1_0_1_27,2021-04-24T14:06:00.127Z,,,,,,,,,,,,,,,,,48,,,,,,,,,,,,,,293.0840000071039,,response,,,,10,B,,,,,,Space,keypress(Space),,,,lyrical,,,,-- -- --- ------ ------- --------- ----------- --------<br>--------- -------- --- ------- -- ------- ---- -- ------<br>-- --- -------- -------- ---------- ---- ---- ---- ------<br>-- transport -- ---- -- --- -- --- ------- -- - -----<br>---------- -- -- -- ---- ----- -- ------ -- --- ------<br>-------,222354.19000001275,222353.76500000712,222047.213,222058.400000009,222060.681,222367.43,,27,transport
screen,html.Screen,2_3_1_0_1_28,2021-04-24T14:06:00.495Z,,,,,,,,,,,,,,,,,48,,,,,,,,,,,,,,354.3350000238861,,response,,,,10,B,,,,,,Space,keypress(Space),,,,lyrical,,,,-- -- --- ------ ------- --------- ----------- --------<br>--------- -------- --- ------- -- ------- ---- -- ------<br>-- --- -------- -------- ---------- ---- ---- ---- ------<br>-- --------- it ---- -- --- -- --- ------- -- - -----<br>---------- -- -- -- ---- ----- -- ------ -- --- ------<br>-------,222722.3150000209,222721.76500002388,222354.194,222354.26500000176,222367.43,222727.571,,28,it
screen,html.Screen,2_3_1_0_1_29,2021-04-24T14:06:01.487Z,,,,,,,,,,,,,,,,,48,,,,,,,,,,,,,,986.1990000021178,,response,,,,10,B,,,,,,Space,keypress(Space),,,,lyrical,,,,-- -- --- ------ ------- --------- ----------- --------<br>--------- -------- --- ------- -- ------- ---- -- ------<br>-- --- -------- -------- ---------- ---- ---- ---- ------<br>-- --------- -- into -- --- -- --- ------- -- - -----<br>---------- -- -- -- ---- ----- -- ------ -- --- ------<br>-------,223714.30000002147,223713.7700000021,222714.076,222722.4700000079,222727.571,223727.971,,29,into
screen,html.Screen,2_3_1_0_1_30,2021-04-24T14:06:01.807Z,,,,,,,,,,,,,,,,,48,,,,,,,,,,,,,,305.7890000202751,,response,,,,10,B,,,,,,Space,keypress(Space),,,,lyrical,,,,-- -- --- ------ ------- --------- ----------- --------<br>--------- -------- --- ------- -- ------- ---- -- ------<br>-- --- -------- -------- ---------- ---- ---- ---- ------<br>-- --------- -- ---- or --- -- --- ------- -- - -----<br>---------- -- -- -- ---- ----- -- ------ -- --- ------<br>-------,224034.33500000392,224033.76000002027,223714.194,223714.4499999995,223727.971,224048.119,,30,or
screen,html.Screen,2_3_1_0_1_31,2021-04-24T14:06:02.415Z,,,,,,,,,,,,,,,,,48,,,,,,,,,,,,,,593.6810000121477,,response,,,,10,B,,,,,,Space,keypress(Space),,,,lyrical,,,,-- -- --- ------ ------- --------- ----------- --------<br>--------- -------- --- ------- -- ------- ---- -- ------<br>-- --- -------- -------- ---------- ---- ---- ---- ------<br>-- --------- -- ---- -- out -- --- ------- -- - -----<br>---------- -- -- -- ---- ----- -- ------ -- --- ------<br>-------,224642.38500001375,224641.80000001215,224034.632,224034.48000000208,224048.119,224648.3,,31,out
screen,html.Screen,2_3_1_0_1_32,2021-04-24T14:06:02.711Z,,,,,,,,,,,,,,,,,48,,,,,,,,,,,,,,289.62000002578134,,response,,,,10,B,,,,,,Space,keypress(Space),,,,lyrical,,,,-- -- --- ------ ------- --------- ----------- --------<br>--------- -------- --- ------- -- ------- ---- -- ------<br>-- --- -------- -------- ---------- ---- ---- ---- ------<br>-- --------- -- ---- -- --- of --- ------- -- - -----<br>---------- -- -- -- ---- ----- -- ------ -- --- ------<br>-------,224938.455000025,224937.92000002577,224634.766,224642.5300000119,224648.3,224941.739,,32,of
screen,html.Screen,2_3_1_0_1_33,2021-04-24T14:06:03.023Z,,,,,,,,,,,,,,,,,48,,,,,,,,,,,,,,308.2010000087903,,response,,,,10,B,,,,,,Space,keypress(Space),,,,lyrical,,,,-- -- --- ------ ------- --------- ----------- --------<br>--------- -------- --- ------- -- ------- ---- -- ------<br>-- --- -------- -------- ---------- ---- ---- ---- ------<br>-- --------- -- ---- -- --- -- the ------- -- - -----<br>---------- -- -- -- ---- ----- -- ------ -- --- ------<br>-------,225250.46500001918,225249.9400000088,224928.257,224938.605000003,224941.739,225261.866,,33,the
screen,html.Screen,2_3_1_0_1_34,2021-04-24T14:06:03.303Z,,,,,,,,,,,,,,,,,48,,,,,,,,,,,,,,268.0840000255557,,response,,,,10,B,,,,,,Space,keypress(Space),,,,lyrical,,,,-- -- --- ------ ------- --------- ----------- --------<br>--------- -------- --- ------- -- ------- ---- -- ------<br>-- --- -------- -------- ---------- ---- ---- ---- ------<br>-- --------- -- ---- -- --- -- --- country -- - -----<br>---------- -- -- -- ---- ----- -- ------ -- --- ------<br>-------,225530.48500002478,225529.95000002556,225248.625,225250.6150000263,225261.866,225541.959,,34,country
screen,html.Screen,2_3_1_0_1_35,2021-04-24T14:06:03.631Z,,,,,,,,,,,,,,,,,48,,,,,,,,,,,,,,315.8110000023444,,response,,,,10,B,,,,,,Space,keypress(Space),,,,lyrical,,,,-- -- --- ------ ------- --------- ----------- --------<br>--------- -------- --- ------- -- ------- ---- -- ------<br>-- --- -------- -------- ---------- ---- ---- ---- ------<br>-- --------- -- ---- -- --- -- --- ------- is - -----<br>---------- -- -- -- ---- ----- -- ------ -- --- ------<br>-------,225858.34000000614,225857.77000000235,225528.49,225530.62500001397,225541.959,225862.069,,35,is
screen,html.Screen,2_3_1_0_1_36,2021-04-24T14:06:03.911Z,,,,,,,,,,,,,,,,,48,,,,,,,,,,,,,,275.82100001271465,,response,,,,10,B,,,,,,Space,keypress(Space),,,,lyrical,,,,-- -- --- ------ ------- --------- ----------- --------<br>--------- -------- --- ------- -- ------- ---- -- ------<br>-- --- -------- -------- ---------- ---- ---- ---- ------<br>-- --------- -- ---- -- --- -- --- ------- -- a -----<br>---------- -- -- -- ---- ----- -- ------ -- --- ------<br>-------,226138.40000002529,226137.8900000127,225848.624,225858.49000001326,225862.069,226142.205,,36,a
screen,html.Screen,2_3_1_0_1_37,2021-04-24T14:06:04.239Z,,,,,,,,,,,,,,,,,48,,,,,,,,,,,,,,323.7100000079663,,response,,,,10,B,,,,,,Space,keypress(Space),,,,lyrical,,,,-- -- --- ------ ------- --------- ----------- --------<br>--------- -------- --- ------- -- ------- ---- -- ------<br>-- --- -------- -------- ---------- ---- ---- ---- ------<br>-- --------- -- ---- -- --- -- --- ------- -- - crime<br>---------- -- -- -- ---- ----- -- ------ -- --- ------<br>-------,226466.48500001174,226465.91500000795,226128.876,226138.54500002344,226142.205,226475.61,,37,crime
screen,html.Screen,2_3_1_0_1_38,2021-04-24T14:06:04.552Z,,,,,,,,,,,,,,,,,48,,,,,,,,,,,,,,302.1100000127917,,response,,,,10,B,,,,,,Space,keypress(Space),,,,lyrical,,,,-- -- --- ------ ------- --------- ----------- --------<br>--------- -------- --- ------- -- ------- ---- -- ------<br>-- --- -------- -------- ---------- ---- ---- ---- ------<br>-- --------- -- ---- -- --- -- --- ------- -- - -----<br>punishable -- -- -- ---- ----- -- ------ -- --- ------<br>-------,226778.97000001394,226777.72000001278,226462.315,226466.6450000077,226475.61,226782.412,,38,punishable
screen,html.Screen,2_3_1_0_1_39,2021-04-24T14:06:04.871Z,,,,,,,,,,,,,,,,,48,,,,,,,,,,,,,,315.4830000135116,,response,,,,10,B,,,,,,Space,keypress(Space),,,,lyrical,,,,-- -- --- ------ ------- --------- ----------- --------<br>--------- -------- --- ------- -- ------- ---- -- ------<br>-- --- -------- -------- ---------- ---- ---- ---- ------<br>-- --------- -- ---- -- --- -- --- ------- -- - -----<br>---------- by -- -- ---- ----- -- ------ -- --- ------<br>-------,227098.42500000377,227097.89500001352,226768.949,226779.1150000121,226782.412,227102.499,,39,by
screen,html.Screen,2_3_1_0_1_40,2021-04-24T14:06:05.095Z,,,,,,,,,,,,,,,,,48,,,,,,,,,,,,,,219.32600002089748,,response,,,,10,B,,,,,,Space,keypress(Space),,,,lyrical,,,,-- -- --- ------ ------- --------- ----------- --------<br>--------- -------- --- ------- -- ------- ---- -- ------<br>-- --- -------- -------- ---------- ---- ---- ---- ------<br>-- --------- -- ---- -- --- -- --- ------- -- - -----<br>---------- -- up -- ---- ----- -- ------ -- --- ------<br>-------,227322.33000002452,227321.8250000209,227089.035,227098.58000001987,227102.499,227329.437,,40,up
