sender,sender_type,sender_id,timestamp,meta,,Blues,Classical,Country,Dance,Electronic,Folk,Gospel,Hip-Hop,Jazz,Latin,Musical/Film,New-age,Pop,Prolific_id,Provo_ID,R&B,Rap,Reggae,Religious,Rock,Soul,Swing,Traditional,age,artist_name,correct,correctResponse,distraction,duration,education,ended_on,familiarity,gender,headphone_check_performance,item,list,music_frequency,offensiveness,pleasantness,position_correct,preference,response,response_action,snippet_file,song_name,song_rating,sound,stimulus_1,stimulus_2,stimulus_3,text,time_commit,time_end,time_render,time_run,time_show,time_switch,url,word,word_ID
Prolific ID,html.Form,0,2021-04-24T16:36:58.062Z,"{""labjs_version"":""20.2.2"",""labjs_build"":{""flavor"":""production"",""commit"":""a25486e0c714a0ae2ce03ff94b7bb6896854dcfa""},""location"":""https://run.pavlovia.org/mvasilev/prolific_music_d/"",""userAgent"":""Mozilla/5.0 (Windows NT 10.0; Win64; x64) AppleWebKit/537.36 (KHTML, like Gecko) Chrome/90.0.4430.85 Safari/537.36"",""platform"":""Win32"",""language"":""en-GB"",""locale"":""en-GB"",""timeZone"":""Europe/London"",""timezoneOffset"":-60,""screen_width"":1366,""screen_height"":768,""scroll_width"":1366,""scroll_height"":615,""window_innerWidth"":1366,""window_innerHeight"":663,""devicePixelRatio"":1}",,,,,,,,,,,,,,,55c11e44fdf99b545042e732,,,,,,,,,,,,,,,5434.938999996833,,form submission,,,,,,,,,,,,,,,,,,,,,27950.964999967255,27947.849999996834,22346.621,22352.47999994317,22512.911,27996.177,{},,
Introduction,html.Screen,1_0,2021-04-24T16:37:01.147Z,,,,,,,,,,,,,,,,,,,,,,,,,,,,,,,3038.24799996163,,response,,,,,,,,,,,continue,click button,,,,,,,,,31036.38999996474,31034.42499996163,27929.5,27953.054999990854,27996.177,31062.817,,,
Volume calibration,html.Screen,1_1,2021-04-24T16:37:10.660Z,,,,,,,,,,,,,,,,,,,,,,,,,,,,,,,9480.58799994578,,response,,,,,,,,,,,continue,click button,,,,,,,,,40549.18999999063,40543.40499994578,31029.465,31036.93999996176,31062.817,40662.687,,,
Task instructions,html.Screen,1_2,2021-04-24T16:37:17.001Z,,,,,,,,,,,,,,,,,,,,,,,,,,,,,,,6226.267999973068,,response,,,,,,,,,,,continue,click button,,,,,,,,,46890.55999997072,46888.954999973066,40529.648,40549.544999958016,40662.687,46895.95,,,
Sounds,html.Screen,1_3_0_0,2021-04-24T16:37:21.246Z,,,,,,,,,,,,,,,,,,,,,,,,,,,,,,,4249.959000000003,,timeout,,,,,,,,,1,,,,,,,,S,I,O,,51135.449999943376,51129.216,46879.257,46894.58999998169,46895.95,51145.909,,,
Judgement,html.Screen,1_3_0_1,2021-04-24T16:37:22.409Z,,,,,,,,,,,,,,,,,,,,,,,,,,,,false,1,,1150.4959999718558,,response,,,,,,,,,1,,2,click #choice-2,,,,,S,I,O,,52298.79999998957,52296.404999971855,51129.216,51135.84499998251,51145.909,52312.506,,,
Trial,flow.Sequence,1_3_0,2021-04-24T16:37:22.410Z,,,,,,,,,,,,,,,,,,,,,,,,,,,,,,,5400.454999971858,,completion,,,,,,,,,1,,,,,,,,S,I,O,,52299.594999989495,52296.404999971855,46879.257,46894.4349999656,46895.95,52312.506,,,
Sounds,html.Screen,1_3_1_0,2021-04-24T16:37:26.657Z,,,,,,,,,,,,,,,,,,,,,,,,,,,,,,,4250.023000000001,,timeout,,,,,,,,,3,,,,,,,,I,O,S,,56546.72499996377,56545.804,52296.33,52300.019999966025,52312.506,56562.529,,,
Judgement,html.Screen,1_3_1_1,2021-04-24T16:37:27.762Z,,,,,,,,,,,,,,,,,,,,,,,,,,,,true,3,,1087.4509999874062,,response,,,,,,,,,3,,3,click #choice-3,,,,,I,O,S,,57651.49499999825,57649.97999998741,56545.804,56547.04999999376,56562.529,57662.481,,,
Trial,flow.Sequence,1_3_1,2021-04-24T16:37:27.763Z,,,,,,,,,,,,,,,,,,,,,,,,,,,,,,,5337.473999987407,,completion,,,,,,,,,3,,,,,,,,I,O,S,,57652.00999996159,57649.97999998741,52296.33,52299.88499998581,52312.506,57662.481,,,
Sounds,html.Screen,1_3_2_0,2021-04-24T16:37:32.008Z,,,,,,,,,,,,,,,,,,,,,,,,,,,,,,,4249.978000000003,,timeout,,,,,,,,,3,,,,,,,,O,I,S,,61896.95499994559,61895.846,57645.807,57652.38999994472,57662.481,61912.459,,,
Judgement,html.Screen,1_3_2_1,2021-04-24T16:37:32.783Z,,,,,,,,,,,,,,,,,,,,,,,,,,,,true,3,,757.6609999661159,,response,,,,,,,,,3,,3,click #choice-3,,,,,O,I,S,,62671.875,62670.11999996612,61895.846,61897.26999995764,61912.459,62679.09,,,
Trial,flow.Sequence,1_3_2,2021-04-24T16:37:32.784Z,,,,,,,,,,,,,,,,,,,,,,,,,,,,,,,5007.638999966119,,completion,,,,,,,,,3,,,,,,,,O,I,S,,62672.469999990426,62670.11999996612,57645.807,57652.264999982435,57662.481,62679.09,,,
Sounds,html.Screen,1_3_3_0,2021-04-24T16:37:37.025Z,,,,,,,,,,,,,,,,,,,,,,,,,,,,,,,4249.953000000009,,timeout,,,,,,,,,2,,,,,,,,I,S,O,,66914.09499995643,66912.365,62662.965,62672.88999998709,62679.09,66929.043,,,
Judgement,html.Screen,1_3_3_1,2021-04-24T16:37:37.835Z,,,,,,,,,,,,,,,,,,,,,,,,,,,,true,2,,792.7869999949471,,response,,,,,,,,,2,,2,click #choice-2,,,,,I,S,O,,67723.31999999005,67721.82999999495,66912.365,66914.50499999337,66929.043,67729.03,,,
Trial,flow.Sequence,1_3_3,2021-04-24T16:37:37.835Z,,,,,,,,,,,,,,,,,,,,,,,,,,,,,,,5042.739999994956,,completion,,,,,,,,,2,,,,,,,,I,S,O,,67723.80499995779,67721.82999999495,62662.965,62672.75999998674,62679.09,67729.03,,,
Sounds,html.Screen,1_3_4_0,2021-04-24T16:37:42.076Z,,,,,,,,,,,,,,,,,,,,,,,,,,,,,,,4250.108000000007,,timeout,,,,,,,,,2,,,,,,,,O,S,I,,71964.3549999455,71962.7,67712.361,67724.2349999724,67729.03,71979.138,,,
Judgement,html.Screen,1_3_4_1,2021-04-24T16:37:42.879Z,,,,,,,,,,,,,,,,,,,,,,,,,,,,true,2,,787.3619999687944,,response,,,,,,,,,2,,2,click #choice-2,,,,,O,S,I,,72767.96999998624,72766.4999999688,71962.7,71964.68999999342,71979.138,72778.961,,,
Trial,flow.Sequence,1_3_4,2021-04-24T16:37:42.880Z,,,,,,,,,,,,,,,,,,,,,,,,,,,,,,,5037.469999968802,,completion,,,,,,,,,2,,,,,,,,O,S,I,,72768.4349999763,72766.4999999688,67712.361,67724.10499997204,67729.03,72778.961,,,
Sounds,html.Screen,1_3_5_0,2021-04-24T16:37:47.125Z,,,,,,,,,,,,,,,,,,,,,,,,,,,,,,,4250.428,,timeout,,,,,,,,,1,,,,,,,,S,O,I,,77014.12999996683,77012.771,72762.284,72768.80999997957,72778.961,77029.389,,,
Judgement,html.Screen,1_3_5_1,2021-04-24T16:37:48.066Z,,,,,,,,,,,,,,,,,,,,,,,,,,,,true,1,,923.2909999875992,,response,,,,,,,,,1,,1,click #choice-1,,,,,S,O,I,,77954.72499995958,77952.6799999876,77012.771,77014.44499997888,77029.389,77978.909,,,
Trial,flow.Sequence,1_3_5,2021-04-24T16:37:48.067Z,,,,,,,,,,,,,,,,,,,,,,,,,,,,,,,5173.718999987599,,completion,,,,,,,,,1,,,,,,,,S,O,I,,77955.43999999063,77952.6799999876,72762.284,72768.70499999495,72778.961,77978.909,,,
Task,flow.Loop,1_3,2021-04-24T16:37:48.081Z,,,,,,,,,,,,,,,,,,,,,,,,,,,,,,,31056.729999987598,,completion,,,0.8333333333333334,,,,,,,,,,,,,,,,,,77969.60499999113,77952.6799999876,46879.257,46894.2649999517,46895.95,77978.909,,,
Trap,html.Screen,1_4,2021-04-24T16:37:48.089Z,,,,,,,,,,,,,,,,,,,,,,,,,,,,,,,NaN,,skipped,,,,,,,,,,,,,,,,,,,,,77977.80999995302,77952.6799999876,,77977.40999999223,,77978.909,,,
Thanks,html.Screen,1_5,2021-04-24T16:37:51.264Z,,,,,,,,,,,,,,,,,,,,,,,,,,,,,,,3171.776000000522,,response,,,,,,,,,,,continue,click button,,,,,,,,,81152.78499998385,81150.68500000052,77945.557,77978.13999996288,77978.909,85762.105,,,
Headphone screening,flow.Sequence,1,2021-04-24T16:37:51.265Z,,,,,,,,,,,,,,,,,,,,,,,,,,,,,,,53154.508000000525,,completion,,,,,,,,,,,,,,,,,,,,,81153.24999997392,81150.68500000052,27929.5,27952.929999970365,27996.177,85762.105,,,
Instructions,html.Page,2_0,2021-04-24T16:38:18.719Z,,,,,,,,,,,,,,,,,,,,,,,,,,,,,,,22843.189999957554,,form submission,,,,,,,,,,,,,,,,,,,,,108607.26499999873,108605.29499995755,85745.521,85756.82999996934,85762.105,108611.862,,,
Holding screen,html.Screen,2_1_0_0,2021-04-24T16:38:28.707Z,,,,,,,,,,,,,,,,,,,,,,,,,,,,,,,10016.538,,timeout,,,,,,,,,,,,,,,,,,,,,118595.85999994306,118595.041,108595.15,108607.80999995768,108611.862,118628.4,,,
screen,html.Screen,2_1_0_1_0,2021-04-24T16:38:29.988Z,,,,,,,,,,,,,,,,,53,,,,,,,,,,,,,,1243.9799999570532,,response,,,,99,,,,,,,Space,keypress(Space),,,,,,,,When -- ----- -- ------ - ------- --- ----------<br>------------- ------ ------ ---- ---- ------- ----- -- ----<br>-------- ------- -- ---------- --- - --- ----- ----- ----<br>---- --- --- ----- --- ---- ---- ------- ----- ---- -------<br>--- --- -- ----- -- --- ---- -- --- ---- -- ------ ------<br>--- ----- -- ----,119877.00499995844,119872.37999995705,118595.041,118596.2999999756,118628.4,119895.389,,0,When
screen,html.Screen,2_1_0_1_1,2021-04-24T16:38:30.495Z,,,,,,,,,,,,,,,,,53,,,,,,,,,,,,,,486.3509999825328,,response,,,,99,,,,,,,Space,keypress(Space),,,,,,,,---- it ----- -- ------ - ------- --- ----------<br>------------- ------ ------ ---- ---- ------- ----- -- ----<br>-------- ------- -- ---------- --- - --- ----- ----- ----<br>---- --- --- ----- --- ---- ---- ------- ----- ---- -------<br>--- --- -- ----- -- --- ---- -- --- ---- -- ------ ------<br>--- ----- -- ----,120383.36999999592,120381.73999998253,119861.663,119877.35999998404,119895.389,120395.133,,1,it
screen,html.Screen,2_1_0_1_2,2021-04-24T16:38:31.084Z,,,,,,,,,,,,,,,,,53,,,,,,,,,,,,,,574.8019999427779,,response,,,,99,,,,,,,Space,keypress(Space),,,,,,,,---- -- comes -- ------ - ------- --- ----------<br>------------- ------ ------ ---- ---- ------- ----- -- ----<br>-------- ------- -- ---------- --- - --- ----- ----- ----<br>---- --- --- ----- --- ---- ---- ------- ----- ---- -------<br>--- --- -- ----- -- --- ---- -- --- ---- -- ------ ------<br>--- ----- -- ----,120972.80999994837,120969.93499994278,120378.317,120383.76999995671,120395.133,120978.59,,2,comes
screen,html.Screen,2_1_0_1_3,2021-04-24T16:38:31.545Z,,,,,,,,,,,,,,,,,53,,,,,,,,,,,,,,452.94999996139086,,response,,,,99,,,,,,,Space,keypress(Space),,,,,,,,---- -- ----- to ------ - ------- --- ----------<br>------------- ------ ------ ---- ---- ------- ----- -- ----<br>-------- ------- -- ---------- --- - --- ----- ----- ----<br>---- --- --- ----- --- ---- ---- ------- ----- ---- -------<br>--- --- -- ----- -- --- ---- -- --- ---- -- ------ ------<br>--- ----- -- ----,121433.85499995202,121431.53999996139,120961.668,120973.29999995418,120978.59,121445.237,,3,to
screen,html.Screen,2_1_0_1_4,2021-04-24T16:38:32.080Z,,,,,,,,,,,,,,,,,53,,,,,,,,,,,,,,521.6829999771144,,response,,,,99,,,,,,,Space,keypress(Space),,,,,,,,---- -- ----- -- having - ------- --- ----------<br>------------- ------ ------ ---- ---- ------- ----- -- ----<br>-------- ------- -- ---------- --- - --- ----- ----- ----<br>---- --- --- ----- --- ---- ---- ------- ----- ---- -------<br>--- --- -- ----- -- --- ---- -- --- ---- -- ------ ------<br>--- ----- -- ----,121968.5349999927,121966.91999997711,121428.694,121434.46499999845,121445.237,121978.36,,4,having
screen,html.Screen,2_1_0_1_5,2021-04-24T16:38:32.608Z,,,,,,,,,,,,,,,,,53,,,,,,,,,,,,,,516.5399999905931,,response,,,,99,,,,,,,Space,keypress(Space),,,,,,,,---- -- ----- -- ------ a ------- --- ----------<br>------------- ------ ------ ---- ---- ------- ----- -- ----<br>-------- ------- -- ---------- --- - --- ----- ----- ----<br>---- --- --- ----- --- ---- ---- ------- ----- ---- -------<br>--- --- -- ----- -- --- ---- -- --- ---- -- ------ ------<br>--- ----- -- ----,122496.8649999937,122494.8999999906,121961.646,121968.91999995569,121978.36,122511.681,,5,a
screen,html.Screen,2_1_0_1_6,2021-04-24T16:38:33.165Z,,,,,,,,,,,,,,,,,53,,,,,,,,,,,,,,539.3439999933908,,response,,,,99,,,,,,,Space,keypress(Space),,,,,,,,---- -- ----- -- ------ - lasting --- ----------<br>------------- ------ ------ ---- ---- ------- ----- -- ----<br>-------- ------- -- ---------- --- - --- ----- ----- ----<br>---- --- --- ----- --- ---- ---- ------- ----- ---- -------<br>--- --- -- ----- -- --- ---- -- --- ---- -- ------ ------<br>--- ----- -- ----,123053.59999998473,123051.02499999339,122494.984,122497.41499999072,122511.681,123061.781,,6,lasting
screen,html.Screen,2_1_0_1_7,2021-04-24T16:38:33.647Z,,,,,,,,,,,,,,,,,53,,,,,,,,,,,,,,472.41899999459565,,response,,,,99,,,,,,,Space,keypress(Space),,,,,,,,---- -- ----- -- ------ - ------- and ----------<br>------------- ------ ------ ---- ---- ------- ----- -- ----<br>-------- ------- -- ---------- --- - --- ----- ----- ----<br>---- --- --- ----- --- ---- ---- ------- ----- ---- -------<br>--- --- -- ----- -- --- ---- -- --- ---- -- ------ ------<br>--- ----- -- ----,123535.92999995453,123534.1999999946,123045.108,123054.19499997515,123061.781,123545.066,,7,and
screen,html.Screen,2_1_0_1_8,2021-04-24T16:38:34.203Z,,,,,,,,,,,,,,,,,53,,,,,,,,,,,,,,545.0439999900846,,response,,,,99,,,,,,,Space,keypress(Space),,,,,,,,---- -- ----- -- ------ - ------- --- fulfilling<br>------------- ------ ------ ---- ---- ------- ----- -- ----<br>-------- ------- -- ---------- --- - --- ----- ----- ----<br>---- --- --- ----- --- ---- ---- ------- ----- ---- -------<br>--- --- -- ----- -- --- ---- -- --- ---- -- ------ ------<br>--- ----- -- ----,124091.8149999925,124090.10999999009,123528.583,123536.42499999842,123545.066,124095.068,,8,fulfilling
screen,html.Screen,2_1_0_1_9,2021-04-24T16:38:34.737Z,,,,,,,,,,,,,,,,,53,,,,,,,,,,,,,,528.7969999722845,,response,,,,99,,,,,,,Space,keypress(Space),,,,,,,,"---- -- ----- -- ------ - ------- --- ----------<br>relationship, ------ ------ ---- ---- ------- ----- -- ----<br>-------- ------- -- ---------- --- - --- ----- ----- ----<br>---- --- --- ----- --- ---- ---- ------- ----- ---- -------<br>--- --- -- ----- -- --- ---- -- --- ---- -- ------ ------<br>--- ----- -- ----",124625.84999995306,124623.86499997228,124078.316,124092.25999994669,124095.068,124628.68,,9,"relationship,"
screen,html.Screen,2_1_0_1_10,2021-04-24T16:38:35.279Z,,,,,,,,,,,,,,,,,53,,,,,,,,,,,,,,537.8599999474245,,response,,,,99,,,,,,,Space,keypress(Space),,,,,,,,---- -- ----- -- ------ - ------- --- ----------<br>------------- common ------ ---- ---- ------- ----- -- ----<br>-------- ------- -- ---------- --- - --- ----- ----- ----<br>---- --- --- ----- --- ---- ---- ------- ----- ---- -------<br>--- --- -- ----- -- --- ---- -- --- ---- -- ------ ------<br>--- ----- -- ----,125168.27499994542,125166.53999994742,124611.606,124626.26999994973,124628.68,125178.368,,10,common
screen,html.Screen,2_1_0_1_11,2021-04-24T16:38:36.031Z,,,,,,,,,,,,,,,,,53,,,,,,,,,,,,,,740.1219999527239,,response,,,,99,,,,,,,Space,keypress(Space),,,,,,,,---- -- ----- -- ------ - ------- --- ----------<br>------------- ------ wisdom ---- ---- ------- ----- -- ----<br>-------- ------- -- ---------- --- - --- ----- ----- ----<br>---- --- --- ----- --- ---- ---- ------- ----- ---- -------<br>--- --- -- ----- -- --- ---- -- --- ---- -- ------ ------<br>--- ----- -- ----,125920.27499998221,125918.48999995273,125161.613,125168.71999995783,125178.368,125928.576,,11,wisdom
screen,html.Screen,2_1_0_1_12,2021-04-24T16:38:36.568Z,,,,,,,,,,,,,,,,,53,,,,,,,,,,,,,,526.5389999606414,,response,,,,99,,,,,,,Space,keypress(Space),,,,,,,,---- -- ----- -- ------ - ------- --- ----------<br>------------- ------ ------ says ---- ------- ----- -- ----<br>-------- ------- -- ---------- --- - --- ----- ----- ----<br>---- --- --- ----- --- ---- ---- ------- ----- ---- -------<br>--- --- -- ----- -- --- ---- -- --- ---- -- ------ ------<br>--- ----- -- ----,126457.1649999707,126455.11499996064,125911.595,125920.71499995654,125928.576,126461.847,,12,says
screen,html.Screen,2_1_0_1_13,2021-04-24T16:38:36.994Z,,,,,,,,,,,,,,,,,53,,,,,,,,,,,,,,418.7529999749531,,response,,,,99,,,,,,,Space,keypress(Space),,,,,,,,---- -- ----- -- ------ - ------- --- ----------<br>------------- ------ ------ ---- that ------- ----- -- ----<br>-------- ------- -- ---------- --- - --- ----- ----- ----<br>---- --- --- ----- --- ---- ---- ------- ----- ---- -------<br>--- --- -- ----- -- --- ---- -- --- ---- -- ------ ------<br>--- ----- -- ----,126882.57999997586,126880.59999997495,126444.927,126457.58499996737,126461.847,126895.239,,13,that
screen,html.Screen,2_1_0_1_14,2021-04-24T16:38:37.579Z,,,,,,,,,,,,,,,,,53,,,,,,,,,,,,,,570.7609999566921,,response,,,,99,,,,,,,Space,keypress(Space),,,,,,,,---- -- ----- -- ------ - ------- --- ----------<br>------------- ------ ------ ---- ---- feeling ----- -- ----<br>-------- ------- -- ---------- --- - --- ----- ----- ----<br>---- --- --- ----- --- ---- ---- ------- ----- ---- -------<br>--- --- -- ----- -- --- ---- -- --- ---- -- ------ ------<br>--- ----- -- ----,127467.9349999642,127465.9999999567,126878.613,126882.99499999266,126895.239,127478.519,,14,feeling
screen,html.Screen,2_1_0_1_15,2021-04-24T16:38:38.284Z,,,,,,,,,,,,,,,,,53,,,,,,,,,,,,,,692.0259999426489,,response,,,,99,,,,,,,Space,keypress(Space),,,,,,,,---- -- ----- -- ------ - ------- --- ----------<br>------------- ------ ------ ---- ---- ------- close -- ----<br>-------- ------- -- ---------- --- - --- ----- ----- ----<br>---- --- --- ----- --- ---- ---- ------- ----- ---- -------<br>--- --- -- ----- -- --- ---- -- --- ---- -- ------ ------<br>--- ----- -- ----,128172.71499999333,128170.54499994265,127461.692,127468.3049999876,127478.519,128178.494,,15,close
screen,html.Screen,2_1_0_1_16,2021-04-24T16:38:38.812Z,,,,,,,,,,,,,,,,,53,,,,,,,,,,,,,,520.9159999428666,,response,,,,99,,,,,,,Space,keypress(Space),,,,,,,,---- -- ----- -- ------ - ------- --- ----------<br>------------- ------ ------ ---- ---- ------- ----- to ----<br>-------- ------- -- ---------- --- - --- ----- ----- ----<br>---- --- --- ----- --- ---- ---- ------- ----- ---- -------<br>--- --- -- ----- -- --- ---- -- --- ---- -- ------ ------<br>--- ----- -- ----,128701.37499994598,128699.40999994287,128161.986,128173.09499997646,128178.494,128712.114,,16,to
screen,html.Screen,2_1_0_1_17,2021-04-24T16:38:39.720Z,,,,,,,,,,,,,,,,,53,,,,,,,,,,,,,,895.3959999434301,,response,,,,99,,,,,,,Space,keypress(Space),,,,,,,,---- -- ----- -- ------ - ------- --- ----------<br>------------- ------ ------ ---- ---- ------- ----- -- your<br>-------- ------- -- ---------- --- - --- ----- ----- ----<br>---- --- --- ----- --- ---- ---- ------- ----- ---- -------<br>--- --- -- ----- -- --- ---- -- --- ---- -- ------ ------<br>--- ----- -- ----,129609.26999995718,129607.50999994343,128694.929,128701.76999998512,128712.114,129612.182,,17,your
screen,html.Screen,2_1_0_1_18,2021-04-24T16:38:40.844Z,,,,,,,,,,,,,,,,,53,,,,,,,,,,,,,,1119.0629999735684,,response,,,,99,,,,,,,Space,keypress(Space),,,,,,,,---- -- ----- -- ------ - ------- --- ----------<br>------------- ------ ------ ---- ---- ------- ----- -- ----<br>romantic ------- -- ---------- --- - --- ----- ----- ----<br>---- --- --- ----- --- ---- ---- ------- ----- ---- -------<br>--- --- -- ----- -- --- ---- -- --- ---- -- ------ ------<br>--- ----- -- ----,130733.03999996278,130731.24499997357,129594.881,129609.64499996044,129612.182,130745.034,,18,romantic
screen,html.Screen,2_1_0_1_19,2021-04-24T16:38:41.325Z,,,,,,,,,,,,,,,,,53,,,,,,,,,,,,,,466.47099995565077,,response,,,,99,,,,,,,Space,keypress(Space),,,,,,,,---- -- ----- -- ------ - ------- --- ----------<br>------------- ------ ------ ---- ---- ------- ----- -- ----<br>-------- partner -- ---------- --- - --- ----- ----- ----<br>---- --- --- ----- --- ---- ---- ------- ----- ---- -------<br>--- --- -- ----- -- --- ---- -- --- ---- -- ------ ------<br>--- ----- -- ----,131213.4949999745,131211.50499995565,130728.187,130733.39499998838,130745.034,131228.217,,19,partner
screen,html.Screen,2_1_0_1_20,2021-04-24T16:38:41.840Z,,,,,,,,,,,,,,,,,53,,,,,,,,,,,,,,499.1979999720934,,response,,,,99,,,,,,,Space,keypress(Space),,,,,,,,---- -- ----- -- ------ - ------- --- ----------<br>------------- ------ ------ ---- ---- ------- ----- -- ----<br>-------- ------- is ---------- --- - --- ----- ----- ----<br>---- --- --- ----- --- ---- ---- ------- ----- ---- -------<br>--- --- -- ----- -- --- ---- -- --- ---- -- ------ ------<br>--- ----- -- ----,131729.18499994557,131727.4149999721,131211.673,131213.8500000001,131228.217,131745.346,,20,is
screen,html.Screen,2_1_0_1_21,2021-04-24T16:38:42.539Z,,,,,,,,,,,,,,,,,53,,,,,,,,,,,,,,680.3139999498671,,response,,,,99,,,,,,,Space,keypress(Space),,,,,,,,---- -- ----- -- ------ - ------- --- ----------<br>------------- ------ ------ ---- ---- ------- ----- -- ----<br>-------- ------- -- paramount. --- - --- ----- ----- ----<br>---- --- --- ----- --- ---- ---- ------- ----- ---- -------<br>--- --- -- ----- -- --- ---- -- --- ---- -- ------ ------<br>--- ----- -- ----,132427.72499995772,132425.65999994986,131728.21,131729.54499995103,131745.346,132445.498,,21,paramount.
screen,html.Screen,2_1_0_1_22,2021-04-24T16:38:43.205Z,,,,,,,,,,,,,,,,,53,,,,,,,,,,,,,,645.9819999445754,,response,,,,99,,,,,,,Space,keypress(Space),,,,,,,,---- -- ----- -- ------ - ------- --- ----------<br>------------- ------ ------ ---- ---- ------- ----- -- ----<br>-------- ------- -- ---------- But - --- ----- ----- ----<br>---- --- --- ----- --- ---- ---- ------- ----- ---- -------<br>--- --- -- ----- -- --- ---- -- --- ---- -- ------ ------<br>--- ----- -- ----,133093.54499995243,133091.47999994457,132428.324,132428.18499996793,132445.498,133111.953,,22,But
screen,html.Screen,2_1_0_1_23,2021-04-24T16:38:43.636Z,,,,,,,,,,,,,,,,,53,,,,,,,,,,,,,,410.8769999725919,,response,,,,99,,,,,,,Space,keypress(Space),,,,,,,,---- -- ----- -- ------ - ------- --- ----------<br>------------- ------ ------ ---- ---- ------- ----- -- ----<br>-------- ------- -- ---------- --- a --- ----- ----- ----<br>---- --- --- ----- --- ---- ---- ------- ----- ---- -------<br>--- --- -- ----- -- --- ---- -- --- ---- -- ------ ------<br>--- ----- -- ----,133524.7199999867,133522.8299999726,133094.845,133093.88499998022,133111.953,133528.716,,23,a
screen,html.Screen,2_1_0_1_24,2021-04-24T16:38:44.062Z,,,,,,,,,,,,,,,,,53,,,,,,,,,,,,,,420.95899998166715,,response,,,,99,,,,,,,Space,keypress(Space),,,,,,,,---- -- ----- -- ------ - ------- --- ----------<br>------------- ------ ------ ---- ---- ------- ----- -- ----<br>-------- ------- -- ---------- --- - new ----- ----- ----<br>---- --- --- ----- --- ---- ---- ------- ----- ---- -------<br>--- --- -- ----- -- --- ---- -- --- ---- -- ------ ------<br>--- ----- -- ----,133951.46999997087,133949.67499998165,133511.989,133525.10999998776,133528.716,133961.55,,24,new
screen,html.Screen,2_1_0_1_25,2021-04-24T16:38:45.857Z,,,,,,,,,,,,,,,,,53,,,,,,,,,,,,,,1781.989999995858,,response,,,,99,,,,,,,Space,keypress(Space),,,,,,,,---- -- ----- -- ------ - ------- --- ----------<br>------------- ------ ------ ---- ---- ------- ----- -- ----<br>-------- ------- -- ---------- --- - --- study ----- ----<br>---- --- --- ----- --- ---- ---- ------- ----- ---- -------<br>--- --- -- ----- -- --- ---- -- --- ---- -- ------ ------<br>--- ----- -- ----,135745.6049999455,135743.53999999585,133944.859,133952.70499994513,133961.55,135761.744,,25,study
screen,html.Screen,2_1_0_1_26,2021-04-24T16:38:46.528Z,,,,,,,,,,,,,,,,,53,,,,,,,,,,,,,,653.7509999647154,,response,,,,99,,,,,,,Space,keypress(Space),,,,,,,,---- -- ----- -- ------ - ------- --- ----------<br>------------- ------ ------ ---- ---- ------- ----- -- ----<br>-------- ------- -- ---------- --- - --- ----- finds ----<br>---- --- --- ----- --- ---- ---- ------- ----- ---- -------<br>--- --- -- ----- -- --- ---- -- --- ---- -- ------ ------<br>--- ----- -- ----,136417.42499999236,136415.49499996472,135744.904,135746.02500000037,135761.744,136428.224,,26,finds
screen,html.Screen,2_1_0_1_27,2021-04-24T16:38:46.941Z,,,,,,,,,,,,,,,,,53,,,,,,,,,,,,,,399.86099998647114,,response,,,,99,,,,,,,Space,keypress(Space),,,,,,,,---- -- ----- -- ------ - ------- --- ----------<br>------------- ------ ------ ---- ---- ------- ----- -- ----<br>-------- ------- -- ---------- --- - --- ----- ----- that<br>---- --- --- ----- --- ---- ---- ------- ----- ---- -------<br>--- --- -- ----- -- --- ---- -- --- ---- -- ------ ------<br>--- ----- -- ----,136830.2599999588,136828.08499998646,136412.918,136417.78499999782,136428.224,136844.813,,27,that
screen,html.Screen,2_1_0_1_28,2021-04-24T16:38:47.493Z,,,,,,,,,,,,,,,,,53,,,,,,,,,,,,,,535.5369999921822,,response,,,,99,,,,,,,Space,keypress(Space),,,,,,,,---- -- ----- -- ------ - ------- --- ----------<br>------------- ------ ------ ---- ---- ------- ----- -- ----<br>-------- ------- -- ---------- --- - --- ----- ----- ----<br>it's --- --- ----- --- ---- ---- ------- ----- ---- -------<br>--- --- -- ----- -- --- ---- -- --- ---- -- ------ ------<br>--- ----- -- ----,137382.24499998614,137380.34999999218,136828.131,136830.7499999646,136844.813,137394.84,,28,it's
screen,html.Screen,2_1_0_1_29,2021-04-24T16:38:47.884Z,,,,,,,,,,,,,,,,,53,,,,,,,,,,,,,,376.49499999763793,,response,,,,99,,,,,,,Space,keypress(Space),,,,,,,,---- -- ----- -- ------ - ------- --- ----------<br>------------- ------ ------ ---- ---- ------- ----- -- ----<br>-------- ------- -- ---------- --- - --- ----- ----- ----<br>---- not --- ----- --- ---- ---- ------- ----- ---- -------<br>--- --- -- ----- -- --- ---- -- --- ---- -- ------ ------<br>--- ----- -- ----,137773.26999994693,137771.33499999763,137378.123,137382.62499996927,137394.84,137778.801,,29,not
screen,html.Screen,2_1_0_1_30,2021-04-24T16:38:48.389Z,,,,,,,,,,,,,,,,,53,,,,,,,,,,,,,,497.50899998654495,,response,,,,99,,,,,,,Space,keypress(Space),,,,,,,,---- -- ----- -- ------ - ------- --- ----------<br>------------- ------ ------ ---- ---- ------- ----- -- ----<br>-------- ------- -- ---------- --- - --- ----- ----- ----<br>---- --- how ----- --- ---- ---- ------- ----- ---- -------<br>--- --- -- ----- -- --- ---- -- --- ---- -- ------ ------<br>--- ----- -- ----,138277.89499994833,138276.30999998655,137761.597,137773.6749999458,137778.801,138294.798,,30,how
screen,html.Screen,2_1_0_1_31,2021-04-24T16:38:48.876Z,,,,,,,,,,,,,,,,,53,,,,,,,,,,,,,,468.1269999881624,,response,,,,99,,,,,,,Space,keypress(Space),,,,,,,,---- -- ----- -- ------ - ------- --- ----------<br>------------- ------ ------ ---- ---- ------- ----- -- ----<br>-------- ------- -- ---------- --- - --- ----- ----- ----<br>---- --- --- close --- ---- ---- ------- ----- ---- -------<br>--- --- -- ----- -- --- ---- -- --- ---- -- ------ ------<br>--- ----- -- ----,138764.58999997703,138762.92499998817,138278.12,138278.52499997243,138294.798,138778.505,,31,close
screen,html.Screen,2_1_0_1_32,2021-04-24T16:38:49.517Z,,,,,,,,,,,,,,,,,53,,,,,,,,,,,,,,624.8499999585329,,response,,,,99,,,,,,,Space,keypress(Space),,,,,,,,---- -- ----- -- ------ - ------- --- ----------<br>------------- ------ ------ ---- ---- ------- ----- -- ----<br>-------- ------- -- ---------- --- - --- ----- ----- ----<br>---- --- --- ----- you ---- ---- ------- ----- ---- -------<br>--- --- -- ----- -- --- ---- -- --- ---- -- ------ ------<br>--- ----- -- ----,139405.48999997554,139403.35499995854,138761.619,138764.9799999781,138778.505,139411.53,,32,you
screen,html.Screen,2_1_0_1_33,2021-04-24T16:38:50.288Z,,,,,,,,,,,,,,,,,53,,,,,,,,,,,,,,763.4649999502872,,response,,,,99,,,,,,,Space,keypress(Space),,,,,,,,---- -- ----- -- ------ - ------- --- ----------<br>------------- ------ ------ ---- ---- ------- ----- -- ----<br>-------- ------- -- ---------- --- - --- ----- ----- ----<br>---- --- --- ----- --- feel ---- ------- ----- ---- -------<br>--- --- -- ----- -- --- ---- -- --- ---- -- ------ ------<br>--- ----- -- ----,140176.99999996694,140174.9949999503,139394.783,139405.92999994988,139411.53,140195.445,,33,feel
screen,html.Screen,2_1_0_1_34,2021-04-24T16:38:50.781Z,,,,,,,,,,,,,,,,,53,,,,,,,,,,,,,,472.8399999633548,,response,,,,99,,,,,,,Space,keypress(Space),,,,,,,,---- -- ----- -- ------ - ------- --- ----------<br>------------- ------ ------ ---- ---- ------- ----- -- ----<br>-------- ------- -- ---------- --- - --- ----- ----- ----<br>---- --- --- ----- --- ---- that ------- ----- ---- -------<br>--- --- -- ----- -- --- ---- -- --- ---- -- ------ ------<br>--- ----- -- ----,140670.3999999445,140668.28499996336,140178.183,140177.54999996396,140195.445,140678.349,,34,that
screen,html.Screen,2_1_0_1_35,2021-04-24T16:38:51.148Z,,,,,,,,,,,,,,,,,53,,,,,,,,,,,,,,356.5859999451204,,response,,,,99,,,,,,,Space,keypress(Space),,,,,,,,---- -- ----- -- ------ - ------- --- ----------<br>------------- ------ ------ ---- ---- ------- ----- -- ----<br>-------- ------- -- ---------- --- - --- ----- ----- ----<br>---- --- --- ----- --- ---- ---- matters ----- ---- -------<br>--- --- -- ----- -- --- ---- -- --- ---- -- ------ ------<br>--- ----- -- ----,141036.9049999863,141034.9349999451,140661.451,140671.0299999686,140678.349,141044.812,,35,matters
screen,html.Screen,2_1_0_1_36,2021-04-24T16:38:51.716Z,,,,,,,,,,,,,,,,,53,,,,,,,,,,,,,,557.9529999596125,,response,,,,99,,,,,,,Space,keypress(Space),,,,,,,,"---- -- ----- -- ------ - ------- --- ----------<br>------------- ------ ------ ---- ---- ------- ----- -- ----<br>-------- ------- -- ---------- --- - --- ----- ----- ----<br>---- --- --- ----- --- ---- ---- ------- most, ---- -------<br>--- --- -- ----- -- --- ---- -- --- ---- -- ------ ------<br>--- ----- -- ----",141604.49999995762,141602.76499995962,141028.071,141038.44999999274,141044.812,141611.459,,36,"most,"
screen,html.Screen,2_1_0_1_37,2021-04-24T16:38:52.348Z,,,,,,,,,,,,,,,,,53,,,,,,,,,,,,,,623.760999973194,,response,,,,99,,,,,,,Space,keypress(Space),,,,,,,,---- -- ----- -- ------ - ------- --- ----------<br>------------- ------ ------ ---- ---- ------- ----- -- ----<br>-------- ------- -- ---------- --- - --- ----- ----- ----<br>---- --- --- ----- --- ---- ---- ------- ----- it's -------<br>--- --- -- ----- -- --- ---- -- --- ---- -- ------ ------<br>--- ----- -- ----,142237.05999995582,142235.2199999732,141594.758,141604.87499996088,141611.459,142245.012,,37,it's
screen,html.Screen,2_1_0_1_38,2021-04-24T16:38:52.780Z,,,,,,,,,,,,,,,,,53,,,,,,,,,,,,,,421.52299996756483,,response,,,,99,,,,,,,Space,keypress(Space),,,,,,,,---- -- ----- -- ------ - ------- --- ----------<br>------------- ------ ------ ---- ---- ------- ----- -- ----<br>-------- ------- -- ---------- --- - --- ----- ----- ----<br>---- --- --- ----- --- ---- ---- ------- ----- ---- whether<br>--- --- -- ----- -- --- ---- -- --- ---- -- ------ ------<br>--- ----- -- ----,142668.51999994833,142666.53499996755,142228.065,142237.47999995248,142245.012,142678.301,,38,whether
screen,html.Screen,2_1_0_1_39,2021-04-24T16:38:53.183Z,,,,,,,,,,,,,,,,,53,,,,,,,,,,,,,,391.6889999890409,,response,,,,99,,,,,,,Space,keypress(Space),,,,,,,,---- -- ----- -- ------ - ------- --- ----------<br>------------- ------ ------ ---- ---- ------- ----- -- ----<br>-------- ------- -- ---------- --- - --- ----- ----- ----<br>---- --- --- ----- --- ---- ---- ------- ----- ---- -------<br>you --- -- ----- -- --- ---- -- --- ---- -- ------ ------<br>--- ----- -- ----,143072.0549999969,143069.98999998905,142661.411,142668.94999996293,142678.301,143078.165,,39,you
screen,html.Screen,2_1_0_1_40,2021-04-24T16:38:53.619Z,,,,,,,,,,,,,,,,,53,,,,,,,,,,,,,,428.2049999591254,,response,,,,99,,,,,,,Space,keypress(Space),,,,,,,,---- -- ----- -- ------ - ------- --- ----------<br>------------- ------ ------ ---- ---- ------- ----- -- ----<br>-------- ------- -- ---------- --- - --- ----- ----- ----<br>---- --- --- ----- --- ---- ---- ------- ----- ---- -------<br>--- are -- ----- -- --- ---- -- --- ---- -- ------ ------<br>--- ----- -- ----,143508.2049999619,143506.36999995913,143061.496,143075.0049999915,143078.165,143511.865,,40,are
screen,html.Screen,2_1_0_1_41,2021-04-24T16:38:54.050Z,,,,,,,,,,,,,,,,,53,,,,,,,,,,,,,,425.42999995243736,,response,,,,99,,,,,,,Space,keypress(Space),,,,,,,,---- -- ----- -- ------ - ------- --- ----------<br>------------- ------ ------ ---- ---- ------- ----- -- ----<br>-------- ------- -- ---------- --- - --- ----- ----- ----<br>---- --- --- ----- --- ---- ---- ------- ----- ---- -------<br>--- --- as ----- -- --- ---- -- --- ---- -- ------ ------<br>--- ----- -- ----,143938.9599999995,143937.29499995243,143494.922,143508.57999996515,143511.865,143944.854,,41,as
screen,html.Screen,2_1_0_1_42,2021-04-24T16:38:54.479Z,,,,,,,,,,,,,,,,,53,,,,,,,,,,,,,,420.7559999789228,,response,,,,99,,,,,,,Space,keypress(Space),,,,,,,,---- -- ----- -- ------ - ------- --- ----------<br>------------- ------ ------ ---- ---- ------- ----- -- ----<br>-------- ------- -- ---------- --- - --- ----- ----- ----<br>---- --- --- ----- --- ---- ---- ------- ----- ---- -------<br>--- --- -- close -- --- ---- -- --- ---- -- ------ ------<br>--- ----- -- ----,144367.51499999082,144365.60999997891,143928.053,143939.42999996943,143944.854,144378.532,,42,close
screen,html.Screen,2_1_0_1_43,2021-04-24T16:38:54.937Z,,,,,,,,,,,,,,,,,53,,,,,,,,,,,,,,445.9679999878863,,response,,,,99,,,,,,,Space,keypress(Space),,,,,,,,---- -- ----- -- ------ - ------- --- ----------<br>------------- ------ ------ ---- ---- ------- ----- -- ----<br>-------- ------- -- ---------- --- - --- ----- ----- ----<br>---- --- --- ----- --- ---- ---- ------- ----- ---- -------<br>--- --- -- ----- as --- ---- -- --- ---- -- ------ ------<br>--- ----- -- ----,144826.1249999632,144824.4999999879,144361.772,144367.8699999582,144378.532,144846.238,,43,as
screen,html.Screen,2_1_0_1_44,2021-04-24T16:38:55.337Z,,,,,,,,,,,,,,,,,53,,,,,,,,,,,,,,377.78699994494673,,response,,,,99,,,,,,,Space,keypress(Space),,,,,,,,---- -- ----- -- ------ - ------- --- ----------<br>------------- ------ ------ ---- ---- ------- ----- -- ----<br>-------- ------- -- ---------- --- - --- ----- ----- ----<br>---- --- --- ----- --- ---- ---- ------- ----- ---- -------<br>--- --- -- ----- -- you ---- -- --- ---- -- ------ ------<br>--- ----- -- ----,145225.51999997813,145224.02499994496,144811.529,144826.54499995988,144846.238,145228.062,,44,you
screen,html.Screen,2_1_0_1_45,2021-04-24T16:38:55.763Z,,,,,,,,,,,,,,,,,53,,,,,,,,,,,,,,421.9679999606742,,response,,,,99,,,,,,,Space,keypress(Space),,,,,,,,---- -- ----- -- ------ - ------- --- ----------<br>------------- ------ ------ ---- ---- ------- ----- -- ----<br>-------- ------- -- ---------- --- - --- ----- ----- ----<br>---- --- --- ----- --- ---- ---- ------- ----- ---- -------<br>--- --- -- ----- -- --- want -- --- ---- -- ------ ------<br>--- ----- -- ----,145652.06499997294,145650.02999996068,145211.595,145225.8799999836,145228.062,145661.793,,45,want
screen,html.Screen,2_1_0_1_46,2021-04-24T16:38:56.119Z,,,,,,,,,,,,,,,,,53,,,,,,,,,,,,,,344.2069999939413,,response,,,,99,,,,,,,Space,keypress(Space),,,,,,,,---- -- ----- -- ------ - ------- --- ----------<br>------------- ------ ------ ---- ---- ------- ----- -- ----<br>-------- ------- -- ---------- --- - --- ----- ----- ----<br>---- --- --- ----- --- ---- ---- ------- ----- ---- -------<br>--- --- -- ----- -- --- ---- to --- ---- -- ------ ------<br>--- ----- -- ----,146007.89999996778,146005.99999999395,145644.7,145654.81499995803,145661.793,146011.83,,46,to
screen,html.Screen,2_1_0_1_47,2021-04-24T16:38:56.579Z,,,,,,,,,,,,,,,,,53,,,,,,,,,,,,,,454.8849999877566,,response,,,,99,,,,,,,Space,keypress(Space),,,,,,,,"---- -- ----- -- ------ - ------- --- ----------<br>------------- ------ ------ ---- ---- ------- ----- -- ----<br>-------- ------- -- ---------- --- - --- ----- ----- ----<br>---- --- --- ----- --- ---- ---- ------- ----- ---- -------<br>--- --- -- ----- -- --- ---- -- be, ---- -- ------ ------<br>--- ----- -- ----",146468.42999994988,146466.71499998774,145994.803,146008.35499999812,146011.83,146478.192,,47,"be,"
screen,html.Screen,2_1_0_1_48,2021-04-24T16:38:56.965Z,,,,,,,,,,,,,,,,,53,,,,,,,,,,,,,,374.0429999984626,,response,,,,99,,,,,,,Space,keypress(Space),,,,,,,,---- -- ----- -- ------ - ------- --- ----------<br>------------- ------ ------ ---- ---- ------- ----- -- ----<br>-------- ------- -- ---------- --- - --- ----- ----- ----<br>---- --- --- ----- --- ---- ---- ------- ----- ---- -------<br>--- --- -- ----- -- --- ---- -- --- even -- ------ ------<br>--- ----- -- ----,146853.8149999804,146852.23499999847,146461.339,146468.75499997986,146478.192,146861.489,,48,even
screen,html.Screen,2_1_0_1_49,2021-04-24T16:38:57.395Z,,,,,,,,,,,,,,,,,53,,,,,,,,,,,,,,421.07099996326724,,response,,,,99,,,,,,,Space,keypress(Space),,,,,,,,---- -- ----- -- ------ - ------- --- ----------<br>------------- ------ ------ ---- ---- ------- ----- -- ----<br>-------- ------- -- ---------- --- - --- ----- ----- ----<br>---- --- --- ----- --- ---- ---- ------- ----- ---- -------<br>--- --- -- ----- -- --- ---- -- --- ---- if ------ ------<br>--- ----- -- ----,147284.33999995468,147282.55999996327,146844.884,146854.12999999244,146861.489,147294.738,,49,if
screen,html.Screen,2_1_0_1_50,2021-04-24T16:38:57.860Z,,,,,,,,,,,,,,,,,53,,,,,,,,,,,,,,452.6319999973057,,response,,,,99,,,,,,,Space,keypress(Space),,,,,,,,---- -- ----- -- ------ - ------- --- ----------<br>------------- ------ ------ ---- ---- ------- ----- -- ----<br>-------- ------- -- ---------- --- - --- ----- ----- ----<br>---- --- --- ----- --- ---- ---- ------- ----- ---- -------<br>--- --- -- ----- -- --- ---- -- --- ---- -- that's ------<br>--- ----- -- ----,147748.97499999497,147747.36999999732,147278.011,147284.81999994256,147294.738,147761.367,,50,that's
screen,html.Screen,2_1_0_1_51,2021-04-24T16:38:58.386Z,,,,,,,,,,,,,,,,,53,,,,,,,,,,,,,,511.84299995572655,,response,,,,99,,,,,,,Space,keypress(Space),,,,,,,,---- -- ----- -- ------ - ------- --- ----------<br>------------- ------ ------ ---- ---- ------- ----- -- ----<br>-------- ------- -- ---------- --- - --- ----- ----- ----<br>---- --- --- ----- --- ---- ---- ------- ----- ---- -------<br>--- --- -- ----- -- --- ---- -- --- ---- -- ------ really<br>--- ----- -- ----,148275.00499994494,148273.20999995572,147745.075,147749.3099999847,147761.367,148278.03,,51,really
screen,html.Screen,2_1_0_1_52,2021-04-24T16:38:58.825Z,,,,,,,,,,,,,,,,,53,,,,,,,,,,,,,,434.42999995153514,,response,,,,99,,,,,,,Space,keypress(Space),,,,,,,,---- -- ----- -- ------ - ------- --- ----------<br>------------- ------ ------ ---- ---- ------- ----- -- ----<br>-------- ------- -- ---------- --- - --- ----- ----- ----<br>---- --- --- ----- --- ---- ---- ------- ----- ---- -------<br>--- --- -- ----- -- --- ---- -- --- ---- -- ------ ------<br>not ----- -- ----,148714.47499998612,148712.45999995153,148261.343,148275.43499995954,148278.03,148727.997,,52,not
screen,html.Screen,2_1_0_1_53,2021-04-24T16:38:59.297Z,,,,,,,,,,,,,,,,,53,,,,,,,,,,,,,,456.17299996406655,,response,,,,99,,,,,,,Space,keypress(Space),,,,,,,,---- -- ----- -- ------ - ------- --- ----------<br>------------- ------ ------ ---- ---- ------- ----- -- ----<br>-------- ------- -- ---------- --- - --- ----- ----- ----<br>---- --- --- ----- --- ---- ---- ------- ----- ---- -------<br>--- --- -- ----- -- --- ---- -- --- ---- -- ------ ------<br>--- close -- ----,149186.09499995364,149184.16999996407,148711.328,148714.8949999828,148727.997,149195.034,,53,close
screen,html.Screen,2_1_0_1_54,2021-04-24T16:38:59.687Z,,,,,,,,,,,,,,,,,53,,,,,,,,,,,,,,379.25099998057703,,response,,,,99,,,,,,,Space,keypress(Space),,,,,,,,---- -- ----- -- ------ - ------- --- ----------<br>------------- ------ ------ ---- ---- ------- ----- -- ----<br>-------- ------- -- ---------- --- - --- ----- ----- ----<br>---- --- --- ----- --- ---- ---- ------- ----- ---- -------<br>--- --- -- ----- -- --- ---- -- --- ---- -- ------ ------<br>--- ----- at ----,149576.31999999285,149574.2849999806,149177.995,149186.46499997703,149195.034,149595.221,,54,at
screen,html.Screen,2_1_0_1_55,2021-04-24T16:39:00.467Z,,,,,,,,,,,,,,,,,53,,,,,,,,,,,,,,759.0789999481349,,response,,,,99,,,,,,,Space,keypress(Space),,,,,,,,---- -- ----- -- ------ - ------- --- ----------<br>------------- ------ ------ ---- ---- ------- ----- -- ----<br>-------- ------- -- ---------- --- - --- ----- ----- ----<br>---- --- --- ----- --- ---- ---- ------- ----- ---- -------<br>--- --- -- ----- -- --- ---- -- --- ---- -- ------ ------<br>--- ----- -- all.,150355.92499998165,150354.29999994813,149561.36,149576.71999995364,149595.221,150361.582,,55,all.
Item 99,flow.Loop,2_1_0_1,2021-04-24T16:39:00.468Z,,,,,,,,,,,,,,,,,,,,,,,,,,,,,,,31725.89999994813,,completion,,,,,D,,,,,,,,,,,silence,,,,,150356.71999998158,150354.29999994813,118595.041,118596.16999997525,118628.4,150361.582,,,
Question 1,html.Screen,2_1_0_2,2021-04-24T16:39:04.183Z,,,,,,,,,,,,,,,,,,,,,,,,,,,,true,FALSE,,3708.0429999455228,,response,,,,99,D,,,,,,FALSE,click #choice-2,,,,silence,,,,,154071.6399999801,154069.62499994552,150344.746,150357.1799999918,150361.582,154077.969,,,
Question 2,html.Screen,2_1_0_3,2021-04-24T16:39:08.183Z,,,,,,,,,,,,,,,,,,,,,,,,,,,,true,TRUE,,3991.87599999088,,response,,,,99,D,,,,,,TRUE,click #choice-1,,,,silence,,,,,158071.74499996472,158069.8449999909,154061.283,154072.13499996578,154077.969,158078.233,,,
Item 99,flow.Sequence,2_1_0,2021-04-24T16:39:08.184Z,,,,,,,,,,,,,,,,,,,,,,,,,,,,,,,49457.9829999909,,completion,,,,,,,,,,,,,,,,,,,,,158072.4999999511,158069.8449999909,108595.15,108607.70499997307,108611.862,158078.233,,,
Holding screen,html.Screen,2_1_1_0,2021-04-24T16:39:18.174Z,,,,,,,,,,,,,,,,,,,,,,,,,,,,,,,9999.995999999985,,timeout,,,,,,,,,,,,,,,,,,,,,168062.63999996008,168061.082,158061.243,158072.85999995656,158078.233,168078.229,,,
screen,html.Screen,2_1_1_1_0,2021-04-24T16:39:18.827Z,,,,,,,,,,,,,,,,,54,,,,,,,,,,,,,,635.2609999946435,,response,,,,100,,,,,,,Space,keypress(Space),,,,,,,,At --- ---- --- ------ ----- ------- ---- -- --- ------- --<br>------- ---------- ------ -- ----- -- ----- -- ---- ------<br>--- ----- --- --- ------ -------- ----- --- ------ ----- --<br>----- ----- ---------- --- --- ------ ------ ---- -- ------<br>------- --- ------ ----- --- ---- ------- -- ---- --- --<br>------- ------,168715.6299999915,168713.48999999464,168061.082,168062.98499996774,168078.229,168727.981,,0,At
screen,html.Screen,2_1_1_1_1,2021-04-24T16:39:19.333Z,,,,,,,,,,,,,,,,,54,,,,,,,,,,,,,,492.01399999219575,,response,,,,100,,,,,,,Space,keypress(Space),,,,,,,,-- the ---- --- ------ ----- ------- ---- -- --- ------- --<br>------- ---------- ------ -- ----- -- ----- -- ---- ------<br>--- ----- --- --- ------ -------- ----- --- ------ ----- --<br>----- ----- ---------- --- --- ------ ------ ---- -- ------<br>------- --- ------ ----- --- ---- ------- -- ---- --- --<br>------- ------,169221.58499999205,169219.9949999922,168711.076,168716.1549999728,168727.981,169227.821,,1,the
screen,html.Screen,2_1_1_1_2,2021-04-24T16:39:19.732Z,,,,,,,,,,,,,,,,,54,,,,,,,,,,,,,,392.02899995911866,,response,,,,100,,,,,,,Space,keypress(Space),,,,,,,,-- --- time --- ------ ----- ------- ---- -- --- ------- --<br>------- ---------- ------ -- ----- -- ----- -- ---- ------<br>--- ----- --- --- ------ -------- ----- --- ------ ----- --<br>----- ----- ---------- --- --- ------ ------ ---- -- ------<br>------- --- ------ ----- --- ---- ------- -- ---- --- --<br>------- ------,169621.39499996556,169619.84999995911,169211.082,169222.0049999887,169227.821,169627.8,,2,time
screen,html.Screen,2_1_1_1_3,2021-04-24T16:39:20.150Z,,,,,,,,,,,,,,,,,54,,,,,,,,,,,,,,410.2149999982794,,response,,,,100,,,,,,,Space,keypress(Space),,,,,,,,-- --- ---- the ------ ----- ------- ---- -- --- ------- --<br>------- ---------- ------ -- ----- -- ----- -- ---- ------<br>--- ----- --- --- ------ -------- ----- --- ------ ----- --<br>----- ----- ---------- --- --- ------ ------ ---- -- ------<br>------- --- ------ ----- --- ---- ------- -- ---- --- --<br>------- ------,170039.43499998422,170038.01499999827,169611.099,169621.76499998895,169627.8,170044.585,,3,the
screen,html.Screen,2_1_1_1_4,2021-04-24T16:39:20.520Z,,,,,,,,,,,,,,,,,54,,,,,,,,,,,,,,362.59999996001716,,response,,,,100,,,,,,,Space,keypress(Space),,,,,,,,-- --- ---- --- French ----- ------- ---- -- --- ------- --<br>------- ---------- ------ -- ----- -- ----- -- ---- ------<br>--- ----- --- --- ------ -------- ----- --- ------ ----- --<br>----- ----- ---------- --- --- ------ ------ ---- -- ------<br>------- --- ------ ----- --- ---- ------- -- ---- --- --<br>------- ------,170408.9049999602,170407.18499996,170027.738,170039.75499997614,170044.585,170411.749,,4,French
screen,html.Screen,2_1_1_1_5,2021-04-24T16:39:20.919Z,,,,,,,,,,,,,,,,,54,,,,,,,,,,,,,,394.7459999679704,,response,,,,100,,,,,,,Space,keypress(Space),,,,,,,,-- --- ---- --- ------ crown ------- ---- -- --- ------- --<br>------- ---------- ------ -- ----- -- ----- -- ---- ------<br>--- ----- --- --- ------ -------- ----- --- ------ ----- --<br>----- ----- ---------- --- --- ------ ------ ---- -- ------<br>------- --- ------ ----- --- ---- ------- -- ---- --- --<br>------- ------,170808.18499997258,170806.49499996798,170394.406,170409.2299999902,170411.749,170811.538,,5,crown
screen,html.Screen,2_1_1_1_6,2021-04-24T16:39:21.324Z,,,,,,,,,,,,,,,,,54,,,,,,,,,,,,,,399.44699995423434,,response,,,,100,,,,,,,Space,keypress(Space),,,,,,,,-- --- ---- --- ------ ----- secured ---- -- --- ------- --<br>------- ---------- ------ -- ----- -- ----- -- ---- ------<br>--- ----- --- --- ------ -------- ----- --- ------ ----- --<br>----- ----- ---------- --- --- ------ ------ ---- -- ------<br>------- --- ------ ----- --- ---- ------- -- ---- --- --<br>------- ------,171212.72999997018,171210.98499995423,170794.4,170808.51499998244,170811.538,171228.261,,6,secured
screen,html.Screen,2_1_1_1_7,2021-04-24T16:39:21.844Z,,,,,,,,,,,,,,,,,54,,,,,,,,,,,,,,503.59399996179854,,response,,,,100,,,,,,,Space,keypress(Space),,,,,,,,-- --- ---- --- ------ ----- ------- much -- --- ------- --<br>------- ---------- ------ -- ----- -- ----- -- ---- ------<br>--- ----- --- --- ------ -------- ----- --- ------ ----- --<br>----- ----- ---------- --- --- ------ ------ ---- -- ------<br>------- --- ------ ----- --- ---- ------- -- ---- --- --<br>------- ------,171733.45999995945,171731.8549999618,171211.487,171213.0499999621,171228.261,171744.687,,7,much
screen,html.Screen,2_1_1_1_8,2021-04-24T16:39:22.233Z,,,,,,,,,,,,,,,,,54,,,,,,,,,,,,,,375.0279999788909,,response,,,,100,,,,,,,Space,keypress(Space),,,,,,,,-- --- ---- --- ------ ----- ------- ---- of --- ------- --<br>------- ---------- ------ -- ----- -- ----- -- ---- ------<br>--- ----- --- --- ------ -------- ----- --- ------ ----- --<br>----- ----- ---------- --- --- ------ ------ ---- -- ------<br>------- --- ------ ----- --- ---- ------- -- ---- --- --<br>------- ------,172121.49999995017,172119.7149999789,171727.707,171733.81499998504,171744.687,172127.869,,8,of
screen,html.Screen,2_1_1_1_9,2021-04-24T16:39:22.658Z,,,,,,,,,,,,,,,,,54,,,,,,,,,,,,,,417.2009999928414,,response,,,,100,,,,,,,Space,keypress(Space),,,,,,,,-- --- ---- --- ------ ----- ------- ---- -- its ------- --<br>------- ---------- ------ -- ----- -- ----- -- ---- ------<br>--- ----- --- --- ------ -------- ----- --- ------ ----- --<br>----- ----- ---------- --- --- ------ ------ ---- -- ------<br>------- --- ------ ----- --- ---- ------- -- ---- --- --<br>------- ------,172546.7049999861,172545.06999999285,172111.049,172121.83999997796,172127.869,172561.431,,9,its
screen,html.Screen,2_1_1_1_10,2021-04-24T16:39:23.087Z,,,,,,,,,,,,,,,,,54,,,,,,,,,,,,,,412.3789999958535,,response,,,,100,,,,,,,Space,keypress(Space),,,,,,,,-- --- ---- --- ------ ----- ------- ---- -- --- revenue --<br>------- ---------- ------ -- ----- -- ----- -- ---- ------<br>--- ----- --- --- ------ -------- ----- --- ------ ----- --<br>----- ----- ---------- --- --- ------ ------ ---- -- ------<br>------- --- ------ ----- --- ---- ------- -- ---- --- --<br>------- ------,172975.73499998543,172973.80999999586,172544.365,172547.29499999667,172561.431,172978.28,,10,revenue
screen,html.Screen,2_1_1_1_11,2021-04-24T16:39:23.489Z,,,,,,,,,,,,,,,,,54,,,,,,,,,,,,,,397.72499996915576,,response,,,,100,,,,,,,Space,keypress(Space),,,,,,,,-- --- ---- --- ------ ----- ------- ---- -- --- ------- by<br>------- ---------- ------ -- ----- -- ----- -- ---- ------<br>--- ----- --- --- ------ -------- ----- --- ------ ----- --<br>----- ----- ---------- --- --- ------ ------ ---- -- ------<br>------- --- ------ ----- --- ---- ------- -- ---- --- --<br>------- ------,173377.69499997376,173376.00499996915,172961.031,172976.16500000004,172978.28,173394.369,,11,by
screen,html.Screen,2_1_1_1_12,2021-04-24T16:39:23.920Z,,,,,,,,,,,,,,,,,54,,,,,,,,,,,,,,412.71099999867147,,response,,,,100,,,,,,,Space,keypress(Space),,,,,,,,-- --- ---- --- ------ ----- ------- ---- -- --- ------- --<br>issuing ---------- ------ -- ----- -- ----- -- ---- ------<br>--- ----- --- --- ------ -------- ----- --- ------ ----- --<br>----- ----- ---------- --- --- ------ ------ ---- -- ------<br>------- --- ------ ----- --- ---- ------- -- ---- --- --<br>------- ------,173808.63999994472,173807.07999999868,173377.711,173378.10999999056,173394.369,173811.59,,12,issuing
screen,html.Screen,2_1_1_1_13,2021-04-24T16:39:24.353Z,,,,,,,,,,,,,,,,,54,,,,,,,,,,,,,,428.10999997644103,,response,,,,100,,,,,,,Space,keypress(Space),,,,,,,,-- --- ---- --- ------ ----- ------- ---- -- --- ------- --<br>------- government ------ -- ----- -- ----- -- ---- ------<br>--- ----- --- --- ------ -------- ----- --- ------ ----- --<br>----- ----- ---------- --- --- ------ ------ ---- -- ------<br>------- --- ------ ----- --- ---- ------- -- ---- --- --<br>------- ------,174241.56999995466,174239.69999997644,173794.817,173808.92999999924,173811.59,174244.574,,13,government
screen,html.Screen,2_1_1_1_14,2021-04-24T16:39:24.729Z,,,,,,,,,,,,,,,,,54,,,,,,,,,,,,,,371.8359999587119,,response,,,,100,,,,,,,Space,keypress(Space),,,,,,,,-- --- ---- --- ------ ----- ------- ---- -- --- ------- --<br>------- ---------- bonds. -- ----- -- ----- -- ---- ------<br>--- ----- --- --- ------ -------- ----- --- ------ ----- --<br>----- ----- ---------- --- --- ------ ------ ---- -- ------<br>------- --- ------ ----- --- ---- ------- -- ---- --- --<br>------- ------,174618.22999996366,174616.4099999587,174227.709,174241.94499995792,174244.574,174627.953,,14,bonds.
screen,html.Screen,2_1_1_1_15,2021-04-24T16:39:25.362Z,,,,,,,,,,,,,,,,,54,,,,,,,,,,,,,,621.2919999553997,,response,,,,100,,,,,,,Space,keypress(Space),,,,,,,,-- --- ---- --- ------ ----- ------- ---- -- --- ------- --<br>------- ---------- ------ In ----- -- ----- -- ---- ------<br>--- ----- --- --- ------ -------- ----- --- ------ ----- --<br>----- ----- ---------- --- --- ------ ------ ---- -- ------<br>------- --- ------ ----- --- ---- ------- -- ---- --- --<br>------- ------,175250.9649999556,175249.2449999554,174611.026,174618.63499996252,174627.953,175261.041,,15,In
screen,html.Screen,2_1_1_1_16,2021-04-24T16:39:25.839Z,,,,,,,,,,,,,,,,,54,,,,,,,,,,,,,,464.643999953958,,response,,,,100,,,,,,,Space,keypress(Space),,,,,,,,"-- --- ---- --- ------ ----- ------- ---- -- --- ------- --<br>------- ---------- ------ -- 1727, -- ----- -- ---- ------<br>--- ----- --- --- ------ -------- ----- --- ------ ----- --<br>----- ----- ---------- --- --- ------ ------ ---- -- ------<br>------- --- ------ ----- --- ---- ------- -- ---- --- --<br>------- ------",175727.734999964,175725.68499995396,175244.335,175251.52999995044,175261.041,175744.853,,16,"1727,"
screen,html.Screen,2_1_1_1_17,2021-04-24T16:39:27.070Z,,,,,,,,,,,,,,,,,54,,,,,,,,,,,,,,1212.6819999940926,,response,,,,100,,,,,,,Space,keypress(Space),,,,,,,,-- --- ---- --- ------ ----- ------- ---- -- --- ------- --<br>------- ---------- ------ -- ----- in ----- -- ---- ------<br>--- ----- --- --- ------ -------- ----- --- ------ ----- --<br>----- ----- ---------- --- --- ------ ------ ---- -- ------<br>------- --- ------ ----- --- ---- ------- -- ---- --- --<br>------- ------,176959.27499997197,176957.5349999941,175727.675,175728.07999997167,175744.853,176979.429,,17,in
screen,html.Screen,2_1_1_1_18,2021-04-24T16:39:27.560Z,,,,,,,,,,,,,,,,,54,,,,,,,,,,,,,,467.59599994309247,,response,,,,100,,,,,,,Space,keypress(Space),,,,,,,,-- --- ---- --- ------ ----- ------- ---- -- --- ------- --<br>------- ---------- ------ -- ----- -- order -- ---- ------<br>--- ----- --- --- ------ -------- ----- --- ------ ----- --<br>----- ----- ---------- --- --- ------ ------ ---- -- ------<br>------- --- ------ ----- --- ---- ------- -- ---- --- --<br>------- ------,177448.7149999477,177447.0249999431,176944.424,176959.60499998182,176979.429,177461.01,,18,order
screen,html.Screen,2_1_1_1_19,2021-04-24T16:39:27.984Z,,,,,,,,,,,,,,,,,54,,,,,,,,,,,,,,410.39499998348765,,response,,,,100,,,,,,,Space,keypress(Space),,,,,,,,-- --- ---- --- ------ ----- ------- ---- -- --- ------- --<br>------- ---------- ------ -- ----- -- ----- to ---- ------<br>--- ----- --- --- ------ -------- ----- --- ------ ----- --<br>----- ----- ---------- --- --- ------ ------ ---- -- ------<br>------- --- ------ ----- --- ---- ------- -- ---- --- --<br>------- ------,177873.36499994854,177871.4049999835,177444.305,177449.07499995315,177461.01,177877.945,,19,to
screen,html.Screen,2_1_1_1_20,2021-04-24T16:39:28.426Z,,,,,,,,,,,,,,,,,54,,,,,,,,,,,,,,434.88499995163875,,response,,,,100,,,,,,,Space,keypress(Space),,,,,,,,-- --- ---- --- ------ ----- ------- ---- -- --- ------- --<br>------- ---------- ------ -- ----- -- ----- -- save ------<br>--- ----- --- --- ------ -------- ----- --- ------ ----- --<br>----- ----- ---------- --- --- ------ ------ ---- -- ------<br>------- --- ------ ----- --- ---- ------- -- ---- --- --<br>------- ------,178314.8499999661,178312.82999995165,177860.971,177873.67499998072,177877.945,178327.827,,20,save
screen,html.Screen,2_1_1_1_21,2021-04-24T16:39:29.020Z,,,,,,,,,,,,,,,,,54,,,,,,,,,,,,,,579.2129999618628,,response,,,,100,,,,,,,Space,keypress(Space),,,,,,,,"-- --- ---- --- ------ ----- ------- ---- -- --- ------- --<br>------- ---------- ------ -- ----- -- ----- -- ---- money,<br>--- ----- --- --- ------ -------- ----- --- ------ ----- --<br>----- ----- ---------- --- --- ------ ------ ---- -- ------<br>------- --- ------ ----- --- ---- ------- -- ---- --- --<br>------- ------",178908.75999996206,178907.03999996185,178310.975,178315.22999994922,178327.827,178911.546,,21,"money,"
screen,html.Screen,2_1_1_1_22,2021-04-24T16:39:29.579Z,,,,,,,,,,,,,,,,,54,,,,,,,,,,,,,,554.0939999512339,,response,,,,100,,,,,,,Space,keypress(Space),,,,,,,,-- --- ---- --- ------ ----- ------- ---- -- --- ------- --<br>------- ---------- ------ -- ----- -- ----- -- ---- ------<br>the ----- --- --- ------ -------- ----- --- ------ ----- --<br>----- ----- ---------- --- --- ------ ------ ---- -- ------<br>------- --- ------ ----- --- ---- ------- -- ---- --- --<br>------- ------,179467.50999998767,179465.63999995124,178894.309,178909.169999999,178911.546,179477.946,,22,the
screen,html.Screen,2_1_1_1_23,2021-04-24T16:39:30.032Z,,,,,,,,,,,,,,,,,54,,,,,,,,,,,,,,440.7389999823645,,response,,,,100,,,,,,,Space,keypress(Space),,,,,,,,-- --- ---- --- ------ ----- ------- ---- -- --- ------- --<br>------- ---------- ------ -- ----- -- ----- -- ---- ------<br>--- state --- --- ------ -------- ----- --- ------ ----- --<br>----- ----- ---------- --- --- ------ ------ ---- -- ------<br>------- --- ------ ----- --- ---- ------- -- ---- --- --<br>------- ------,179921.3199999649,179918.68499998236,179460.943,179467.9049999686,179477.946,179927.662,,23,state
screen,html.Screen,2_1_1_1_24,2021-04-24T16:39:30.489Z,,,,,,,,,,,,,,,,,54,,,,,,,,,,,,,,448.1129999640398,,response,,,,100,,,,,,,Space,keypress(Space),,,,,,,,-- --- ---- --- ------ ----- ------- ---- -- --- ------- --<br>------- ---------- ------ -- ----- -- ----- -- ---- ------<br>--- ----- cut --- ------ -------- ----- --- ------ ----- --<br>----- ----- ---------- --- --- ------ ------ ---- -- ------<br>------- --- ------ ----- --- ---- ------- -- ---- --- --<br>------- ------,180377.6749999961,180375.77499996405,179910.967,179921.63499997696,179927.662,180394.381,,24,cut
screen,html.Screen,2_1_1_1_25,2021-04-24T16:39:30.944Z,,,,,,,,,,,,,,,,,54,,,,,,,,,,,,,,437.0139999865205,,response,,,,100,,,,,,,Space,keypress(Space),,,,,,,,-- --- ---- --- ------ ----- ------- ---- -- --- ------- --<br>------- ---------- ------ -- ----- -- ----- -- ---- ------<br>--- ----- --- the ------ -------- ----- --- ------ ----- --<br>----- ----- ---------- --- --- ------ ------ ---- -- ------<br>------- --- ------ ----- --- ---- ------- -- ---- --- --<br>------- ------,180832.78499997687,180831.3949999865,180377.622,180378.01499996567,180394.381,180844.271,,25,the
screen,html.Screen,2_1_1_1_26,2021-04-24T16:39:31.597Z,,,,,,,,,,,,,,,,,54,,,,,,,,,,,,,,640.1189999977942,,response,,,,100,,,,,,,Space,keypress(Space),,,,,,,,-- --- ---- --- ------ ----- ------- ---- -- --- ------- --<br>------- ---------- ------ -- ----- -- ----- -- ---- ------<br>--- ----- --- --- bonds' -------- ----- --- ------ ----- --<br>----- ----- ---------- --- --- ------ ------ ---- -- ------<br>------- --- ------ ----- --- ---- ------- -- ---- --- --<br>------- ------,181486.1549999914,181484.3899999978,180827.755,180833.2699999446,180844.271,181494.378,,26,bonds'
screen,html.Screen,2_1_1_1_27,2021-04-24T16:39:32.096Z,,,,,,,,,,,,,,,,,54,,,,,,,,,,,,,,488.98699999277596,,response,,,,100,,,,,,,Space,keypress(Space),,,,,,,,-- --- ---- --- ------ ----- ------- ---- -- --- ------- --<br>------- ---------- ------ -- ----- -- ----- -- ---- ------<br>--- ----- --- --- ------ interest ----- --- ------ ----- --<br>----- ----- ---------- --- --- ------ ------ ---- -- ------<br>------- --- ------ ----- --- ---- ------- -- ---- --- --<br>------- ------,181985.45499995816,181983.36499999277,181477.587,181486.55999999028,181494.378,181994.532,,27,interest
screen,html.Screen,2_1_1_1_28,2021-04-24T16:39:32.566Z,,,,,,,,,,,,,,,,,54,,,,,,,,,,,,,,458.81299998715986,,response,,,,100,,,,,,,Space,keypress(Space),,,,,,,,-- --- ---- --- ------ ----- ------- ---- -- --- ------- --<br>------- ---------- ------ -- ----- -- ----- -- ---- ------<br>--- ----- --- --- ------ -------- rate. --- ------ ----- --<br>----- ----- ---------- --- --- ------ ------ ---- -- ------<br>------- --- ------ ----- --- ---- ------- -- ---- --- --<br>------- ------,182455.37999999942,182453.34499998717,181977.747,181985.81499996362,181994.532,182461.342,,28,rate.
screen,html.Screen,2_1_1_1_29,2021-04-24T16:39:33.395Z,,,,,,,,,,,,,,,,,54,,,,,,,,,,,,,,821.0879999629105,,response,,,,100,,,,,,,Space,keypress(Space),,,,,,,,-- --- ---- --- ------ ----- ------- ---- -- --- ------- --<br>------- ---------- ------ -- ----- -- ----- -- ---- ------<br>--- ----- --- --- ------ -------- ----- The ------ ----- --<br>----- ----- ---------- --- --- ------ ------ ---- -- ------<br>------- --- ------ ----- --- ---- ------- -- ---- --- --<br>------- ------,183284.17999995872,183282.42999996291,182444.251,182455.7049999712,182461.342,183294.273,,29,The
screen,html.Screen,2_1_1_1_30,2021-04-24T16:39:33.804Z,,,,,,,,,,,,,,,,,54,,,,,,,,,,,,,,397.27699998865137,,response,,,,100,,,,,,,Space,keypress(Space),,,,,,,,-- --- ---- --- ------ ----- ------- ---- -- --- ------- --<br>------- ---------- ------ -- ----- -- ----- -- ---- ------<br>--- ----- --- --- ------ -------- ----- --- market ----- --<br>----- ----- ---------- --- --- ------ ------ ---- -- ------<br>------- --- ------ ----- --- ---- ------- -- ---- --- --<br>------- ------,183693.00499995006,183691.54999998864,183277.633,183284.52999994624,183294.273,183711.939,,30,market
screen,html.Screen,2_1_1_1_31,2021-04-24T16:39:34.297Z,,,,,,,,,,,,,,,,,54,,,,,,,,,,,,,,472.6459999808576,,response,,,,100,,,,,,,Space,keypress(Space),,,,,,,,-- --- ---- --- ------ ----- ------- ---- -- --- ------- --<br>------- ---------- ------ -- ----- -- ----- -- ---- ------<br>--- ----- --- --- ------ -------- ----- --- ------ value --<br>----- ----- ---------- --- --- ------ ------ ---- -- ------<br>------- --- ------ ----- --- ---- ------- -- ---- --- --<br>------- ------,184186.2099999562,184184.58499998087,183677.578,183693.32999998005,183711.939,184194.349,,31,value
screen,html.Screen,2_1_1_1_32,2021-04-24T16:39:34.759Z,,,,,,,,,,,,,,,,,54,,,,,,,,,,,,,,452.2509999782196,,response,,,,100,,,,,,,Space,keypress(Space),,,,,,,,-- --- ---- --- ------ ----- ------- ---- -- --- ------- --<br>------- ---------- ------ -- ----- -- ----- -- ---- ------<br>--- ----- --- --- ------ -------- ----- --- ------ ----- of<br>----- ----- ---------- --- --- ------ ------ ---- -- ------<br>------- --- ------ ----- --- ---- ------- -- ---- --- --<br>------- ------,184648.29499996267,184646.5999999782,184177.553,184186.60499999532,184194.349,184661.394,,32,of
screen,html.Screen,2_1_1_1_33,2021-04-24T16:39:35.144Z,,,,,,,,,,,,,,,,,54,,,,,,,,,,,,,,369.5809999432822,,response,,,,100,,,,,,,Space,keypress(Space),,,,,,,,-- --- ---- --- ------ ----- ------- ---- -- --- ------- --<br>------- ---------- ------ -- ----- -- ----- -- ---- ------<br>--- ----- --- --- ------ -------- ----- --- ------ ----- --<br>these ----- ---------- --- --- ------ ------ ---- -- ------<br>------- --- ------ ----- --- ---- ------- -- ---- --- --<br>------- ------,185032.72999997716,185030.97499994328,184644.242,184648.6449999502,184661.394,185044.258,,33,these
screen,html.Screen,2_1_1_1_34,2021-04-24T16:39:35.556Z,,,,,,,,,,,,,,,,,54,,,,,,,,,,,,,,398.8819999884872,,response,,,,100,,,,,,,Space,keypress(Space),,,,,,,,-- --- ---- --- ------ ----- ------- ---- -- --- ------- --<br>------- ---------- ------ -- ----- -- ----- -- ---- ------<br>--- ----- --- --- ------ -------- ----- --- ------ ----- --<br>----- bonds ---------- --- --- ------ ------ ---- -- ------<br>------- --- ------ ----- --- ---- ------- -- ---- --- --<br>------- ------,185445.1049999916,185443.1399999885,185027.546,185033.16499997163,185044.258,185460.898,,34,bonds
screen,html.Screen,2_1_1_1_35,2021-04-24T16:39:35.993Z,,,,,,,,,,,,,,,,,54,,,,,,,,,,,,,,419.7019999749609,,response,,,,100,,,,,,,Space,keypress(Space),,,,,,,,"-- --- ---- --- ------ ----- ------- ---- -- --- ------- --<br>------- ---------- ------ -- ----- -- ----- -- ---- ------<br>--- ----- --- --- ------ -------- ----- --- ------ ----- --<br>----- ----- plummeted, --- --- ------ ------ ---- -- ------<br>------- --- ------ ----- --- ---- ------- -- ---- --- --<br>------- ------",185882.37999996636,185880.59999997495,185444.323,185445.44999999925,185460.898,185894.482,,35,"plummeted,"
screen,html.Screen,2_1_1_1_36,2021-04-24T16:39:36.423Z,,,,,,,,,,,,,,,,,54,,,,,,,,,,,,,,415.4379999705998,,response,,,,100,,,,,,,Space,keypress(Space),,,,,,,,-- --- ---- --- ------ ----- ------- ---- -- --- ------- --<br>------- ---------- ------ -- ----- -- ----- -- ---- ------<br>--- ----- --- --- ------ -------- ----- --- ------ ----- --<br>----- ----- ---------- and --- ------ ------ ---- -- ------<br>------- --- ------ ----- --- ---- ------- -- ---- --- --<br>------- ------,186311.68999994406,186309.9199999706,185877.675,185882.85999995423,185894.482,186327.696,,36,and
screen,html.Screen,2_1_1_1_37,2021-04-24T16:39:36.881Z,,,,,,,,,,,,,,,,,54,,,,,,,,,,,,,,441.0439999704249,,response,,,,100,,,,,,,Space,keypress(Space),,,,,,,,-- --- ---- --- ------ ----- ------- ---- -- --- ------- --<br>------- ---------- ------ -- ----- -- ----- -- ---- ------<br>--- ----- --- --- ------ -------- ----- --- ------ ----- --<br>----- ----- ---------- --- the ------ ------ ---- -- ------<br>------- --- ------ ----- --- ---- ------- -- ---- --- --<br>------- ------,186770.30499995453,186768.73999997042,186311.365,186312.0699999854,186327.696,186777.57,,37,the
screen,html.Screen,2_1_1_1_38,2021-04-24T16:39:37.290Z,,,,,,,,,,,,,,,,,54,,,,,,,,,,,,,,399.59499994275393,,response,,,,100,,,,,,,Space,keypress(Space),,,,,,,,-- --- ---- --- ------ ----- ------- ---- -- --- ------- --<br>------- ---------- ------ -- ----- -- ----- -- ---- ------<br>--- ----- --- --- ------ -------- ----- --- ------ ----- --<br>----- ----- ---------- --- --- market ------ ---- -- ------<br>------- --- ------ ----- --- ---- ------- -- ---- --- --<br>------- ------,187178.7099999492,187177.16499994276,186761.034,186770.61999996658,186777.57,187194.67,,38,market
screen,html.Screen,2_1_1_1_39,2021-04-24T16:39:37.716Z,,,,,,,,,,,,,,,,,54,,,,,,,,,,,,,,409.379999965342,,response,,,,100,,,,,,,Space,keypress(Space),,,,,,,,-- --- ---- --- ------ ----- ------- ---- -- --- ------- --<br>------- ---------- ------ -- ----- -- ----- -- ---- ------<br>--- ----- --- --- ------ -------- ----- --- ------ ----- --<br>----- ----- ---------- --- --- ------ became ---- -- ------<br>------- --- ------ ----- --- ---- ------- -- ---- --- --<br>------- ------,187605.51499994472,187604.04999996535,187177.526,187179.10499998834,187194.67,187610.97,,39,became
screen,html.Screen,2_1_1_1_40,2021-04-24T16:39:38.569Z,,,,,,,,,,,,,,,,,54,,,,,,,,,,,,,,845.5799999443989,,response,,,,100,,,,,,,Space,keypress(Space),,,,,,,,-- --- ---- --- ------ ----- ------- ---- -- --- ------- --<br>------- ---------- ------ -- ----- -- ----- -- ---- ------<br>--- ----- --- --- ------ -------- ----- --- ------ ----- --<br>----- ----- ---------- --- --- ------ ------ wary -- ------<br>------- --- ------ ----- --- ---- ------- -- ---- --- --<br>------- ------,188458.37499998743,188456.5499999444,187594.213,187605.84999999264,187610.97,188461.278,,40,wary
screen,html.Screen,2_1_1_1_41,2021-04-24T16:39:38.997Z,,,,,,,,,,,,,,,,,54,,,,,,,,,,,,,,422.43699994537747,,response,,,,100,,,,,,,Space,keypress(Space),,,,,,,,-- --- ---- --- ------ ----- ------- ---- -- --- ------- --<br>------- ---------- ------ -- ----- -- ----- -- ---- ------<br>--- ----- --- --- ------ -------- ----- --- ------ ----- --<br>----- ----- ---------- --- --- ------ ------ ---- of ------<br>------- --- ------ ----- --- ---- ------- -- ---- --- --<br>------- ------,188885.569999984,188883.71499994537,188444.163,188458.7649999885,188461.278,188894.466,,41,of
screen,html.Screen,2_1_1_1_42,2021-04-24T16:39:39.431Z,,,,,,,,,,,,,,,,,54,,,,,,,,,,,,,,423.56899994568084,,response,,,,100,,,,,,,Space,keypress(Space),,,,,,,,-- --- ---- --- ------ ----- ------- ---- -- --- ------- --<br>------- ---------- ------ -- ----- -- ----- -- ---- ------<br>--- ----- --- --- ------ -------- ----- --- ------ ----- --<br>----- ----- ---------- --- --- ------ ------ ---- -- French<br>------- --- ------ ----- --- ---- ------- -- ---- --- --<br>------- ------,189319.78999997955,189318.03499994567,188877.864,188885.90499997372,188894.466,189327.558,,42,French
screen,html.Screen,2_1_1_1_43,2021-04-24T16:39:40.071Z,,,,,,,,,,,,,,,,,54,,,,,,,,,,,,,,631.0219999768015,,response,,,,100,,,,,,,Space,keypress(Space),,,,,,,,-- --- ---- --- ------ ----- ------- ---- -- --- ------- --<br>------- ---------- ------ -- ----- -- ----- -- ---- ------<br>--- ----- --- --- ------ -------- ----- --- ------ ----- --<br>----- ----- ---------- --- --- ------ ------ ---- -- ------<br>credit. --- ------ ----- --- ---- ------- -- ---- --- --<br>------- ------,189960.21499997005,189958.5799999768,189310.975,189320.16999996267,189327.558,189977.505,,43,credit.
screen,html.Screen,2_1_1_1_44,2021-04-24T16:39:40.677Z,,,,,,,,,,,,,,,,,54,,,,,,,,,,,,,,586.7599999936065,,response,,,,100,,,,,,,Space,keypress(Space),,,,,,,,-- --- ---- --- ------ ----- ------- ---- -- --- ------- --<br>------- ---------- ------ -- ----- -- ----- -- ---- ------<br>--- ----- --- --- ------ -------- ----- --- ------ ----- --<br>----- ----- ---------- --- --- ------ ------ ---- -- ------<br>------- The ------ ----- --- ---- ------- -- ---- --- --<br>------- ------,190566.05499994475,190564.2649999936,189960.818,189960.52499994403,189977.505,190577.684,,44,The
screen,html.Screen,2_1_1_1_45,2021-04-24T16:39:41.041Z,,,,,,,,,,,,,,,,,54,,,,,,,,,,,,,,350.7459999708226,,response,,,,100,,,,,,,Space,keypress(Space),,,,,,,,-- --- ---- --- ------ ----- ------- ---- -- --- ------- --<br>------- ---------- ------ -- ----- -- ----- -- ---- ------<br>--- ----- --- --- ------ -------- ----- --- ------ ----- --<br>----- ----- ---------- --- --- ------ ------ ---- -- ------<br>------- --- French ----- --- ---- ------- -- ---- --- --<br>------- ------,190929.94999996154,190928.42999997083,190560.929,190566.3999999524,190577.684,190944.682,,45,French
screen,html.Screen,2_1_1_1_46,2021-04-24T16:39:41.480Z,,,,,,,,,,,,,,,,,54,,,,,,,,,,,,,,422.9329999955662,,response,,,,100,,,,,,,Space,keypress(Space),,,,,,,,-- --- ---- --- ------ ----- ------- ---- -- --- ------- --<br>------- ---------- ------ -- ----- -- ----- -- ---- ------<br>--- ----- --- --- ------ -------- ----- --- ------ ----- --<br>----- ----- ---------- --- --- ------ ------ ---- -- ------<br>------- --- ------ state --- ---- ------- -- ---- --- --<br>------- ------,191369.4399999804,191367.61499999557,190927.491,190930.2949999692,190944.682,191377.512,,46,state
screen,html.Screen,2_1_1_1_47,2021-04-24T16:39:41.979Z,,,,,,,,,,,,,,,,,54,,,,,,,,,,,,,,488.3829999953741,,response,,,,100,,,,,,,Space,keypress(Space),,,,,,,,-- --- ---- --- ------ ----- ------- ---- -- --- ------- --<br>------- ---------- ------ -- ----- -- ----- -- ---- ------<br>--- ----- --- --- ------ -------- ----- --- ------ ----- --<br>----- ----- ---------- --- --- ------ ------ ---- -- ------<br>------- --- ------ ----- was ---- ------- -- ---- --- --<br>------- ------,191867.71500000032,191865.89499999536,191360.801,191369.76499995217,191377.512,191877.531,,47,was
screen,html.Screen,2_1_1_1_48,2021-04-24T16:39:42.362Z,,,,,,,,,,,,,,,,,54,,,,,,,,,,,,,,371.8639999916486,,response,,,,100,,,,,,,Space,keypress(Space),,,,,,,,-- --- ---- --- ------ ----- ------- ---- -- --- ------- --<br>------- ---------- ------ -- ----- -- ----- -- ---- ------<br>--- ----- --- --- ------ -------- ----- --- ------ ----- --<br>----- ----- ---------- --- --- ------ ------ ---- -- ------<br>------- --- ------ ----- --- left ------- -- ---- --- --<br>------- ------,192251.25499995193,192249.39499999164,191860.81,191868.0399999721,191877.531,192260.906,,48,left
screen,html.Screen,2_1_1_1_49,2021-04-24T16:39:42.811Z,,,,,,,,,,,,,,,,,54,,,,,,,,,,,,,,437.8239999455109,,response,,,,100,,,,,,,Space,keypress(Space),,,,,,,,-- --- ---- --- ------ ----- ------- ---- -- --- ------- --<br>------- ---------- ------ -- ----- -- ----- -- ---- ------<br>--- ----- --- --- ------ -------- ----- --- ------ ----- --<br>----- ----- ---------- --- --- ------ ------ ---- -- ------<br>------- --- ------ ----- --- ---- without -- ---- --- --<br>------- ------,192700.47499996144,192698.7299999455,192244.133,192251.60499999765,192260.906,192710.834,,49,without
screen,html.Screen,2_1_1_1_50,2021-04-24T16:39:43.238Z,,,,,,,,,,,,,,,,,54,,,,,,,,,,,,,,414.7259999567468,,response,,,,100,,,,,,,Space,keypress(Space),,,,,,,,-- --- ---- --- ------ ----- ------- ---- -- --- ------- --<br>------- ---------- ------ -- ----- -- ----- -- ---- ------<br>--- ----- --- --- ------ -------- ----- --- ------ ----- --<br>----- ----- ---------- --- --- ------ ------ ---- -- ------<br>------- --- ------ ----- --- ---- ------- an ---- --- --<br>------- ------,193127.32499995036,193125.55999995675,192694.136,192700.78499999363,192710.834,193144.74,,50,an
screen,html.Screen,2_1_1_1_51,2021-04-24T16:39:43.696Z,,,,,,,,,,,,,,,,,54,,,,,,,,,,,,,,438.91499996581115,,response,,,,100,,,,,,,Space,keypress(Space),,,,,,,,-- --- ---- --- ------ ----- ------- ---- -- --- ------- --<br>------- ---------- ------ -- ----- -- ----- -- ---- ------<br>--- ----- --- --- ------ -------- ----- --- ------ ----- --<br>----- ----- ---------- --- --- ------ ------ ---- -- ------<br>------- --- ------ ----- --- ---- ------- -- easy --- --<br>------- ------,193585.50999994623,193583.6549999658,193127.45,193127.68499995582,193144.74,193594.277,,51,easy
screen,html.Screen,2_1_1_1_52,2021-04-24T16:39:44.214Z,,,,,,,,,,,,,,,,,54,,,,,,,,,,,,,,506.9529999711085,,response,,,,100,,,,,,,Space,keypress(Space),,,,,,,,-- --- ---- --- ------ ----- ------- ---- -- --- ------- --<br>------- ---------- ------ -- ----- -- ----- -- ---- ------<br>--- ----- --- --- ------ -------- ----- --- ------ ----- --<br>----- ----- ---------- --- --- ------ ------ ---- -- ------<br>------- --- ------ ----- --- ---- ------- -- ---- way --<br>------- ------,194103.34499995224,194101.2299999711,193577.447,193585.93999996083,193594.277,194110.922,,52,way
screen,html.Screen,2_1_1_1_53,2021-04-24T16:39:44.864Z,,,,,,,,,,,,,,,,,54,,,,,,,,,,,,,,639.8579999439244,,response,,,,100,,,,,,,Space,keypress(Space),,,,,,,,-- --- ---- --- ------ ----- ------- ---- -- --- ------- --<br>------- ---------- ------ -- ----- -- ----- -- ---- ------<br>--- ----- --- --- ------ -------- ----- --- ------ ----- --<br>----- ----- ---------- --- --- ------ ------ ---- -- ------<br>------- --- ------ ----- --- ---- ------- -- ---- --- of<br>------- ------,194752.66999995802,194750.77999994392,194094.114,194103.8299999782,194110.922,194760.837,,53,of
screen,html.Screen,2_1_1_1_54,2021-04-24T16:39:45.279Z,,,,,,,,,,,,,,,,,54,,,,,,,,,,,,,,405.3029999866267,,response,,,,100,,,,,,,Space,keypress(Space),,,,,,,,-- --- ---- --- ------ ----- ------- ---- -- --- ------- --<br>------- ---------- ------ -- ----- -- ----- -- ---- ------<br>--- ----- --- --- ------ -------- ----- --- ------ ----- --<br>----- ----- ---------- --- --- ------ ------ ---- -- ------<br>------- --- ------ ----- --- ---- ------- -- ---- --- --<br>raising ------,195168.21499995422,195166.13999998663,194744.095,194752.98499997007,194760.837,195177.633,,54,raising
screen,html.Screen,2_1_1_1_55,2021-04-24T16:39:45.783Z,,,,,,,,,,,,,,,,,54,,,,,,,,,,,,,,492.62199994633556,,response,,,,100,,,,,,,Space,keypress(Space),,,,,,,,-- --- ---- --- ------ ----- ------- ---- -- --- ------- --<br>------- ---------- ------ -- ----- -- ----- -- ---- ------<br>--- ----- --- --- ------ -------- ----- --- ------ ----- --<br>----- ----- ---------- --- --- ------ ------ ---- -- ------<br>------- --- ------ ----- --- ---- ------- -- ---- --- --<br>------- money.,195671.80999997072,195670.25499994634,195160.771,195168.7099999981,195177.633,195677.767,,55,money.
Item 100,flow.Loop,2_1_1_1,2021-04-24T16:39:45.784Z,,,,,,,,,,,,,,,,,,,,,,,,,,,,,,,27592.025999946345,,completion,,,,,D,,,,,,,,,,,silence,,,,,195672.67999995966,195670.25499994634,168061.082,168062.884999963,168078.229,195677.767,,,
Question 1,html.Screen,2_1_1_2,2021-04-24T16:39:48.883Z,,,,,,,,,,,,,,,,,,,,,,,,,,,,true,TRUE,,3093.1079999874346,,response,,,,100,D,,,,,,TRUE,click #choice-1,,,,silence,,,,,198772.30999997118,198770.87499998743,195660.759,195672.95499995816,195677.767,198777.423,,,
Question 2,html.Screen,2_1_1_3,2021-04-24T16:39:51.478Z,,,,,,,,,,,,,,,,,,,,,,,,,,,,true,FALSE,,2587.931999958062,,response,,,,100,D,,,,,,FALSE,click #choice-2,,,,silence,,,,,201367.2699999879,201365.35499995807,198760.724,198772.58999994956,198777.423,201377.414,,,
Item 100,flow.Sequence,2_1_1,2021-04-24T16:39:51.479Z,,,,,,,,,,,,,,,,,,,,,,,,,,,,,,,43287.121999958064,,completion,,,,,,,,,,,,,,,,,,,,,201367.72999999812,201365.35499995807,158061.243,158072.7649999899,158078.233,201377.414,,,
End of Practice,html.Page,2_1_2,2021-04-24T16:39:55.417Z,,,,,,,,,,,,,,,,,,,,,,,,,,,,,,,3927.2209999494953,,form submission,,,,,,,,,,,,,,,,,,,,,205306.259999983,205304.63499994949,201360.707,201367.9449999472,201377.414,205310.678,,,
Practice,flow.Sequence,2_1,2021-04-24T16:39:55.418Z,,,,,,,,,,,,,,,,,,,,,,,,,,,,,,,96692.77299994949,,completion,,,,,,,,,,,,,,,,,,,,,205306.78999994416,205304.63499994949,108595.15,108607.59499995038,108611.862,205310.678,,,
Trap_instruction,html.Page,2_2_0,2021-04-24T16:39:57.408Z,,,,,,,,,,,,,,,,,,,,,,,,,,,,,,,1984.3469999994268,,form submission,,,,,,,,,,,,,,,,,,,,,207296.58499994548,207295.02499999944,205293.991,205307.0899999584,205310.678,207327.318,,,
trap_trial,html.Screen,2_2_1,2021-04-24T16:40:00.892Z,,,,,,,,,,,,,,,,,,,,,,,,,,,,true,1,,3451.826999978599,,response,,,,,,,,,,,1,click #choice-1,,,,,,,,,210780.63999995356,210779.1449999786,207293.976,207296.83999996632,207327.318,210793.949,,,
end of trap trial,html.Page,2_2_2,2021-04-24T16:40:02.839Z,,,,,,,,,,,,,,,,,,,,,,,,,,,,,,,1932.1909999843047,,form submission,,,,,,,,,,,,,,,,,,,,,212728.49499998847,212726.1399999843,210777.264,210781.02999995463,210793.949,212727.252,,,
Trap 1,flow.Sequence,2_2,2021-04-24T16:40:02.840Z,,,,,,,,,,,,,,,,,,,,,,,,,,,,,,,7415.4619999842835,,completion,,,,,,,,,,,,,,,,,,,,,212728.98499999428,212726.1399999843,205293.991,205306.9999999716,205310.678,212727.252,,,
Standby,html.Page,2_3_0,2021-04-24T16:40:10.822Z,,,,,,,,,,,,,,,,,,,,,,,,,,,,,,,7999.918999999994,,timeout,,,,,,,,,,,,,,,,,,,,,220711.47499996005,220710.477,212710.572,212729.32999994373,212727.252,220727.171,,,
Holding screen,html.Screen,2_3_1_0_0,2021-04-24T16:40:17.822Z,,,,,,,,,,,,,,,,,,,,,,,,,,,,,,,6999.851999999984,,timeout,,,,,,,,,,,,,,,,,,,,,227711.12499997253,227710.387,220710.477,220711.9299999904,220727.171,227727.023,,,
screen,html.Screen,2_3_1_0_1_0,2021-04-24T16:40:19.153Z,,,,,,,,,,,,,,,,,11,,,,,,,,,,,,,,1312.7719999896945,,response,,,,4,D,,,,,,Space,keypress(Space),,,,silence,,,,Known -- ---- --- -- --- -------- ------------ ---------- --<br>- ------- ------ --------- -- ------------ -- --- ---- -----<br>------ ---- ---- ------ ------ ------- --- ----- ---------<br>---- --- -------- -------- --- --- -- ------- --- --- -----<br>-- --- ------ ------- --- --- -------- ---- --------- --<br>---------- -- -------- ----------------,229042.2499999986,229039.79499998968,227710.387,227712.62999996543,227727.023,229044.301,,0,Known
screen,html.Screen,2_3_1_0_1_1,2021-04-24T16:40:19.642Z,,,,,,,,,,,,,,,,,11,,,,,,,,,,,,,,484.7239999961748,,response,,,,4,D,,,,,,Space,keypress(Space),,,,silence,,,,----- as ---- --- -- --- -------- ------------ ---------- --<br>- ------- ------ --------- -- ------------ -- --- ---- -----<br>------ ---- ---- ------ ------ ------- --- ----- ---------<br>---- --- -------- -------- --- --- -- ------- --- --- -----<br>-- --- ------ ------- --- --- -------- ---- --------- --<br>---------- -- -------- ----------------,229530.87499999674,229529.02499999618,229027.119,229042.6499999594,229044.301,229543.78,,1,as
screen,html.Screen,2_3_1_0_1_2,2021-04-24T16:40:20.008Z,,,,,,,,,,,,,,,,,11,,,,,,,,,,,,,,351.61499999955413,,response,,,,4,D,,,,,,Space,keypress(Space),,,,silence,,,,----- -- Rapa --- -- --- -------- ------------ ---------- --<br>- ------- ------ --------- -- ------------ -- --- ---- -----<br>------ ---- ---- ------ ------ ------- --- ----- ---------<br>---- --- -------- -------- --- --- -- ------- --- --- -----<br>-- --- ------ ------- --- --- -------- ---- --------- --<br>---------- -- -------- ----------------,229897.02499995474,229895.39499999955,229527.006,229531.2649999978,229543.78,229910.876,,2,Rapa
screen,html.Screen,2_3_1_0_1_3,2021-04-24T16:40:20.877Z,,,,,,,,,,,,,,,,,11,,,,,,,,,,,,,,853.4139999627951,,response,,,,4,D,,,,,,Space,keypress(Space),,,,silence,,,,----- -- ---- Nui -- --- -------- ------------ ---------- --<br>- ------- ------ --------- -- ------------ -- --- ---- -----<br>------ ---- ---- ------ ------ ------- --- ----- ---------<br>---- --- -------- -------- --- --- -- ------- --- --- -----<br>-- --- ------ ------- --- --- -------- ---- --------- --<br>---------- -- -------- ----------------,230766.17999997688,230764.28999996278,229894.655,229897.35999994446,229910.876,230777.149,,3,Nui
screen,html.Screen,2_3_1_0_1_4,2021-04-24T16:40:21.361Z,,,,,,,,,,,,,,,,,11,,,,,,,,,,,,,,471.2109999686654,,response,,,,4,D,,,,,,Space,keypress(Space),,,,silence,,,,----- -- ---- --- to --- -------- ------------ ---------- --<br>- ------- ------ --------- -- ------------ -- --- ---- -----<br>------ ---- ---- ------ ------ ------- --- ----- ---------<br>---- --- -------- -------- --- --- -- ------- --- --- -----<br>-- --- ------ ------- --- --- -------- ---- --------- --<br>---------- -- -------- ----------------,231250.17499999376,231248.35999996867,230760.341,230766.59999997355,230777.149,231260.335,,4,to
screen,html.Screen,2_3_1_0_1_5,2021-04-24T16:40:21.735Z,,,,,,,,,,,,,,,,,11,,,,,,,,,,,,,,361.8849999610975,,response,,,,4,D,,,,,,Space,keypress(Space),,,,silence,,,,----- -- ---- --- -- the -------- ------------ ---------- --<br>- ------- ------ --------- -- ------------ -- --- ---- -----<br>------ ---- ---- ------ ------ ------- --- ----- ---------<br>---- --- -------- -------- --- --- -- ------- --- --- -----<br>-- --- ------ ------- --- --- -------- ---- --------- --<br>---------- -- -------- ----------------,231624.2299999576,231622.2199999611,231243.702,231250.4899999476,231260.335,231627.088,,5,the
screen,html.Screen,2_3_1_0_1_6,2021-04-24T16:40:22.344Z,,,,,,,,,,,,,,,,,11,,,,,,,,,,,,,,604.9769999892451,,response,,,,4,D,,,,,,Space,keypress(Space),,,,silence,,,,----- -- ---- --- -- --- island's ------------ ---------- --<br>- ------- ------ --------- -- ------------ -- --- ---- -----<br>------ ---- ---- ------ ------ ------- --- ----- ---------<br>---- --- -------- -------- --- --- -- ------- --- --- -----<br>-- --- ------ ------- --- --- -------- ---- --------- --<br>---------- -- -------- ----------------,232233.50999999093,232232.06499998923,231610.322,231624.5399999898,231627.088,232243.662,,6,island's
screen,html.Screen,2_3_1_0_1_7,2021-04-24T16:40:23.191Z,,,,,,,,,,,,,,,,,11,,,,,,,,,,,,,,834.2429999546148,,response,,,,4,D,,,,,,Space,keypress(Space),,,,silence,,,,"----- -- ---- --- -- --- -------- inhabitants, ---------- --<br>- ------- ------ --------- -- ------------ -- --- ---- -----<br>------ ---- ---- ------ ------ ------- --- ----- ---------<br>---- --- -------- -------- --- --- -- ------- --- --- -----<br>-- --- ------ ------- --- --- -------- ---- --------- --<br>---------- -- -------- ----------------",233079.69499996398,233077.90499995463,232226.97,232233.82999998285,232243.662,233094.172,,7,"inhabitants,"
screen,html.Screen,2_3_1_0_1_8,2021-04-24T16:40:24.544Z,,,,,,,,,,,,,,,,,11,,,,,,,,,,,,,,1336.5379999860015,,response,,,,4,D,,,,,,Space,keypress(Space),,,,silence,,,,----- -- ---- --- -- --- -------- ------------ Rongorongo --<br>- ------- ------ --------- -- ------------ -- --- ---- -----<br>------ ---- ---- ------ ------ ------- --- ----- ---------<br>---- --- -------- -------- --- --- -- ------- --- --- -----<br>-- --- ------ ------- --- --- -------- ---- --------- --<br>---------- -- -------- ----------------,234432.56499996642,234430.709999986,233076.95,233080.0599999493,233094.172,234443.95,,8,Rongorongo
screen,html.Screen,2_3_1_0_1_9,2021-04-24T16:40:25.046Z,,,,,,,,,,,,,,,,,11,,,,,,,,,,,,,,489.33499997731997,,response,,,,4,D,,,,,,Space,keypress(Space),,,,silence,,,,----- -- ---- --- -- --- -------- ------------ ---------- is<br>- ------- ------ --------- -- ------------ -- --- ---- -----<br>------ ---- ---- ------ ------ ------- --- ----- ---------<br>---- --- -------- -------- --- --- -- ------- --- --- -----<br>-- --- ------ ------- --- --- -------- ---- --------- --<br>---------- -- -------- ----------------,234934.90999995265,234933.28499997733,234427.031,234432.86499998067,234443.95,234944.18,,9,is
screen,html.Screen,2_3_1_0_1_10,2021-04-24T16:40:25.551Z,,,,,,,,,,,,,,,,,11,,,,,,,,,,,,,,494.41499995597405,,response,,,,4,D,,,,,,Space,keypress(Space),,,,silence,,,,----- -- ---- --- -- --- -------- ------------ ---------- --<br>a ------- ------ --------- -- ------------ -- --- ---- -----<br>------ ---- ---- ------ ------ ------- --- ----- ---------<br>---- --- -------- -------- --- --- -- ------- --- --- -----<br>-- --- ------ ------- --- --- -------- ---- --------- --<br>---------- -- -------- ----------------,235440.2049999917,235438.59499995597,234926.942,234935.24999998044,234944.18,235443.659,,10,a
screen,html.Screen,2_3_1_0_1_11,2021-04-24T16:40:26.053Z,,,,,,,,,,,,,,,,,11,,,,,,,,,,,,,,496.97099996820907,,response,,,,4,D,,,,,,Space,keypress(Space),,,,silence,,,,----- -- ---- --- -- --- -------- ------------ ---------- --<br>- writing ------ --------- -- ------------ -- --- ---- -----<br>------ ---- ---- ------ ------ ------- --- ----- ---------<br>---- --- -------- -------- --- --- -- ------- --- --- -----<br>-- --- ------ ------- --- --- -------- ---- --------- --<br>---------- -- -------- ----------------,235942.45499995304,235940.62999996822,235426.941,235440.55999995908,235443.659,235960.787,,11,writing
screen,html.Screen,2_3_1_0_1_12,2021-04-24T16:40:26.499Z,,,,,,,,,,,,,,,,,11,,,,,,,,,,,,,,424.9779999554157,,response,,,,4,D,,,,,,Space,keypress(Space),,,,silence,,,,----- -- ---- --- -- --- -------- ------------ ---------- --<br>- ------- system --------- -- ------------ -- --- ---- -----<br>------ ---- ---- ------ ------ ------- --- ----- ---------<br>---- --- -------- -------- --- --- -- ------- --- --- -----<br>-- --- ------ ------- --- --- -------- ---- --------- --<br>---------- -- -------- ----------------,236387.72499997867,236385.76499995543,235926.927,235942.77999998303,235960.787,236393.979,,12,system
screen,html.Screen,2_3_1_0_1_13,2021-04-24T16:40:27.111Z,,,,,,,,,,,,,,,,,11,,,,,,,,,,,,,,604.2759999840637,,response,,,,4,D,,,,,,Space,keypress(Space),,,,silence,,,,----- -- ---- --- -- --- -------- ------------ ---------- --<br>- ------- ------ comprised -- ------------ -- --- ---- -----<br>------ ---- ---- ------ ------ ------- --- ----- ---------<br>---- --- -------- -------- --- --- -- ------- --- --- -----<br>-- --- ------ ------- --- --- -------- ---- --------- --<br>---------- -- -------- ----------------,236999.93999995058,236998.25499998406,236376.938,236388.03999999072,236393.979,237010.314,,13,comprised
screen,html.Screen,2_3_1_0_1_14,2021-04-24T16:40:27.516Z,,,,,,,,,,,,,,,,,11,,,,,,,,,,,,,,392.93599997390993,,response,,,,4,D,,,,,,Space,keypress(Space),,,,silence,,,,----- -- ---- --- -- --- -------- ------------ ---------- --<br>- ------- ------ --------- of ------------ -- --- ---- -----<br>------ ---- ---- ------ ------ ------- --- ----- ---------<br>---- --- -------- -------- --- --- -- ------- --- --- -----<br>-- --- ------ ------- --- --- -------- ---- --------- --<br>---------- -- -------- ----------------,237405.05999996094,237403.24999997392,236993.691,237000.28499995824,237010.314,237410.509,,14,of
screen,html.Screen,2_3_1_0_1_15,2021-04-24T16:40:28.197Z,,,,,,,,,,,,,,,,,11,,,,,,,,,,,,,,673.3609999731125,,response,,,,4,D,,,,,,Space,keypress(Space),,,,silence,,,,----- -- ---- --- -- --- -------- ------------ ---------- --<br>- ------- ------ --------- -- pictographs. -- --- ---- -----<br>------ ---- ---- ------ ------ ------- --- ----- ---------<br>---- --- -------- -------- --- --- -- ------- --- --- -----<br>-- --- ------ ------- --- --- -------- ---- --------- --<br>---------- -- -------- ----------------,238085.54999995977,238083.8699999731,237393.706,237405.40999994846,237410.509,238093.819,,15,pictographs.
screen,html.Screen,2_3_1_0_1_16,2021-04-24T16:40:28.772Z,,,,,,,,,,,,,,,,,11,,,,,,,,,,,,,,565.570999986172,,response,,,,4,D,,,,,,Space,keypress(Space),,,,silence,,,,----- -- ---- --- -- --- -------- ------------ ---------- --<br>- ------- ------ --------- -- ------------ It --- ---- -----<br>------ ---- ---- ------ ------ ------- --- ----- ---------<br>---- --- -------- -------- --- --- -- ------- --- --- -----<br>-- --- ------ ------- --- --- -------- ---- --------- --<br>---------- -- -------- ----------------,238661.17499995744,238659.38999998616,238076.896,238086.1449999502,238093.819,238678.269,,16,It
screen,html.Screen,2_3_1_0_1_17,2021-04-24T16:40:29.139Z,,,,,,,,,,,,,,,,,11,,,,,,,,,,,,,,347.695999978896,,response,,,,4,D,,,,,,Space,keypress(Space),,,,silence,,,,----- -- ---- --- -- --- -------- ------------ ---------- --<br>- ------- ------ --------- -- ------------ -- has ---- -----<br>------ ---- ---- ------ ------ ------- --- ----- ---------<br>---- --- -------- -------- --- --- -- ------- --- --- -----<br>-- --- ------ ------- --- --- -------- ---- --------- --<br>---------- -- -------- ----------------,239028.01499998895,239025.9649999789,238660.316,238661.53999994276,238678.269,239043.579,,17,has
screen,html.Screen,2_3_1_0_1_18,2021-04-24T16:40:29.604Z,,,,,,,,,,,,,,,,,11,,,,,,,,,,,,,,447.03099997891695,,response,,,,4,D,,,,,,Space,keypress(Space),,,,silence,,,,----- -- ---- --- -- --- -------- ------------ ---------- --<br>- ------- ------ --------- -- ------------ -- --- been -----<br>------ ---- ---- ------ ------ ------- --- ----- ---------<br>---- --- -------- -------- --- --- -- ------- --- --- -----<br>-- --- ------ ------- --- --- -------- ---- --------- --<br>---------- -- -------- ----------------,239492.5949999597,239490.60999997891,239027.14,239028.3749999944,239043.579,239510.265,,18,been
screen,html.Screen,2_3_1_0_1_19,2021-04-24T16:40:30.036Z,,,,,,,,,,,,,,,,,11,,,,,,,,,,,,,,413.4849999580765,,response,,,,4,D,,,,,,Space,keypress(Space),,,,silence,,,,----- -- ---- --- -- --- -------- ------------ ---------- --<br>- ------- ------ --------- -- ------------ -- --- ---- found<br>------ ---- ---- ------ ------ ------- --- ----- ---------<br>---- --- -------- -------- --- --- -- ------- --- --- -----<br>-- --- ------ ------- --- --- -------- ---- --------- --<br>---------- -- -------- ----------------,239925.40499998722,239923.7499999581,239493.559,239492.98999999883,239510.265,239943.807,,19,found
screen,html.Screen,2_3_1_0_1_20,2021-04-24T16:40:30.497Z,,,,,,,,,,,,,,,,,11,,,,,,,,,,,,,,440.1729999841482,,response,,,,4,D,,,,,,Space,keypress(Space),,,,silence,,,,----- -- ---- --- -- --- -------- ------------ ---------- --<br>- ------- ------ --------- -- ------------ -- --- ---- -----<br>carved ---- ---- ------ ------ ------- --- ----- ---------<br>---- --- -------- -------- --- --- -- ------- --- --- -----<br>-- --- ------ ------- --- --- -------- ---- --------- --<br>---------- -- -------- ----------------,240385.54499996826,240383.97999998415,239910.548,239925.71999999927,239943.807,240393.585,,20,carved
screen,html.Screen,2_3_1_0_1_21,2021-04-24T16:40:30.961Z,,,,,,,,,,,,,,,,,11,,,,,,,,,,,,,,454.31999997326056,,response,,,,4,D,,,,,,Space,keypress(Space),,,,silence,,,,----- -- ---- --- -- --- -------- ------------ ---------- --<br>- ------- ------ --------- -- ------------ -- --- ---- -----<br>------ into ---- ------ ------ ------- --- ----- ---------<br>---- --- -------- -------- --- --- -- ------- --- --- -----<br>-- --- ------ ------- --- --- -------- ---- --------- --<br>---------- -- -------- ----------------,240849.67499994673,240847.90499997325,240377.095,240385.90999995358,240393.585,240860.288,,21,into
screen,html.Screen,2_3_1_0_1_22,2021-04-24T16:40:31.343Z,,,,,,,,,,,,,,,,,11,,,,,,,,,,,,,,370.26699995825766,,response,,,,4,D,,,,,,Space,keypress(Space),,,,silence,,,,----- -- ---- --- -- --- -------- ------------ ---------- --<br>- ------- ------ --------- -- ------------ -- --- ---- -----<br>------ ---- many ------ ------ ------- --- ----- ---------<br>---- --- -------- -------- --- --- -- ------- --- --- -----<br>-- --- ------ ------- --- --- -------- ---- --------- --<br>---------- -- -------- ----------------,241232.1749999537,241230.55499995826,240843.551,240850.02499999246,240860.288,241243.669,,22,many
screen,html.Screen,2_3_1_0_1_23,2021-04-24T16:40:31.786Z,,,,,,,,,,,,,,,,,11,,,,,,,,,,,,,,428.925999952713,,response,,,,4,D,,,,,,Space,keypress(Space),,,,silence,,,,----- -- ---- --- -- --- -------- ------------ ---------- --<br>- ------- ------ --------- -- ------------ -- --- ---- -----<br>------ ---- ---- oblong ------ ------- --- ----- ---------<br>---- --- -------- -------- --- --- -- ------- --- --- -----<br>-- --- ------ ------- --- --- -------- ---- --------- --<br>---------- -- -------- ----------------,241674.5499999961,241672.5949999527,241227.288,241232.77999996208,241243.669,241677.341,,23,oblong
screen,html.Screen,2_3_1_0_1_24,2021-04-24T16:40:32.500Z,,,,,,,,,,,,,,,,,11,,,,,,,,,,,,,,710.2340000006661,,response,,,,4,D,,,,,,Space,keypress(Space),,,,silence,,,,----- -- ---- --- -- --- -------- ------------ ---------- --<br>- ------- ------ --------- -- ------------ -- --- ---- -----<br>------ ---- ---- ------ wooden ------- --- ----- ---------<br>---- --- -------- -------- --- --- -- ------- --- --- -----<br>-- --- ------ ------- --- --- -------- ---- --------- --<br>---------- -- -------- ----------------,242389.06499999575,242387.57500000065,241660.314,241674.86499994993,241677.341,242393.837,,24,wooden
screen,html.Screen,2_3_1_0_1_25,2021-04-24T16:40:33.123Z,,,,,,,,,,,,,,,,,11,,,,,,,,,,,,,,615.4379999603261,,response,,,,4,D,,,,,,Space,keypress(Space),,,,silence,,,,----- -- ---- --- -- --- -------- ------------ ---------- --<br>- ------- ------ --------- -- ------------ -- --- ---- -----<br>------ ---- ---- ------ ------ tablets --- ----- ---------<br>---- --- -------- -------- --- --- -- ------- --- --- -----<br>-- --- ------ ------- --- --- -------- ---- --------- --<br>---------- -- -------- ----------------,243011.42499997513,243009.27499996033,242376.843,242389.35499999207,242393.837,243027.792,,25,tablets
screen,html.Screen,2_3_1_0_1_26,2021-04-24T16:40:33.559Z,,,,,,,,,,,,,,,,,11,,,,,,,,,,,,,,417.662999979133,,response,,,,4,D,,,,,,Space,keypress(Space),,,,silence,,,,----- -- ---- --- -- --- -------- ------------ ---------- --<br>- ------- ------ --------- -- ------------ -- --- ---- -----<br>------ ---- ---- ------ ------ ------- and ----- ---------<br>---- --- -------- -------- --- --- -- ------- --- --- -----<br>-- --- ------ ------- --- --- -------- ---- --------- --<br>---------- -- -------- ----------------,243447.194999957,243445.45499997912,243010.178,243011.87999994727,243027.792,243461.111,,26,and
screen,html.Screen,2_3_1_0_1_27,2021-04-24T16:40:34.030Z,,,,,,,,,,,,,,,,,11,,,,,,,,,,,,,,455.63899997484987,,response,,,,4,D,,,,,,Space,keypress(Space),,,,silence,,,,----- -- ---- --- -- --- -------- ------------ ---------- --<br>- ------- ------ --------- -- ------------ -- --- ---- -----<br>------ ---- ---- ------ ------ ------- --- other ---------<br>---- --- -------- -------- --- --- -- ------- --- --- -----<br>-- --- ------ ------- --- --- -------- ---- --------- --<br>---------- -- -------- ----------------,243918.28999994323,243916.74999997485,243443.495,243447.4999999511,243461.111,243927.07,,27,other
screen,html.Screen,2_3_1_0_1_28,2021-04-24T16:40:34.560Z,,,,,,,,,,,,,,,,,11,,,,,,,,,,,,,,520.324999966484,,response,,,,4,D,,,,,,Space,keypress(Space),,,,silence,,,,----- -- ---- --- -- --- -------- ------------ ---------- --<br>- ------- ------ --------- -- ------------ -- --- ---- -----<br>------ ---- ---- ------ ------ ------- --- ----- artifacts<br>---- --- -------- -------- --- --- -- ------- --- --- -----<br>-- --- ------ ------- --- --- -------- ---- --------- --<br>---------- -- -------- ----------------,244448.90999997733,244447.3949999665,243910.181,243918.63499995088,243927.07,244460.377,,28,artifacts
screen,html.Screen,2_3_1_0_1_29,2021-04-24T16:40:35.102Z,,,,,,,,,,,,,,,,,11,,,,,,,,,,,,,,527.8679999567976,,response,,,,4,D,,,,,,Space,keypress(Space),,,,silence,,,,----- -- ---- --- -- --- -------- ------------ ---------- --<br>- ------- ------ --------- -- ------------ -- --- ---- -----<br>------ ---- ---- ------ ------ ------- --- ----- ---------<br>from --- -------- -------- --- --- -- ------- --- --- -----<br>-- --- ------ ------- --- --- -------- ---- --------- --<br>---------- -- -------- ----------------,244990.82499998622,244988.2449999568,244443.487,244449.2699999828,244460.377,244994.064,,29,from
screen,html.Screen,2_3_1_0_1_30,2021-04-24T16:40:35.537Z,,,,,,,,,,,,,,,,,11,,,,,,,,,,,,,,430.1759999638889,,response,,,,4,D,,,,,,Space,keypress(Space),,,,silence,,,,----- -- ---- --- -- --- -------- ------------ ---------- --<br>- ------- ------ --------- -- ------------ -- --- ---- -----<br>------ ---- ---- ------ ------ ------- --- ----- ---------<br>---- the -------- -------- --- --- -- ------- --- --- -----<br>-- --- ------ ------- --- --- -------- ---- --------- --<br>---------- -- -------- ----------------,245425.73999997694,245424.2399999639,244976.826,244991.35999998543,244994.064,245460.747,,30,the
screen,html.Screen,2_3_1_0_1_31,2021-04-24T16:40:36.042Z,,,,,,,,,,,,,,,,,11,,,,,,,,,,,,,,466.94799996211077,,response,,,,4,D,,,,,,Space,keypress(Space),,,,silence,,,,----- -- ---- --- -- --- -------- ------------ ---------- --<br>- ------- ------ --------- -- ------------ -- --- ---- -----<br>------ ---- ---- ------ ------ ------- --- ----- ---------<br>---- --- island's -------- --- --- -- ------- --- --- -----<br>-- --- ------ ------- --- --- -------- ---- --------- --<br>---------- -- -------- ----------------,245930.51999999443,245927.6949999621,245443.775,245426.28999997396,245460.747,245943.838,,31,island's
screen,html.Screen,2_3_1_0_1_32,2021-04-24T16:40:36.438Z,,,,,,,,,,,,,,,,,11,,,,,,,,,,,,,,380.7819999703206,,response,,,,4,D,,,,,,Space,keypress(Space),,,,silence,,,,----- -- ---- --- -- --- -------- ------------ ---------- --<br>- ------- ------ --------- -- ------------ -- --- ---- -----<br>------ ---- ---- ------ ------ ------- --- ----- ---------<br>---- --- -------- history. --- --- -- ------- --- --- -----<br>-- --- ------ ------- --- --- -------- ---- --------- --<br>---------- -- -------- ----------------,246326.3399999705,246324.6199999703,245926.823,245930.9099999955,245943.838,246343.484,,32,history.
screen,html.Screen,2_3_1_0_1_33,2021-04-24T16:40:37.099Z,,,,,,,,,,,,,,,,,11,,,,,,,,,,,,,,642.6059999621357,,response,,,,4,D,,,,,,Space,keypress(Space),,,,silence,,,,----- -- ---- --- -- --- -------- ------------ ---------- --<br>- ------- ------ --------- -- ------------ -- --- ---- -----<br>------ ---- ---- ------ ------ ------- --- ----- ---------<br>---- --- -------- -------- The --- -- ------- --- --- -----<br>-- --- ------ ------- --- --- -------- ---- --------- --<br>---------- -- -------- ----------------,246988.13499999233,246986.08999996213,246326.834,246326.68499997817,246343.484,246993.837,,33,The
screen,html.Screen,2_3_1_0_1_34,2021-04-24T16:40:37.469Z,,,,,,,,,,,,,,,,,11,,,,,,,,,,,,,,361.22799995244714,,response,,,,4,D,,,,,,Space,keypress(Space),,,,silence,,,,----- -- ---- --- -- --- -------- ------------ ---------- --<br>- ------- ------ --------- -- ------------ -- --- ---- -----<br>------ ---- ---- ------ ------ ------- --- ----- ---------<br>---- --- -------- -------- --- art -- ------- --- --- -----<br>-- --- ------ ------- --- --- -------- ---- --------- --<br>---------- -- -------- ----------------,247357.36499994528,247355.06499995245,246976.785,246988.59499994433,246993.837,247360.255,,34,art
screen,html.Screen,2_3_1_0_1_35,2021-04-24T16:40:37.916Z,,,,,,,,,,,,,,,,,11,,,,,,,,,,,,,,442.5799999804003,,response,,,,4,D,,,,,,Space,keypress(Space),,,,silence,,,,----- -- ---- --- -- --- -------- ------------ ---------- --<br>- ------- ------ --------- -- ------------ -- --- ---- -----<br>------ ---- ---- ------ ------ ------- --- ----- ---------<br>---- --- -------- -------- --- --- of ------- --- --- -----<br>-- --- ------ ------- --- --- -------- ---- --------- --<br>---------- -- -------- ----------------,247804.6799999429,247802.8349999804,247343.578,247357.6849999954,247360.255,247810.169,,35,of
screen,html.Screen,2_3_1_0_1_36,2021-04-24T16:40:38.336Z,,,,,,,,,,,,,,,,,11,,,,,,,,,,,,,,413.16599998786114,,response,,,,4,D,,,,,,Space,keypress(Space),,,,silence,,,,----- -- ---- --- -- --- -------- ------------ ---------- --<br>- ------- ------ --------- -- ------------ -- --- ---- -----<br>------ ---- ---- ------ ------ ------- --- ----- ---------<br>---- --- -------- -------- --- --- -- writing --- --- -----<br>-- --- ------ ------- --- --- -------- ---- --------- --<br>---------- -- -------- ----------------,248224.8949999921,248223.33499998786,247793.451,247805.02499995055,247810.169,248243.907,,36,writing
screen,html.Screen,2_3_1_0_1_37,2021-04-24T16:40:38.758Z,,,,,,,,,,,,,,,,,11,,,,,,,,,,,,,,401.28799999004696,,response,,,,4,D,,,,,,Space,keypress(Space),,,,silence,,,,----- -- ---- --- -- --- -------- ------------ ---------- --<br>- ------- ------ --------- -- ------------ -- --- ---- -----<br>------ ---- ---- ------ ------ ------- --- ----- ---------<br>---- --- -------- -------- --- --- -- ------- was --- -----<br>-- --- ------ ------- --- --- -------- ---- --------- --<br>---------- -- -------- ----------------,248647.15999999316,248645.19499999005,248210.106,248225.17999995034,248243.907,248660.664,,37,was
