sender,sender_type,sender_id,timestamp,meta,,Blues,Classical,Country,Dance,Electronic,Folk,Gospel,Hip-Hop,Jazz,Latin,Musical/Film,New-age,Pop,Prolific_id,Provo_ID,R&B,Rap,Reggae,Religious,Rock,Soul,Swing,Traditional,age,artist_name,correct,correctResponse,distraction,duration,education,ended_on,familiarity,gender,headphone_check_performance,item,list,music_frequency,offensiveness,pleasantness,position_correct,preference,response,response_action,snippet_file,song_name,song_rating,sound,stimulus_1,stimulus_2,stimulus_3,text,time_commit,time_end,time_render,time_run,time_show,time_switch,url,word,word_ID
Prolific ID,html.Form,0,2021-04-24T18:51:33.338Z,"{""labjs_version"":""20.2.2"",""labjs_build"":{""flavor"":""production"",""commit"":""a25486e0c714a0ae2ce03ff94b7bb6896854dcfa""},""location"":""https://run.pavlovia.org/mvasilev/prolific_music_e/"",""userAgent"":""Mozilla/5.0 (Windows NT 10.0; Win64; x64) AppleWebKit/537.36 (KHTML, like Gecko) Chrome/90.0.4430.85 Safari/537.36"",""platform"":""Win32"",""language"":""en-GB"",""locale"":""en-GB"",""timeZone"":""Europe/London"",""timezoneOffset"":-60,""screen_width"":1366,""screen_height"":768,""scroll_width"":1366,""scroll_height"":609,""window_innerWidth"":1366,""window_innerHeight"":657,""devicePixelRatio"":1}",,,,,,,,,,,,,,,60153f6faf1cb75da820c070,,,,,,,,,,,,,,,14324.413999998527,,form submission,,,,,,,,,,,,,,,,,,,,,30923.065000009956,30918.04499999853,16460.097,16464.57000001101,16593.631,30976.311,{},,
Introduction,html.Screen,1_0,2021-04-24T18:51:37.987Z,,,,,,,,,,,,,,,,,,,,,,,,,,,,,,,4586.829000012935,,response,,,,,,,,,,,continue,click button,,,,,,,,,35571.36000000173,35563.140000012936,30893.155,30925.96500000218,30976.311,35609.416,,,
Volume calibration,html.Screen,1_1,2021-04-24T18:52:05.904Z,,,,,,,,,,,,,,,,,,,,,,,,,,,,,,,27863.82400002118,,response,,,,,,,,,,,continue,click button,,,,,,,,,63486.785000015516,63473.24000002118,35559.419,35572.01500001247,35609.416,63508.129,,,
Task instructions,html.Screen,1_2,2021-04-24T18:52:13.362Z,,,,,,,,,,,,,,,,,,,,,,,,,,,,,,,7434.3910000114265,,response,,,,,,,,,,,continue,click button,,,,,,,,,70944.87000000663,70942.52000001143,63491.443,63487.48000001069,63508.129,70957.78,,,
Sounds,html.Screen,1_3_0_0,2021-04-24T18:52:17.620Z,,,,,,,,,,,,,,,,,,,,,,,,,,,,,,,4249.803,,timeout,,,,,,,,,2,,,,,,,,O,S,I,,75203.34999999614,75191.052,70941.228,70945.84000000032,70957.78,75207.583,,,
Judgement,html.Screen,1_3_0_1,2021-04-24T18:52:20.121Z,,,,,,,,,,,,,,,,,,,,,,,,,,,,true,2,,2493.7219999950466,,response,,,,,,,,,2,,2,click #choice-2,,,,,O,S,I,,77704.05000000028,77701.30499999505,75191.052,75203.9550000045,75207.583,77724.093,,,
Trial,flow.Sequence,1_3_0,2021-04-24T18:52:20.128Z,,,,,,,,,,,,,,,,,,,,,,,,,,,,,,,6743.5249999950465,,completion,,,,,,,,,2,,,,,,,,O,S,I,,77711.49000001606,77701.30499999505,70941.228,70945.60999999521,70957.78,77724.093,,,
Sounds,html.Screen,1_3_1_0,2021-04-24T18:52:24.376Z,,,,,,,,,,,,,,,,,,,,,,,,,,,,,,,4249.817999999999,,timeout,,,,,,,,,3,,,,,,,,O,I,S,,81958.91000001575,81957.398,77690.796,77712.19500000007,77724.093,81973.911,,,
Judgement,html.Screen,1_3_1_1,2021-04-24T18:52:29.971Z,,,,,,,,,,,,,,,,,,,,,,,,,,,,false,3,,5578.164000014163,,response,,,,,,,,,3,,1,click #choice-1,,,,,O,I,S,,87554.57000000752,87552.07500001416,81957.398,81959.4250000082,81973.911,87556.944,,,
Trial,flow.Sequence,1_3_1,2021-04-24T18:52:29.972Z,,,,,,,,,,,,,,,,,,,,,,,,,,,,,,,9827.982000014163,,completion,,,,,,,,,3,,,,,,,,O,I,S,,87555.43000000762,87552.07500001416,77690.796,77711.99500001967,77724.093,87556.944,,,
Sounds,html.Screen,1_3_2_0,2021-04-24T18:52:34.209Z,,,,,,,,,,,,,,,,,,,,,,,,,,,,,,,4249.826000000001,,timeout,,,,,,,,,2,,,,,,,,I,S,O,,91791.81500000414,91790.265,87540.56,87556.02499999804,87556.944,91806.77,,,
Judgement,html.Screen,1_3_2_1,2021-04-24T18:52:34.939Z,,,,,,,,,,,,,,,,,,,,,,,,,,,,true,2,,713.0900000003312,,response,,,,,,,,,2,,2,click #choice-2,,,,,I,S,O,,92522.35000001383,92519.86000000034,91790.265,91792.28500000318,91806.77,92523.396,,,
Trial,flow.Sequence,1_3_2,2021-04-24T18:52:34.940Z,,,,,,,,,,,,,,,,,,,,,,,,,,,,,,,4962.916000000332,,completion,,,,,,,,,2,,,,,,,,I,S,O,,92523.11999999802,92519.86000000034,87540.56,87555.84000001545,87556.944,92523.396,,,
Sounds,html.Screen,1_3_3_0,2021-04-24T18:52:39.176Z,,,,,,,,,,,,,,,,,,,,,,,,,,,,,,,4252.494000000006,,timeout,,,,,,,,,3,,,,,,,,I,O,S,,96758.80000001052,96756.571,92506.782,92525.5500000203,92523.396,96775.89,,,
Judgement,html.Screen,1_3_3_1,2021-04-24T18:52:39.808Z,,,,,,,,,,,,,,,,,,,,,,,,,,,,true,3,,612.1849999952974,,response,,,,,,,,,3,,3,click #choice-3,,,,,I,O,S,,97390.89000000968,97388.0749999953,96756.571,96759.35999999638,96775.89,97413.881,,,
Trial,flow.Sequence,1_3_3,2021-04-24T18:52:39.809Z,,,,,,,,,,,,,,,,,,,,,,,,,,,,,,,4864.6789999953035,,completion,,,,,,,,,3,,,,,,,,I,O,S,,97391.66500000283,97388.0749999953,92506.782,92524.74500000244,92523.396,97413.881,,,
Sounds,html.Screen,1_3_4_0,2021-04-24T18:52:44.059Z,,,,,,,,,,,,,,,,,,,,,,,,,,,,,,,4245.401000000013,,timeout,,,,,,,,,1,,,,,,,,S,O,I,,101642.21499999985,101639.791,97373.227,97392.20500001102,97413.881,101659.282,,,
Judgement,html.Screen,1_3_4_1,2021-04-24T18:52:44.669Z,,,,,,,,,,,,,,,,,,,,,,,,,,,,true,1,,590.3530000146711,,response,,,,,,,,,1,,1,click #choice-1,,,,,S,O,I,,102252.05500001903,102249.63500001468,101639.791,101642.95500001754,101659.282,102257.625,,,
Trial,flow.Sequence,1_3_4,2021-04-24T18:52:44.670Z,,,,,,,,,,,,,,,,,,,,,,,,,,,,,,,4835.754000014684,,completion,,,,,,,,,1,,,,,,,,S,O,I,,102252.77000002097,102249.63500001468,97373.227,97392.04999999492,97413.881,102257.625,,,
Sounds,html.Screen,1_3_5_0,2021-04-24T18:52:48.909Z,,,,,,,,,,,,,,,,,,,,,,,,,,,,,,,4254.835000000006,,timeout,,,,,,,,,1,,,,,,,,S,I,O,,106492.46000000858,106489.833,102239.751,102253.30500002019,102257.625,106512.46,,,
Judgement,html.Screen,1_3_5_1,2021-04-24T18:52:49.422Z,,,,,,,,,,,,,,,,,,,,,,,,,,,,true,1,,490.03000001348846,,response,,,,,,,,,1,,1,click #choice-1,,,,,S,I,O,,107005.0100000226,107002.4900000135,106489.833,106492.91500000982,106512.46,107039.406,,,
Trial,flow.Sequence,1_3_5,2021-04-24T18:52:49.423Z,,,,,,,,,,,,,,,,,,,,,,,,,,,,,,,4744.865000013495,,completion,,,,,,,,,1,,,,,,,,S,I,O,,107005.72499999544,107002.4900000135,102239.751,102253.15500001307,102257.625,107039.406,,,
Task,flow.Loop,1_3,2021-04-24T18:52:49.439Z,,,,,,,,,,,,,,,,,,,,,,,,,,,,,,,36044.710000013496,,completion,,,0.8333333333333334,,,,,,,,,,,,,,,,,,107022.35000001383,107002.4900000135,70941.228,70945.38000001921,70957.78,107039.406,,,
Trap,html.Screen,1_4,2021-04-24T18:52:49.449Z,,,,,,,,,,,,,,,,,,,,,,,,,,,,,,,NaN,,skipped,,,,,,,,,,,,,,,,,,,,,107031.78000001935,107002.4900000135,,107031.23000002233,,107039.406,,,
Thanks,html.Screen,1_5,2021-04-24T18:52:53.428Z,,,,,,,,,,,,,,,,,,,,,,,,,,,,,,,3967.8040000106703,,response,,,,,,,,,,,continue,click button,,,,,,,,,111011.36500001303,111007.21000001067,106990.025,107032.27500000503,107039.406,114922.397,,,
Headphone screening,flow.Sequence,1,2021-04-24T18:52:53.428Z,,,,,,,,,,,,,,,,,,,,,,,,,,,,,,,80030.89900001067,,completion,,,,,,,,,,,,,,,,,,,,,111011.599999998,111007.21000001067,30893.155,30925.775000010617,30976.311,114922.397,,,
Instructions,html.Page,2_0,2021-04-24T18:53:22.810Z,,,,,,,,,,,,,,,,,,,,,,,,,,,,,,,25470.35800000804,,form submission,,,,,,,,,,,,,,,,,,,,,140393.71000000392,140392.75500000804,114855.672,114900.0750000123,114922.397,140405.04,,,
Holding screen,html.Screen,2_1_0_0,2021-04-24T18:53:32.805Z,,,,,,,,,,,,,,,,,,,,,,,,,,,,,,,10048.953999999998,,timeout,,,,,,,,,,,,,,,,,,,,,150388.80499999505,150387.494,140387.866,140394.53499999945,140405.04,150453.994,,,
screen,html.Screen,2_1_0_1_0,2021-04-24T18:53:33.686Z,,,,,,,,,,,,,,,,,53,,,,,,,,,,,,,,809.5660000212374,,response,,,,99,,,,,,,Space,keypress(Space),,,,,,,,When -- ----- -- ------ - ------- --- ----------<br>------------- ------ ------ ---- ---- ------- ----- -- ----<br>-------- ------- -- ---------- --- - --- ----- ----- ----<br>---- --- --- ----- --- ---- ---- ------- ----- ---- -------<br>--- --- -- ----- -- --- ---- -- --- ---- -- ------ ------<br>--- ----- -- ----,151270.51500001107,151263.56000002124,150387.494,150389.4900000014,150453.994,151287.453,,0,When
screen,html.Screen,2_1_0_1_1,2021-04-24T18:53:34.085Z,,,,,,,,,,,,,,,,,53,,,,,,,,,,,,,,379.78700000976096,,response,,,,99,,,,,,,Space,keypress(Space),,,,,,,,---- it ----- -- ------ - ------- --- ----------<br>------------- ------ ------ ---- ---- ------- ----- -- ----<br>-------- ------- -- ---------- --- - --- ----- ----- ----<br>---- --- --- ----- --- ---- ---- ------- ----- ---- -------<br>--- --- -- ----- -- --- ---- -- --- ---- -- ------ ------<br>--- ----- -- ----,151668.9699999988,151667.24000000977,151270.745,151271.0950000037,151287.453,151687.805,,1,it
screen,html.Screen,2_1_0_1_2,2021-04-24T18:53:34.477Z,,,,,,,,,,,,,,,,,53,,,,,,,,,,,,,,372.1750000200118,,response,,,,99,,,,,,,Space,keypress(Space),,,,,,,,---- -- comes -- ------ - ------- --- ----------<br>------------- ------ ------ ---- ---- ------- ----- -- ----<br>-------- ------- -- ---------- --- - --- ----- ----- ----<br>---- --- --- ----- --- ---- ---- ------- ----- ---- -------<br>--- --- -- ----- -- --- ---- -- --- ---- -- ------ ------<br>--- ----- -- ----,152061.6850000224,152059.98000002,151654.08,151669.43000000902,151687.805,152070.602,,2,comes
screen,html.Screen,2_1_0_1_3,2021-04-24T18:53:34.856Z,,,,,,,,,,,,,,,,,53,,,,,,,,,,,,,,367.98299999622395,,response,,,,99,,,,,,,Space,keypress(Space),,,,,,,,---- -- ----- to ------ - ------- --- ----------<br>------------- ------ ------ ---- ---- ------- ----- -- ----<br>-------- ------- -- ---------- --- - --- ----- ----- ----<br>---- --- --- ----- --- ---- ---- ------- ----- ---- -------<br>--- --- -- ----- -- --- ---- -- --- ---- -- ------ ------<br>--- ----- -- ----,152440.58500000392,152438.58499999624,152053.993,152062.16500001028,152070.602,152453.889,,3,to
screen,html.Screen,2_1_0_1_4,2021-04-24T18:53:35.270Z,,,,,,,,,,,,,,,,,53,,,,,,,,,,,,,,398.21599999812315,,response,,,,99,,,,,,,Space,keypress(Space),,,,,,,,---- -- ----- -- having - ------- --- ----------<br>------------- ------ ------ ---- ---- ------- ----- -- ----<br>-------- ------- -- ---------- --- - --- ----- ----- ----<br>---- --- --- ----- --- ---- ---- ------- ----- ---- -------<br>--- --- -- ----- -- --- ---- -- --- ---- -- ------ ------<br>--- ----- -- ----,152853.76500000712,152852.10499999812,152437.246,152441.04500001413,152453.889,152870.714,,4,having
screen,html.Screen,2_1_0_1_5,2021-04-24T18:53:35.758Z,,,,,,,,,,,,,,,,,53,,,,,,,,,,,,,,469.5560000151454,,response,,,,99,,,,,,,Space,keypress(Space),,,,,,,,---- -- ----- -- ------ a ------- --- ----------<br>------------- ------ ------ ---- ---- ------- ----- -- ----<br>-------- ------- -- ---------- --- - --- ----- ----- ----<br>---- --- --- ----- --- ---- ---- ------- ----- ---- -------<br>--- --- -- ----- -- --- ---- -- --- ---- -- ------ ------<br>--- ----- -- ----,153341.91499999724,153340.27000001515,152854.027,152854.22500001732,152870.714,153353.848,,5,a
screen,html.Screen,2_1_0_1_6,2021-04-24T18:53:36.171Z,,,,,,,,,,,,,,,,,53,,,,,,,,,,,,,,399.9370000080671,,response,,,,99,,,,,,,Space,keypress(Space),,,,,,,,---- -- ----- -- ------ - lasting --- ----------<br>------------- ------ ------ ---- ---- ------- ----- -- ----<br>-------- ------- -- ---------- --- - --- ----- ----- ----<br>---- --- --- ----- --- ---- ---- ------- ----- ---- -------<br>--- --- -- ----- -- --- ---- -- --- ---- -- ------ ------<br>--- ----- -- ----,153755.46499999473,153753.78500000807,153337.334,153342.59000001475,153353.848,153770.673,,6,lasting
screen,html.Screen,2_1_0_1_7,2021-04-24T18:53:36.595Z,,,,,,,,,,,,,,,,,53,,,,,,,,,,,,,,407.0270000001765,,response,,,,99,,,,,,,Space,keypress(Space),,,,,,,,---- -- ----- -- ------ - ------- and ----------<br>------------- ------ ------ ---- ---- ------- ----- -- ----<br>-------- ------- -- ---------- --- - --- ----- ----- ----<br>---- --- --- ----- --- ---- ---- ------- ----- ---- -------<br>--- --- -- ----- -- --- ---- -- --- ---- -- ------ ------<br>--- ----- -- ----,154179.39500001376,154177.7000000002,153753.98,153755.9450000117,153770.673,154187.198,,7,and
screen,html.Screen,2_1_0_1_8,2021-04-24T18:53:37.014Z,,,,,,,,,,,,,,,,,53,,,,,,,,,,,,,,409.45200002132333,,response,,,,99,,,,,,,Space,keypress(Space),,,,,,,,---- -- ----- -- ------ - ------- --- fulfilling<br>------------- ------ ------ ---- ---- ------- ----- -- ----<br>-------- ------- -- ---------- --- - --- ----- ----- ----<br>---- --- --- ----- --- ---- ---- ------- ----- ---- -------<br>--- --- -- ----- -- --- ---- -- --- ---- -- ------ ------<br>--- ----- -- ----,154598.30500002136,154596.65000002133,154170.629,154179.84500000603,154187.198,154603.801,,8,fulfilling
screen,html.Screen,2_1_0_1_9,2021-04-24T18:53:37.417Z,,,,,,,,,,,,,,,,,53,,,,,,,,,,,,,,395.4890000070154,,response,,,,99,,,,,,,Space,keypress(Space),,,,,,,,"---- -- ----- -- ------ - ------- --- ----------<br>relationship, ------ ------ ---- ---- ------- ----- -- ----<br>-------- ------- -- ---------- --- - --- ----- ----- ----<br>---- --- --- ----- --- ---- ---- ------- ----- ---- -------<br>--- --- -- ----- -- --- ---- -- --- ---- -- ------ ------<br>--- ----- -- ----",155000.93000000925,154999.29000000702,154587.273,154598.7750000204,154603.801,155003.774,,9,"relationship,"
screen,html.Screen,2_1_0_1_10,2021-04-24T18:53:37.850Z,,,,,,,,,,,,,,,,,53,,,,,,,,,,,,,,428.8760000024631,,response,,,,99,,,,,,,Space,keypress(Space),,,,,,,,---- -- ----- -- ------ - ------- --- ----------<br>------------- common ------ ---- ---- ------- ----- -- ----<br>-------- ------- -- ---------- --- - --- ----- ----- ----<br>---- --- --- ----- --- ---- ---- ------- ----- ---- -------<br>--- --- -- ----- -- --- ---- -- --- ---- -- ------ ------<br>--- ----- -- ----,155434.33000001824,155432.65000000247,154987.255,155001.4000000083,155003.774,155437.084,,10,common
screen,html.Screen,2_1_0_1_11,2021-04-24T18:53:38.303Z,,,,,,,,,,,,,,,,,53,,,,,,,,,,,,,,448.91100001873565,,response,,,,99,,,,,,,Space,keypress(Space),,,,,,,,---- -- ----- -- ------ - ------- --- ----------<br>------------- ------ wisdom ---- ---- ------- ----- -- ----<br>-------- ------- -- ---------- --- - --- ----- ----- ----<br>---- --- --- ----- --- ---- ---- ------- ----- ---- -------<br>--- --- -- ----- -- --- ---- -- --- ---- -- ------ ------<br>--- ----- -- ----,155887.68000001437,155885.99500001874,155420.563,155434.80000001728,155437.084,155903.907,,11,wisdom
screen,html.Screen,2_1_0_1_12,2021-04-24T18:53:38.717Z,,,,,,,,,,,,,,,,,53,,,,,,,,,,,,,,395.7079999962589,,response,,,,99,,,,,,,Space,keypress(Space),,,,,,,,---- -- ----- -- ------ - ------- --- ----------<br>------------- ------ ------ says ---- ------- ----- -- ----<br>-------- ------- -- ---------- --- - --- ----- ----- ----<br>---- --- --- ----- --- ---- ---- ------- ----- ---- -------<br>--- --- -- ----- -- --- ---- -- --- ---- -- ------ ------<br>--- ----- -- ----,156301.26500001643,156299.61499999627,155887.206,155888.1500000134,155903.907,156303.711,,12,says
screen,html.Screen,2_1_0_1_13,2021-04-24T18:53:39.121Z,,,,,,,,,,,,,,,,,53,,,,,,,,,,,,,,399.33900001097936,,response,,,,99,,,,,,,Space,keypress(Space),,,,,,,,---- -- ----- -- ------ - ------- --- ----------<br>------------- ------ ------ ---- that ------- ----- -- ----<br>-------- ------- -- ---------- --- - --- ----- ----- ----<br>---- --- --- ----- --- ---- ---- ------- ----- ---- -------<br>--- --- -- ----- -- --- ---- -- --- ---- -- ------ ------<br>--- ----- -- ----,156704.74499999546,156703.050000011,156287.199,156301.7300000065,156303.711,156720.537,,13,that
screen,html.Screen,2_1_0_1_14,2021-04-24T18:53:39.504Z,,,,,,,,,,,,,,,,,53,,,,,,,,,,,,,,366.0780000074301,,response,,,,99,,,,,,,Space,keypress(Space),,,,,,,,---- -- ----- -- ------ - ------- --- ----------<br>------------- ------ ------ ---- ---- feeling ----- -- ----<br>-------- ------- -- ---------- --- - --- ----- ----- ----<br>---- --- --- ----- --- ---- ---- ------- ----- ---- -------<br>--- --- -- ----- -- --- ---- -- --- ---- -- ------ ------<br>--- ----- -- ----,157088.2799999963,157086.61500000744,156703.827,156705.20500000566,156720.537,157103.848,,14,feeling
screen,html.Screen,2_1_0_1_15,2021-04-24T18:53:39.923Z,,,,,,,,,,,,,,,,,53,,,,,,,,,,,,,,401.30700002075173,,response,,,,99,,,,,,,Space,keypress(Space),,,,,,,,---- -- ----- -- ------ - ------- --- ----------<br>------------- ------ ------ ---- ---- ------- close -- ----<br>-------- ------- -- ---------- --- - --- ----- ----- ----<br>---- --- --- ----- --- ---- ---- ------- ----- ---- -------<br>--- --- -- ----- -- --- ---- -- --- ---- -- ------ ------<br>--- ----- -- ----,157506.76499999827,157505.15500002075,157087.158,157088.74500001548,157103.848,157520.495,,15,close
screen,html.Screen,2_1_0_1_16,2021-04-24T18:53:40.261Z,,,,,,,,,,,,,,,,,53,,,,,,,,,,,,,,323.3400000069523,,response,,,,99,,,,,,,Space,keypress(Space),,,,,,,,---- -- ----- -- ------ - ------- --- ----------<br>------------- ------ ------ ---- ---- ------- ----- to ----<br>-------- ------- -- ---------- --- - --- ----- ----- ----<br>---- --- --- ----- --- ---- ---- ------- ----- ---- -------<br>--- --- -- ----- -- --- ---- -- --- ---- -- ------ ------<br>--- ----- -- ----,157845.47500000917,157843.83500000695,157503.805,157507.2349999973,157520.495,157853.658,,16,to
screen,html.Screen,2_1_0_1_17,2021-04-24T18:53:40.635Z,,,,,,,,,,,,,,,,,53,,,,,,,,,,,,,,363.8170000122045,,response,,,,99,,,,,,,Space,keypress(Space),,,,,,,,---- -- ----- -- ------ - ------- --- ----------<br>------------- ------ ------ ---- ---- ------- ----- -- your<br>-------- ------- -- ---------- --- - --- ----- ----- ----<br>---- --- --- ----- --- ---- ---- ------- ----- ---- -------<br>--- --- -- ----- -- --- ---- -- --- ---- -- ------ ------<br>--- ----- -- ----,158219.12500000326,158217.4750000122,157836.974,157845.96999999485,157853.658,158253.796,,17,your
screen,html.Screen,2_1_0_1_18,2021-04-24T18:53:40.994Z,,,,,,,,,,,,,,,,,53,,,,,,,,,,,,,,323.20400001932285,,response,,,,99,,,,,,,Space,keypress(Space),,,,,,,,---- -- ----- -- ------ - ------- --- ----------<br>------------- ------ ------ ---- ---- ------- ----- -- ----<br>romantic ------- -- ---------- --- - --- ----- ----- ----<br>---- --- --- ----- --- ---- ---- ------- ----- ---- -------<br>--- --- -- ----- -- --- ---- -- --- ---- -- ------ ------<br>--- ----- -- ----,158578.6150000058,158577.00000001932,158237.123,158219.68500001822,158253.796,158586.958,,18,romantic
screen,html.Screen,2_1_0_1_19,2021-04-24T18:53:41.422Z,,,,,,,,,,,,,,,,,53,,,,,,,,,,,,,,417.6319999968109,,response,,,,99,,,,,,,Space,keypress(Space),,,,,,,,---- -- ----- -- ------ - ------- --- ----------<br>------------- ------ ------ ---- ---- ------- ----- -- ----<br>-------- partner -- ---------- --- - --- ----- ----- ----<br>---- --- --- ----- --- ---- ---- ------- ----- ---- -------<br>--- --- -- ----- -- --- ---- -- --- ---- -- ------ ------<br>--- ----- -- ----,159006.46000000415,159004.58999999682,158570.29,158579.07500001602,158586.958,159020.424,,19,partner
screen,html.Screen,2_1_0_1_20,2021-04-24T18:53:41.811Z,,,,,,,,,,,,,,,,,53,,,,,,,,,,,,,,372.75600001367275,,response,,,,99,,,,,,,Space,keypress(Space),,,,,,,,---- -- ----- -- ------ - ------- --- ----------<br>------------- ------ ------ ---- ---- ------- ----- -- ----<br>-------- ------- is ---------- --- - --- ----- ----- ----<br>---- --- --- ----- --- ---- ---- ------- ----- ---- -------<br>--- --- -- ----- -- --- ---- -- --- ---- -- ------ ------<br>--- ----- -- ----,159394.83000000473,159393.18000001367,159003.721,159006.95000000997,159020.424,159403.559,,20,is
screen,html.Screen,2_1_0_1_21,2021-04-24T18:53:42.239Z,,,,,,,,,,,,,,,,,53,,,,,,,,,,,,,,418.05100001359824,,response,,,,99,,,,,,,Space,keypress(Space),,,,,,,,---- -- ----- -- ------ - ------- --- ----------<br>------------- ------ ------ ---- ---- ------- ----- -- ----<br>-------- ------- -- paramount. --- - --- ----- ----- ----<br>---- --- --- ----- --- ---- ---- ------- ----- ---- -------<br>--- --- -- ----- -- --- ---- -- --- ---- -- ------ ------<br>--- ----- -- ----,159823.2250000001,159821.6100000136,159387.05,159395.30500001274,159403.559,159836.913,,21,paramount.
screen,html.Screen,2_1_0_1_22,2021-04-24T18:53:42.632Z,,,,,,,,,,,,,,,,,53,,,,,,,,,,,,,,378.1470000168192,,response,,,,99,,,,,,,Space,keypress(Space),,,,,,,,---- -- ----- -- ------ - ------- --- ----------<br>------------- ------ ------ ---- ---- ------- ----- -- ----<br>-------- ------- -- ---------- But - --- ----- ----- ----<br>---- --- --- ----- --- ---- ---- ------- ----- ---- -------<br>--- --- -- ----- -- --- ---- -- --- ---- -- ------ ------<br>--- ----- -- ----,160216.68000001227,160215.06000001682,159820.381,159823.69499999913,159836.913,160220.198,,22,But
screen,html.Screen,2_1_0_1_23,2021-04-24T18:53:43.042Z,,,,,,,,,,,,,,,,,53,,,,,,,,,,,,,,404.3469999987574,,response,,,,99,,,,,,,Space,keypress(Space),,,,,,,,---- -- ----- -- ------ - ------- --- ----------<br>------------- ------ ------ ---- ---- ------- ----- -- ----<br>-------- ------- -- ---------- --- a --- ----- ----- ----<br>---- --- --- ----- --- ---- ---- ------- ----- ---- -------<br>--- --- -- ----- -- --- ---- -- --- ---- -- ------ ------<br>--- ----- -- ----,160626.185000001,160624.54499999876,160203.685,160217.15000001132,160220.198,160636.826,,23,a
screen,html.Screen,2_1_0_1_24,2021-04-24T18:53:43.420Z,,,,,,,,,,,,,,,,,53,,,,,,,,,,,,,,365.4690000129631,,response,,,,99,,,,,,,Space,keypress(Space),,,,,,,,---- -- ----- -- ------ - ------- --- ----------<br>------------- ------ ------ ---- ---- ------- ----- -- ----<br>-------- ------- -- ---------- --- - new ----- ----- ----<br>---- --- --- ----- --- ---- ---- ------- ----- ---- -------<br>--- --- -- ----- -- --- ---- -- --- ---- -- ------ ------<br>--- ----- -- ----,161003.92499999725,161002.29500001296,160620.347,160626.64000000223,160636.826,161020.328,,24,new
screen,html.Screen,2_1_0_1_25,2021-04-24T18:53:43.789Z,,,,,,,,,,,,,,,,,53,,,,,,,,,,,,,,351.27200001312303,,response,,,,99,,,,,,,Space,keypress(Space),,,,,,,,---- -- ----- -- ------ - ------- --- ----------<br>------------- ------ ------ ---- ---- ------- ----- -- ----<br>-------- ------- -- ---------- --- - --- study ----- ----<br>---- --- --- ----- --- ---- ---- ------- ----- ---- -------<br>--- --- -- ----- -- --- ---- -- --- ---- -- ------ ------<br>--- ----- -- ----,161373.2350000064,161371.60000001313,161003.63,161004.39000001643,161020.328,161386.982,,25,study
screen,html.Screen,2_1_0_1_26,2021-04-24T18:53:44.117Z,,,,,,,,,,,,,,,,,53,,,,,,,,,,,,,,312.84300001789234,,response,,,,99,,,,,,,Space,keypress(Space),,,,,,,,---- -- ----- -- ------ - ------- --- ----------<br>------------- ------ ------ ---- ---- ------- ----- -- ----<br>-------- ------- -- ---------- --- - --- ----- finds ----<br>---- --- --- ----- --- ---- ---- ------- ----- ---- -------<br>--- --- -- ----- -- --- ---- -- --- ---- -- ------ ------<br>--- ----- -- ----,161701.4349999954,161699.82500001788,161370.289,161373.6950000166,161386.982,161722.616,,26,finds
screen,html.Screen,2_1_0_1_27,2021-04-24T18:53:44.466Z,,,,,,,,,,,,,,,,,53,,,,,,,,,,,,,,325.94900000459165,,response,,,,99,,,,,,,Space,keypress(Space),,,,,,,,---- -- ----- -- ------ - ------- --- ----------<br>------------- ------ ------ ---- ---- ------- ----- -- ----<br>-------- ------- -- ---------- --- - --- ----- ----- that<br>---- --- --- ----- --- ---- ---- ------- ----- ---- -------<br>--- --- -- ----- -- --- ---- -- --- ---- -- ------ ------<br>--- ----- -- ----,162050.2100000158,162048.5650000046,161686.946,161701.9100000034,161722.616,162053.442,,27,that
screen,html.Screen,2_1_0_1_28,2021-04-24T18:53:44.780Z,,,,,,,,,,,,,,,,,53,,,,,,,,,,,,,,308.9130000192963,,response,,,,99,,,,,,,Space,keypress(Space),,,,,,,,---- -- ----- -- ------ - ------- --- ----------<br>------------- ------ ------ ---- ---- ------- ----- -- ----<br>-------- ------- -- ---------- --- - --- ----- ----- ----<br>it's --- --- ----- --- ---- ---- ------- ----- ---- -------<br>--- --- -- ----- -- --- ---- -- --- ---- -- ------ ------<br>--- ----- -- ----,162364.0900000173,162362.3550000193,162036.913,162050.69000000367,162053.442,162370.091,,28,it's
screen,html.Screen,2_1_0_1_29,2021-04-24T18:53:45.213Z,,,,,,,,,,,,,,,,,53,,,,,,,,,,,,,,425.7490000061516,,response,,,,99,,,,,,,Space,keypress(Space),,,,,,,,---- -- ----- -- ------ - ------- --- ----------<br>------------- ------ ------ ---- ---- ------- ----- -- ----<br>-------- ------- -- ---------- --- - --- ----- ----- ----<br>---- not --- ----- --- ---- ---- ------- ----- ---- -------<br>--- --- -- ----- -- --- ---- -- --- ---- -- ------ ------<br>--- ----- -- ----,162797.4450000038,162795.84000000614,162353.576,162364.55500000739,162370.091,162803.429,,29,not
screen,html.Screen,2_1_0_1_30,2021-04-24T18:53:45.572Z,,,,,,,,,,,,,,,,,53,,,,,,,,,,,,,,351.0610000153538,,response,,,,99,,,,,,,Space,keypress(Space),,,,,,,,---- -- ----- -- ------ - ------- --- ----------<br>------------- ------ ------ ---- ---- ------- ----- -- ----<br>-------- ------- -- ---------- --- - --- ----- ----- ----<br>---- --- how ----- --- ---- ---- ------- ----- ---- -------<br>--- --- -- ----- -- --- ---- -- --- ---- -- ------ ------<br>--- ----- -- ----,163156.13499999745,163154.49000001536,162786.882,162797.90000000503,162803.429,163170.228,,30,how
screen,html.Screen,2_1_0_1_31,2021-04-24T18:53:45.921Z,,,,,,,,,,,,,,,,,53,,,,,,,,,,,,,,332.9720000064699,,response,,,,99,,,,,,,Space,keypress(Space),,,,,,,,---- -- ----- -- ------ - ------- --- ----------<br>------------- ------ ------ ---- ---- ------- ----- -- ----<br>-------- ------- -- ---------- --- - --- ----- ----- ----<br>---- --- --- close --- ---- ---- ------- ----- ---- -------<br>--- --- -- ----- -- --- ---- -- --- ---- -- ------ ------<br>--- ----- -- ----,163504.8250000109,163503.20000000647,163153.525,163156.61500001443,163170.228,163520.213,,31,close
screen,html.Screen,2_1_0_1_32,2021-04-24T18:53:46.254Z,,,,,,,,,,,,,,,,,53,,,,,,,,,,,,,,316.6120000057854,,response,,,,99,,,,,,,Space,keypress(Space),,,,,,,,---- -- ----- -- ------ - ------- --- ----------<br>------------- ------ ------ ---- ---- ------- ----- -- ----<br>-------- ------- -- ---------- --- - --- ----- ----- ----<br>---- --- --- ----- you ---- ---- ------- ----- ---- -------<br>--- --- -- ----- -- --- ---- -- --- ---- -- ------ ------<br>--- ----- -- ----,163838.4350000124,163836.82500000577,163503.522,163505.29500000994,163520.213,163853.529,,32,you
screen,html.Screen,2_1_0_1_33,2021-04-24T18:53:46.563Z,,,,,,,,,,,,,,,,,53,,,,,,,,,,,,,,292.33599999858416,,response,,,,99,,,,,,,Space,keypress(Space),,,,,,,,---- -- ----- -- ------ - ------- --- ----------<br>------------- ------ ------ ---- ---- ------- ----- -- ----<br>-------- ------- -- ---------- --- - --- ----- ----- ----<br>---- --- --- ----- --- feel ---- ------- ----- ---- -------<br>--- --- -- ----- -- --- ---- -- --- ---- -- ------ ------<br>--- ----- -- ----,164147.57500000997,164145.8649999986,163836.843,163838.92000000924,163853.529,164153.332,,33,feel
screen,html.Screen,2_1_0_1_34,2021-04-24T18:53:46.907Z,,,,,,,,,,,,,,,,,53,,,,,,,,,,,,,,336.28800000756746,,response,,,,99,,,,,,,Space,keypress(Space),,,,,,,,---- -- ----- -- ------ - ------- --- ----------<br>------------- ------ ------ ---- ---- ------- ----- -- ----<br>-------- ------- -- ---------- --- - --- ----- ----- ----<br>---- --- --- ----- --- ---- that ------- ----- ---- -------<br>--- --- -- ----- -- --- ---- -- --- ---- -- ------ ------<br>--- ----- -- ----,164491.2600000098,164489.62000000756,164136.832,164148.045000009,164153.332,164519.989,,34,that
screen,html.Screen,2_1_0_1_35,2021-04-24T18:53:47.221Z,,,,,,,,,,,,,,,,,53,,,,,,,,,,,,,,283.48100001347484,,response,,,,99,,,,,,,Space,keypress(Space),,,,,,,,---- -- ----- -- ------ - ------- --- ----------<br>------------- ------ ------ ---- ---- ------- ----- -- ----<br>-------- ------- -- ---------- --- - --- ----- ----- ----<br>---- --- --- ----- --- ---- ---- matters ----- ---- -------<br>--- --- -- ----- -- --- ---- -- --- ---- -- ------ ------<br>--- ----- -- ----,164805.56500001694,164803.47000001348,164503.474,164505.61500000185,164519.989,164819.974,,35,matters
screen,html.Screen,2_1_0_1_36,2021-04-24T18:53:47.585Z,,,,,,,,,,,,,,,,,53,,,,,,,,,,,,,,347.5760000128648,,response,,,,99,,,,,,,Space,keypress(Space),,,,,,,,"---- -- ----- -- ------ - ------- --- ----------<br>------------- ------ ------ ---- ---- ------- ----- -- ----<br>-------- ------- -- ---------- --- - --- ----- ----- ----<br>---- --- --- ----- --- ---- ---- ------- most, ---- -------<br>--- --- -- ----- -- --- ---- -- --- ---- -- ------ ------<br>--- ----- -- ----",165169.57500000717,165167.55000001285,164803.468,164807.8000000096,164819.974,165186.797,,36,"most,"
screen,html.Screen,2_1_0_1_37,2021-04-24T18:53:47.928Z,,,,,,,,,,,,,,,,,53,,,,,,,,,,,,,,324.083000016195,,response,,,,99,,,,,,,Space,keypress(Space),,,,,,,,---- -- ----- -- ------ - ------- --- ----------<br>------------- ------ ------ ---- ---- ------- ----- -- ----<br>-------- ------- -- ---------- --- - --- ----- ----- ----<br>---- --- --- ----- --- ---- ---- ------- ----- it's -------<br>--- --- -- ----- -- --- ---- -- --- ---- -- ------ ------<br>--- ----- -- ----,165512.5050000206,165510.8800000162,165170.109,165170.0150000106,165186.797,165520.427,,37,it's
screen,html.Screen,2_1_0_1_38,2021-04-24T18:53:48.252Z,,,,,,,,,,,,,,,,,53,,,,,,,,,,,,,,314.3680000024906,,response,,,,99,,,,,,,Space,keypress(Space),,,,,,,,---- -- ----- -- ------ - ------- --- ----------<br>------------- ------ ------ ---- ---- ------- ----- -- ----<br>-------- ------- -- ---------- --- - --- ----- ----- ----<br>---- --- --- ----- --- ---- ---- ------- ----- ---- whether<br>--- --- -- ----- -- --- ---- -- --- ---- -- ------ ------<br>--- ----- -- ----,165836.5150000027,165834.7950000025,165503.427,165512.95500001288,165520.427,165853.435,,38,whether
screen,html.Screen,2_1_0_1_39,2021-04-24T18:53:48.591Z,,,,,,,,,,,,,,,,,53,,,,,,,,,,,,,,319.8950000196346,,response,,,,99,,,,,,,Space,keypress(Space),,,,,,,,---- -- ----- -- ------ - ------- --- ----------<br>------------- ------ ------ ---- ---- ------- ----- -- ----<br>-------- ------- -- ---------- --- - --- ----- ----- ----<br>---- --- --- ----- --- ---- ---- ------- ----- ---- -------<br>you --- -- ----- -- --- ---- -- --- ---- -- ------ ------<br>--- ----- -- ----,166174.85000001034,166173.33000001963,165836.744,165836.95500000613,165853.435,166186.697,,39,you
screen,html.Screen,2_1_0_1_40,2021-04-24T18:53:48.970Z,,,,,,,,,,,,,,,,,53,,,,,,,,,,,,,,366.2730000188458,,response,,,,99,,,,,,,Space,keypress(Space),,,,,,,,---- -- ----- -- ------ - ------- --- ----------<br>------------- ------ ------ ---- ---- ------- ----- -- ----<br>-------- ------- -- ---------- --- - --- ----- ----- ----<br>---- --- --- ----- --- ---- ---- ------- ----- ---- -------<br>--- are -- ----- -- --- ---- -- --- ---- -- ------ ------<br>--- ----- -- ----,166554.55000000075,166552.97000001883,166170.062,166175.29000001377,166186.697,166570.073,,40,are
screen,html.Screen,2_1_0_1_41,2021-04-24T18:53:49.313Z,,,,,,,,,,,,,,,,,53,,,,,,,,,,,,,,325.64700000043376,,response,,,,99,,,,,,,Space,keypress(Space),,,,,,,,---- -- ----- -- ------ - ------- --- ----------<br>------------- ------ ------ ---- ---- ------- ----- -- ----<br>-------- ------- -- ---------- --- - --- ----- ----- ----<br>---- --- --- ----- --- ---- ---- ------- ----- ---- -------<br>--- --- as ----- -- --- ---- -- --- ---- -- ------ ------<br>--- ----- -- ----,166897.3550000228,166895.72000000044,166553.267,166554.99500001315,166570.073,166903.222,,41,as
screen,html.Screen,2_1_0_1_42,2021-04-24T18:53:49.662Z,,,,,,,,,,,,,,,,,53,,,,,,,,,,,,,,341.2130000005127,,response,,,,99,,,,,,,Space,keypress(Space),,,,,,,,---- -- ----- -- ------ - ------- --- ----------<br>------------- ------ ------ ---- ---- ------- ----- -- ----<br>-------- ------- -- ---------- --- - --- ----- ----- ----<br>---- --- --- ----- --- ---- ---- ------- ----- ---- -------<br>--- --- -- close -- --- ---- -- --- ---- -- ------ ------<br>--- ----- -- ----,167246.00000001374,167244.43500000052,166886.695,166897.79499999713,166903.222,167253.717,,42,close
screen,html.Screen,2_1_0_1_43,2021-04-24T18:53:50.007Z,,,,,,,,,,,,,,,,,53,,,,,,,,,,,,,,335.38800002093194,,response,,,,99,,,,,,,Space,keypress(Space),,,,,,,,---- -- ----- -- ------ - ------- --- ----------<br>------------- ------ ------ ---- ---- ------- ----- -- ----<br>-------- ------- -- ---------- --- - --- ----- ----- ----<br>---- --- --- ----- --- ---- ---- ------- ----- ---- -------<br>--- --- -- ----- as --- ---- -- --- ---- -- ------ ------<br>--- ----- -- ----,167590.7400000142,167589.10500002094,167236.676,167246.4350000082,167253.717,167603.266,,43,as
screen,html.Screen,2_1_0_1_44,2021-04-24T18:53:50.344Z,,,,,,,,,,,,,,,,,53,,,,,,,,,,,,,,323.75900001177797,,response,,,,99,,,,,,,Space,keypress(Space),,,,,,,,---- -- ----- -- ------ - ------- --- ----------<br>------------- ------ ------ ---- ---- ------- ----- -- ----<br>-------- ------- -- ---------- --- - --- ----- ----- ----<br>---- --- --- ----- --- ---- ---- ------- ----- ---- -------<br>--- --- -- ----- -- you ---- -- --- ---- -- ------ ------<br>--- ----- -- ----,167928.62500000047,167927.02500001178,167586.649,167591.17500000866,167603.266,167936.49,,44,you
screen,html.Screen,2_1_0_1_45,2021-04-24T18:53:50.678Z,,,,,,,,,,,,,,,,,53,,,,,,,,,,,,,,324.3900000161957,,response,,,,99,,,,,,,Space,keypress(Space),,,,,,,,---- -- ----- -- ------ - ------- --- ----------<br>------------- ------ ------ ---- ---- ------- ----- -- ----<br>-------- ------- -- ---------- --- - --- ----- ----- ----<br>---- --- --- ----- --- ---- ---- ------- ----- ---- -------<br>--- --- -- ----- -- --- want -- --- ---- -- ------ ------<br>--- ----- -- ----,168262.48000000487,168260.8800000162,167919.983,167929.07000001287,167936.49,168270.035,,45,want
screen,html.Screen,2_1_0_1_46,2021-04-24T18:53:51.047Z,,,,,,,,,,,,,,,,,53,,,,,,,,,,,,,,350.3350000187347,,response,,,,99,,,,,,,Space,keypress(Space),,,,,,,,---- -- ----- -- ------ - ------- --- ----------<br>------------- ------ ------ ---- ---- ------- ----- -- ----<br>-------- ------- -- ---------- --- - --- ----- ----- ----<br>---- --- --- ----- --- ---- ---- ------- ----- ---- -------<br>--- --- -- ----- -- --- ---- to --- ---- -- ------ ------<br>--- ----- -- ----,168631.0400000075,168620.37000001874,168253.298,168262.9500000039,168270.035,168636.462,,46,to
screen,html.Screen,2_1_0_1_47,2021-04-24T18:53:51.386Z,,,,,,,,,,,,,,,,,53,,,,,,,,,,,,,,331.89799999893876,,response,,,,99,,,,,,,Space,keypress(Space),,,,,,,,"---- -- ----- -- ------ - ------- --- ----------<br>------------- ------ ------ ---- ---- ------- ----- -- ----<br>-------- ------- -- ---------- --- - --- ----- ----- ----<br>---- --- --- ----- --- ---- ---- ------- ----- ---- -------<br>--- --- -- ----- -- --- ---- -- be, ---- -- ------ ------<br>--- ----- -- ----",168970.40500000003,168968.35999999894,168619.946,168631.54000000213,168636.462,168986.621,,47,"be,"
screen,html.Screen,2_1_0_1_48,2021-04-24T18:53:51.705Z,,,,,,,,,,,,,,,,,53,,,,,,,,,,,,,,300.5040000025474,,response,,,,99,,,,,,,Space,keypress(Space),,,,,,,,---- -- ----- -- ------ - ------- --- ----------<br>------------- ------ ------ ---- ---- ------- ----- -- ----<br>-------- ------- -- ---------- --- - --- ----- ----- ----<br>---- --- --- ----- --- ---- ---- ------- ----- ---- -------<br>--- --- -- ----- -- --- ---- -- --- even -- ------ ------<br>--- ----- -- ----,169288.77000001376,169287.12500000256,168969.929,168970.8099999989,168986.621,169303.271,,48,even
screen,html.Screen,2_1_0_1_49,2021-04-24T18:53:52.034Z,,,,,,,,,,,,,,,,,53,,,,,,,,,,,,,,313.47900001559174,,response,,,,99,,,,,,,Space,keypress(Space),,,,,,,,---- -- ----- -- ------ - ------- --- ----------<br>------------- ------ ------ ---- ---- ------- ----- -- ----<br>-------- ------- -- ---------- --- - --- ----- ----- ----<br>---- --- --- ----- --- ---- ---- ------- ----- ---- -------<br>--- --- -- ----- -- --- ---- -- --- ---- if ------ ------<br>--- ----- -- ----,169618.35000000428,169616.7500000156,169286.587,169289.17000000365,169303.271,169636.939,,49,if
screen,html.Screen,2_1_0_1_50,2021-04-24T18:53:52.362Z,,,,,,,,,,,,,,,,,53,,,,,,,,,,,,,,307.79100001743063,,response,,,,99,,,,,,,Space,keypress(Space),,,,,,,,---- -- ----- -- ------ - ------- --- ----------<br>------------- ------ ------ ---- ---- ------- ----- -- ----<br>-------- ------- -- ---------- --- - --- ----- ----- ----<br>---- --- --- ----- --- ---- ---- ------- ----- ---- -------<br>--- --- -- ----- -- --- ---- -- --- ---- -- that's ------<br>--- ----- -- ----,169946.35500002187,169944.73000001744,169603.235,169618.76500002109,169636.939,169953.054,,50,that's
screen,html.Screen,2_1_0_1_51,2021-04-24T18:53:52.711Z,,,,,,,,,,,,,,,,,53,,,,,,,,,,,,,,340.40600001532584,,response,,,,99,,,,,,,Space,keypress(Space),,,,,,,,---- -- ----- -- ------ - ------- --- ----------<br>------------- ------ ------ ---- ---- ------- ----- -- ----<br>-------- ------- -- ---------- --- - --- ----- ----- ----<br>---- --- --- ----- --- ---- ---- ------- ----- ---- -------<br>--- --- -- ----- -- --- ---- -- --- ---- -- ------ really<br>--- ----- -- ----,170295.0950000086,170293.46000001533,169936.385,169946.7650000006,169953.054,170303.036,,51,really
screen,html.Screen,2_1_0_1_52,2021-04-24T18:53:53.124Z,,,,,,,,,,,,,,,,,53,,,,,,,,,,,,,,403.9339999992808,,response,,,,99,,,,,,,Space,keypress(Space),,,,,,,,---- -- ----- -- ------ - ------- --- ----------<br>------------- ------ ------ ---- ---- ------- ----- -- ----<br>-------- ------- -- ---------- --- - --- ----- ----- ----<br>---- --- --- ----- --- ---- ---- ------- ----- ---- -------<br>--- --- -- ----- -- --- ---- -- --- ---- -- ------ ------<br>not ----- -- ----,170708.5800000059,170706.96999999927,170286.538,170295.51500000525,170303.036,170719.748,,52,not
screen,html.Screen,2_1_0_1_53,2021-04-24T18:53:53.498Z,,,,,,,,,,,,,,,,,53,,,,,,,,,,,,,,361.12700001421035,,response,,,,99,,,,,,,Space,keypress(Space),,,,,,,,---- -- ----- -- ------ - ------- --- ----------<br>------------- ------ ------ ---- ---- ------- ----- -- ----<br>-------- ------- -- ---------- --- - --- ----- ----- ----<br>---- --- --- ----- --- ---- ---- ------- ----- ---- -------<br>--- --- -- ----- -- --- ---- -- --- ---- -- ------ ------<br>--- close -- ----,171082.65500000562,171080.8750000142,170703.176,170708.99000001373,170719.748,171086.351,,53,close
screen,html.Screen,2_1_0_1_54,2021-04-24T18:53:53.892Z,,,,,,,,,,,,,,,,,53,,,,,,,,,,,,,,388.47900002103415,,response,,,,99,,,,,,,Space,keypress(Space),,,,,,,,---- -- ----- -- ------ - ------- --- ----------<br>------------- ------ ------ ---- ---- ------- ----- -- ----<br>-------- ------- -- ---------- --- - --- ----- ----- ----<br>---- --- --- ----- --- ---- ---- ------- ----- ---- -------<br>--- --- -- ----- -- --- ---- -- --- ---- -- ------ ------<br>--- ----- at ----,171476.47500000312,171474.83000002103,171069.832,171083.08500002022,171086.351,171486.316,,54,at
screen,html.Screen,2_1_0_1_55,2021-04-24T18:53:54.285Z,,,,,,,,,,,,,,,,,53,,,,,,,,,,,,,,381.4840000072727,,response,,,,99,,,,,,,Space,keypress(Space),,,,,,,,---- -- ----- -- ------ - ------- --- ----------<br>------------- ------ ------ ---- ---- ------- ----- -- ----<br>-------- ------- -- ---------- --- - --- ----- ----- ----<br>---- --- --- ----- --- ---- ---- ------- ----- ---- -------<br>--- --- -- ----- -- --- ---- -- --- ---- -- ------ ------<br>--- ----- -- all.,171869.42000000272,171867.80000000726,171469.805,171476.88500001095,171486.316,171886.339,,55,all.
Item 99,flow.Loop,2_1_0_1,2021-04-24T18:53:54.286Z,,,,,,,,,,,,,,,,,,,,,,,,,,,,,,,21413.80600000726,,completion,,,,,E,,,,,,,,,,,silence,,,,,171870.2200000116,171867.80000000726,150387.494,150389.30000000983,150453.994,171886.339,,,
Question 1,html.Screen,2_1_0_2,2021-04-24T18:54:01.699Z,,,,,,,,,,,,,,,,,,,,,,,,,,,,true,FALSE,,7394.006000006484,,response,,,,99,E,,,,,,FALSE,click #choice-2,,,,silence,,,,,179282.984999998,179280.3450000065,171869.782,171870.64000000828,171886.339,179286.268,,,
Question 2,html.Screen,2_1_0_3,2021-04-24T18:54:07.108Z,,,,,,,,,,,,,,,,,,,,,,,,,,,,true,TRUE,,5403.677000020078,,response,,,,99,E,,,,,,TRUE,click #choice-1,,,,silence,,,,,184692.36000001547,184689.9450000201,179269.45,179283.51999999722,179286.268,184702.39,,,
Item 99,flow.Sequence,2_1_0,2021-04-24T18:54:07.109Z,,,,,,,,,,,,,,,,,,,,,,,,,,,,,,,44284.90500002008,,completion,,,,,,,,,,,,,,,,,,,,,184692.99000001047,184689.9450000201,140387.866,140394.3900000013,140405.04,184702.39,,,
Holding screen,html.Screen,2_1_1_0,2021-04-24T18:54:17.102Z,,,,,,,,,,,,,,,,,,,,,,,,,,,,,,,9999.594999999972,,timeout,,,,,,,,,,,,,,,,,,,,,194686.66500001564,194685.405,184685.871,184693.46500001848,184702.39,194701.985,,,
screen,html.Screen,2_1_1_1_0,2021-04-24T18:54:17.985Z,,,,,,,,,,,,,,,,,54,,,,,,,,,,,,,,864.850000005099,,response,,,,100,,,,,,,Space,keypress(Space),,,,,,,,At --- ---- --- ------ ----- ------- ---- -- --- ------- --<br>------- ---------- ------ -- ----- -- ----- -- ---- ------<br>--- ----- --- --- ------ -------- ----- --- ------ ----- --<br>----- ----- ---------- --- --- ------ ------ ---- -- ------<br>------- --- ------ ----- --- ---- ------- -- ---- --- --<br>------- ------,195569.05000002007,195566.83500000509,194685.405,194687.20000001485,194701.985,195587.993,,0,At
screen,html.Screen,2_1_1_1_1,2021-04-24T18:54:18.387Z,,,,,,,,,,,,,,,,,54,,,,,,,,,,,,,,381.77200001620804,,response,,,,100,,,,,,,Space,keypress(Space),,,,,,,,-- the ---- --- ------ ----- ------- ---- -- --- ------- --<br>------- ---------- ------ -- ----- -- ----- -- ---- ------<br>--- ----- --- --- ------ -------- ----- --- ------ ----- --<br>----- ----- ---------- --- --- ------ ------ ---- -- ------<br>------- --- ------ ----- --- ---- ------- -- ---- --- --<br>------- ------,195971.34000001824,195969.7650000162,195551.969,195569.46500000777,195587.993,195985.347,,1,the
screen,html.Screen,2_1_1_1_2,2021-04-24T18:54:18.711Z,,,,,,,,,,,,,,,,,54,,,,,,,,,,,,,,308.2580000134767,,response,,,,100,,,,,,,Space,keypress(Space),,,,,,,,-- --- time --- ------ ----- ------- ---- -- --- ------- --<br>------- ---------- ------ -- ----- -- ----- -- ---- ------<br>--- ----- --- --- ------ -------- ----- --- ------ ----- --<br>----- ----- ---------- --- --- ------ ------ ---- -- ------<br>------- --- ------ ----- --- ---- ------- -- ---- --- --<br>------- ------,196295.18000001553,196293.6050000135,195968.651,195971.75500000594,195985.347,196301.807,,2,time
screen,html.Screen,2_1_1_1_3,2021-04-24T18:54:19.049Z,,,,,,,,,,,,,,,,,54,,,,,,,,,,,,,,330.2979999969539,,response,,,,100,,,,,,,Space,keypress(Space),,,,,,,,-- --- ---- the ------ ----- ------- ---- -- --- ------- --<br>------- ---------- ------ -- ----- -- ----- -- ---- ------<br>--- ----- --- --- ------ -------- ----- --- ------ ----- --<br>----- ----- ---------- --- --- ------ ------ ---- -- ------<br>------- --- ------ ----- --- ---- ------- -- ---- --- --<br>------- ------,196633.525000012,196632.10499999695,196285.314,196295.5850000144,196301.807,196657.521,,3,the
screen,html.Screen,2_1_1_1_4,2021-04-24T18:54:19.398Z,,,,,,,,,,,,,,,,,54,,,,,,,,,,,,,,323.5190000133007,,response,,,,100,,,,,,,Space,keypress(Space),,,,,,,,-- --- ---- --- French ----- ------- ---- -- --- ------- --<br>------- ---------- ------ -- ----- -- ----- -- ---- ------<br>--- ----- --- --- ------ -------- ----- --- ------ ----- --<br>----- ----- ---------- --- --- ------ ------ ---- -- ------<br>------- --- ------ ----- --- ---- ------- -- ---- --- --<br>------- ------,196982.63000001316,196981.0400000133,196618.63,196633.90000001527,196657.521,196985.12,,4,French
screen,html.Screen,2_1_1_1_5,2021-04-24T18:54:19.717Z,,,,,,,,,,,,,,,,,54,,,,,,,,,,,,,,314.8199999971548,,response,,,,100,,,,,,,Space,keypress(Space),,,,,,,,-- --- ---- --- ------ crown ------- ---- -- --- ------- --<br>------- ---------- ------ -- ----- -- ----- -- ---- ------<br>--- ----- --- --- ------ -------- ----- --- ------ ----- --<br>----- ----- ---------- --- --- ------ ------ ---- -- ------<br>------- --- ------ ----- --- ---- ------- -- ---- --- --<br>------- ------,197301.6550000175,197299.93999999715,196968.604,196983.13999999664,196985.12,197318.619,,5,crown
screen,html.Screen,2_1_1_1_6,2021-04-24T18:54:20.115Z,,,,,,,,,,,,,,,,,54,,,,,,,,,,,,,,374.95100000308594,,response,,,,100,,,,,,,Space,keypress(Space),,,,,,,,-- --- ---- --- ------ ----- secured ---- -- --- ------- --<br>------- ---------- ------ -- ----- -- ----- -- ---- ------<br>--- ----- --- --- ------ -------- ----- --- ------ ----- --<br>----- ----- ---------- --- --- ------ ------ ---- -- ------<br>------- --- ------ ----- --- ---- ------- -- ---- --- --<br>------- ------,197695.17000002088,197693.5700000031,197301.923,197302.07500001416,197318.619,197701.754,,6,secured
screen,html.Screen,2_1_1_1_7,2021-04-24T18:54:20.489Z,,,,,,,,,,,,,,,,,54,,,,,,,,,,,,,,365.44600001952494,,response,,,,100,,,,,,,Space,keypress(Space),,,,,,,,-- --- ---- --- ------ ----- ------- much -- --- ------- --<br>------- ---------- ------ -- ----- -- ----- -- ---- ------<br>--- ----- --- --- ------ -------- ----- --- ------ ----- --<br>----- ----- ---------- --- --- ------ ------ ---- -- ------<br>------- --- ------ ----- --- ---- ------- -- ---- --- --<br>------- ------,198068.78000000142,198067.2000000195,197685.099,197695.59000001755,197701.754,198085.247,,7,much
screen,html.Screen,2_1_1_1_8,2021-04-24T18:54:20.883Z,,,,,,,,,,,,,,,,,54,,,,,,,,,,,,,,376.07300000215764,,response,,,,100,,,,,,,Space,keypress(Space),,,,,,,,-- --- ---- --- ------ ----- ------- ---- of --- ------- --<br>------- ---------- ------ -- ----- -- ----- -- ---- ------<br>--- ----- --- --- ------ -------- ----- --- ------ ----- --<br>----- ----- ---------- --- --- ------ ------ ---- -- ------<br>------- --- ------ ----- --- ---- ------- -- ---- --- --<br>------- ------,198462.8950000042,198461.32000000216,198068.562,198069.20500000706,198085.247,198469.157,,8,of
screen,html.Screen,2_1_1_1_9,2021-04-24T18:54:21.231Z,,,,,,,,,,,,,,,,,54,,,,,,,,,,,,,,340.1630000002915,,response,,,,100,,,,,,,Space,keypress(Space),,,,,,,,-- --- ---- --- ------ ----- ------- ---- -- its ------- --<br>------- ---------- ------ -- ----- -- ----- -- ---- ------<br>--- ----- --- --- ------ -------- ----- --- ------ ----- --<br>----- ----- ---------- --- --- ------ ------ ---- -- ------<br>------- --- ------ ----- --- ---- ------- -- ---- --- --<br>------- ------,198810.93000000692,198809.3200000003,198451.871,198463.32000000984,198469.157,198818.941,,9,its
screen,html.Screen,2_1_1_1_10,2021-04-24T18:54:21.575Z,,,,,,,,,,,,,,,,,54,,,,,,,,,,,,,,334.2940000052331,,response,,,,100,,,,,,,Space,keypress(Space),,,,,,,,-- --- ---- --- ------ ----- ------- ---- -- --- revenue --<br>------- ---------- ------ -- ----- -- ----- -- ---- ------<br>--- ----- --- --- ------ -------- ----- --- ------ ----- --<br>----- ----- ---------- --- --- ------ ------ ---- -- ------<br>------- --- ------ ----- --- ---- ------- -- ---- --- --<br>------- ------,199154.85500000068,199153.23500000522,198801.849,198811.34000001475,198818.941,199168.528,,10,revenue
screen,html.Screen,2_1_1_1_11,2021-04-24T18:54:21.904Z,,,,,,,,,,,,,,,,,54,,,,,,,,,,,,,,314.1070000221371,,response,,,,100,,,,,,,Space,keypress(Space),,,,,,,,-- --- ---- --- ------ ----- ------- ---- -- --- ------- by<br>------- ---------- ------ -- ----- -- ----- -- ---- ------<br>--- ----- --- --- ------ -------- ----- --- ------ ----- --<br>----- ----- ---------- --- --- ------ ------ ---- -- ------<br>------- --- ------ ----- --- ---- ------- -- ---- --- --<br>------- ------,199484.1900000174,199482.63500002213,199151.835,199155.2650000085,199168.528,199518.507,,11,by
screen,html.Screen,2_1_1_1_12,2021-04-24T18:54:22.283Z,,,,,,,,,,,,,,,,,54,,,,,,,,,,,,,,342.17800002146396,,response,,,,100,,,,,,,Space,keypress(Space),,,,,,,,-- --- ---- --- ------ ----- ------- ---- -- --- ------- --<br>issuing ---------- ------ -- ----- -- ----- -- ---- ------<br>--- ----- --- --- ------ -------- ----- --- ------ ----- --<br>----- ----- ---------- --- --- ------ ------ ---- -- ------<br>------- --- ------ ----- --- ---- ------- -- ---- --- --<br>------- ------,199862.28500001016,199860.68500002148,199501.825,199484.6200000029,199518.507,199868.318,,12,issuing
screen,html.Screen,2_1_1_1_13,2021-04-24T18:54:22.756Z,,,,,,,,,,,,,,,,,54,,,,,,,,,,,,,,465.6619999957911,,response,,,,100,,,,,,,Space,keypress(Space),,,,,,,,-- --- ---- --- ------ ----- ------- ---- -- --- ------- --<br>------- government ------ -- ----- -- ----- -- ---- ------<br>--- ----- --- --- ------ -------- ----- --- ------ ----- --<br>----- ----- ---------- --- --- ------ ------ ---- -- ------<br>------- --- ------ ----- --- ---- ------- -- ---- --- --<br>------- ------,200335.58000001358,200333.9799999958,199851.684,199862.695000018,199868.318,200351.804,,13,government
screen,html.Screen,2_1_1_1_14,2021-04-24T18:54:23.169Z,,,,,,,,,,,,,,,,,54,,,,,,,,,,,,,,395.67100001103245,,response,,,,100,,,,,,,Space,keypress(Space),,,,,,,,-- --- ---- --- ------ ----- ------- ---- -- --- ------- --<br>------- ---------- bonds. -- ----- -- ----- -- ---- ------<br>--- ----- --- --- ------ -------- ----- --- ------ ----- --<br>----- ----- ---------- --- --- ------ ------ ---- -- ------<br>------- --- ------ ----- --- ---- ------- -- ---- --- --<br>------- ------,200749.08500001766,200747.47500001104,200335.111,200335.9900000214,200351.804,200751.609,,14,bonds.
screen,html.Screen,2_1_1_1_15,2021-04-24T18:54:23.603Z,,,,,,,,,,,,,,,,,54,,,,,,,,,,,,,,429.92600001062965,,response,,,,100,,,,,,,Space,keypress(Space),,,,,,,,-- --- ---- --- ------ ----- ------- ---- -- --- ------- --<br>------- ---------- ------ In ----- -- ----- -- ---- ------<br>--- ----- --- --- ------ -------- ----- --- ------ ----- --<br>----- ----- ---------- --- --- ------ ------ ---- -- ------<br>------- --- ------ ----- --- ---- ------- -- ---- --- --<br>------- ------,201183.12500001048,201181.53500001063,200735.101,200749.5100000233,200751.609,201206.23,,15,In
screen,html.Screen,2_1_1_1_16,2021-04-24T18:54:24.036Z,,,,,,,,,,,,,,,,,54,,,,,,,,,,,,,,408.18500001818757,,response,,,,100,,,,,,,Space,keypress(Space),,,,,,,,"-- --- ---- --- ------ ----- ------- ---- -- --- ------- --<br>------- ---------- ------ -- 1727, -- ----- -- ---- ------<br>--- ----- --- --- ------ -------- ----- --- ------ ----- --<br>----- ----- ---------- --- --- ------ ------ ---- -- ------<br>------- --- ------ ----- --- ---- ------- -- ---- --- --<br>------- ------",201616.01500000688,201614.4150000182,201168.407,201183.53999999817,201206.23,201618.203,,16,"1727,"
screen,html.Screen,2_1_1_1_17,2021-04-24T18:54:24.515Z,,,,,,,,,,,,,,,,,54,,,,,,,,,,,,,,474.37699999680626,,response,,,,100,,,,,,,Space,keypress(Space),,,,,,,,-- --- ---- --- ------ ----- ------- ---- -- --- ------- --<br>------- ---------- ------ -- ----- in ----- -- ---- ------<br>--- ----- --- --- ------ -------- ----- --- ------ ----- --<br>----- ----- ---------- --- --- ------ ------ ---- -- ------<br>------- --- ------ ----- --- ---- ------- -- ---- --- --<br>------- ------,202094.36000001733,202092.57999999681,201601.717,201616.47000000812,201618.203,202101.601,,17,in
screen,html.Screen,2_1_1_1_18,2021-04-24T18:54:24.889Z,,,,,,,,,,,,,,,,,54,,,,,,,,,,,,,,365.58899999575806,,response,,,,100,,,,,,,Space,keypress(Space),,,,,,,,-- --- ---- --- ------ ----- ------- ---- -- --- ------- --<br>------- ---------- ------ -- ----- -- order -- ---- ------<br>--- ----- --- --- ------ -------- ----- --- ------ ----- --<br>----- ----- ---------- --- --- ------ ------ ---- -- ------<br>------- --- ------ ----- --- ---- ------- -- ---- --- --<br>------- ------,202468.78500000457,202467.18999999575,202084.849,202094.92000000319,202101.601,202485.036,,18,order
screen,html.Screen,2_1_1_1_19,2021-04-24T18:54:25.312Z,,,,,,,,,,,,,,,,,54,,,,,,,,,,,,,,404.7340000088734,,response,,,,100,,,,,,,Space,keypress(Space),,,,,,,,-- --- ---- --- ------ ----- ------- ---- -- --- ------- --<br>------- ---------- ------ -- ----- -- ----- to ---- ------<br>--- ----- --- --- ------ -------- ----- --- ------ ----- --<br>----- ----- ---------- --- --- ------ ------ ---- -- ------<br>------- --- ------ ----- --- ---- ------- -- ---- --- --<br>------- ------,202891.3650000177,202889.77000000887,202468.34,202469.2100000102,202485.036,202901.527,,19,to
screen,html.Screen,2_1_1_1_20,2021-04-24T18:54:25.760Z,,,,,,,,,,,,,,,,,54,,,,,,,,,,,,,,436.6229999959469,,response,,,,100,,,,,,,Space,keypress(Space),,,,,,,,-- --- ---- --- ------ ----- ------- ---- -- --- ------- --<br>------- ---------- ------ -- ----- -- ----- -- save ------<br>--- ----- --- --- ------ -------- ----- --- ------ ----- --<br>----- ----- ---------- --- --- ------ ------ ---- -- ------<br>------- --- ------ ----- --- ---- ------- -- ---- --- --<br>------- ------,203339.76500001154,203338.14999999595,202885.235,202891.9000000169,202901.527,203351.675,,20,save
screen,html.Screen,2_1_1_1_21,2021-04-24T18:54:26.154Z,,,,,,,,,,,,,,,,,54,,,,,,,,,,,,,,380.0849999951315,,response,,,,100,,,,,,,Space,keypress(Space),,,,,,,,"-- --- ---- --- ------ ----- ------- ---- -- --- ------- --<br>------- ---------- ------ -- ----- -- ----- -- ---- money,<br>--- ----- --- --- ------ -------- ----- --- ------ ----- --<br>----- ----- ---------- --- --- ------ ------ ---- -- ------<br>------- --- ------ ----- --- ---- ------- -- ---- --- --<br>------- ------",203733.37000000174,203731.75999999512,203334.966,203340.1700000104,203351.675,203759.68,,21,"money,"
screen,html.Screen,2_1_1_1_22,2021-04-24T18:54:26.507Z,,,,,,,,,,,,,,,,,54,,,,,,,,,,,,,,325.8500000112108,,response,,,,100,,,,,,,Space,keypress(Space),,,,,,,,-- --- ---- --- ------ ----- ------- ---- -- --- ------- --<br>------- ---------- ------ -- ----- -- ----- -- ---- ------<br>the ----- --- --- ------ -------- ----- --- ------ ----- --<br>----- ----- ---------- --- --- ------ ------ ---- -- ------<br>------- --- ------ ----- --- ---- ------- -- ---- --- --<br>------- ------,204087.09499999532,204085.5300000112,203718.291,203733.78000000957,203759.68,204101.496,,22,the
screen,html.Screen,2_1_1_1_23,2021-04-24T18:54:26.862Z,,,,,,,,,,,,,,,,,54,,,,,,,,,,,,,,338.4340000222728,,response,,,,100,,,,,,,Space,keypress(Space),,,,,,,,-- --- ---- --- ------ ----- ------- ---- -- --- ------- --<br>------- ---------- ------ -- ----- -- ----- -- ---- ------<br>--- state --- --- ------ -------- ----- --- ------ ----- --<br>----- ----- ---------- --- --- ------ ------ ---- -- ------<br>------- --- ------ ----- --- ---- ------- -- ---- --- --<br>------- ------,204441.53000001097,204439.9300000223,204084.911,204087.49000000535,204101.496,204451.457,,23,state
screen,html.Screen,2_1_1_1_24,2021-04-24T18:54:27.279Z,,,,,,,,,,,,,,,,,54,,,,,,,,,,,,,,406.0780000173836,,response,,,,100,,,,,,,Space,keypress(Space),,,,,,,,-- --- ---- --- ------ ----- ------- ---- -- --- ------- --<br>------- ---------- ------ -- ----- -- ----- -- ---- ------<br>--- ----- cut --- ------ -------- ----- --- ------ ----- --<br>----- ----- ---------- --- --- ------ ------ ---- -- ------<br>------- --- ------ ----- --- ---- ------- -- ---- --- --<br>------- ------,204859.1449999949,204857.53500001738,204434.921,204441.93500000983,204451.457,204868.101,,24,cut
screen,html.Screen,2_1_1_1_25,2021-04-24T18:54:27.634Z,,,,,,,,,,,,,,,,,54,,,,,,,,,,,,,,343.71400001694565,,response,,,,100,,,,,,,Space,keypress(Space),,,,,,,,-- --- ---- --- ------ ----- ------- ---- -- --- ------- --<br>------- ---------- ------ -- ----- -- ----- -- ---- ------<br>--- ----- --- the ------ -------- ----- --- ------ ----- --<br>----- ----- ---------- --- --- ------ ------ ---- -- ------<br>------- --- ------ ----- --- ---- ------- -- ---- --- --<br>------- ------,205213.465000008,205211.81500001694,204851.55,204859.5600000117,204868.101,205218.086,,25,the
screen,html.Screen,2_1_1_1_26,2021-04-24T18:54:28.022Z,,,,,,,,,,,,,,,,,54,,,,,,,,,,,,,,382.5340000119759,,response,,,,100,,,,,,,Space,keypress(Space),,,,,,,,-- --- ---- --- ------ ----- ------- ---- -- --- ------- --<br>------- ---------- ------ -- ----- -- ----- -- ---- ------<br>--- ----- --- --- bonds' -------- ----- --- ------ ----- --<br>----- ----- ---------- --- --- ------ ------ ---- -- ------<br>------- --- ------ ----- --- ---- ------- -- ---- --- --<br>------- ------,205602.2150000208,205600.620000012,205201.54,205213.87500001583,205218.086,205618.222,,26,bonds'
screen,html.Screen,2_1_1_1_27,2021-04-24T18:54:28.385Z,,,,,,,,,,,,,,,,,54,,,,,,,,,,,,,,345.1879999966477,,response,,,,100,,,,,,,Space,keypress(Space),,,,,,,,-- --- ---- --- ------ ----- ------- ---- -- --- ------- --<br>------- ---------- ------ -- ----- -- ----- -- ---- ------<br>--- ----- --- --- ------ interest ----- --- ------ ----- --<br>----- ----- ---------- --- --- ------ ------ ---- -- ------<br>------- --- ------ ----- --- ---- ------- -- ---- --- --<br>------- ------,205965.01000001444,205963.40999999666,205601.559,205602.62499999953,205618.222,205968.004,,27,interest
screen,html.Screen,2_1_1_1_28,2021-04-24T18:54:28.749Z,,,,,,,,,,,,,,,,,54,,,,,,,,,,,,,,359.19599999973434,,response,,,,100,,,,,,,Space,keypress(Space),,,,,,,,-- --- ---- --- ------ ----- ------- ---- -- --- ------- --<br>------- ---------- ------ -- ----- -- ----- -- ---- ------<br>--- ----- --- --- ------ -------- rate. --- ------ ----- --<br>----- ----- ---------- --- --- ------ ------ ---- -- ------<br>------- --- ------ ----- --- ---- ------- -- ---- --- --<br>------- ------,206328.8150000153,206327.19999999972,205951.515,205965.42000002228,205968.004,206334.734,,28,rate.
screen,html.Screen,2_1_1_1_29,2021-04-24T18:54:29.063Z,,,,,,,,,,,,,,,,,54,,,,,,,,,,,,,,306.38600001478335,,response,,,,100,,,,,,,Space,keypress(Space),,,,,,,,-- --- ---- --- ------ ----- ------- ---- -- --- ------- --<br>------- ---------- ------ -- ----- -- ----- -- ---- ------<br>--- ----- --- --- ------ -------- ----- The ------ ----- --<br>----- ----- ---------- --- --- ------ ------ ---- -- ------<br>------- --- ------ ----- --- ---- ------- -- ---- --- --<br>------- ------,206642.78500000364,206641.12000001478,206318.165,206329.22000001417,206334.734,206651.325,,29,The
screen,html.Screen,2_1_1_1_30,2021-04-24T18:54:29.452Z,,,,,,,,,,,,,,,,,54,,,,,,,,,,,,,,378.4650000004913,,response,,,,100,,,,,,,Space,keypress(Space),,,,,,,,-- --- ---- --- ------ ----- ------- ---- -- --- ------- --<br>------- ---------- ------ -- ----- -- ----- -- ---- ------<br>--- ----- --- --- ------ -------- ----- --- market ----- --<br>----- ----- ---------- --- --- ------ ------ ---- -- ------<br>------- --- ------ ----- --- ---- ------- -- ---- --- --<br>------- ------,207031.4200000139,207029.7900000005,206634.812,206643.20000002044,206651.325,207034.653,,30,market
screen,html.Screen,2_1_1_1_31,2021-04-24T18:54:29.906Z,,,,,,,,,,,,,,,,,54,,,,,,,,,,,,,,449.07700000720797,,response,,,,100,,,,,,,Space,keypress(Space),,,,,,,,-- --- ---- --- ------ ----- ------- ---- -- --- ------- --<br>------- ---------- ------ -- ----- -- ----- -- ---- ------<br>--- ----- --- --- ------ -------- ----- --- ------ value --<br>----- ----- ---------- --- --- ------ ------ ---- -- ------<br>------- --- ------ ----- --- ---- ------- -- ---- --- --<br>------- ------,207485.66999999457,207483.7300000072,207018.128,207031.83000002173,207034.653,207501.468,,31,value
screen,html.Screen,2_1_1_1_32,2021-04-24T18:54:30.319Z,,,,,,,,,,,,,,,,,54,,,,,,,,,,,,,,395.2270000030985,,response,,,,100,,,,,,,Space,keypress(Space),,,,,,,,-- --- ---- --- ------ ----- ------- ---- -- --- ------- --<br>------- ---------- ------ -- ----- -- ----- -- ---- ------<br>--- ----- --- --- ------ -------- ----- --- ------ ----- of<br>----- ----- ---------- --- --- ------ ------ ---- -- ------<br>------- --- ------ ----- --- ---- ------- -- ---- --- --<br>------- ------,207898.34500002326,207896.6950000031,207484.694,207486.15000001155,207501.468,207901.28,,32,of
screen,html.Screen,2_1_1_1_33,2021-04-24T18:54:30.682Z,,,,,,,,,,,,,,,,,54,,,,,,,,,,,,,,359.0350000213657,,response,,,,100,,,,,,,Space,keypress(Space),,,,,,,,-- --- ---- --- ------ ----- ------- ---- -- --- ------- --<br>------- ---------- ------ -- ----- -- ----- -- ---- ------<br>--- ----- --- --- ------ -------- ----- --- ------ ----- --<br>these ----- ---------- --- --- ------ ------ ---- -- ------<br>------- --- ------ ----- --- ---- ------- -- ---- --- --<br>------- ------,208261.93500001682,208260.31500002136,207884.76,207898.76500001992,207901.28,208267.959,,33,these
screen,html.Screen,2_1_1_1_34,2021-04-24T18:54:31.081Z,,,,,,,,,,,,,,,,,54,,,,,,,,,,,,,,390.9860000028566,,response,,,,100,,,,,,,Space,keypress(Space),,,,,,,,-- --- ---- --- ------ ----- ------- ---- -- --- ------- --<br>------- ---------- ------ -- ----- -- ----- -- ---- ------<br>--- ----- --- --- ------ -------- ----- --- ------ ----- --<br>----- bonds ---------- --- --- ------ ------ ---- -- ------<br>------- --- ------ ----- --- ---- ------- -- ---- --- --<br>------- ------,208660.55500000948,208658.94500000286,208251.406,208262.33500000671,208267.959,208667.902,,34,bonds
screen,html.Screen,2_1_1_1_35,2021-04-24T18:54:31.445Z,,,,,,,,,,,,,,,,,54,,,,,,,,,,,,,,354.79300002148375,,response,,,,100,,,,,,,Space,keypress(Space),,,,,,,,"-- --- ---- --- ------ ----- ------- ---- -- --- ------- --<br>------- ---------- ------ -- ----- -- ----- -- ---- ------<br>--- ----- --- --- ------ -------- ----- --- ------ ----- --<br>----- ----- plummeted, --- --- ------ ------ ---- -- ------<br>------- --- ------ ----- --- ---- ------- -- ---- --- --<br>------- ------",209024.28500002134,209022.6950000215,208651.393,208661.01999999955,208667.902,209034.568,,35,"plummeted,"
screen,html.Screen,2_1_1_1_36,2021-04-24T18:54:31.829Z,,,,,,,,,,,,,,,,,54,,,,,,,,,,,,,,372.32200001293677,,response,,,,100,,,,,,,Space,keypress(Space),,,,,,,,-- --- ---- --- ------ ----- ------- ---- -- --- ------- --<br>------- ---------- ------ -- ----- -- ----- -- ---- ------<br>--- ----- --- --- ------ -------- ----- --- ------ ----- --<br>----- ----- ---------- and --- ------ ------ ---- -- ------<br>------- --- ------ ----- --- ---- ------- -- ---- --- --<br>------- ------,209408.48500002176,209406.89000001294,209017.822,209024.6900000202,209034.568,209417.879,,36,and
screen,html.Screen,2_1_1_1_37,2021-04-24T18:54:32.207Z,,,,,,,,,,,,,,,,,54,,,,,,,,,,,,,,366.96100000754814,,response,,,,100,,,,,,,Space,keypress(Space),,,,,,,,-- --- ---- --- ------ ----- ------- ---- -- --- ------- --<br>------- ---------- ------ -- ----- -- ----- -- ---- ------<br>--- ----- --- --- ------ -------- ----- --- ------ ----- --<br>----- ----- ---------- --- the ------ ------ ---- -- ------<br>------- --- ------ ----- --- ---- ------- -- ---- --- --<br>------- ------,209786.43500001635,209784.84000000753,209401.352,209408.90000000945,209417.879,209801.436,,37,the
screen,html.Screen,2_1_1_1_38,2021-04-24T18:54:32.561Z,,,,,,,,,,,,,,,,,54,,,,,,,,,,,,,,337.149000007892,,response,,,,100,,,,,,,Space,keypress(Space),,,,,,,,-- --- ---- --- ------ ----- ------- ---- -- --- ------- --<br>------- ---------- ------ -- ----- -- ----- -- ---- ------<br>--- ----- --- --- ------ -------- ----- --- ------ ----- --<br>----- ----- ---------- --- --- market ------ ---- -- ------<br>------- --- ------ ----- --- ---- ------- -- ---- --- --<br>------- ------,210140.3350000037,210138.58500000788,209784.674,209786.85000000405,209801.436,210151.199,,38,market
screen,html.Screen,2_1_1_1_39,2021-04-24T18:54:32.904Z,,,,,,,,,,,,,,,,,54,,,,,,,,,,,,,,330.93100001852144,,response,,,,100,,,,,,,Space,keypress(Space),,,,,,,,-- --- ---- --- ------ ----- ------- ---- -- --- ------- --<br>------- ---------- ------ -- ----- -- ----- -- ---- ------<br>--- ----- --- --- ------ -------- ----- --- ------ ----- --<br>----- ----- ---------- --- --- ------ became ---- -- ------<br>------- --- ------ ----- --- ---- ------- -- ---- --- --<br>------- ------,210483.69500000263,210482.13000001851,210134.645,210140.7500000205,210151.199,210517.997,,39,became
screen,html.Screen,2_1_1_1_40,2021-04-24T18:54:33.268Z,,,,,,,,,,,,,,,,,54,,,,,,,,,,,,,,327.9930000016175,,response,,,,100,,,,,,,Space,keypress(Space),,,,,,,,-- --- ---- --- ------ ----- ------- ---- -- --- ------- --<br>------- ---------- ------ -- ----- -- ----- -- ---- ------<br>--- ----- --- --- ------ -------- ----- --- ------ ----- --<br>----- ----- ---------- --- --- ------ ------ wary -- ------<br>------- --- ------ ----- --- ---- ------- -- ---- --- --<br>------- ------,210847.61500000604,210845.99000000162,210501.321,210484.10500001046,210517.997,210851.144,,40,wary
screen,html.Screen,2_1_1_1_41,2021-04-24T18:54:33.666Z,,,,,,,,,,,,,,,,,54,,,,,,,,,,,,,,393.33100001406274,,response,,,,100,,,,,,,Space,keypress(Space),,,,,,,,-- --- ---- --- ------ ----- ------- ---- -- --- ------- --<br>------- ---------- ------ -- ----- -- ----- -- ---- ------<br>--- ----- --- --- ------ -------- ----- --- ------ ----- --<br>----- ----- ---------- --- --- ------ ------ ---- of ------<br>------- --- ------ ----- --- ---- ------- -- ---- --- --<br>------- ------,211246.05499999598,211244.47500001406,210834.624,210848.0200000049,210851.144,211251.134,,41,of
screen,html.Screen,2_1_1_1_42,2021-04-24T18:54:34.035Z,,,,,,,,,,,,,,,,,54,,,,,,,,,,,,,,362.05099999470985,,response,,,,100,,,,,,,Space,keypress(Space),,,,,,,,-- --- ---- --- ------ ----- ------- ---- -- --- ------- --<br>------- ---------- ------ -- ----- -- ----- -- ---- ------<br>--- ----- --- --- ------ -------- ----- --- ------ ----- --<br>----- ----- ---------- --- --- ------ ------ ---- -- French<br>------- --- ------ ----- --- ---- ------- -- ---- --- --<br>------- ------,211614.80500001926,211613.1849999947,211234.594,211246.45500001498,211251.134,211617.765,,42,French
screen,html.Screen,2_1_1_1_43,2021-04-24T18:54:34.389Z,,,,,,,,,,,,,,,,,54,,,,,,,,,,,,,,349.6100000074366,,response,,,,100,,,,,,,Space,keypress(Space),,,,,,,,-- --- ---- --- ------ ----- ------- ---- -- --- ------- --<br>------- ---------- ------ -- ----- -- ----- -- ---- ------<br>--- ----- --- --- ------ -------- ----- --- ------ ----- --<br>----- ----- ---------- --- --- ------ ------ ---- -- ------<br>credit. --- ------ ----- --- ---- ------- -- ---- --- --<br>------- ------,211968.97000001627,211967.37500000745,211601.25,211615.2299999958,211617.765,211984.585,,43,credit.
screen,html.Screen,2_1_1_1_44,2021-04-24T18:54:34.952Z,,,,,,,,,,,,,,,,,54,,,,,,,,,,,,,,545.3300000210002,,response,,,,100,,,,,,,Space,keypress(Space),,,,,,,,-- --- ---- --- ------ ----- ------- ---- -- --- ------- --<br>------- ---------- ------ -- ----- -- ----- -- ---- ------<br>--- ----- --- --- ------ -------- ----- --- ------ ----- --<br>----- ----- ---------- --- --- ------ ------ ---- -- ------<br>------- The ------ ----- --- ---- ------- -- ---- --- --<br>------- ------,212531.52000001865,212529.915000021,211967.892,211969.379999995,211984.585,212534.387,,44,The
screen,html.Screen,2_1_1_1_45,2021-04-24T18:54:35.320Z,,,,,,,,,,,,,,,,,54,,,,,,,,,,,,,,364.1379999968922,,response,,,,100,,,,,,,Space,keypress(Space),,,,,,,,-- --- ---- --- ------ ----- ------- ---- -- --- ------- --<br>------- ---------- ------ -- ----- -- ----- -- ---- ------<br>--- ----- --- --- ------ -------- ----- --- ------ ----- --<br>----- ----- ---------- --- --- ------ ------ ---- -- ------<br>------- --- French ----- --- ---- ------- -- ---- --- --<br>------- ------,212900.1350000035,212898.52499999688,212517.863,212531.9250000175,212534.387,212917.873,,45,French
screen,html.Screen,2_1_1_1_46,2021-04-24T18:54:35.689Z,,,,,,,,,,,,,,,,,54,,,,,,,,,,,,,,349.54200000935816,,response,,,,100,,,,,,,Space,keypress(Space),,,,,,,,-- --- ---- --- ------ ----- ------- ---- -- --- ------- --<br>------- ---------- ------ -- ----- -- ----- -- ---- ------<br>--- ----- --- --- ------ -------- ----- --- ------ ----- --<br>----- ----- ---------- --- --- ------ ------ ---- -- ------<br>------- --- ------ state --- ---- ------- -- ---- --- --<br>------- ------,213268.9900000114,213267.41500000935,212884.518,212900.54500001133,212917.873,213284.528,,46,state
screen,html.Screen,2_1_1_1_47,2021-04-24T18:54:36.043Z,,,,,,,,,,,,,,,,,54,,,,,,,,,,,,,,336.422000011371,,response,,,,100,,,,,,,Space,keypress(Space),,,,,,,,-- --- ---- --- ------ ----- ------- ---- -- --- ------- --<br>------- ---------- ------ -- ----- -- ----- -- ---- ------<br>--- ----- --- --- ------ -------- ----- --- ------ ----- --<br>----- ----- ---------- --- --- ------ ------ ---- -- ------<br>------- --- ------ ----- was ---- ------- -- ---- --- --<br>------- ------,213622.55000000005,213620.95000001136,213267.835,213269.40000001923,213284.528,213634.688,,47,was
screen,html.Screen,2_1_1_1_48,2021-04-24T18:54:36.416Z,,,,,,,,,,,,,,,,,54,,,,,,,,,,,,,,359.8770000008808,,response,,,,100,,,,,,,Space,keypress(Space),,,,,,,,-- --- ---- --- ------ ----- ------- ---- -- --- ------- --<br>------- ---------- ------ -- ----- -- ----- -- ---- ------<br>--- ----- --- --- ------ -------- ----- --- ------ ----- --<br>----- ----- ---------- --- --- ------ ------ ---- -- ------<br>------- --- ------ ----- --- left ------- -- ---- --- --<br>------- ------,213996.1450000119,213994.56500000088,213617.827,213622.9549999989,213634.688,214000.997,,48,left
screen,html.Screen,2_1_1_1_49,2021-04-24T18:54:36.750Z,,,,,,,,,,,,,,,,,54,,,,,,,,,,,,,,327.352999996132,,response,,,,100,,,,,,,Space,keypress(Space),,,,,,,,-- --- ---- --- ------ ----- ------- ---- -- --- ------- --<br>------- ---------- ------ -- ----- -- ----- -- ---- ------<br>--- ----- --- --- ------ -------- ----- --- ------ ----- --<br>----- ----- ---------- --- --- ------ ------ ---- -- ------<br>------- --- ------ ----- --- ---- without -- ---- --- --<br>------- ------,214329.95000001392,214328.34999999614,213984.466,213996.57000001753,214000.997,214334.317,,49,without
screen,html.Screen,2_1_1_1_50,2021-04-24T18:54:37.044Z,,,,,,,,,,,,,,,,,54,,,,,,,,,,,,,,287.99300000609946,,response,,,,100,,,,,,,Space,keypress(Space),,,,,,,,-- --- ---- --- ------ ----- ------- ---- -- --- ------- --<br>------- ---------- ------ -- ----- -- ----- -- ---- ------<br>--- ----- --- --- ------ -------- ----- --- ------ ----- --<br>----- ----- ---------- --- --- ------ ------ ---- -- ------<br>------- --- ------ ----- --- ---- ------- an ---- --- --<br>------- ------,214623.92000001273,214622.3100000061,214317.789,214330.36000002176,214334.317,214634.332,,50,an
screen,html.Screen,2_1_1_1_51,2021-04-24T18:54:37.483Z,,,,,,,,,,,,,,,,,54,,,,,,,,,,,,,,426.37300001078984,,response,,,,100,,,,,,,Space,keypress(Space),,,,,,,,-- --- ---- --- ------ ----- ------- ---- -- --- ------- --<br>------- ---------- ------ -- ----- -- ----- -- ---- ------<br>--- ----- --- --- ------ -------- ----- --- ------ ----- --<br>----- ----- ---------- --- --- ------ ------ ---- -- ------<br>------- --- ------ ----- --- ---- ------- -- easy --- --<br>------- ------,215062.49500002014,215060.70500001078,214617.787,214624.47000000975,214634.332,215067.616,,51,easy
screen,html.Screen,2_1_1_1_52,2021-04-24T18:54:37.812Z,,,,,,,,,,,,,,,,,54,,,,,,,,,,,,,,322.7139999947103,,response,,,,100,,,,,,,Space,keypress(Space),,,,,,,,-- --- ---- --- ------ ----- ------- ---- -- --- ------- --<br>------- ---------- ------ -- ----- -- ----- -- ---- ------<br>--- ----- --- --- ------ -------- ----- --- ------ ----- --<br>----- ----- ---------- --- --- ------ ------ ---- -- ------<br>------- --- ------ ----- --- ---- ------- -- ---- way --<br>------- ------,215391.95000001928,215390.32999999472,215051.088,215062.9150000168,215067.616,215401.144,,52,way
screen,html.Screen,2_1_1_1_53,2021-04-24T18:54:38.191Z,,,,,,,,,,,,,,,,,54,,,,,,,,,,,,,,368.14100001667975,,response,,,,100,,,,,,,Space,keypress(Space),,,,,,,,-- --- ---- --- ------ ----- ------- ---- -- --- ------- --<br>------- ---------- ------ -- ----- -- ----- -- ---- ------<br>--- ----- --- --- ------ -------- ----- --- ------ ----- --<br>----- ----- ---------- --- --- ------ ------ ---- -- ------<br>------- --- ------ ----- --- ---- ------- -- ---- --- of<br>------- ------,215770.84500002093,215769.28500001668,215384.415,215392.359999998,215401.144,215784.407,,53,of
screen,html.Screen,2_1_1_1_54,2021-04-24T18:54:38.598Z,,,,,,,,,,,,,,,,,54,,,,,,,,,,,,,,392.2080000039423,,response,,,,100,,,,,,,Space,keypress(Space),,,,,,,,-- --- ---- --- ------ ----- ------- ---- -- --- ------- --<br>------- ---------- ------ -- ----- -- ----- -- ---- ------<br>--- ----- --- --- ------ -------- ----- --- ------ ----- --<br>----- ----- ---------- --- --- ------ ------ ---- -- ------<br>------- --- ------ ----- --- ---- ------- -- ---- --- --<br>raising ------,216178.21000001277,216176.61500000395,215767.6,215771.25499999966,215784.407,216184.231,,54,raising
screen,html.Screen,2_1_1_1_55,2021-04-24T18:54:39.201Z,,,,,,,,,,,,,,,,,54,,,,,,,,,,,,,,595.2890000109619,,response,,,,100,,,,,,,Space,keypress(Space),,,,,,,,-- --- ---- --- ------ ----- ------- ---- -- --- ------- --<br>------- ---------- ------ -- ----- -- ----- -- ---- ------<br>--- ----- --- --- ------ -------- ----- --- ------ ----- --<br>----- ----- ---------- --- --- ------ ------ ---- -- ------<br>------- --- ------ ----- --- ---- ------- -- ---- --- --<br>------- money.,216781.0500000196,216779.52000001096,216167.709,216178.6200000206,216184.231,216801.026,,55,money.
Item 100,flow.Loop,2_1_1_1,2021-04-24T18:54:39.202Z,,,,,,,,,,,,,,,,,,,,,,,,,,,,,,,22077.535000010976,,completion,,,,,E,,,,,,,,,,,silence,,,,,216781.79999999702,216779.52000001096,194685.405,194687.05000000773,194701.985,216801.026,,,
Question 1,html.Screen,2_1_1_2,2021-04-24T18:54:41.968Z,,,,,,,,,,,,,,,,,,,,,,,,,,,,true,TRUE,,2744.5339999986463,,response,,,,100,E,,,,,,TRUE,click #choice-1,,,,silence,,,,,219548.05000001215,219545.55999999866,216767.655,216783.46500001498,216801.026,219551.267,,,
Question 2,html.Screen,2_1_1_3,2021-04-24T18:54:45.738Z,,,,,,,,,,,,,,,,,,,,,,,,,,,,false,FALSE,,3764.0130000098143,,response,,,,100,E,,,,,,TRUE,click #choice-1,,,,silence,,,,,223317.68500001635,223315.2800000098,219534.217,219548.4900000156,219551.267,223335.349,,,
Item 100,flow.Sequence,2_1_1,2021-04-24T18:54:45.739Z,,,,,,,,,,,,,,,,,,,,,,,,,,,,,,,38612.89000000979,,completion,,,,,,,,,,,,,,,,,,,,,223319.00499999756,223315.2800000098,184685.871,184693.33000000915,184702.39,223335.349,,,
End of Practice,html.Page,2_1_2,2021-04-24T18:54:51.814Z,,,,,,,,,,,,,,,,,,,,,,,,,,,,,,,6058.080999996455,,form submission,,,,,,,,,,,,,,,,,,,,,229394.10500001395,229393.42999999644,223300.578,223319.50000001234,223335.349,229400.286,,,
Practice,flow.Sequence,2_1,2021-04-24T18:54:51.815Z,,,,,,,,,,,,,,,,,,,,,,,,,,,,,,,88988.38999999643,,completion,,,,,,,,,,,,,,,,,,,,,229394.74000001792,229393.42999999644,140387.866,140394.22499999637,140405.04,229400.286,,,
Trap_instruction,html.Page,2_2_0,2021-04-24T18:54:55.901Z,,,,,,,,,,,,,,,,,,,,,,,,,,,,,,,4080.3889999988896,,form submission,,,,,,,,,,,,,,,,,,,,,233481.0100000177,233480.67499999888,229383.617,229395.19999999902,229400.286,233516.701,,,
trap_trial,html.Screen,2_2_1,2021-04-24T18:54:59.657Z,,,,,,,,,,,,,,,,,,,,,,,,,,,,true,1,,3715.394000013941,,response,,,,,,,,,,,1,click #choice-1,,,,,,,,,237236.67500002193,237232.09500001394,233466.78,233481.1500000069,233516.701,237250.478,,,
end of trap trial,html.Page,2_2_2,2021-04-24T18:55:01.775Z,,,,,,,,,,,,,,,,,,,,,,,,,,,,,,,2103.92200001108,,form submission,,,,,,,,,,,,,,,,,,,,,239355.03999999491,239354.40000001108,237233.37,237237.1700000076,237250.478,239366.817,,,
Trap 1,flow.Sequence,2_2,2021-04-24T18:55:01.776Z,,,,,,,,,,,,,,,,,,,,,,,,,,,,,,,9954.11400001109,,completion,,,,,,,,,,,,,,,,,,,,,239355.68999999668,239354.40000001108,229383.617,229395.06000000983,229400.286,239366.817,,,
Standby,html.Page,2_3_0,2021-04-24T18:55:09.771Z,,,,,,,,,,,,,,,,,,,,,,,,,,,,,,,7999.248999999982,,timeout,,,,,,,,,,,,,,,,,,,,,247350.91500001727,247349.577,239349.818,239356.15500001586,239366.817,247366.066,,,
Holding screen,html.Screen,2_3_1_0_0,2021-04-24T18:55:16.771Z,,,,,,,,,,,,,,,,,,,,,,,,,,,,,,,6999.718000000023,,timeout,,,,,,,,,,,,,,,,,,,,,254350.5100000184,254349.247,247349.577,247351.54500001227,247366.066,254365.784,,,
screen,html.Screen,2_3_1_0_1_0,2021-04-24T18:55:17.544Z,,,,,,,,,,,,,,,,,15,,,,,,,,,,,,,,755.1510000135459,,response,,,,7,E,,,,,,Space,keypress(Space),,,,lyrical,,,,Greg --------- ---------- - --- ------- -- --- ------------<br>----- -- -------- ------- ---- ------ - -------- ---- -----<br>--- ------- ---- -- --- -------- --- - ----- ------ ---- --<br>-------- --- -------- -------- --- -------- ---- -- ----- -<br>-------- ---- --- ---------- --------- -- ------- ------ -<br>--------- ----- -----,255123.27000001096,255120.93500001356,254349.247,254351.1100000178,254365.784,255132.622,,0,Greg
screen,html.Screen,2_3_1_0_1_1,2021-04-24T18:55:18.070Z,,,,,,,,,,,,,,,,,15,,,,,,,,,,,,,,515.7130000053148,,response,,,,7,E,,,,,,Space,keypress(Space),,,,lyrical,,,,"---- Anderson, ---------- - --- ------- -- --- ------------<br>----- -- -------- ------- ---- ------ - -------- ---- -----<br>--- ------- ---- -- --- -------- --- - ----- ------ ---- --<br>-------- --- -------- -------- --- -------- ---- -- ----- -<br>-------- ---- --- ---------- --------- -- ------- ------ -<br>--------- ----- -----",255649.97500000754,255648.33500000532,255115.841,255123.74999999884,255132.622,255665.854,,1,"Anderson,"
screen,html.Screen,2_3_1_0_1_2,2021-04-24T18:55:18.534Z,,,,,,,,,,,,,,,,,15,,,,,,,,,,,,,,445.8160000129719,,response,,,,7,E,,,,,,Space,keypress(Space),,,,lyrical,,,,---- --------- considered - --- ------- -- --- ------------<br>----- -- -------- ------- ---- ------ - -------- ---- -----<br>--- ------- ---- -- --- -------- --- - ----- ------ ---- --<br>-------- --- -------- -------- --- -------- ---- -- ----- -<br>-------- ---- --- ---------- --------- -- ------- ------ -<br>--------- ----- -----,256113.59500000253,256111.67000001296,255649.159,255650.3800000064,255665.854,256115.656,,2,considered
screen,html.Screen,2_3_1_0_1_3,2021-04-24T18:55:19.022Z,,,,,,,,,,,,,,,,,15,,,,,,,,,,,,,,484.2290000032808,,response,,,,7,E,,,,,,Space,keypress(Space),,,,lyrical,,,,---- --------- ---------- a --- ------- -- --- ------------<br>----- -- -------- ------- ---- ------ - -------- ---- -----<br>--- ------- ---- -- --- -------- --- - ----- ------ ---- --<br>-------- --- -------- -------- --- -------- ---- -- ----- -<br>-------- ---- --- ---------- --------- -- ------- ------ -<br>--------- ----- -----,256601.4950000099,256599.88500000327,256099.141,256114.1250000219,256115.656,256615.812,,3,a
screen,html.Screen,2_3_1_0_1_4,2021-04-24T18:55:19.530Z,,,,,,,,,,,,,,,,,15,,,,,,,,,,,,,,492.4429999991844,,response,,,,7,E,,,,,,Space,keypress(Space),,,,lyrical,,,,---- --------- ---------- - key ------- -- --- ------------<br>----- -- -------- ------- ---- ------ - -------- ---- -----<br>--- ------- ---- -- --- -------- --- - ----- ------ ---- --<br>-------- --- -------- -------- --- -------- ---- -- ----- -<br>-------- ---- --- ---------- --------- -- ------- ------ -<br>--------- ----- -----,257109.85500001698,257108.2549999992,256599.121,256601.99500000454,256615.812,257115.637,,4,key
screen,html.Screen,2_3_1_0_1_5,2021-04-24T18:55:20.029Z,,,,,,,,,,,,,,,,,15,,,,,,,,,,,,,,491.1079999973299,,response,,,,7,E,,,,,,Space,keypress(Space),,,,lyrical,,,,---- --------- ---------- - --- witness -- --- ------------<br>----- -- -------- ------- ---- ------ - -------- ---- -----<br>--- ------- ---- -- --- -------- --- - ----- ------ ---- --<br>-------- --- -------- -------- --- -------- ---- -- ----- -<br>-------- ---- --- ---------- --------- -- ------- ------ -<br>--------- ----- -----,257608.3600000129,257606.74499999732,257099.095,257110.25500000687,257115.637,257616.044,,5,witness
screen,html.Screen,2_3_1_0_1_6,2021-04-24T18:55:20.478Z,,,,,,,,,,,,,,,,,15,,,,,,,,,,,,,,443.52100000320934,,response,,,,7,E,,,,,,Space,keypress(Space),,,,lyrical,,,,---- --------- ---------- - --- ------- by --- ------------<br>----- -- -------- ------- ---- ------ - -------- ---- -----<br>--- ------- ---- -- --- -------- --- - ----- ------ ---- --<br>-------- --- -------- -------- --- -------- ---- -- ----- -<br>-------- ---- --- ---------- --------- -- ------- ------ -<br>--------- ----- -----,258061.17000000086,258059.5650000032,257599.067,257608.76500001177,257616.044,258065.588,,6,by
screen,html.Screen,2_3_1_0_1_7,2021-04-24T18:55:20.912Z,,,,,,,,,,,,,,,,,15,,,,,,,,,,,,,,427.5270000193268,,response,,,,7,E,,,,,,Space,keypress(Space),,,,lyrical,,,,---- --------- ---------- - --- ------- -- the ------------<br>----- -- -------- ------- ---- ------ - -------- ---- -----<br>--- ------- ---- -- --- -------- --- - ----- ------ ---- --<br>-------- --- -------- -------- --- -------- ---- -- ----- -<br>-------- ---- --- ---------- --------- -- ------- ------ -<br>--------- ----- -----,258495.41500001214,258493.11500001932,258049.037,258061.5800000087,258065.588,258498.88,,7,the
screen,html.Screen,2_3_1_0_1_8,2021-04-24T18:55:21.489Z,,,,,,,,,,,,,,,,,15,,,,,,,,,,,,,,572.0549999960931,,response,,,,7,E,,,,,,Space,keypress(Space),,,,lyrical,,,,"---- --------- ---------- - --- ------- -- --- prosecution,<br>----- -- -------- ------- ---- ------ - -------- ---- -----<br>--- ------- ---- -- --- -------- --- - ----- ------ ---- --<br>-------- --- -------- -------- --- -------- ---- -- ----- -<br>-------- ---- --- ---------- --------- -- ------- ------ -<br>--------- ----- -----",259072.70499999868,259070.9349999961,258482.362,258495.820000011,258498.88,259082.174,,8,"prosecution,"
screen,html.Screen,2_3_1_0_1_9,2021-04-24T18:55:22.122Z,,,,,,,,,,,,,,,,,15,,,,,,,,,,,,,,621.4859999992186,,response,,,,7,E,,,,,,Space,keypress(Space),,,,lyrical,,,,---- --------- ---------- - --- ------- -- --- ------------<br>vowed -- -------- ------- ---- ------ - -------- ---- -----<br>--- ------- ---- -- --- -------- --- - ----- ------ ---- --<br>-------- --- -------- -------- --- -------- ---- -- ----- -<br>-------- ---- --- ---------- --------- -- ------- ------ -<br>--------- ----- -----,259705.65499999793,259703.65999999922,259065.692,259074.79500002228,259082.174,259715.72,,9,vowed
screen,html.Screen,2_3_1_0_1_10,2021-04-24T18:55:22.829Z,,,,,,,,,,,,,,,,,15,,,,,,,,,,,,,,695.375000017666,,response,,,,7,E,,,,,,Space,keypress(Space),,,,lyrical,,,,---- --------- ---------- - --- ------- -- --- ------------<br>----- he -------- ------- ---- ------ - -------- ---- -----<br>--- ------- ---- -- --- -------- --- - ----- ------ ---- --<br>-------- --- -------- -------- --- -------- ---- -- ----- -<br>-------- ---- --- ---------- --------- -- ------- ------ -<br>--------- ----- -----,260412.81999999774,260411.09500001767,259698.968,259706.07000001473,259715.72,260415.454,,10,he
screen,html.Screen,2_3_1_0_1_11,2021-04-24T18:55:23.383Z,,,,,,,,,,,,,,,,,15,,,,,,,,,,,,,,548.7160000211152,,response,,,,7,E,,,,,,Space,keypress(Space),,,,lyrical,,,,---- --------- ---------- - --- ------- -- --- ------------<br>----- -- wouldn't ------- ---- ------ - -------- ---- -----<br>--- ------- ---- -- --- -------- --- - ----- ------ ---- --<br>-------- --- -------- -------- --- -------- ---- -- ----- -<br>-------- ---- --- ---------- --------- -- ------- ------ -<br>--------- ----- -----,260966.11999999732,260964.1700000211,260398.932,260413.28000000794,260415.454,260982.285,,11,wouldn't
screen,html.Screen,2_3_1_0_1_12,2021-04-24T18:55:23.955Z,,,,,,,,,,,,,,,,,15,,,,,,,,,,,,,,554.6950000044017,,response,,,,7,E,,,,,,Space,keypress(Space),,,,lyrical,,,,---- --------- ---------- - --- ------- -- --- ------------<br>----- -- -------- testify ---- ------ - -------- ---- -----<br>--- ------- ---- -- --- -------- --- - ----- ------ ---- --<br>-------- --- -------- -------- --- -------- ---- -- ----- -<br>-------- ---- --- ---------- --------- -- ------- ------ -<br>--------- ----- -----,261538.6100000178,261536.9800000044,260965.569,260966.53500001412,260982.285,261548.755,,12,testify
screen,html.Screen,2_3_1_0_1_13,2021-04-24T18:55:24.405Z,,,,,,,,,,,,,,,,,15,,,,,,,,,,,,,,438.08000001788605,,response,,,,7,E,,,,,,Space,keypress(Space),,,,lyrical,,,,---- --------- ---------- - --- ------- -- --- ------------<br>----- -- -------- ------- when ------ - -------- ---- -----<br>--- ------- ---- -- --- -------- --- - ----- ------ ---- --<br>-------- --- -------- -------- --- -------- ---- -- ----- -<br>-------- ---- --- ---------- --------- -- ------- ------ -<br>--------- ----- -----,261988.73000001186,261986.8350000179,261532.213,261539.0250000055,261548.755,261998.735,,13,when
screen,html.Screen,2_3_1_0_1_14,2021-04-24T18:55:24.877Z,,,,,,,,,,,,,,,,,15,,,,,,,,,,,,,,459.90499999711756,,response,,,,7,E,,,,,,Space,keypress(Space),,,,lyrical,,,,---- --------- ---------- - --- ------- -- --- ------------<br>----- -- -------- ------- ---- served - -------- ---- -----<br>--- ------- ---- -- --- -------- --- - ----- ------ ---- --<br>-------- --- -------- -------- --- -------- ---- -- ----- -<br>-------- ---- --- ---------- --------- -- ------- ------ -<br>--------- ----- -----,262460.27999999933,262458.6399999971,261982.253,261989.14499999955,261998.735,262465.389,,14,served
screen,html.Screen,2_3_1_0_1_15,2021-04-24T18:55:25.380Z,,,,,,,,,,,,,,,,,15,,,,,,,,,,,,,,496.44100001471816,,response,,,,7,E,,,,,,Space,keypress(Space),,,,lyrical,,,,---- --------- ---------- - --- ------- -- --- ------------<br>----- -- -------- ------- ---- ------ a -------- ---- -----<br>--- ------- ---- -- --- -------- --- - ----- ------ ---- --<br>-------- --- -------- -------- --- -------- ---- -- ----- -<br>-------- ---- --- ---------- --------- -- ------- ------ -<br>--------- ----- -----,262963.62500000396,262961.83000001474,262448.724,262460.69000000716,262465.389,263002.424,,15,a
screen,html.Screen,2_3_1_0_1_16,2021-04-24T18:55:25.848Z,,,,,,,,,,,,,,,,,15,,,,,,,,,,,,,,427.71100000233855,,response,,,,7,E,,,,,,Space,keypress(Space),,,,lyrical,,,,---- --------- ---------- - --- ------- -- --- ------------<br>----- -- -------- ------- ---- ------ - subpoena ---- -----<br>--- ------- ---- -- --- -------- --- - ----- ------ ---- --<br>-------- --- -------- -------- --- -------- ---- -- ----- -<br>-------- ---- --- ---------- --------- -- ------- ------ -<br>--------- ----- -----,263431.77500000456,263430.13500000234,262948.816,262964.0500000096,263002.424,263448.822,,16,subpoena
screen,html.Screen,2_3_1_0_1_17,2021-04-24T18:55:26.512Z,,,,,,,,,,,,,,,,,15,,,,,,,,,,,,,,643.9730000041309,,response,,,,7,E,,,,,,Space,keypress(Space),,,,lyrical,,,,---- --------- ---------- - --- ------- -- --- ------------<br>----- -- -------- ------- ---- ------ - -------- last -----<br>--- ------- ---- -- --- -------- --- - ----- ------ ---- --<br>-------- --- -------- -------- --- -------- ---- -- ----- -<br>-------- ---- --- ---------- --------- -- ------- ------ -<br>--------- ----- -----,264095.0850000081,264092.7950000041,263432.166,263432.28500001715,263448.822,264098.641,,17,last
screen,html.Screen,2_3_1_0_1_18,2021-04-24T18:55:26.885Z,,,,,,,,,,,,,,,,,15,,,,,,,,,,,,,,367.7690000227303,,response,,,,7,E,,,,,,Space,keypress(Space),,,,lyrical,,,,---- --------- ---------- - --- ------- -- --- ------------<br>----- -- -------- ------- ---- ------ - -------- ---- week.<br>--- ------- ---- -- --- -------- --- - ----- ------ ---- --<br>-------- --- -------- -------- --- -------- ---- -- ----- -<br>-------- ---- --- ---------- --------- -- ------- ------ -<br>--------- ----- -----,264468.03499999805,264466.41000002273,264082.121,264095.51000001375,264098.641,264482.112,,18,week.
screen,html.Screen,2_3_1_0_1_19,2021-04-24T18:55:27.233Z,,,,,,,,,,,,,,,,,15,,,,,,,,,,,,,,333.0730000140029,,response,,,,7,E,,,,,,Space,keypress(Space),,,,lyrical,,,,---- --------- ---------- - --- ------- -- --- ------------<br>----- -- -------- ------- ---- ------ - -------- ---- -----<br>His ------- ---- -- --- -------- --- - ----- ------ ---- --<br>-------- --- -------- -------- --- -------- ---- -- ----- -<br>-------- ---- --- ---------- --------- -- ------- ------ -<br>--------- ----- -----,264816.7900000117,264815.185000014,264465.485,264468.4450000059,264482.112,264832.088,,19,His
screen,html.Screen,2_3_1_0_1_20,2021-04-24T18:55:27.596Z,,,,,,,,,,,,,,,,,15,,,,,,,,,,,,,,345.7569999983534,,response,,,,7,E,,,,,,Space,keypress(Space),,,,lyrical,,,,---- --------- ---------- - --- ------- -- --- ------------<br>----- -- -------- ------- ---- ------ - -------- ---- -----<br>--- lawyers ---- -- --- -------- --- - ----- ------ ---- --<br>-------- --- -------- -------- --- -------- ---- -- ----- -<br>-------- ---- --- ---------- --------- -- ------- ------ -<br>--------- ----- -----,265179.4050000026,265177.84499999834,264815.403,264817.2150000173,264832.088,265181.895,,20,lawyers
screen,html.Screen,2_3_1_0_1_21,2021-04-24T18:55:27.896Z,,,,,,,,,,,,,,,,,15,,,,,,,,,,,,,,295.8000000086613,,response,,,,7,E,,,,,,Space,keypress(Space),,,,lyrical,,,,---- --------- ---------- - --- ------- -- --- ------------<br>----- -- -------- ------- ---- ------ - -------- ---- -----<br>--- ------- said -- --- -------- --- - ----- ------ ---- --<br>-------- --- -------- -------- --- -------- ---- -- ----- -<br>-------- ---- --- ---------- --------- -- ------- ------ -<br>--------- ----- -----,265479.33000000194,265477.6950000087,265165.362,265179.81000000145,265181.895,265481.86,,21,said
screen,html.Screen,2_3_1_0_1_22,2021-04-24T18:55:28.260Z,,,,,,,,,,,,,,,,,15,,,,,,,,,,,,,,359.5050000002375,,response,,,,7,E,,,,,,Space,keypress(Space),,,,lyrical,,,,---- --------- ---------- - --- ------- -- --- ------------<br>----- -- -------- ------- ---- ------ - -------- ---- -----<br>--- ------- ---- he --- -------- --- - ----- ------ ---- --<br>-------- --- -------- -------- --- -------- ---- -- ----- -<br>-------- ---- --- ---------- --------- -- ------- ------ -<br>--------- ----- -----,265843.54500001064,265841.3650000002,265465.365,265479.74500001874,265481.86,265848.561,,22,he
screen,html.Screen,2_3_1_0_1_23,2021-04-24T18:55:28.594Z,,,,,,,,,,,,,,,,,15,,,,,,,,,,,,,,327.44899999559857,,response,,,,7,E,,,,,,Space,keypress(Space),,,,lyrical,,,,---- --------- ---------- - --- ------- -- --- ------------<br>----- -- -------- ------- ---- ------ - -------- ---- -----<br>--- ------- ---- -- was -------- --- - ----- ------ ---- --<br>-------- --- -------- -------- --- -------- ---- -- ----- -<br>-------- ---- --- ---------- --------- -- ------- ------ -<br>--------- ----- -----,266177.6550000068,266176.0099999956,265832.01,265843.97499999614,265848.561,266181.894,,23,was
screen,html.Screen,2_3_1_0_1_24,2021-04-24T18:55:29.007Z,,,,,,,,,,,,,,,,,15,,,,,,,,,,,,,,406.83100000873674,,response,,,,7,E,,,,,,Space,keypress(Space),,,,lyrical,,,,---- --------- ---------- - --- ------- -- --- ------------<br>----- -- -------- ------- ---- ------ - -------- ---- -----<br>--- ------- ---- -- --- prepared --- - ----- ------ ---- --<br>-------- --- -------- -------- --- -------- ---- -- ----- -<br>-------- ---- --- ---------- --------- -- ------- ------ -<br>--------- ----- -----,266590.34500000416,266588.7250000087,266165.346,266178.0650000146,266181.894,266598.497,,24,prepared
screen,html.Screen,2_3_1_0_1_25,2021-04-24T18:55:29.501Z,,,,,,,,,,,,,,,,,15,,,,,,,,,,,,,,483.41300000809133,,response,,,,7,E,,,,,,Space,keypress(Space),,,,lyrical,,,,---- --------- ---------- - --- ------- -- --- ------------<br>----- -- -------- ------- ---- ------ - -------- ---- -----<br>--- ------- ---- -- --- -------- for - ----- ------ ---- --<br>-------- --- -------- -------- --- -------- ---- -- ----- -<br>-------- ---- --- ---------- --------- -- ------- ------ -<br>--------- ----- -----,267084.0900000185,267081.91000000807,266581.978,266590.74500002316,266598.497,267098.647,,25,for
screen,html.Screen,2_3_1_0_1_26,2021-04-24T18:55:29.959Z,,,,,,,,,,,,,,,,,15,,,,,,,,,,,,,,441.68300001800526,,response,,,,7,E,,,,,,Space,keypress(Space),,,,lyrical,,,,---- --------- ---------- - --- ------- -- --- ------------<br>----- -- -------- ------- ---- ------ - -------- ---- -----<br>--- ------- ---- -- --- -------- --- a ----- ------ ---- --<br>-------- --- -------- -------- --- -------- ---- -- ----- -<br>-------- ---- --- ---------- --------- -- ------- ------ -<br>--------- ----- -----,267541.9899999979,267540.330000018,267081.951,267084.52500001295,267098.647,267548.456,,26,a
screen,html.Screen,2_3_1_0_1_27,2021-04-24T18:55:30.392Z,,,,,,,,,,,,,,,,,15,,,,,,,,,,,,,,425.4039999982342,,response,,,,7,E,,,,,,Space,keypress(Space),,,,lyrical,,,,---- --------- ---------- - --- ------- -- --- ------------<br>----- -- -------- ------- ---- ------ - -------- ---- -----<br>--- ------- ---- -- --- -------- --- - third ------ ---- --<br>-------- --- -------- -------- --- -------- ---- -- ----- -<br>-------- ---- --- ---------- --------- -- ------- ------ -<br>--------- ----- -----,267975.6800000032,267973.85999999824,267531.986,267542.40999999456,267548.456,267981.76,,27,third
screen,html.Screen,2_3_1_0_1_28,2021-04-24T18:55:30.796Z,,,,,,,,,,,,,,,,,15,,,,,,,,,,,,,,395.53000000398606,,response,,,,7,E,,,,,,Space,keypress(Space),,,,lyrical,,,,---- --------- ---------- - --- ------- -- --- ------------<br>----- -- -------- ------- ---- ------ - -------- ---- -----<br>--- ------- ---- -- --- -------- --- - ----- prison ---- --<br>-------- --- -------- -------- --- -------- ---- -- ----- -<br>-------- ---- --- ---------- --------- -- ------- ------ -<br>--------- ----- -----,268378.9000000106,268377.290000004,267965.239,267976.09500002,267981.76,268381.761,,28,prison
screen,html.Screen,2_3_1_0_1_29,2021-04-24T18:55:31.453Z,,,,,,,,,,,,,,,,,15,,,,,,,,,,,,,,653.1840000212542,,response,,,,7,E,,,,,,Space,keypress(Space),,,,lyrical,,,,---- --------- ---------- - --- ------- -- --- ------------<br>----- -- -------- ------- ---- ------ - -------- ---- -----<br>--- ------- ---- -- --- -------- --- - ----- ------ stay --<br>-------- --- -------- -------- --- -------- ---- -- ----- -<br>-------- ---- --- ---------- --------- -- ------- ------ -<br>--------- ----- -----,269036.56000000774,269034.94500002125,268365.127,268379.31000001845,268381.761,269048.558,,29,stay
screen,html.Screen,2_3_1_0_1_30,2021-04-24T18:55:31.936Z,,,,,,,,,,,,,,,,,15,,,,,,,,,,,,,,469.5670000023092,,response,,,,7,E,,,,,,Space,keypress(Space),,,,lyrical,,,,---- --------- ---------- - --- ------- -- --- ------------<br>----- -- -------- ------- ---- ------ - -------- ---- -----<br>--- ------- ---- -- --- -------- --- - ----- ------ ---- to<br>-------- --- -------- -------- --- -------- ---- -- ----- -<br>-------- ---- --- ---------- --------- -- ------- ------ -<br>--------- ----- -----,269519.7599999956,269518.1250000023,269031.741,269036.9650000066,269048.558,269531.751,,30,to
screen,html.Screen,2_3_1_0_1_31,2021-04-24T18:55:32.316Z,,,,,,,,,,,,,,,,,15,,,,,,,,,,,,,,365.5340000136639,,response,,,,7,E,,,,,,Space,keypress(Space),,,,lyrical,,,,---- --------- ---------- - --- ------- -- --- ------------<br>----- -- -------- ------- ---- ------ - -------- ---- -----<br>--- ------- ---- -- --- -------- --- - ----- ------ ---- --<br>maintain --- -------- -------- --- -------- ---- -- ----- -<br>-------- ---- --- ---------- --------- -- ------- ------ -<br>--------- ----- -----,269898.91499999794,269897.28500001365,269515.169,269520.1700000034,269531.751,269915.41,,31,maintain
screen,html.Screen,2_3_1_0_1_32,2021-04-24T18:55:32.675Z,,,,,,,,,,,,,,,,,15,,,,,,,,,,,,,,340.92500001279404,,response,,,,7,E,,,,,,Space,keypress(Space),,,,lyrical,,,,---- --------- ---------- - --- ------- -- --- ------------<br>----- -- -------- ------- ---- ------ - -------- ---- -----<br>--- ------- ---- -- --- -------- --- - ----- ------ ---- --<br>-------- his -------- -------- --- -------- ---- -- ----- -<br>-------- ---- --- ---------- --------- -- ------- ------ -<br>--------- ----- -----,270257.9450000194,270256.33500001277,269898.356,269899.33000001474,269915.41,270265.031,,32,his
screen,html.Screen,2_3_1_0_1_33,2021-04-24T18:55:33.073Z,,,,,,,,,,,,,,,,,15,,,,,,,,,,,,,,389.0439999985392,,response,,,,7,E,,,,,,Space,keypress(Space),,,,lyrical,,,,---- --------- ---------- - --- ------- -- --- ------------<br>----- -- -------- ------- ---- ------ - -------- ---- -----<br>--- ------- ---- -- --- -------- --- - ----- ------ ---- --<br>-------- --- silence. -------- --- -------- ---- -- ----- -<br>-------- ---- --- ---------- --------- -- ------- ------ -<br>--------- ----- -----,270655.8850000147,270654.07499999856,270248.48,270258.35000001825,270265.031,270664.961,,33,silence.
screen,html.Screen,2_3_1_0_1_34,2021-04-24T18:55:33.700Z,,,,,,,,,,,,,,,,,15,,,,,,,,,,,,,,616.8190000193426,,response,,,,7,E,,,,,,Space,keypress(Space),,,,lyrical,,,,---- --------- ---------- - --- ------- -- --- ------------<br>----- -- -------- ------- ---- ------ - -------- ---- -----<br>--- ------- ---- -- --- -------- --- - ----- ------ ---- --<br>-------- --- -------- Anderson --- -------- ---- -- ----- -<br>-------- ---- --- ---------- --------- -- ------- ------ -<br>--------- ----- -----,271283.41000000364,271281.78000001935,270648.455,270656.3150000002,270664.961,271298.449,,34,Anderson
screen,html.Screen,2_3_1_0_1_35,2021-04-24T18:55:34.158Z,,,,,,,,,,,,,,,,,15,,,,,,,,,,,,,,441.61100001097657,,response,,,,7,E,,,,,,Space,keypress(Space),,,,lyrical,,,,---- --------- ---------- - --- ------- -- --- ------------<br>----- -- -------- ------- ---- ------ - -------- ---- -----<br>--- ------- ---- -- --- -------- --- - ----- ------ ---- --<br>-------- --- -------- -------- was -------- ---- -- ----- -<br>-------- ---- --- ---------- --------- -- ------- ------ -<br>--------- ----- -----,271741.7050000222,271740.060000011,271281.747,271283.82500002044,271298.449,271748.265,,35,was
screen,html.Screen,2_3_1_0_1_36,2021-04-24T18:55:34.647Z,,,,,,,,,,,,,,,,,15,,,,,,,,,,,,,,480.8800000193296,,response,,,,7,E,,,,,,Space,keypress(Space),,,,lyrical,,,,---- --------- ---------- - --- ------- -- --- ------------<br>----- -- -------- ------- ---- ------ - -------- ---- -----<br>--- ------- ---- -- --- -------- --- - ----- ------ ---- --<br>-------- --- -------- -------- --- released ---- -- ----- -<br>-------- ---- --- ---------- --------- -- ------- ------ -<br>--------- ----- -----,272230.78500002157,272229.14500001934,271731.818,271742.16000002343,271748.265,272264.972,,36,released
screen,html.Screen,2_3_1_0_1_37,2021-04-24T18:55:35.115Z,,,,,,,,,,,,,,,,,15,,,,,,,,,,,,,,431.6279999956605,,response,,,,7,E,,,,,,Space,keypress(Space),,,,lyrical,,,,---- --------- ---------- - --- ------- -- --- ------------<br>----- -- -------- ------- ---- ------ - -------- ---- -----<br>--- ------- ---- -- --- -------- --- - ----- ------ ---- --<br>-------- --- -------- -------- --- -------- July -- ----- -<br>-------- ---- --- ---------- --------- -- ------- ------ -<br>--------- ----- -----,272698.2200000202,272696.59999999567,272248.398,272231.1950000003,272264.972,272714.949,,37,July
screen,html.Screen,2_3_1_0_1_38,2021-04-24T18:55:35.584Z,,,,,,,,,,,,,,,,,15,,,,,,,,,,,,,,450.94600001280196,,response,,,,7,E,,,,,,Space,keypress(Space),,,,lyrical,,,,---- --------- ---------- - --- ------- -- --- ------------<br>----- -- -------- ------- ---- ------ - -------- ---- -----<br>--- ------- ---- -- --- -------- --- - ----- ------ ---- --<br>-------- --- -------- -------- --- -------- ---- 20 ----- -<br>-------- ---- --- ---------- --------- -- ------- ------ -<br>--------- ----- -----,273167.5099999993,273165.8950000128,272698.358,272698.6350000079,272714.949,273181.696,,38,20
