sender,sender_type,sender_id,timestamp,meta,,Blues,Classical,Country,Dance,Electronic,Folk,Gospel,Hip-Hop,Jazz,Latin,Musical/Film,New-age,Pop,Prolific_id,Provo_ID,R&B,Rap,Reggae,Religious,Rock,Soul,Swing,Traditional,age,artist_name,correct,correctResponse,distraction,duration,education,ended_on,familiarity,gender,headphone_check_performance,item,list,music_frequency,offensiveness,pleasantness,position_correct,preference,response,response_action,snippet_file,song_name,song_rating,sound,stimulus_1,stimulus_2,stimulus_3,text,time_commit,time_end,time_render,time_run,time_show,time_switch,url,word,word_ID
Prolific ID,html.Form,0,2021-04-24T15:34:06.919Z,"{""labjs_version"":""20.2.2"",""labjs_build"":{""flavor"":""production"",""commit"":""a25486e0c714a0ae2ce03ff94b7bb6896854dcfa""},""location"":""https://run.pavlovia.org/mvasilev/prolific_music_d/"",""userAgent"":""Mozilla/5.0 (Macintosh; Intel Mac OS X 10_15_7) AppleWebKit/537.36 (KHTML, like Gecko) Chrome/90.0.4430.85 Safari/537.36"",""platform"":""MacIntel"",""language"":""en-GB"",""locale"":""en-GB"",""timeZone"":""Europe/London"",""timezoneOffset"":-60,""screen_width"":1440,""screen_height"":900,""scroll_width"":1340,""scroll_height"":639,""window_innerWidth"":1340,""window_innerHeight"":687,""devicePixelRatio"":2}",,,,,,,,,,,,,,,602a611b977e11016b6d2d18,,,,,,,,,,,,,,,23004.59999996811,,form submission,,,,,,,,,,,,,,,,,,,,,34418.88500005007,34418.38499996811,11263.791,11405.6349999737,11413.785,34418.499,{},,
Introduction,html.Screen,1_0,2021-04-24T15:34:18.290Z,,,,,,,,,,,,,,,,,,,,,,,,,,,,,,,11366.451000001114,,response,,,,,,,,,,,continue,click button,,,,,,,,,45788.67000003811,45784.95000000112,34401.833,34419.229999999516,34418.499,45801.377,,,
Volume calibration,html.Screen,1_1,2021-04-24T15:34:53.244Z,,,,,,,,,,,,,,,,,,,,,,,,,,,,,,,34942.55299999691,,response,,,,,,,,,,,continue,click button,,,,,,,,,80748.4800000675,80743.92999999691,45784.711,45788.799999980256,45801.377,80749.375,,,
Task instructions,html.Screen,1_2,2021-04-24T15:35:20.916Z,,,,,,,,,,,,,,,,,,,,,,,,,,,,,,,27671.119999969378,,response,,,,,,,,,,,continue,click button,,,,,,,,,108422.51499998383,108420.49499996938,80732.709,80748.58999997377,80749.375,108431.601,,,
Sounds,html.Screen,1_3_0_0,2021-04-24T15:35:25.167Z,,,,,,,,,,,,,,,,,,,,,,,,,,,,,,,4254.248000000007,,timeout,,,,,,,,,2,,,,,,,,O,S,I,,112672.8750000475,112669.183,108414.935,108422.77499998454,108431.601,112685.849,,,
Judgement,html.Screen,1_3_0_1,2021-04-24T15:35:28.364Z,,,,,,,,,,,,,,,,,,,,,,,,,,,,true,2,,3181.726000040231,,response,,,,,,,,,2,,2,click #choice-2,,,,,O,S,I,,115869.99999999534,115867.57500004023,112669.183,112673.04000002332,112685.849,115885.721,,,
Trial,flow.Sequence,1_3_0,2021-04-24T15:35:28.364Z,,,,,,,,,,,,,,,,,,,,,,,,,,,,,,,7435.974000040238,,completion,,,,,,,,,2,,,,,,,,O,S,I,,115870.34999998286,115867.57500004023,108414.935,108422.71000007167,108431.601,115885.721,,,
Sounds,html.Screen,1_3_1_0,2021-04-24T15:35:32.614Z,,,,,,,,,,,,,,,,,,,,,,,,,,,,,,,4249.830000000002,,timeout,,,,,,,,,1,,,,,,,,S,I,O,,120120.37999997847,120118.885,115869.055,115870.48000004143,115885.721,120135.551,,,
Judgement,html.Screen,1_3_1_1,2021-04-24T15:35:33.663Z,,,,,,,,,,,,,,,,,,,,,,,,,,,,true,1,,1031.4889999711595,,response,,,,,,,,,1,,1,click #choice-1,,,,,S,I,O,,121169.35500002,121167.03999997117,120118.885,120120.51499995869,120135.551,121179.048,,,
Trial,flow.Sequence,1_3_1,2021-04-24T15:35:33.663Z,,,,,,,,,,,,,,,,,,,,,,,,,,,,,,,5281.318999971161,,completion,,,,,,,,,1,,,,,,,,S,I,O,,121169.56499998923,121167.03999997117,115869.055,115870.43999996968,115885.721,121179.048,,,
Sounds,html.Screen,1_3_2_0,2021-04-24T15:35:37.909Z,,,,,,,,,,,,,,,,,,,,,,,,,,,,,,,4249.830000000002,,timeout,,,,,,,,,1,,,,,,,,S,O,I,,125414.63500005193,125412.212,121162.382,121169.7100000456,121179.048,125428.878,,,
Judgement,html.Screen,1_3_2_1,2021-04-24T15:35:41.316Z,,,,,,,,,,,,,,,,,,,,,,,,,,,,true,1,,3391.1620000205294,,response,,,,,,,,,1,,1,click #choice-1,,,,,S,O,I,,128822.12000002619,128820.04000002053,125412.212,125414.79000006802,125428.878,128828.742,,,
Trial,flow.Sequence,1_3_2,2021-04-24T15:35:41.316Z,,,,,,,,,,,,,,,,,,,,,,,,,,,,,,,7640.992000020531,,completion,,,,,,,,,1,,,,,,,,S,O,I,,128822.32000003569,128820.04000002053,121162.382,121169.66000001412,121179.048,128828.742,,,
Sounds,html.Screen,1_3_3_0,2021-04-24T15:35:45.558Z,,,,,,,,,,,,,,,,,,,,,,,,,,,,,,,4249.829999999987,,timeout,,,,,,,,,2,,,,,,,,I,S,O,,133064.16499998886,133061.906,128812.076,128822.46000005398,128828.742,133078.572,,,
Judgement,html.Screen,1_3_3_1,2021-04-24T15:35:46.358Z,,,,,,,,,,,,,,,,,,,,,,,,,,,,true,2,,782.9379999588127,,response,,,,,,,,,2,,2,click #choice-2,,,,,I,S,O,,133863.6950000655,133861.5099999588,133061.906,133064.29500004742,133078.572,133864.34,,,
Trial,flow.Sequence,1_3_3,2021-04-24T15:35:46.358Z,,,,,,,,,,,,,,,,,,,,,,,,,,,,,,,5032.7679999588,,completion,,,,,,,,,2,,,,,,,,I,S,O,,133863.86499996297,133861.5099999588,128812.076,128822.40499998443,128828.742,133864.34,,,
Sounds,html.Screen,1_3_4_0,2021-04-24T15:35:50.593Z,,,,,,,,,,,,,,,,,,,,,,,,,,,,,,,4249.830000000016,,timeout,,,,,,,,,3,,,,,,,,O,I,S,,138098.93500001635,138097.504,133847.674,133863.96500002593,133864.34,138114.17,,,
Judgement,html.Screen,1_3_4_1,2021-04-24T15:35:51.600Z,,,,,,,,,,,,,,,,,,,,,,,,,,,,true,3,,989.6649999580404,,response,,,,,,,,,3,,3,click #choice-3,,,,,O,I,S,,139105.77500006184,139103.83499995805,138097.504,138099.05499999877,138114.17,139114.13,,,
Trial,flow.Sequence,1_3_4,2021-04-24T15:35:51.600Z,,,,,,,,,,,,,,,,,,,,,,,,,,,,,,,5239.494999958057,,completion,,,,,,,,,3,,,,,,,,O,I,S,,139106.0249999864,139103.83499995805,133847.674,133863.93500003032,133864.34,139114.13,,,
Sounds,html.Screen,1_3_5_0,2021-04-24T15:35:55.844Z,,,,,,,,,,,,,,,,,,,,,,,,,,,,,,,4249.829999999987,,timeout,,,,,,,,,3,,,,,,,,I,O,S,,143349.6949999826,143347.294,139097.464,139106.23500007205,139114.13,143363.96,,,
Judgement,html.Screen,1_3_5_1,2021-04-24T15:35:56.721Z,,,,,,,,,,,,,,,,,,,,,,,,,,,,true,3,,860.4599999841012,,response,,,,,,,,,3,,3,click #choice-3,,,,,I,O,S,,144226.65500000585,144224.4199999841,143347.294,143349.8350000009,143363.96,144230.592,,,
Trial,flow.Sequence,1_3_5,2021-04-24T15:35:56.721Z,,,,,,,,,,,,,,,,,,,,,,,,,,,,,,,5110.289999984088,,completion,,,,,,,,,3,,,,,,,,I,O,S,,144226.84500005562,144224.4199999841,139097.464,139106.20000003837,139114.13,144230.592,,,
Task,flow.Loop,1_3,2021-04-24T15:35:56.725Z,,,,,,,,,,,,,,,,,,,,,,,,,,,,,,,35792.8189999841,,completion,,,1,,,,,,,,,,,,,,,,,,144231.0849999776,144224.4199999841,108414.935,108422.64999996405,108431.601,144230.592,,,
Trap,html.Screen,1_4,2021-04-24T15:35:56.727Z,,,,,,,,,,,,,,,,,,,,,,,,,,,,,,,NaN,,skipped,,,,,,,,,,,,,,,,,,,,,144233.2699999679,144224.4199999841,,144233.1450000638,,144230.592,,,
Thanks,html.Screen,1_5,2021-04-24T15:36:03.128Z,,,,,,,,,,,,,,,,,,,,,,,,,,,,,,,6400.947999973025,,response,,,,,,,,,,,continue,click button,,,,,,,,,150633.6049999809,150631.53999997303,144213.926,144233.37500006892,144230.592,157027.524,,,
Headphone screening,flow.Sequence,1,2021-04-24T15:36:03.128Z,,,,,,,,,,,,,,,,,,,,,,,,,,,,,,,116213.04099997302,,completion,,,,,,,,,,,,,,,,,,,,,150633.78000003286,150631.53999997303,34401.833,34419.19499996584,34418.499,157027.524,,,
Instructions,html.Page,2_0,2021-04-24T15:36:47.443Z,,,,,,,,,,,,,,,,,,,,,,,,,,,,,,,37920.21599997414,,form submission,,,,,,,,,,,,,,,,,,,,,194947.9800000554,194947.73999997415,157010.858,157017.37000001594,157027.524,194959.34,,,
Holding screen,html.Screen,2_1_0_0,2021-04-24T15:36:57.453Z,,,,,,,,,,,,,,,,,,,,,,,,,,,,,,,10008.021000000008,,timeout,,,,,,,,,,,,,,,,,,,,,204957.02500001062,204950.695,194942.674,194948.1800000649,194959.34,204967.361,,,
screen,html.Screen,2_1_0_1_0,2021-04-24T15:37:00.002Z,,,,,,,,,,,,,,,,,53,,,,,,,,,,,,,,2533.319000055577,,response,,,,99,,,,,,,Space,keypress(Space),,,,,,,,When -- ----- -- ------ - ------- --- ----------<br>------------- ------ ------ ---- ---- ------- ----- -- ----<br>-------- ------- -- ---------- --- - --- ----- ----- ----<br>---- --- --- ----- --- ---- ---- ------- ----- ---- -------<br>--- --- -- ----- -- --- ---- -- --- ---- -- ------ ------<br>--- ----- -- ----,207505.9599999804,207500.68000005558,204950.695,204957.17000006698,204967.361,207517.259,,0,When
screen,html.Screen,2_1_0_1_1,2021-04-24T15:37:00.686Z,,,,,,,,,,,,,,,,,53,,,,,,,,,,,,,,670.0510000666545,,response,,,,99,,,,,,,Space,keypress(Space),,,,,,,,---- it ----- -- ------ - ------- --- ----------<br>------------- ------ ------ ---- ---- ------- ----- -- ----<br>-------- ------- -- ---------- --- - --- ----- ----- ----<br>---- --- --- ----- --- ---- ---- ------- ----- ---- -------<br>--- --- -- ----- -- --- ---- -- --- ---- -- ------ ------<br>--- ----- -- ----,208189.97000006493,208187.31000006665,207500.593,207506.07500004116,207517.259,208207.167,,1,it
screen,html.Screen,2_1_0_1_2,2021-04-24T15:37:01.369Z,,,,,,,,,,,,,,,,,53,,,,,,,,,,,,,,663.1229999916686,,response,,,,99,,,,,,,Space,keypress(Space),,,,,,,,---- -- comes -- ------ - ------- --- ----------<br>------------- ------ ------ ---- ---- ------- ----- -- ----<br>-------- ------- -- ---------- --- - --- ----- ----- ----<br>---- --- --- ----- --- ---- ---- ------- ----- ---- -------<br>--- --- -- ----- -- --- ---- -- --- ---- -- ------ ------<br>--- ----- -- ----,208872.9100000346,208870.28999999166,208190.501,208190.09000004735,208207.167,208873.807,,2,comes
screen,html.Screen,2_1_0_1_3,2021-04-24T15:37:01.956Z,,,,,,,,,,,,,,,,,53,,,,,,,,,,,,,,583.4729999732517,,response,,,,99,,,,,,,Space,keypress(Space),,,,,,,,---- -- ----- to ------ - ------- --- ----------<br>------------- ------ ------ ---- ---- ------- ----- -- ----<br>-------- ------- -- ---------- --- - --- ----- ----- ----<br>---- --- --- ----- --- ---- ---- ------- ----- ---- -------<br>--- --- -- ----- -- --- ---- -- --- ---- -- ------ ------<br>--- ----- -- ----,209459.89000005648,209457.27999997325,208857.141,208873.03000001702,208873.807,209473.783,,3,to
screen,html.Screen,2_1_0_1_4,2021-04-24T15:37:02.513Z,,,,,,,,,,,,,,,,,53,,,,,,,,,,,,,,540.5219999605906,,response,,,,99,,,,,,,Space,keypress(Space),,,,,,,,---- -- ----- -- having - ------- --- ----------<br>------------- ------ ------ ---- ---- ------- ----- -- ----<br>-------- ------- -- ---------- --- - --- ----- ----- ----<br>---- --- --- ----- --- ---- ---- ------- ----- ---- -------<br>--- --- -- ----- -- --- ---- -- --- ---- -- ------ ------<br>--- ----- -- ----,210016.79999998305,210014.3049999606,209457.117,209460.00500000082,209473.783,210023.761,,4,having
screen,html.Screen,2_1_0_1_5,2021-04-24T15:37:03.117Z,,,,,,,,,,,,,,,,,53,,,,,,,,,,,,,,589.2339999740361,,response,,,,99,,,,,,,Space,keypress(Space),,,,,,,,---- -- ----- -- ------ a ------- --- ----------<br>------------- ------ ------ ---- ---- ------- ----- -- ----<br>-------- ------- -- ---------- --- - --- ----- ----- ----<br>---- --- --- ----- --- ---- ---- ------- ----- ---- -------<br>--- --- -- ----- -- --- ---- -- --- ---- -- ------ ------<br>--- ----- -- ----,210621.2949999608,210612.99499997403,210007.095,210016.91999996547,210023.761,210623.737,,5,a
screen,html.Screen,2_1_0_1_6,2021-04-24T15:37:03.738Z,,,,,,,,,,,,,,,,,53,,,,,,,,,,,,,,615.47300002884,,response,,,,99,,,,,,,Space,keypress(Space),,,,,,,,---- -- ----- -- ------ - lasting --- ----------<br>------------- ------ ------ ---- ---- ------- ----- -- ----<br>-------- ------- -- ---------- --- - --- ----- ----- ----<br>---- --- --- ----- --- ---- ---- ------- ----- ---- -------<br>--- --- -- ----- -- --- ---- -- --- ---- -- ------ ------<br>--- ----- -- ----,211241.76000000443,211239.21000002883,210607.071,210621.37000006624,210623.737,211257.045,,6,lasting
screen,html.Screen,2_1_0_1_7,2021-04-24T15:37:04.667Z,,,,,,,,,,,,,,,,,53,,,,,,,,,,,,,,912.0850000529608,,response,,,,99,,,,,,,Space,keypress(Space),,,,,,,,---- -- ----- -- ------ - ------- and ----------<br>------------- ------ ------ ---- ---- ------- ----- -- ----<br>-------- ------- -- ---------- --- - --- ----- ----- ----<br>---- --- --- ----- --- ---- ---- ------- ----- ---- -------<br>--- --- -- ----- -- --- ---- -- --- ---- -- ------ ------<br>--- ----- -- ----,212171.68500006665,212169.13000005297,211240.379,211241.8750000652,211257.045,212173.675,,7,and
screen,html.Screen,2_1_0_1_8,2021-04-24T15:37:05.588Z,,,,,,,,,,,,,,,,,53,,,,,,,,,,,,,,915.4800000524265,,response,,,,99,,,,,,,Space,keypress(Space),,,,,,,,---- -- ----- -- ------ - ------- --- fulfilling<br>------------- ------ ------ ---- ---- ------- ----- -- ----<br>-------- ------- -- ---------- --- - --- ----- ----- ----<br>---- --- --- ----- --- ---- ---- ------- ----- ---- -------<br>--- --- -- ----- -- --- ---- -- --- ---- -- ------ ------<br>--- ----- -- ----,213091.7850000551,213089.15500005241,212157.009,212171.80500004906,212173.675,213106.971,,8,fulfilling
screen,html.Screen,2_1_0_1_9,2021-04-24T15:37:06.358Z,,,,,,,,,,,,,,,,,53,,,,,,,,,,,,,,752.1640000351763,,response,,,,99,,,,,,,Space,keypress(Space),,,,,,,,"---- -- ----- -- ------ - ------- --- ----------<br>relationship, ------ ------ ---- ---- ------- ----- -- ----<br>-------- ------- -- ---------- --- - --- ----- ----- ----<br>---- --- --- ----- --- ---- ---- ------- ----- ---- -------<br>--- --- -- ----- -- --- ---- -- --- ---- -- ------ ------<br>--- ----- -- ----",213861.7549999617,213859.13500003517,213090.305,213091.9050000375,213106.971,213873.607,,9,"relationship,"
screen,html.Screen,2_1_0_1_10,2021-04-24T15:37:07.212Z,,,,,,,,,,,,,,,,,53,,,,,,,,,,,,,,839.5080000495946,,response,,,,99,,,,,,,Space,keypress(Space),,,,,,,,---- -- ----- -- ------ - ------- --- ----------<br>------------- common ------ ---- ---- ------- ----- -- ----<br>-------- ------- -- ---------- --- - --- ----- ----- ----<br>---- --- --- ----- --- ---- ---- ------- ----- ---- -------<br>--- --- -- ----- -- --- ---- -- --- ---- -- ------ ------<br>--- ----- -- ----,214715.6599999871,214713.11500004958,213856.941,213861.87500006054,213873.607,214723.573,,10,common
screen,html.Screen,2_1_0_1_11,2021-04-24T15:37:08.242Z,,,,,,,,,,,,,,,,,53,,,,,,,,,,,,,,1019.4620000504365,,response,,,,99,,,,,,,Space,keypress(Space),,,,,,,,---- -- ----- -- ------ - ------- --- ----------<br>------------- ------ wisdom ---- ---- ------- ----- -- ----<br>-------- ------- -- ---------- --- - --- ----- ----- ----<br>---- --- --- ----- --- ---- ---- ------- ----- ---- -------<br>--- --- -- ----- -- --- ---- -- --- ---- -- ------ ------<br>--- ----- -- ----,215745.66500005312,215743.03500005044,214706.907,214715.77500004787,214723.573,215756.865,,11,wisdom
screen,html.Screen,2_1_0_1_12,2021-04-24T15:37:09.050Z,,,,,,,,,,,,,,,,,53,,,,,,,,,,,,,,794.2300000025425,,response,,,,99,,,,,,,Space,keypress(Space),,,,,,,,---- -- ----- -- ------ - ------- --- ----------<br>------------- ------ ------ says ---- ------- ----- -- ----<br>-------- ------- -- ---------- --- - --- ----- ----- ----<br>---- --- --- ----- --- ---- ---- ------- ----- ---- -------<br>--- --- -- ----- -- --- ---- -- --- ---- -- ------ ------<br>--- ----- -- ----,216553.76499996055,216551.09500000253,215740.199,215745.78500003554,215756.865,216556.833,,12,says
screen,html.Screen,2_1_0_1_13,2021-04-24T15:37:09.877Z,,,,,,,,,,,,,,,,,53,,,,,,,,,,,,,,821.1520000282617,,response,,,,99,,,,,,,Space,keypress(Space),,,,,,,,---- -- ----- -- ------ - ------- --- ----------<br>------------- ------ ------ ---- that ------- ----- -- ----<br>-------- ------- -- ---------- --- - --- ----- ----- ----<br>---- --- --- ----- --- ---- ---- ------- ----- ---- -------<br>--- --- -- ----- -- --- ---- -- --- ---- -- ------ ------<br>--- ----- -- ----,217380.58500003535,217377.98500002827,216540.167,216553.88999998104,216556.833,217391.741,,13,that
screen,html.Screen,2_1_0_1_14,2021-04-24T15:37:10.683Z,,,,,,,,,,,,,,,,,53,,,,,,,,,,,,,,792.3139999615087,,response,,,,99,,,,,,,Space,keypress(Space),,,,,,,,---- -- ----- -- ------ - ------- --- ----------<br>------------- ------ ------ ---- ---- feeling ----- -- ----<br>-------- ------- -- ---------- --- - --- ----- ----- ----<br>---- --- --- ----- --- ---- ---- ------- ----- ---- -------<br>--- --- -- ----- -- --- ---- -- --- ---- -- ------ ------<br>--- ----- -- ----,218187.13500001468,218184.05499996152,217375.075,217380.70500001777,217391.741,218191.709,,14,feeling
screen,html.Screen,2_1_0_1_15,2021-04-24T15:37:11.696Z,,,,,,,,,,,,,,,,,53,,,,,,,,,,,,,,1005.3060000415717,,response,,,,99,,,,,,,Space,keypress(Space),,,,,,,,---- -- ----- -- ------ - ------- --- ----------<br>------------- ------ ------ ---- ---- ------- close -- ----<br>-------- ------- -- ---------- --- - --- ----- ----- ----<br>---- --- --- ----- --- ---- ---- ------- ----- ---- -------<br>--- --- -- ----- -- --- ---- -- --- ---- -- ------ ------<br>--- ----- -- ----,219199.72000003327,219197.01500004157,218175.043,218187.26000003517,218191.709,219208.335,,15,close
screen,html.Screen,2_1_0_1_16,2021-04-24T15:37:12.308Z,,,,,,,,,,,,,,,,,53,,,,,,,,,,,,,,600.650000010588,,response,,,,99,,,,,,,Space,keypress(Space),,,,,,,,---- -- ----- -- ------ - ------- --- ----------<br>------------- ------ ------ ---- ---- ------- ----- to ----<br>-------- ------- -- ---------- --- - --- ----- ----- ----<br>---- --- --- ----- --- ---- ---- ------- ----- ---- -------<br>--- --- -- ----- -- --- ---- -- --- ---- -- ------ ------<br>--- ----- -- ----,219811.70500000007,219808.98500001058,219191.669,219199.84500005376,219208.335,219824.977,,16,to
screen,html.Screen,2_1_0_1_17,2021-04-24T15:37:13.176Z,,,,,,,,,,,,,,,,,53,,,,,,,,,,,,,,851.9729999936535,,response,,,,99,,,,,,,Space,keypress(Space),,,,,,,,---- -- ----- -- ------ - ------- --- ----------<br>------------- ------ ------ ---- ---- ------- ----- -- your<br>-------- ------- -- ---------- --- - --- ----- ----- ----<br>---- --- --- ----- --- ---- ---- ------- ----- ---- -------<br>--- --- -- ----- -- --- ---- -- --- ---- -- ------ ------<br>--- ----- -- ----,220679.76500000805,220676.94999999367,219808.311,219811.83500005864,219824.977,220691.609,,17,your
screen,html.Screen,2_1_0_1_18,2021-04-24T15:37:14.079Z,,,,,,,,,,,,,,,,,53,,,,,,,,,,,,,,888.3360000049579,,response,,,,99,,,,,,,Space,keypress(Space),,,,,,,,---- -- ----- -- ------ - ------- --- ----------<br>------------- ------ ------ ---- ---- ------- ----- -- ----<br>romantic ------- -- ---------- --- - --- ----- ----- ----<br>---- --- --- ----- --- ---- ---- ------- ----- ---- -------<br>--- --- -- ----- -- --- ---- -- --- ---- -- ------ ------<br>--- ----- -- ----,221582.65500003472,221579.94500000495,220674.943,220680.3549999604,220691.609,221591.573,,18,romantic
screen,html.Screen,2_1_0_1_19,2021-04-24T15:37:14.636Z,,,,,,,,,,,,,,,,,53,,,,,,,,,,,,,,545.3570000369509,,response,,,,99,,,,,,,Space,keypress(Space),,,,,,,,---- -- ----- -- ------ - ------- --- ----------<br>------------- ------ ------ ---- ---- ------- ----- -- ----<br>-------- partner -- ---------- --- - --- ----- ----- ----<br>---- --- --- ----- --- ---- ---- ------- ----- ---- -------<br>--- --- -- ----- -- --- ---- -- --- ---- -- ------ ------<br>--- ----- -- ----,222139.83500003815,222136.93000003695,221574.907,221582.7800000552,221591.573,222141.551,,19,partner
screen,html.Screen,2_1_0_1_20,2021-04-24T15:37:15.177Z,,,,,,,,,,,,,,,,,53,,,,,,,,,,,,,,536.3340000118769,,response,,,,99,,,,,,,Space,keypress(Space),,,,,,,,---- -- ----- -- ------ - ------- --- ----------<br>------------- ------ ------ ---- ---- ------- ----- -- ----<br>-------- ------- is ---------- --- - --- ----- ----- ----<br>---- --- --- ----- --- ---- ---- ------- ----- ---- -------<br>--- --- -- ----- -- --- ---- -- --- ---- -- ------ ------<br>--- ----- -- ----,222680.69000006653,222677.88500001188,222124.885,222139.96000005864,222141.551,222691.529,,20,is
screen,html.Screen,2_1_0_1_21,2021-04-24T15:37:16.193Z,,,,,,,,,,,,,,,,,53,,,,,,,,,,,,,,1003.1960000666732,,response,,,,99,,,,,,,Space,keypress(Space),,,,,,,,---- -- ----- -- ------ - ------- --- ----------<br>------------- ------ ------ ---- ---- ------- ----- -- ----<br>-------- ------- -- paramount. --- - --- ----- ----- ----<br>---- --- --- ----- --- ---- ---- ------- ----- ---- -------<br>--- --- -- ----- -- --- ---- -- --- ---- -- ------ ------<br>--- ----- -- ----,223697.37000006717,223694.72500006668,222674.863,222680.81000004895,222691.529,223708.155,,21,paramount.
screen,html.Screen,2_1_0_1_22,2021-04-24T15:37:17.039Z,,,,,,,,,,,,,,,,,53,,,,,,,,,,,,,,831.6650000636291,,response,,,,99,,,,,,,Space,keypress(Space),,,,,,,,---- -- ----- -- ------ - ------- --- ----------<br>------------- ------ ------ ---- ---- ------- ----- -- ----<br>-------- ------- -- ---------- But - --- ----- ----- ----<br>---- --- --- ----- --- ---- ---- ------- ----- ---- -------<br>--- --- -- ----- -- --- ---- -- --- ---- -- ------ ------<br>--- ----- -- ----,224542.64500003774,224539.82000006363,223691.489,223697.49000004958,223708.155,224558.121,,22,But
screen,html.Screen,2_1_0_1_23,2021-04-24T15:37:17.598Z,,,,,,,,,,,,,,,,,53,,,,,,,,,,,,,,540.6739999980491,,response,,,,99,,,,,,,Space,keypress(Space),,,,,,,,---- -- ----- -- ------ - ------- --- ----------<br>------------- ------ ------ ---- ---- ------- ----- -- ----<br>-------- ------- -- ---------- --- a --- ----- ----- ----<br>---- --- --- ----- --- ---- ---- ------- ----- ---- -------<br>--- --- -- ----- -- --- ---- -- --- ---- -- ------ ------<br>--- ----- -- ----,225101.47500003222,225098.79499999806,224541.455,224542.77000005823,224558.121,225108.099,,23,a
screen,html.Screen,2_1_0_1_24,2021-04-24T15:37:18.260Z,,,,,,,,,,,,,,,,,53,,,,,,,,,,,,,,652.6710000517196,,response,,,,99,,,,,,,Space,keypress(Space),,,,,,,,---- -- ----- -- ------ - ------- --- ----------<br>------------- ------ ------ ---- ---- ------- ----- -- ----<br>-------- ------- -- ---------- --- - new ----- ----- ----<br>---- --- --- ----- --- ---- ---- ------- ----- ---- -------<br>--- --- -- ----- -- --- ---- -- --- ---- -- ------ ------<br>--- ----- -- ----,225763.45500000753,225760.7700000517,225091.433,225101.6000000527,225108.099,225774.739,,24,new
screen,html.Screen,2_1_0_1_25,2021-04-24T15:37:18.839Z,,,,,,,,,,,,,,,,,53,,,,,,,,,,,,,,565.9209999871091,,response,,,,99,,,,,,,Space,keypress(Space),,,,,,,,---- -- ----- -- ------ - ------- --- ----------<br>------------- ------ ------ ---- ---- ------- ----- -- ----<br>-------- ------- -- ---------- --- - --- study ----- ----<br>---- --- --- ----- --- ---- ---- ------- ----- ---- -------<br>--- --- -- ----- -- --- ---- -- --- ---- -- ------ ------<br>--- ----- -- ----,226343.34000002127,226340.6599999871,225758.073,225763.580000028,225774.739,226358.049,,25,study
screen,html.Screen,2_1_0_1_26,2021-04-24T15:37:19.362Z,,,,,,,,,,,,,,,,,53,,,,,,,,,,,,,,504.68599997332785,,response,,,,99,,,,,,,Space,keypress(Space),,,,,,,,---- -- ----- -- ------ - ------- --- ----------<br>------------- ------ ------ ---- ---- ------- ----- -- ----<br>-------- ------- -- ---------- --- - --- ----- finds ----<br>---- --- --- ----- --- ---- ---- ------- ----- ---- -------<br>--- --- -- ----- -- --- ---- -- --- ---- -- ------ ------<br>--- ----- -- ----,226865.48499995843,226862.73499997333,226341.383,226343.4399999678,226358.049,226867.537,,26,finds
screen,html.Screen,2_1_0_1_27,2021-04-24T15:37:19.997Z,,,,,,,,,,,,,,,,,53,,,,,,,,,,,,,,630.1630000653677,,response,,,,99,,,,,,,Space,keypress(Space),,,,,,,,---- -- ----- -- ------ - ------- --- ----------<br>------------- ------ ------ ---- ---- ------- ----- -- ----<br>-------- ------- -- ---------- --- - --- ----- ----- that<br>---- --- --- ----- --- ---- ---- ------- ----- ---- -------<br>--- --- -- ----- -- --- ---- -- --- ---- -- ------ ------<br>--- ----- -- ----,227500.34500006586,227497.70000006538,226850.871,226865.5949999811,226867.537,227517.511,,27,that
screen,html.Screen,2_1_0_1_28,2021-04-24T15:37:20.736Z,,,,,,,,,,,,,,,,,53,,,,,,,,,,,,,,719.1740000107675,,response,,,,99,,,,,,,Space,keypress(Space),,,,,,,,---- -- ----- -- ------ - ------- --- ----------<br>------------- ------ ------ ---- ---- ------- ----- -- ----<br>-------- ------- -- ---------- --- - --- ----- ----- ----<br>it's --- --- ----- --- ---- ---- ------- ----- ---- -------<br>--- --- -- ----- -- --- ---- -- --- ---- -- ------ ------<br>--- ----- -- ----,228239.75499998778,228236.68500001077,227500.845,227500.46500004828,227517.511,228250.815,,28,it's
screen,html.Screen,2_1_0_1_29,2021-04-24T15:37:21.409Z,,,,,,,,,,,,,,,,,53,,,,,,,,,,,,,,658.8899999982095,,response,,,,99,,,,,,,Space,keypress(Space),,,,,,,,---- -- ----- -- ------ - ------- --- ----------<br>------------- ------ ------ ---- ---- ------- ----- -- ----<br>-------- ------- -- ---------- --- - --- ----- ----- ----<br>---- not --- ----- --- ---- ---- ------- ----- ---- -------<br>--- --- -- ----- -- --- ---- -- --- ---- -- ------ ------<br>--- ----- -- ----,228912.7350000199,228909.7049999982,228234.149,228239.88000000827,228250.815,228917.455,,29,not
screen,html.Screen,2_1_0_1_30,2021-04-24T15:37:21.926Z,,,,,,,,,,,,,,,,,53,,,,,,,,,,,,,,509.1099999724829,,response,,,,99,,,,,,,Space,keypress(Space),,,,,,,,---- -- ----- -- ------ - ------- --- ----------<br>------------- ------ ------ ---- ---- ------- ----- -- ----<br>-------- ------- -- ---------- --- - --- ----- ----- ----<br>---- --- how ----- --- ---- ---- ------- ----- ---- -------<br>--- --- -- ----- -- --- ---- -- --- ---- -- ------ ------<br>--- ----- -- ----,229429.28499996196,229426.56499997247,228900.789,228912.8550000023,228917.455,229434.101,,30,how
screen,html.Screen,2_1_0_1_31,2021-04-24T15:37:22.375Z,,,,,,,,,,,,,,,,,53,,,,,,,,,,,,,,441.5689999794413,,response,,,,99,,,,,,,Space,keypress(Space),,,,,,,,---- -- ----- -- ------ - ------- --- ----------<br>------------- ------ ------ ---- ---- ------- ----- -- ----<br>-------- ------- -- ---------- --- - --- ----- ----- ----<br>---- --- --- close --- ---- ---- ------- ----- ---- -------<br>--- --- -- ----- -- --- ---- -- --- ---- -- ------ ------<br>--- ----- -- ----,229878.35500005167,229875.66999997944,229417.435,229429.41500002053,229434.101,229884.083,,31,close
screen,html.Screen,2_1_0_1_32,2021-04-24T15:37:22.807Z,,,,,,,,,,,,,,,,,53,,,,,,,,,,,,,,423.6220000429021,,response,,,,99,,,,,,,Space,keypress(Space),,,,,,,,---- -- ----- -- ------ - ------- --- ----------<br>------------- ------ ------ ---- ---- ------- ----- -- ----<br>-------- ------- -- ---------- --- - --- ----- ----- ----<br>---- --- --- ----- you ---- ---- ------- ----- ---- -------<br>--- --- -- ----- -- --- ---- -- --- ---- -- ------ ------<br>--- ----- -- ----,230310.44999998994,230307.70500004292,229867.417,229878.48000007216,229884.083,230317.399,,32,you
screen,html.Screen,2_1_0_1_33,2021-04-24T15:37:23.258Z,,,,,,,,,,,,,,,,,53,,,,,,,,,,,,,,442.07599996982026,,response,,,,99,,,,,,,Space,keypress(Space),,,,,,,,---- -- ----- -- ------ - ------- --- ----------<br>------------- ------ ------ ---- ---- ------- ----- -- ----<br>-------- ------- -- ---------- --- - --- ----- ----- ----<br>---- --- --- ----- --- feel ---- ------- ----- ---- -------<br>--- --- -- ----- -- --- ---- -- --- ---- -- ------ ------<br>--- ----- -- ----,230762.12500000838,230759.47499996983,230300.733,230310.55499997456,230317.399,230767.381,,33,feel
screen,html.Screen,2_1_0_1_34,2021-04-24T15:37:23.699Z,,,,,,,,,,,,,,,,,53,,,,,,,,,,,,,,432.18400001717964,,response,,,,99,,,,,,,Space,keypress(Space),,,,,,,,---- -- ----- -- ------ - ------- --- ----------<br>------------- ------ ------ ---- ---- ------- ----- -- ----<br>-------- ------- -- ---------- --- - --- ----- ----- ----<br>---- --- --- ----- --- ---- that ------- ----- ---- -------<br>--- --- -- ----- -- --- ---- -- --- ---- -- ------ ------<br>--- ----- -- ----,231202.24000001326,231199.56500001717,230750.715,230762.2449999908,230767.381,231217.363,,34,that
screen,html.Screen,2_1_0_1_35,2021-04-24T15:37:24.249Z,,,,,,,,,,,,,,,,,53,,,,,,,,,,,,,,532.1870000659255,,response,,,,99,,,,,,,Space,keypress(Space),,,,,,,,---- -- ----- -- ------ - ------- --- ----------<br>------------- ------ ------ ---- ---- ------- ----- -- ----<br>-------- ------- -- ---------- --- - --- ----- ----- ----<br>---- --- --- ----- --- ---- ---- matters ----- ---- -------<br>--- --- -- ----- -- --- ---- -- --- ---- -- ------ ------<br>--- ----- -- ----,231752.30000005104,231749.55000006594,231200.697,231202.35999999568,231217.363,231767.341,,35,matters
screen,html.Screen,2_1_0_1_36,2021-04-24T15:37:24.748Z,,,,,,,,,,,,,,,,,53,,,,,,,,,,,,,,481.24899997378816,,response,,,,99,,,,,,,Space,keypress(Space),,,,,,,,"---- -- ----- -- ------ - ------- --- ----------<br>------------- ------ ------ ---- ---- ------- ----- -- ----<br>-------- ------- -- ---------- --- - --- ----- ----- ----<br>---- --- --- ----- --- ---- ---- ------- most, ---- -------<br>--- --- -- ----- -- --- ---- -- --- ---- -- ------ ------<br>--- ----- -- ----",232251.38000003062,232248.58999997377,231750.675,231753.20000003558,231767.341,232267.321,,36,"most,"
screen,html.Screen,2_1_0_1_37,2021-04-24T15:37:25.505Z,,,,,,,,,,,,,,,,,53,,,,,,,,,,,,,,738.1840000082739,,response,,,,99,,,,,,,Space,keypress(Space),,,,,,,,---- -- ----- -- ------ - ------- --- ----------<br>------------- ------ ------ ---- ---- ------- ----- -- ----<br>-------- ------- -- ---------- --- - --- ----- ----- ----<br>---- --- --- ----- --- ---- ---- ------- ----- it's -------<br>--- --- -- ----- -- --- ---- -- --- ---- -- ------ ------<br>--- ----- -- ----,233008.29500006512,233005.50500000827,232250.655,232251.50999997277,232267.321,233017.291,,37,it's
screen,html.Screen,2_1_0_1_38,2021-04-24T15:37:25.943Z,,,,,,,,,,,,,,,,,53,,,,,,,,,,,,,,427.0890000008221,,response,,,,99,,,,,,,Space,keypress(Space),,,,,,,,---- -- ----- -- ------ - ------- --- ----------<br>------------- ------ ------ ---- ---- ------- ----- -- ----<br>-------- ------- -- ---------- --- - --- ----- ----- ----<br>---- --- --- ----- --- ---- ---- ------- ----- ---- whether<br>--- --- -- ----- -- --- ---- -- --- ---- -- ------ ------<br>--- ----- -- ----,233447.06500007305,233444.38000000082,233000.625,233008.41000000946,233017.291,233450.607,,38,whether
screen,html.Screen,2_1_0_1_39,2021-04-24T15:37:26.409Z,,,,,,,,,,,,,,,,,53,,,,,,,,,,,,,,459.8680000406166,,response,,,,99,,,,,,,Space,keypress(Space),,,,,,,,---- -- ----- -- ------ - ------- --- ----------<br>------------- ------ ------ ---- ---- ------- ----- -- ----<br>-------- ------- -- ---------- --- - --- ----- ----- ----<br>---- --- --- ----- --- ---- ---- ------- ----- ---- -------<br>you --- -- ----- -- --- ---- -- --- ---- -- ------ ------<br>--- ----- -- ----,233913.1500000367,233910.4750000406,233433.941,233447.17499997932,233450.607,233917.255,,39,you
screen,html.Screen,2_1_0_1_40,2021-04-24T15:37:26.784Z,,,,,,,,,,,,,,,,,53,,,,,,,,,,,,,,367.2049999953015,,response,,,,99,,,,,,,Space,keypress(Space),,,,,,,,---- -- ----- -- ------ - ------- --- ----------<br>------------- ------ ------ ---- ---- ------- ----- -- ----<br>-------- ------- -- ---------- --- - --- ----- ----- ----<br>---- --- --- ----- --- ---- ---- ------- ----- ---- -------<br>--- are -- ----- -- --- ---- -- --- ---- -- ------ ------<br>--- ----- -- ----,234287.2249999782,234284.4599999953,233900.589,233913.2700000191,233917.255,234300.573,,40,are
screen,html.Screen,2_1_0_1_41,2021-04-24T15:37:27.084Z,,,,,,,,,,,,,,,,,53,,,,,,,,,,,,,,284.77200002860627,,response,,,,99,,,,,,,Space,keypress(Space),,,,,,,,---- -- ----- -- ------ - ------- --- ----------<br>------------- ------ ------ ---- ---- ------- ----- -- ----<br>-------- ------- -- ---------- --- - --- ----- ----- ----<br>---- --- --- ----- --- ---- ---- ------- ----- ---- -------<br>--- --- as ----- -- --- ---- -- --- ---- -- ------ ------<br>--- ----- -- ----,234588.0950000137,234585.3450000286,234283.907,234287.37000003457,234300.573,234600.561,,41,as
screen,html.Screen,2_1_0_1_42,2021-04-24T15:37:27.521Z,,,,,,,,,,,,,,,,,53,,,,,,,,,,,,,,420.88399996212684,,response,,,,99,,,,,,,Space,keypress(Space),,,,,,,,---- -- ----- -- ------ - ------- --- ----------<br>------------- ------ ------ ---- ---- ------- ----- -- ----<br>-------- ------- -- ---------- --- - --- ----- ----- ----<br>---- --- --- ----- --- ---- ---- ------- ----- ---- -------<br>--- --- -- close -- --- ---- -- --- ---- -- ------ ------<br>--- ----- -- ----,235024.16000002995,235021.4449999621,234583.895,234588.21499999613,234600.561,235033.877,,42,close
screen,html.Screen,2_1_0_1_43,2021-04-24T15:37:27.941Z,,,,,,,,,,,,,,,,,53,,,,,,,,,,,,,,408.55799997536815,,response,,,,99,,,,,,,Space,keypress(Space),,,,,,,,---- -- ----- -- ------ - ------- --- ----------<br>------------- ------ ------ ---- ---- ------- ----- -- ----<br>-------- ------- -- ---------- --- - --- ----- ----- ----<br>---- --- --- ----- --- ---- ---- ------- ----- ---- -------<br>--- --- -- ----- as --- ---- -- --- ---- -- ------ ------<br>--- ----- -- ----,235445.11500000954,235442.43499997538,235017.211,235024.2749999743,235033.877,235450.527,,43,as
screen,html.Screen,2_1_0_1_44,2021-04-24T15:37:28.407Z,,,,,,,,,,,,,,,,,53,,,,,,,,,,,,,,456.91299998085015,,response,,,,99,,,,,,,Space,keypress(Space),,,,,,,,---- -- ----- -- ------ - ------- --- ----------<br>------------- ------ ------ ---- ---- ------- ----- -- ----<br>-------- ------- -- ---------- --- - --- ----- ----- ----<br>---- --- --- ----- --- ---- ---- ------- ----- ---- -------<br>--- --- -- ----- -- you ---- -- --- ---- -- ------ ------<br>--- ----- -- ----,235910.29500006698,235907.43999998085,235433.861,235445.2300000703,235450.527,235917.175,,44,you
screen,html.Screen,2_1_0_1_45,2021-04-24T15:37:28.807Z,,,,,,,,,,,,,,,,,53,,,,,,,,,,,,,,390.25000000634464,,response,,,,99,,,,,,,Space,keypress(Space),,,,,,,,---- -- ----- -- ------ - ------- --- ----------<br>------------- ------ ------ ---- ---- ------- ----- -- ----<br>-------- ------- -- ---------- --- - --- ----- ----- ----<br>---- --- --- ----- --- ---- ---- ------- ----- ---- -------<br>--- --- -- ----- -- --- want -- --- ---- -- ------ ------<br>--- ----- -- ----,236310.2400000207,236307.42500000633,235900.509,235910.61999998055,235917.175,236317.159,,45,want
screen,html.Screen,2_1_0_1_46,2021-04-24T15:37:29.110Z,,,,,,,,,,,,,,,,,53,,,,,,,,,,,,,,293.2209999691404,,response,,,,99,,,,,,,Space,keypress(Space),,,,,,,,---- -- ----- -- ------ - ------- --- ----------<br>------------- ------ ------ ---- ---- ------- ----- -- ----<br>-------- ------- -- ---------- --- - --- ----- ----- ----<br>---- --- --- ----- --- ---- ---- ------- ----- ---- -------<br>--- --- -- ----- -- --- ---- to --- ---- -- ------ ------<br>--- ----- -- ----,236613.170000026,236610.37999996915,236300.493,236310.35499996506,236317.159,236621.873,,46,to
screen,html.Screen,2_1_0_1_47,2021-04-24T15:37:29.703Z,,,,,,,,,,,,,,,,,53,,,,,,,,,,,,,,581.5120000007155,,response,,,,99,,,,,,,Space,keypress(Space),,,,,,,,"---- -- ----- -- ------ - ------- --- ----------<br>------------- ------ ------ ---- ---- ------- ----- -- ----<br>-------- ------- -- ---------- --- - --- ----- ----- ----<br>---- --- --- ----- --- ---- ---- ------- ----- ---- -------<br>--- --- -- ----- -- --- ---- -- be, ---- -- ------ ------<br>--- ----- -- ----",237206.25000004657,237203.3850000007,236605.207,236613.2800000487,236621.873,237221.849,,47,"be,"
screen,html.Screen,2_1_0_1_48,2021-04-24T15:37:30.255Z,,,,,,,,,,,,,,,,,53,,,,,,,,,,,,,,534.4960000016144,,response,,,,99,,,,,,,Space,keypress(Space),,,,,,,,---- -- ----- -- ------ - ------- --- ----------<br>------------- ------ ------ ---- ---- ------- ----- -- ----<br>-------- ------- -- ---------- --- - --- ----- ----- ----<br>---- --- --- ----- --- ---- ---- ------- ----- ---- -------<br>--- --- -- ----- -- --- ---- -- --- even -- ------ ------<br>--- ----- -- ----,237759.0199999977,237756.3450000016,237205.183,237206.36000006925,237221.849,237771.827,,48,even
screen,html.Screen,2_1_0_1_49,2021-04-24T15:37:30.555Z,,,,,,,,,,,,,,,,,53,,,,,,,,,,,,,,283.5479999962845,,response,,,,99,,,,,,,Space,keypress(Space),,,,,,,,---- -- ----- -- ------ - ------- --- ----------<br>------------- ------ ------ ---- ---- ------- ----- -- ----<br>-------- ------- -- ---------- --- - --- ----- ----- ----<br>---- --- --- ----- --- ---- ---- ------- ----- ---- -------<br>--- --- -- ----- -- --- ---- -- --- ---- if ------ ------<br>--- ----- -- ----,238058.16999997478,238055.37499999627,237755.161,237759.13000002038,237771.827,238071.815,,49,if
screen,html.Screen,2_1_0_1_50,2021-04-24T15:37:30.819Z,,,,,,,,,,,,,,,,,53,,,,,,,,,,,,,,247.41500002279645,,response,,,,99,,,,,,,Space,keypress(Space),,,,,,,,---- -- ----- -- ------ - ------- --- ----------<br>------------- ------ ------ ---- ---- ------- ----- -- ----<br>-------- ------- -- ---------- --- - --- ----- ----- ----<br>---- --- --- ----- --- ---- ---- ------- ----- ---- -------<br>--- --- -- ----- -- --- ---- -- --- ---- -- that's ------<br>--- ----- -- ----,238322.17000005767,238319.2300000228,238055.149,238058.2900000736,238071.815,238338.471,,50,that's
screen,html.Screen,2_1_0_1_51,2021-04-24T15:37:31.434Z,,,,,,,,,,,,,,,,,53,,,,,,,,,,,,,,595.9040000698587,,response,,,,99,,,,,,,Space,keypress(Space),,,,,,,,---- -- ----- -- ------ - ------- --- ----------<br>------------- ------ ------ ---- ---- ------- ----- -- ----<br>-------- ------- -- ---------- --- - --- ----- ----- ----<br>---- --- --- ----- --- ---- ---- ------- ----- ---- -------<br>--- --- -- ----- -- --- ---- -- --- ---- -- ------ really<br>--- ----- -- ----,238937.1449999744,238934.37500006985,238321.805,238322.27999996394,238338.471,238938.447,,51,really
screen,html.Screen,2_1_0_1_52,2021-04-24T15:37:31.815Z,,,,,,,,,,,,,,,,,53,,,,,,,,,,,,,,376.89299997192575,,response,,,,99,,,,,,,Space,keypress(Space),,,,,,,,---- -- ----- -- ------ - ------- --- ----------<br>------------- ------ ------ ---- ---- ------- ----- -- ----<br>-------- ------- -- ---------- --- - --- ----- ----- ----<br>---- --- --- ----- --- ---- ---- ------- ----- ---- -------<br>--- --- -- ----- -- --- ---- -- --- ---- -- ------ ------<br>not ----- -- ----,239318.4749999782,239315.3399999719,238921.781,238937.26000003517,238938.447,239321.765,,52,not
screen,html.Screen,2_1_0_1_53,2021-04-24T15:37:32.283Z,,,,,,,,,,,,,,,,,53,,,,,,,,,,,,,,462.5050000619376,,response,,,,99,,,,,,,Space,keypress(Space),,,,,,,,---- -- ----- -- ------ - ------- --- ----------<br>------------- ------ ------ ---- ---- ------- ----- -- ----<br>-------- ------- -- ---------- --- - --- ----- ----- ----<br>---- --- --- ----- --- ---- ---- ------- ----- ---- -------<br>--- --- -- ----- -- --- ---- -- --- ---- -- ------ ------<br>--- close -- ----,239787.0249999687,239784.27000006195,239305.099,239318.59000003897,239321.765,239788.413,,53,close
screen,html.Screen,2_1_0_1_54,2021-04-24T15:37:32.631Z,,,,,,,,,,,,,,,,,53,,,,,,,,,,,,,,342.87700004846556,,response,,,,99,,,,,,,Space,keypress(Space),,,,,,,,---- -- ----- -- ------ - ------- --- ----------<br>------------- ------ ------ ---- ---- ------- ----- -- ----<br>-------- ------- -- ---------- --- - --- ----- ----- ----<br>---- --- --- ----- --- ---- ---- ------- ----- ---- -------<br>--- --- -- ----- -- --- ---- -- --- ---- -- ------ ------<br>--- ----- at ----,240134.14500001818,240131.29000004847,239771.747,239787.14000002947,239788.413,240138.399,,54,at
screen,html.Screen,2_1_0_1_55,2021-04-24T15:37:33.525Z,,,,,,,,,,,,,,,,,53,,,,,,,,,,,,,,887.8209999997343,,response,,,,99,,,,,,,Space,keypress(Space),,,,,,,,---- -- ----- -- ------ - ------- --- ----------<br>------------- ------ ------ ---- ---- ------- ----- -- ----<br>-------- ------- -- ---------- --- - --- ----- ----- ----<br>---- --- --- ----- --- ---- ---- ------- ----- ---- -------<br>--- --- -- ----- -- --- ---- -- --- ---- -- ------ ------<br>--- ----- -- all.,241028.98499998264,241026.21999999974,240121.733,240134.25999996252,240138.399,241038.363,,55,all.
Item 99,flow.Loop,2_1_0_1,2021-04-24T15:37:33.526Z,,,,,,,,,,,,,,,,,,,,,,,,,,,,,,,36058.858999999735,,completion,,,,,D,,,,,,,,,,,silence,,,,,241029.22999998555,241026.21999999974,204950.695,204957.12500007357,204967.361,241038.363,,,
Question 1,html.Screen,2_1_0_2,2021-04-24T15:37:40.418Z,,,,,,,,,,,,,,,,,,,,,,,,,,,,true,FALSE,,6881.17700003169,,response,,,,99,D,,,,,,FALSE,click #choice-2,,,,silence,,,,,247921.74000001978,247919.5400000317,241021.697,241029.55500001553,241038.363,247929.82,,,
Question 2,html.Screen,2_1_0_3,2021-04-24T15:37:49.192Z,,,,,,,,,,,,,,,,,,,,,,,,,,,,true,TRUE,,8762.715000038326,,response,,,,99,D,,,,,,TRUE,click #choice-1,,,,silence,,,,,256695.19500003662,256692.53500003833,247913.154,247921.85499996413,247929.82,256696.136,,,
Item 99,flow.Sequence,2_1_0,2021-04-24T15:37:49.192Z,,,,,,,,,,,,,,,,,,,,,,,,,,,,,,,61733.19500003834,,completion,,,,,,,,,,,,,,,,,,,,,256695.36999997217,256692.53500003833,194942.674,194948.1500000693,194959.34,256696.136,,,
Holding screen,html.Screen,2_1_1_0,2021-04-24T15:37:59.186Z,,,,,,,,,,,,,,,,,,,,,,,,,,,,,,,10006.891000000003,,timeout,,,,,,,,,,,,,,,,,,,,,266688.7450000504,266686.361,256679.47,256695.47999999486,256696.136,266703.027,,,
screen,html.Screen,2_1_1_1_0,2021-04-24T15:38:00.328Z,,,,,,,,,,,,,,,,,54,,,,,,,,,,,,,,1123.8180000323337,,response,,,,100,,,,,,,Space,keypress(Space),,,,,,,,At --- ---- --- ------ ----- ------- ---- -- --- ------- --<br>------- ---------- ------ -- ----- -- ----- -- ---- ------<br>--- ----- --- --- ------ -------- ----- --- ------ ----- --<br>----- ----- ---------- --- --- ------ ------ ---- -- ------<br>------- --- ------ ----- --- ---- ------- -- ---- --- --<br>------- ------,267830.3549999837,267826.84500003234,266686.361,266688.9100000262,266703.027,267836.315,,0,At
screen,html.Screen,2_1_1_1_1,2021-04-24T15:38:00.789Z,,,,,,,,,,,,,,,,,54,,,,,,,,,,,,,,452.5899999648682,,response,,,,100,,,,,,,Space,keypress(Space),,,,,,,,-- the ---- --- ------ ----- ------- ---- -- --- ------- --<br>------- ---------- ------ -- ----- -- ----- -- ---- ------<br>--- ----- --- --- ------ -------- ----- --- ------ ----- --<br>----- ----- ---------- --- --- ------ ------ ---- -- ------<br>------- --- ------ ----- --- ---- ------- -- ---- --- --<br>------- ------,268291.68999998365,268288.90499996487,267819.649,267830.4599999683,267836.315,268306.992,,1,the
screen,html.Screen,2_1_1_1_2,2021-04-24T15:38:01.209Z,,,,,,,,,,,,,,,,,54,,,,,,,,,,,,,,401.8980000089505,,response,,,,100,,,,,,,Space,keypress(Space),,,,,,,,-- --- time --- ------ ----- ------- ---- -- --- ------- --<br>------- ---------- ------ -- ----- -- ----- -- ---- ------<br>--- ----- --- --- ------ -------- ----- --- ------ ----- --<br>----- ----- ---------- --- --- ------ ------ ---- -- ------<br>------- --- ------ ----- --- ---- ------- -- ---- --- --<br>------- ------,268711.58000000287,268708.890000009,268290.326,268291.8050000444,268306.992,268723.642,,2,time
screen,html.Screen,2_1_1_1_3,2021-04-24T15:38:01.684Z,,,,,,,,,,,,,,,,,54,,,,,,,,,,,,,,460.22300002817065,,response,,,,100,,,,,,,Space,keypress(Space),,,,,,,,-- --- ---- the ------ ----- ------- ---- -- --- ------- --<br>------- ---------- ------ -- ----- -- ----- -- ---- ------<br>--- ----- --- --- ------ -------- ----- --- ------ ----- --<br>----- ----- ---------- --- --- ------ ------ ---- -- ------<br>------- --- ------ ----- --- ---- ------- -- ---- --- --<br>------- ------,269186.7450000718,269183.86500002816,268706.976,268711.6999999853,268723.642,269190.29,,3,the
screen,html.Screen,2_1_1_1_4,2021-04-24T15:38:02.367Z,,,,,,,,,,,,,,,,,54,,,,,,,,,,,,,,676.5500000315369,,response,,,,100,,,,,,,Space,keypress(Space),,,,,,,,-- --- ---- --- French ----- ------- ---- -- --- ------- --<br>------- ---------- ------ -- ----- -- ----- -- ---- ------<br>--- ----- --- --- ------ -------- ----- --- ------ ----- --<br>----- ----- ---------- --- --- ------ ------ ---- -- ------<br>------- --- ------ ----- --- ---- ------- -- ---- --- --<br>------- ------,269869.44499996025,269866.8400000315,269173.624,269186.86000001617,269190.29,269873.596,,4,French
screen,html.Screen,2_1_1_1_5,2021-04-24T15:38:02.728Z,,,,,,,,,,,,,,,,,54,,,,,,,,,,,,,,354.22400002914947,,response,,,,100,,,,,,,Space,keypress(Space),,,,,,,,-- --- ---- --- ------ crown ------- ---- -- --- ------- --<br>------- ---------- ------ -- ----- -- ----- -- ---- ------<br>--- ----- --- --- ------ -------- ----- --- ------ ----- --<br>----- ----- ---------- --- --- ------ ------ ---- -- ------<br>------- --- ------ ----- --- ---- ------- -- ---- --- --<br>------- ------,270230.5199999828,270227.82000002917,269856.93,269869.560000021,269873.596,270240.248,,5,crown
screen,html.Screen,2_1_1_1_6,2021-04-24T15:38:03.144Z,,,,,,,,,,,,,,,,,54,,,,,,,,,,,,,,403.5869999952847,,response,,,,100,,,,,,,Space,keypress(Space),,,,,,,,-- --- ---- --- ------ ----- secured ---- -- --- ------- --<br>------- ---------- ------ -- ----- -- ----- -- ---- ------<br>--- ----- --- --- ------ -------- ----- --- ------ ----- --<br>----- ----- ---------- --- --- ------ ------ ---- -- ------<br>------- --- ------ ----- --- ---- ------- -- ---- --- --<br>------- ------,270646.47500007413,270643.8349999953,270223.582,270230.63500004355,270240.248,270656.898,,6,secured
screen,html.Screen,2_1_1_1_7,2021-04-24T15:38:03.657Z,,,,,,,,,,,,,,,,,54,,,,,,,,,,,,,,499.89200003730366,,response,,,,100,,,,,,,Space,keypress(Space),,,,,,,,-- --- ---- --- ------ ----- ------- much -- --- ------- --<br>------- ---------- ------ -- ----- -- ----- -- ---- ------<br>--- ----- --- --- ------ -------- ----- --- ------ ----- --<br>----- ----- ---------- --- --- ------ ------ ---- -- ------<br>------- --- ------ ----- --- ---- ------- -- ---- --- --<br>------- ------,271159.4800000312,271156.7900000373,270640.232,270646.5900000185,270656.898,271173.544,,7,much
screen,html.Screen,2_1_1_1_8,2021-04-24T15:38:04.131Z,,,,,,,,,,,,,,,,,54,,,,,,,,,,,,,,457.23099996871315,,response,,,,100,,,,,,,Space,keypress(Space),,,,,,,,-- --- ---- --- ------ ----- ------- ---- of --- ------- --<br>------- ---------- ------ -- ----- -- ----- -- ---- ------<br>--- ----- --- --- ------ -------- ----- --- ------ ----- --<br>----- ----- ---------- --- --- ------ ------ ---- -- ------<br>------- --- ------ ----- --- ---- ------- -- ---- --- --<br>------- ------,271633.44000000507,271630.7749999687,271156.878,271159.6000000136,271173.544,271640.192,,8,of
screen,html.Screen,2_1_1_1_9,2021-04-24T15:38:04.425Z,,,,,,,,,,,,,,,,,54,,,,,,,,,,,,,,283.56299999618204,,response,,,,100,,,,,,,Space,keypress(Space),,,,,,,,-- --- ---- --- ------ ----- ------- ---- -- its ------- --<br>------- ---------- ------ -- ----- -- ----- -- ---- ------<br>--- ----- --- --- ------ -------- ----- --- ------ ----- --<br>----- ----- ---------- --- --- ------ ------ ---- -- ------<br>------- --- ------ ----- --- ---- ------- -- ---- --- --<br>------- ------,271927.314999979,271923.75499999616,271623.526,271633.5550000658,271640.192,271940.18,,9,its
screen,html.Screen,2_1_1_1_10,2021-04-24T15:38:04.727Z,,,,,,,,,,,,,,,,,54,,,,,,,,,,,,,,286.5900000666152,,response,,,,100,,,,,,,Space,keypress(Space),,,,,,,,-- --- ---- --- ------ ----- ------- ---- -- --- revenue --<br>------- ---------- ------ -- ----- -- ----- -- ---- ------<br>--- ----- --- --- ------ -------- ----- --- ------ ----- --<br>----- ----- ---------- --- --- ------ ------ ---- -- ------<br>------- --- ------ ----- --- ---- ------- -- ---- --- --<br>------- ------,272229.4900000561,272226.7700000666,271923.514,271927.4650000734,271940.18,272240.168,,10,revenue
screen,html.Screen,2_1_1_1_11,2021-04-24T15:38:05.172Z,,,,,,,,,,,,,,,,,54,,,,,,,,,,,,,,431.57200001977617,,response,,,,100,,,,,,,Space,keypress(Space),,,,,,,,-- --- ---- --- ------ ----- ------- ---- -- --- ------- by<br>------- ---------- ------ -- ----- -- ----- -- ---- ------<br>--- ----- --- --- ------ -------- ----- --- ------ ----- --<br>----- ----- ---------- --- --- ------ ------ ---- -- ------<br>------- --- ------ ----- --- ---- ------- -- ---- --- --<br>------- ------,272674.45000004955,272671.7400000198,272223.502,272229.60500000045,272240.168,272690.15,,11,by
screen,html.Screen,2_1_1_1_12,2021-04-24T15:38:05.701Z,,,,,,,,,,,,,,,,,54,,,,,,,,,,,,,,510.57500000239816,,response,,,,100,,,,,,,Space,keypress(Space),,,,,,,,-- --- ---- --- ------ ----- ------- ---- -- --- ------- --<br>issuing ---------- ------ -- ----- -- ----- -- ---- ------<br>--- ----- --- --- ------ -------- ----- --- ------ ----- --<br>----- ----- ---------- --- --- ------ ------ ---- -- ------<br>------- --- ------ ----- --- ---- ------- -- ---- --- --<br>------- ------,273203.48500006367,273200.7250000024,272673.484,272674.56000007223,272690.15,273206.796,,12,issuing
screen,html.Screen,2_1_1_1_13,2021-04-24T15:38:06.190Z,,,,,,,,,,,,,,,,,54,,,,,,,,,,,,,,482.75900004815776,,response,,,,100,,,,,,,Space,keypress(Space),,,,,,,,-- --- ---- --- ------ ----- ------- ---- -- --- ------- --<br>------- government ------ -- ----- -- ----- -- ---- ------<br>--- ----- --- --- ------ -------- ----- --- ------ ----- --<br>----- ----- ---------- --- --- ------ ------ ---- -- ------<br>------- --- ------ ----- --- ---- ------- -- ---- --- --<br>------- ------,273692.22500000615,273689.55500004813,273190.13,273203.59499996994,273206.796,273706.776,,13,government
screen,html.Screen,2_1_1_1_14,2021-04-24T15:38:06.636Z,,,,,,,,,,,,,,,,,54,,,,,,,,,,,,,,428.9290000224137,,response,,,,100,,,,,,,Space,keypress(Space),,,,,,,,-- --- ---- --- ------ ----- ------- ---- -- --- ------- --<br>------- ---------- bonds. -- ----- -- ----- -- ---- ------<br>--- ----- --- --- ------ -------- ----- --- ------ ----- --<br>----- ----- ---------- --- --- ------ ------ ---- -- ------<br>------- --- ------ ----- --- ---- ------- -- ---- --- --<br>------- ------,274138.40499997605,274135.7050000224,273690.11,273692.33500002883,273706.776,274140.092,,14,bonds.
screen,html.Screen,2_1_1_1_15,2021-04-24T15:38:07.256Z,,,,,,,,,,,,,,,,,54,,,,,,,,,,,,,,615.622999977495,,response,,,,100,,,,,,,Space,keypress(Space),,,,,,,,-- --- ---- --- ------ ----- ------- ---- -- --- ------- --<br>------- ---------- ------ In ----- -- ----- -- ---- ------<br>--- ----- --- --- ------ -------- ----- --- ------ ----- --<br>----- ----- ---------- --- --- ------ ------ ---- -- ------<br>------- --- ------ ----- --- ---- ------- -- ---- --- --<br>------- ------,274758.44500004314,274755.7149999775,274123.426,274138.51499999873,274140.092,274773.4,,15,In
screen,html.Screen,2_1_1_1_16,2021-04-24T15:38:07.719Z,,,,,,,,,,,,,,,,,54,,,,,,,,,,,,,,445.2549999750918,,response,,,,100,,,,,,,Space,keypress(Space),,,,,,,,"-- --- ---- --- ------ ----- ------- ---- -- --- ------- --<br>------- ---------- ------ -- 1727, -- ----- -- ---- ------<br>--- ----- --- --- ------ -------- ----- --- ------ ----- --<br>----- ----- ---------- --- --- ------ ------ ---- -- ------<br>------- --- ------ ----- --- ---- ------- -- ---- --- --<br>------- ------",275221.344999969,275218.6549999751,274756.734,274758.56500002556,274773.4,275223.382,,16,"1727,"
screen,html.Screen,2_1_1_1_17,2021-04-24T15:38:09.493Z,,,,,,,,,,,,,,,,,54,,,,,,,,,,,,,,1769.208000038052,,response,,,,100,,,,,,,Space,keypress(Space),,,,,,,,-- --- ---- --- ------ ----- ------- ---- -- --- ------- --<br>------- ---------- ------ -- ----- in ----- -- ---- ------<br>--- ----- --- --- ------ -------- ----- --- ------ ----- --<br>----- ----- ---------- --- --- ------ ------ ---- -- ------<br>------- --- ------ ----- --- ---- ------- -- ---- --- --<br>------- ------,276995.28500007,276992.59000003804,275206.716,275221.46000002977,275223.382,277006.644,,17,in
screen,html.Screen,2_1_1_1_18,2021-04-24T15:38:09.937Z,,,,,,,,,,,,,,,,,54,,,,,,,,,,,,,,429.93100005795714,,response,,,,100,,,,,,,Space,keypress(Space),,,,,,,,-- --- ---- --- ------ ----- ------- ---- -- --- ------- --<br>------- ---------- ------ -- ----- -- order -- ---- ------<br>--- ----- --- --- ------ -------- ----- --- ------ ----- --<br>----- ----- ---------- --- --- ------ ------ ---- -- ------<br>------- --- ------ ----- --- ---- ------- -- ---- --- --<br>------- ------,277439.2549999757,277436.5750000579,276989.978,276995.39499997627,277006.644,277456.626,,18,order
screen,html.Screen,2_1_1_1_19,2021-04-24T15:38:10.349Z,,,,,,,,,,,,,,,,,54,,,,,,,,,,,,,,391.97400002664654,,response,,,,100,,,,,,,Space,keypress(Space),,,,,,,,-- --- ---- --- ------ ----- ------- ---- -- --- ------- --<br>------- ---------- ------ -- ----- -- ----- to ---- ------<br>--- ----- --- --- ------ -------- ----- --- ------ ----- --<br>----- ----- ---------- --- --- ------ ------ ---- -- ------<br>------- --- ------ ----- --- ---- ------- -- ---- --- --<br>------- ------,277851.95000004023,277848.60000002664,277439.96,277439.3749999581,277456.626,277857.972,,19,to
screen,html.Screen,2_1_1_1_20,2021-04-24T15:38:10.697Z,,,,,,,,,,,,,,,,,54,,,,,,,,,,,,,,338.5580000738264,,response,,,,100,,,,,,,Space,keypress(Space),,,,,,,,-- --- ---- --- ------ ----- ------- ---- -- --- ------- --<br>------- ---------- ------ -- ----- -- ----- -- save ------<br>--- ----- --- --- ------ -------- ----- --- ------ ----- --<br>----- ----- ---------- --- --- ------ ------ ---- -- ------<br>------- --- ------ ----- --- ---- ------- -- ---- --- --<br>------- ------,278199.2050000699,278196.53000007384,277841.306,277852.0600000629,277857.972,278207.958,,20,save
screen,html.Screen,2_1_1_1_21,2021-04-24T15:38:11.139Z,,,,,,,,,,,,,,,,,54,,,,,,,,,,,,,,430.56699995847885,,response,,,,100,,,,,,,Space,keypress(Space),,,,,,,,"-- --- ---- --- ------ ----- ------- ---- -- --- ------- --<br>------- ---------- ------ -- ----- -- ----- -- ---- money,<br>--- ----- --- --- ------ -------- ----- --- ------ ----- --<br>----- ----- ---------- --- --- ------ ------ ---- -- ------<br>------- --- ------ ----- --- ---- ------- -- ---- --- --<br>------- ------",278641.2450000644,278638.52499995846,278191.292,278199.3149999762,278207.958,278657.94,,21,"money,"
screen,html.Screen,2_1_1_1_22,2021-04-24T15:38:11.686Z,,,,,,,,,,,,,,,,,54,,,,,,,,,,,,,,526.5650000119931,,response,,,,100,,,,,,,Space,keypress(Space),,,,,,,,-- --- ---- --- ------ ----- ------- ---- -- --- ------- --<br>------- ---------- ------ -- ----- -- ----- -- ---- ------<br>the ----- --- --- ------ -------- ----- --- ------ ----- --<br>----- ----- ---------- --- --- ------ ------ ---- -- ------<br>------- --- ------ ----- --- ---- ------- -- ---- --- --<br>------- ------,279188.4950000094,279184.505000012,278641.274,278641.35499997064,278657.94,279191.252,,22,the
screen,html.Screen,2_1_1_1_23,2021-04-24T15:38:12.175Z,,,,,,,,,,,,,,,,,54,,,,,,,,,,,,,,483.2329999668291,,response,,,,100,,,,,,,Space,keypress(Space),,,,,,,,-- --- ---- --- ------ ----- ------- ---- -- --- ------- --<br>------- ---------- ------ -- ----- -- ----- -- ---- ------<br>--- state --- --- ------ -------- ----- --- ------ ----- --<br>----- ----- ---------- --- --- ------ ------ ---- -- ------<br>------- --- ------ ----- --- ---- ------- -- ---- --- --<br>------- ------,279677.1749999607,279674.4849999668,279174.586,279188.59999999404,279191.252,279691.232,,23,state
screen,html.Screen,2_1_1_1_24,2021-04-24T15:38:12.534Z,,,,,,,,,,,,,,,,,54,,,,,,,,,,,,,,343.29300002456876,,response,,,,100,,,,,,,Space,keypress(Space),,,,,,,,-- --- ---- --- ------ ----- ------- ---- -- --- ------- --<br>------- ---------- ------ -- ----- -- ----- -- ---- ------<br>--- ----- cut --- ------ -------- ----- --- ------ ----- --<br>----- ----- ---------- --- --- ------ ------ ---- -- ------<br>------- --- ------ ----- --- ---- ------- -- ---- --- --<br>------- ------,280036.95500001777,280034.5250000246,279674.566,279677.29000002146,279691.232,280041.218,,24,cut
screen,html.Screen,2_1_1_1_25,2021-04-24T15:38:13.065Z,,,,,,,,,,,,,,,,,54,,,,,,,,,,,,,,523.9869999916991,,response,,,,100,,,,,,,Space,keypress(Space),,,,,,,,-- --- ---- --- ------ ----- ------- ---- -- --- ------- --<br>------- ---------- ------ -- ----- -- ----- -- ---- ------<br>--- ----- --- the ------ -------- ----- --- ------ ----- --<br>----- ----- ---------- --- --- ------ ------ ---- -- ------<br>------- --- ------ ----- --- ---- ------- -- ---- --- --<br>------- ------,280567.75000004563,280565.2049999917,280024.552,280037.0549999643,280041.218,280574.53,,25,the
screen,html.Screen,2_1_1_1_26,2021-04-24T15:38:13.383Z,,,,,,,,,,,,,,,,,54,,,,,,,,,,,,,,307.92000003368594,,response,,,,100,,,,,,,Space,keypress(Space),,,,,,,,-- --- ---- --- ------ ----- ------- ---- -- --- ------- --<br>------- ---------- ------ -- ----- -- ----- -- ---- ------<br>--- ----- --- --- bonds' -------- ----- --- ------ ----- --<br>----- ----- ---------- --- --- ------ ------ ---- -- ------<br>------- --- ------ ----- --- ---- ------- -- ---- --- --<br>------- ------,280885.1400000276,280882.4500000337,280557.864,280567.87000002805,280574.53,280891.184,,26,bonds'
screen,html.Screen,2_1_1_1_27,2021-04-24T15:38:13.880Z,,,,,,,,,,,,,,,,,54,,,,,,,,,,,,,,488.26600000762846,,response,,,,100,,,,,,,Space,keypress(Space),,,,,,,,-- --- ---- --- ------ ----- ------- ---- -- --- ------- --<br>------- ---------- ------ -- ----- -- ----- -- ---- ------<br>--- ----- --- --- ------ interest ----- --- ------ ----- --<br>----- ----- ---------- --- --- ------ ------ ---- -- ------<br>------- --- ------ ----- --- ---- ------- -- ---- --- --<br>------- ------,281382.0950000081,281379.45000000764,280874.518,280885.26000001,280891.184,281391.164,,27,interest
screen,html.Screen,2_1_1_1_28,2021-04-24T15:38:14.382Z,,,,,,,,,,,,,,,,,54,,,,,,,,,,,,,,490.12600004847627,,response,,,,100,,,,,,,Space,keypress(Space),,,,,,,,-- --- ---- --- ------ ----- ------- ---- -- --- ------- --<br>------- ---------- ------ -- ----- -- ----- -- ---- ------<br>--- ----- --- --- ------ -------- rate. --- ------ ----- --<br>----- ----- ---------- --- --- ------ ------ ---- -- ------<br>------- --- ------ ----- --- ---- ------- -- ---- --- --<br>------- ------,281884.0949999867,281881.29000004847,281374.498,281382.2100000689,281391.164,281891.144,,28,rate.
screen,html.Screen,2_1_1_1_29,2021-04-24T15:38:14.896Z,,,,,,,,,,,,,,,,,54,,,,,,,,,,,,,,504.2410000398522,,response,,,,100,,,,,,,Space,keypress(Space),,,,,,,,-- --- ---- --- ------ ----- ------- ---- -- --- ------- --<br>------- ---------- ------ -- ----- -- ----- -- ---- ------<br>--- ----- --- --- ------ -------- ----- The ------ ----- --<br>----- ----- ---------- --- --- ------ ------ ---- -- ------<br>------- --- ------ ----- --- ---- ------- -- ---- --- --<br>------- ------,282398.1350000249,282395.3850000398,281874.478,281884.2050000094,281891.144,282407.79,,29,The
screen,html.Screen,2_1_1_1_30,2021-04-24T15:38:15.277Z,,,,,,,,,,,,,,,,,54,,,,,,,,,,,,,,369.4700000025914,,response,,,,100,,,,,,,Space,keypress(Space),,,,,,,,-- --- ---- --- ------ ----- ------- ---- -- --- ------- --<br>------- ---------- ------ -- ----- -- ----- -- ---- ------<br>--- ----- --- --- ------ -------- ----- --- market ----- --<br>----- ----- ---------- --- --- ------ ------ ---- -- ------<br>------- --- ------ ----- --- ---- ------- -- ---- --- --<br>------- ------,282779.9299999606,282777.26000000257,282391.124,282398.2450000476,282407.79,282791.108,,30,market
screen,html.Screen,2_1_1_1_31,2021-04-24T15:38:15.607Z,,,,,,,,,,,,,,,,,54,,,,,,,,,,,,,,315.2669999739155,,response,,,,100,,,,,,,Space,keypress(Space),,,,,,,,-- --- ---- --- ------ ----- ------- ---- -- --- ------- --<br>------- ---------- ------ -- ----- -- ----- -- ---- ------<br>--- ----- --- --- ------ -------- ----- --- ------ value --<br>----- ----- ---------- --- --- ------ ------ ---- -- ------<br>------- --- ------ ----- --- ---- ------- -- ---- --- --<br>------- ------,283109.1149999993,283106.3749999739,282774.442,282780.04500002135,282791.108,283124.428,,31,value
screen,html.Screen,2_1_1_1_32,2021-04-24T15:38:16.072Z,,,,,,,,,,,,,,,,,54,,,,,,,,,,,,,,446.96200005552964,,response,,,,100,,,,,,,Space,keypress(Space),,,,,,,,-- --- ---- --- ------ ----- ------- ---- -- --- ------- --<br>------- ---------- ------ -- ----- -- ----- -- ---- ------<br>--- ----- --- --- ------ -------- ----- --- ------ ----- of<br>----- ----- ---------- --- --- ------ ------ ---- -- ------<br>------- --- ------ ----- --- ---- ------- -- ---- --- --<br>------- ------,283574.20000003185,283571.39000005554,283107.762,283109.23000006005,283124.428,283591.076,,32,of
screen,html.Screen,2_1_1_1_33,2021-04-24T15:38:16.546Z,,,,,,,,,,,,,,,,,54,,,,,,,,,,,,,,454.26400006969925,,response,,,,100,,,,,,,Space,keypress(Space),,,,,,,,-- --- ---- --- ------ ----- ------- ---- -- --- ------- --<br>------- ---------- ------ -- ----- -- ----- -- ---- ------<br>--- ----- --- --- ------ -------- ----- --- ------ ----- --<br>these ----- ---------- --- --- ------ ------ ---- -- ------<br>------- --- ------ ----- --- ---- ------- -- ---- --- --<br>------- ------,284048.09499997646,284045.3400000697,283574.41,283574.3149999762,283591.076,284057.724,,33,these
screen,html.Screen,2_1_1_1_34,2021-04-24T15:38:17.245Z,,,,,,,,,,,,,,,,,54,,,,,,,,,,,,,,686.59600005619,,response,,,,100,,,,,,,Space,keypress(Space),,,,,,,,-- --- ---- --- ------ ----- ------- ---- -- --- ------- --<br>------- ---------- ------ -- ----- -- ----- -- ---- ------<br>--- ----- --- --- ------ -------- ----- --- ------ ----- --<br>----- bonds ---------- --- --- ------ ------ ---- -- ------<br>------- --- ------ ----- --- ---- ------- -- ---- --- --<br>------- ------,284746.9900000142,284744.3200000562,284041.058,284048.2100000372,284057.724,284757.696,,34,bonds
screen,html.Screen,2_1_1_1_35,2021-04-24T15:38:18.679Z,,,,,,,,,,,,,,,,,54,,,,,,,,,,,,,,1420.5590000352822,,response,,,,100,,,,,,,Space,keypress(Space),,,,,,,,"-- --- ---- --- ------ ----- ------- ---- -- --- ------- --<br>------- ---------- ------ -- ----- -- ----- -- ---- ------<br>--- ----- --- --- ------ -------- ----- --- ------ ----- --<br>----- ----- plummeted, --- --- ------ ------ ---- -- ------<br>------- --- ------ ----- --- ---- ------- -- ---- --- --<br>------- ------",286181.02500005625,286178.2550000353,284741.03,284747.1000000369,284757.696,286190.972,,35,"plummeted,"
screen,html.Screen,2_1_1_1_36,2021-04-24T15:38:19.096Z,,,,,,,,,,,,,,,,,54,,,,,,,,,,,,,,404.2980000489042,,response,,,,100,,,,,,,Space,keypress(Space),,,,,,,,-- --- ---- --- ------ ----- ------- ---- -- --- ------- --<br>------- ---------- ------ -- ----- -- ----- -- ---- ------<br>--- ----- --- --- ------ -------- ----- --- ------ ----- --<br>----- ----- ---------- and --- ------ ------ ---- -- ------<br>------- --- ------ ----- --- ---- ------- -- ---- --- --<br>------- ------,286598.01499999594,286595.2700000489,286174.306,286181.1499999603,286190.972,286607.622,,36,and
screen,html.Screen,2_1_1_1_37,2021-04-24T15:38:19.425Z,,,,,,,,,,,,,,,,,54,,,,,,,,,,,,,,316.5930000063963,,response,,,,100,,,,,,,Space,keypress(Space),,,,,,,,-- --- ---- --- ------ ----- ------- ---- -- --- ------- --<br>------- ---------- ------ -- ----- -- ----- -- ---- ------<br>--- ----- --- --- ------ -------- ----- --- ------ ----- --<br>----- ----- ---------- --- the ------ ------ ---- -- ------<br>------- --- ------ ----- --- ---- ------- -- ---- --- --<br>------- ------,286926.9799999893,286924.21500000637,286590.956,286598.1300000567,286607.622,286940.942,,37,the
screen,html.Screen,2_1_1_1_38,2021-04-24T15:38:19.762Z,,,,,,,,,,,,,,,,,54,,,,,,,,,,,,,,320.27300006413134,,response,,,,100,,,,,,,Space,keypress(Space),,,,,,,,-- --- ---- --- ------ ----- ------- ---- -- --- ------- --<br>------- ---------- ------ -- ----- -- ----- -- ---- ------<br>--- ----- --- --- ------ -------- ----- --- ------ ----- --<br>----- ----- ---------- --- --- market ------ ---- -- ------<br>------- --- ------ ----- --- ---- ------- -- ---- --- --<br>------- ------,287263.89499998186,287261.2150000641,286924.276,286927.09500005003,286940.942,287274.262,,38,market
screen,html.Screen,2_1_1_1_39,2021-04-24T15:38:20.224Z,,,,,,,,,,,,,,,,,54,,,,,,,,,,,,,,448.93800000764895,,response,,,,100,,,,,,,Space,keypress(Space),,,,,,,,-- --- ---- --- ------ ----- ------- ---- -- --- ------- --<br>------- ---------- ------ -- ----- -- ----- -- ---- ------<br>--- ----- --- --- ------ -------- ----- --- ------ ----- --<br>----- ----- ---------- --- --- ------ became ---- -- ------<br>------- --- ------ ----- --- ---- ------- -- ---- --- --<br>------- ------,287725.96499999054,287723.20000000764,287257.596,287264.00500000454,287274.262,287740.91,,39,became
screen,html.Screen,2_1_1_1_40,2021-04-24T15:38:20.611Z,,,,,,,,,,,,,,,,,54,,,,,,,,,,,,,,369.3349999889615,,response,,,,100,,,,,,,Space,keypress(Space),,,,,,,,-- --- ---- --- ------ ----- ------- ---- -- --- ------- --<br>------- ---------- ------ -- ----- -- ----- -- ---- ------<br>--- ----- --- --- ------ -------- ----- --- ------ ----- --<br>----- ----- ---------- --- --- ------ ------ wary -- ------<br>------- --- ------ ----- --- ---- ------- -- ---- --- --<br>------- ------,288112.9100000253,288110.24499998894,287724.244,287726.08499997295,287740.91,288124.203,,40,wary
screen,html.Screen,2_1_1_1_41,2021-04-24T15:38:21.083Z,,,,,,,,,,,,,,,,,54,,,,,,,,,,,,,,457.67700007068925,,response,,,,100,,,,,,,Space,keypress(Space),,,,,,,,-- --- ---- --- ------ ----- ------- ---- -- --- ------- --<br>------- ---------- ------ -- ----- -- ----- -- ---- ------<br>--- ----- --- --- ------ -------- ----- --- ------ ----- --<br>----- ----- ---------- --- --- ------ ------ ---- of ------<br>------- --- ------ ----- --- ---- ------- -- ---- --- --<br>------- ------,288585.0550000323,288581.88000007067,288107.537,288113.00999997184,288124.203,288590.851,,41,of
screen,html.Screen,2_1_1_1_42,2021-04-24T15:38:21.506Z,,,,,,,,,,,,,,,,,54,,,,,,,,,,,,,,415.3440000235569,,response,,,,100,,,,,,,Space,keypress(Space),,,,,,,,-- --- ---- --- ------ ----- ------- ---- -- --- ------- --<br>------- ---------- ------ -- ----- -- ----- -- ---- ------<br>--- ----- --- --- ------ -------- ----- --- ------ ----- --<br>----- ----- ---------- --- --- ------ ------ ---- -- French<br>------- --- ------ ----- --- ---- ------- -- ---- --- --<br>------- ------,289008.79500003066,289006.1950000236,288574.185,288585.4350000154,288590.851,289024.167,,42,French
screen,html.Screen,2_1_1_1_43,2021-04-24T15:38:22.221Z,,,,,,,,,,,,,,,,,54,,,,,,,,,,,,,,695.9579999925336,,response,,,,100,,,,,,,Space,keypress(Space),,,,,,,,-- --- ---- --- ------ ----- ------- ---- -- --- ------- --<br>------- ---------- ------ -- ----- -- ----- -- ---- ------<br>--- ----- --- --- ------ -------- ----- --- ------ ----- --<br>----- ----- ---------- --- --- ------ ------ ---- -- ------<br>credit. --- ------ ----- --- ---- ------- -- ---- --- --<br>------- ------,289722.9000000516,289720.12499999255,289007.501,289008.909999975,289024.167,289724.139,,43,credit.
screen,html.Screen,2_1_1_1_44,2021-04-24T15:38:22.672Z,,,,,,,,,,,,,,,,,54,,,,,,,,,,,,,,446.96600007399684,,response,,,,100,,,,,,,Space,keypress(Space),,,,,,,,-- --- ---- --- ------ ----- ------- ---- -- --- ------- --<br>------- ---------- ------ -- ----- -- ----- -- ---- ------<br>--- ----- --- --- ------ -------- ----- --- ------ ----- --<br>----- ----- ---------- --- --- ------ ------ ---- -- ------<br>------- The ------ ----- --- ---- ------- -- ---- --- --<br>------- ------,290173.8749999786,290171.105000074,289707.473,289723.01499999594,289724.139,290190.787,,44,The
screen,html.Screen,2_1_1_1_45,2021-04-24T15:38:24.667Z,,,,,,,,,,,,,,,,,54,,,,,,,,,,,,,,1976.248000049498,,response,,,,100,,,,,,,Space,keypress(Space),,,,,,,,-- --- ---- --- ------ ----- ------- ---- -- --- ------- --<br>------- ---------- ------ -- ----- -- ----- -- ---- ------<br>--- ----- --- --- ------ -------- ----- --- ------ ----- --<br>----- ----- ---------- --- --- ------ ------ ---- -- ------<br>------- --- French ----- --- ---- ------- -- ---- --- --<br>------- ------,292169.73500000313,292167.0350000495,290174.121,290173.99000003934,290190.787,292174.041,,45,French
screen,html.Screen,2_1_1_1_46,2021-04-24T15:38:25.841Z,,,,,,,,,,,,,,,,,54,,,,,,,,,,,,,,1165.9490000076476,,response,,,,100,,,,,,,Space,keypress(Space),,,,,,,,-- --- ---- --- ------ ----- ------- ---- -- --- ------- --<br>------- ---------- ------ -- ----- -- ----- -- ---- ------<br>--- ----- --- --- ------ -------- ----- --- ------ ----- --<br>----- ----- ---------- --- --- ------ ------ ---- -- ------<br>------- --- ------ state --- ---- ------- -- ---- --- --<br>------- ------,293342.7500000689,293339.9900000077,292157.375,292169.8450000258,292174.041,293357.327,,46,state
screen,html.Screen,2_1_1_1_47,2021-04-24T15:38:26.909Z,,,,,,,,,,,,,,,,,54,,,,,,,,,,,,,,1050.5330000357353,,response,,,,100,,,,,,,Space,keypress(Space),,,,,,,,-- --- ---- --- ------ ----- ------- ---- -- --- ------- --<br>------- ---------- ------ -- ----- -- ----- -- ---- ------<br>--- ----- --- --- ------ -------- ----- --- ------ ----- --<br>----- ----- ---------- --- --- ------ ------ ---- -- ------<br>------- --- ------ ----- was ---- ------- -- ---- --- --<br>------- ------,294410.73000000324,294407.8600000357,293340.661,293342.8599999752,293357.327,294423.951,,47,was
screen,html.Screen,2_1_1_1_48,2021-04-24T15:38:27.573Z,,,,,,,,,,,,,,,,,54,,,,,,,,,,,,,,648.9840000619879,,response,,,,100,,,,,,,Space,keypress(Space),,,,,,,,-- --- ---- --- ------ ----- ------- ---- -- --- ------- --<br>------- ---------- ------ -- ----- -- ----- -- ---- ------<br>--- ----- --- --- ------ -------- ----- --- ------ ----- --<br>----- ----- ---------- --- --- ------ ------ ---- -- ------<br>------- --- ------ ----- --- left ------- -- ---- --- --<br>------- ------,295075.5800000625,295072.935000062,294407.285,294410.8400000259,294423.951,295090.591,,48,left
screen,html.Screen,2_1_1_1_49,2021-04-24T15:38:28.244Z,,,,,,,,,,,,,,,,,54,,,,,,,,,,,,,,653.309000001289,,response,,,,100,,,,,,,Space,keypress(Space),,,,,,,,-- --- ---- --- ------ ----- ------- ---- -- --- ------- --<br>------- ---------- ------ -- ----- -- ----- -- ---- ------<br>--- ----- --- --- ------ -------- ----- --- ------ ----- --<br>----- ----- ---------- --- --- ------ ------ ---- -- ------<br>------- --- ------ ----- --- ---- without -- ---- --- --<br>------- ------,295746.604999993,295743.9000000013,295073.925,295075.6950000068,295090.591,295757.231,,49,without
screen,html.Screen,2_1_1_1_50,2021-04-24T15:38:28.724Z,,,,,,,,,,,,,,,,,54,,,,,,,,,,,,,,466.65399998484645,,response,,,,100,,,,,,,Space,keypress(Space),,,,,,,,-- --- ---- --- ------ ----- ------- ---- -- --- ------- --<br>------- ---------- ------ -- ----- -- ----- -- ---- ------<br>--- ----- --- --- ------ -------- ----- --- ------ ----- --<br>----- ----- ---------- --- --- ------ ------ ---- -- ------<br>------- --- ------ ----- --- ---- ------- an ---- --- --<br>------- ------,296226.54499998316,296223.8849999849,295740.565,295746.7300000135,295757.231,296240.545,,50,an
screen,html.Screen,2_1_1_1_51,2021-04-24T15:38:29.369Z,,,,,,,,,,,,,,,,,54,,,,,,,,,,,,,,628.3100000079139,,response,,,,100,,,,,,,Space,keypress(Space),,,,,,,,-- --- ---- --- ------ ----- ------- ---- -- --- ------- --<br>------- ---------- ------ -- ----- -- ----- -- ---- ------<br>--- ----- --- --- ------ -------- ----- --- ------ ----- --<br>----- ----- ---------- --- --- ------ ------ ---- -- ------<br>------- --- ------ ----- --- ---- ------- -- easy --- --<br>------- ------,296871.58000003546,296868.8550000079,296223.879,296226.6600000439,296240.545,296873.853,,51,easy
screen,html.Screen,2_1_1_1_52,2021-04-24T15:38:30.114Z,,,,,,,,,,,,,,,,,54,,,,,,,,,,,,,,740.0220000391128,,response,,,,100,,,,,,,Space,keypress(Space),,,,,,,,-- --- ---- --- ------ ----- ------- ---- -- --- ------- --<br>------- ---------- ------ -- ----- -- ----- -- ---- ------<br>--- ----- --- --- ------ -------- ----- --- ------ ----- --<br>----- ----- ---------- --- --- ------ ------ ---- -- ------<br>------- --- ------ ----- --- ---- ------- -- ---- way --<br>------- ------,297616.55999999493,297613.8750000391,296857.187,296871.6949999798,296873.853,297623.823,,52,way
screen,html.Screen,2_1_1_1_53,2021-04-24T15:38:30.540Z,,,,,,,,,,,,,,,,,54,,,,,,,,,,,,,,415.00699997588526,,response,,,,100,,,,,,,Space,keypress(Space),,,,,,,,-- --- ---- --- ------ ----- ------- ---- -- --- ------- --<br>------- ---------- ------ -- ----- -- ----- -- ---- ------<br>--- ----- --- --- ------ -------- ----- --- ------ ----- --<br>----- ----- ---------- --- --- ------ ------ ---- -- ------<br>------- --- ------ ----- --- ---- ------- -- ---- --- of<br>------- ------,298041.70499998145,298038.82999997586,297607.157,297616.6750000557,297623.823,298057.139,,53,of
screen,html.Screen,2_1_1_1_54,2021-04-24T15:38:31.104Z,,,,,,,,,,,,,,,,,54,,,,,,,,,,,,,,546.1860000327579,,response,,,,100,,,,,,,Space,keypress(Space),,,,,,,,-- --- ---- --- ------ ----- ------- ---- -- --- ------- --<br>------- ---------- ------ -- ----- -- ----- -- ---- ------<br>--- ----- --- --- ------ -------- ----- --- ------ ----- --<br>----- ----- ---------- --- --- ------ ------ ---- -- ------<br>------- --- ------ ----- --- ---- ------- -- ---- --- --<br>raising ------,298606.3149999827,298603.3250000328,298040.473,298041.8200000422,298057.139,298622.63,,54,raising
screen,html.Screen,2_1_1_1_55,2021-04-24T15:38:31.871Z,,,,,,,,,,,,,,,,,54,,,,,,,,,,,,,,748.1449999593897,,response,,,,100,,,,,,,Space,keypress(Space),,,,,,,,-- --- ---- --- ------ ----- ------- ---- -- --- ------- --<br>------- ---------- ------ -- ----- -- ----- -- ---- ------<br>--- ----- --- --- ------ -------- ----- --- ------ ----- --<br>----- ----- ---------- --- --- ------ ------ ---- -- ------<br>------- --- ------ ----- --- ---- ------- -- ---- --- --<br>------- money.,299373.5400000587,299370.7749999594,298605.964,298606.4300000435,298622.63,299389.266,,55,money.
Item 100,flow.Loop,2_1_1_1,2021-04-24T15:38:31.872Z,,,,,,,,,,,,,,,,,,,,,,,,,,,,,,,32667.747999959392,,completion,,,,,D,,,,,,,,,,,silence,,,,,299373.74499998987,299370.7749999594,266686.361,266688.87499999255,266703.027,299389.266,,,
Question 1,html.Screen,2_1_1_2,2021-04-24T15:38:36.498Z,,,,,,,,,,,,,,,,,,,,,,,,,,,,true,TRUE,,4608.6989999877405,,response,,,,100,D,,,,,,TRUE,click #choice-1,,,,silence,,,,,304000.16000005417,303997.96499998774,299372.6,299374.13000001106,299389.266,304005.748,,,
Question 2,html.Screen,2_1_1_3,2021-04-24T15:38:41.317Z,,,,,,,,,,,,,,,,,,,,,,,,,,,,true,FALSE,,4811.14700005448,,response,,,,100,D,,,,,,FALSE,click #choice-2,,,,silence,,,,,308819.00500005577,308816.8950000545,303989.082,304000.33000006806,304005.748,308825.322,,,
Item 100,flow.Sequence,2_1_1,2021-04-24T15:38:41.317Z,,,,,,,,,,,,,,,,,,,,,,,,,,,,,,,52120.7590000545,,completion,,,,,,,,,,,,,,,,,,,,,308819.1949999891,308816.8950000545,256679.47,256695.44499996118,256696.136,308825.322,,,
End of Practice,html.Page,2_1_2,2021-04-24T15:38:51.097Z,,,,,,,,,,,,,,,,,,,,,,,,,,,,,,,9773.328000058129,,form submission,,,,,,,,,,,,,,,,,,,,,318598.86000002734,318598.6500000581,308808.656,308819.28499997593,308825.322,318608.264,,,
Practice,flow.Sequence,2_1,2021-04-24T15:38:51.097Z,,,,,,,,,,,,,,,,,,,,,,,,,,,,,,,123639.31000005812,,completion,,,,,,,,,,,,,,,,,,,,,318599.02500000317,318598.6500000581,194942.674,194948.10999999754,194959.34,318608.264,,,
Trap_instruction,html.Page,2_2_0,2021-04-24T15:39:00.083Z,,,,,,,,,,,,,,,,,,,,,,,,,,,,,,,8975.590999975277,,form submission,,,,,,,,,,,,,,,,,,,,,327584.05000006314,327583.8549999753,318591.598,318599.1299999878,318608.264,327589.705,,,
trap_trial,html.Screen,2_2_1,2021-04-24T15:39:05.626Z,,,,,,,,,,,,,,,,,,,,,,,,,,,,true,1,,5535.8449999970035,,response,,,,,,,,,,,1,click #choice-1,,,,,,,,,333127.66500003636,333125.549999997,327573.039,327584.1500000097,327589.705,333139.483,,,
end of trap trial,html.Page,2_2_2,2021-04-24T15:39:08.981Z,,,,,,,,,,,,,,,,,,,,,,,,,,,,,,,3342.7370000053197,,form submission,,,,,,,,,,,,,,,,,,,,,336482.41499997675,336482.2200000053,333122.817,333127.79000005685,333139.483,336487.754,,,
Trap 1,flow.Sequence,2_2,2021-04-24T15:39:08.981Z,,,,,,,,,,,,,,,,,,,,,,,,,,,,,,,17873.956000005302,,completion,,,,,,,,,,,,,,,,,,,,,336482.5650000712,336482.2200000053,318591.598,318599.0950000705,318608.264,336487.754,,,
Standby,html.Page,2_3_0,2021-04-24T15:39:16.972Z,,,,,,,,,,,,,,,,,,,,,,,,,,,,,,,7999.679999999993,,timeout,,,,,,,,,,,,,,,,,,,,,344473.3900000574,344470.768,336471.088,336482.805000036,336487.754,344487.434,,,
Holding screen,html.Screen,2_3_1_0_0,2021-04-24T15:39:23.975Z,,,,,,,,,,,,,,,,,,,,,,,,,,,,,,,7003.656000000017,,timeout,,,,,,,,,,,,,,,,,,,,,351476.08499997295,351474.424,344470.768,344473.63000002224,344487.434,351491.09,,,
screen,html.Screen,2_3_1_0_1_0,2021-04-24T15:39:25.087Z,,,,,,,,,,,,,,,,,15,,,,,,,,,,,,,,1094.1849999612314,,response,,,,7,D,,,,,,Space,keypress(Space),,,,silence,,,,Greg --------- ---------- - --- ------- -- --- ------------<br>----- -- -------- ------- ---- ------ - -------- ---- -----<br>--- ------- ---- -- --- -------- --- - ----- ------ ---- --<br>-------- --- -------- -------- --- -------- ---- -- ----- -<br>-------- ---- --- ---------- --------- -- ------- ------ -<br>--------- ----- -----,352588.1000000518,352585.27499996126,351474.424,351476.2750000227,351491.09,352591.046,,0,Greg
screen,html.Screen,2_3_1_0_1_1,2021-04-24T15:39:25.697Z,,,,,,,,,,,,,,,,,15,,,,,,,,,,,,,,604.3239999721991,,response,,,,7,D,,,,,,Space,keypress(Space),,,,silence,,,,"---- Anderson, ---------- - --- ------- -- --- ------------<br>----- -- -------- ------- ---- ------ - -------- ---- -----<br>--- ------- ---- -- --- -------- --- - ----- ------ ---- --<br>-------- --- -------- -------- --- -------- ---- -- ----- -<br>-------- ---- --- ---------- --------- -- ------- ------ -<br>--------- ----- -----",353197.9450000217,353195.3699999722,352574.38,352588.2050000364,352591.046,353207.688,,1,"Anderson,"
screen,html.Screen,2_3_1_0_1_2,2021-04-24T15:39:26.367Z,,,,,,,,,,,,,,,,,15,,,,,,,,,,,,,,657.5320000360371,,response,,,,7,D,,,,,,Space,keypress(Space),,,,silence,,,,---- --------- considered - --- ------- -- --- ------------<br>----- -- -------- ------- ---- ------ - -------- ---- -----<br>--- ------- ---- -- --- -------- --- - ----- ------ ---- --<br>-------- --- -------- -------- --- -------- ---- -- ----- -<br>-------- ---- --- ---------- --------- -- ------- ------ -<br>--------- ----- -----,353867.6700000651,353865.22000003606,353191.022,353198.05000000633,353207.688,353874.328,,2,considered
screen,html.Screen,2_3_1_0_1_3,2021-04-24T15:39:27.047Z,,,,,,,,,,,,,,,,,15,,,,,,,,,,,,,,671.0019999935757,,response,,,,7,D,,,,,,Space,keypress(Space),,,,silence,,,,---- --------- ---------- a --- ------- -- --- ------------<br>----- -- -------- ------- ---- ------ - -------- ---- -----<br>--- ------- ---- -- --- -------- --- - ----- ------ ---- --<br>-------- --- -------- -------- --- -------- ---- -- ----- -<br>-------- ---- --- ---------- --------- -- ------- ------ -<br>--------- ----- -----,354547.8700000094,354545.32999999356,353857.662,353867.77500004973,353874.328,354557.634,,3,a
screen,html.Screen,2_3_1_0_1_4,2021-04-24T15:39:27.641Z,,,,,,,,,,,,,,,,,15,,,,,,,,,,,,,,581.705999994243,,response,,,,7,D,,,,,,Space,keypress(Space),,,,silence,,,,---- --------- ---------- - key ------- -- --- ------------<br>----- -- -------- ------- ---- ------ - -------- ---- -----<br>--- ------- ---- -- --- -------- --- - ----- ------ ---- --<br>-------- --- -------- -------- --- -------- ---- -- ----- -<br>-------- ---- --- ---------- --------- -- ------- ------ -<br>--------- ----- -----,355142.15500000864,355139.33999999426,354540.968,354547.9800000321,354557.634,355157.61,,4,key
screen,html.Screen,2_3_1_0_1_5,2021-04-24T15:39:28.314Z,,,,,,,,,,,,,,,,,15,,,,,,,,,,,,,,654.600000003702,,response,,,,7,D,,,,,,Space,keypress(Space),,,,silence,,,,---- --------- ---------- - --- witness -- --- ------------<br>----- -- -------- ------- ---- ------ - -------- ---- -----<br>--- ------- ---- -- --- -------- --- - ----- ------ ---- --<br>-------- --- -------- -------- --- -------- ---- -- ----- -<br>-------- ---- --- ---------- --------- -- ------- ------ -<br>--------- ----- -----,355814.7749999771,355812.2100000037,355140.944,355142.25999999326,355157.61,355825.831,,5,witness
screen,html.Screen,2_3_1_0_1_6,2021-04-24T15:39:28.887Z,,,,,,,,,,,,,,,,,15,,,,,,,,,,,,,,559.4190000502858,,response,,,,7,D,,,,,,Space,keypress(Space),,,,silence,,,,---- --------- ---------- - --- ------- by --- ------------<br>----- -- -------- ------- ---- ------ - -------- ---- -----<br>--- ------- ---- -- --- -------- --- - ----- ------ ---- --<br>-------- --- -------- -------- --- -------- ---- -- ----- -<br>-------- ---- --- ---------- --------- -- ------- ------ -<br>--------- ----- -----,356387.7400000347,356385.2500000503,355809.165,355814.89000003785,355825.831,356392.475,,6,by
screen,html.Screen,2_3_1_0_1_7,2021-04-24T15:39:29.181Z,,,,,,,,,,,,,,,,,15,,,,,,,,,,,,,,286.8700000696117,,response,,,,7,D,,,,,,Space,keypress(Space),,,,silence,,,,---- --------- ---------- - --- ------- -- the ------------<br>----- -- -------- ------- ---- ------ - -------- ---- -----<br>--- ------- ---- -- --- -------- --- - ----- ------ ---- --<br>-------- --- -------- -------- --- -------- ---- -- ----- -<br>-------- ---- --- ---------- --------- -- ------- ------ -<br>--------- ----- -----,356681.82499997783,356679.3450000696,356375.809,356387.85000005737,356392.475,356692.463,,7,the
screen,html.Screen,2_3_1_0_1_8,2021-04-24T15:39:30.183Z,,,,,,,,,,,,,,,,,15,,,,,,,,,,,,,,988.5870000137947,,response,,,,7,D,,,,,,Space,keypress(Space),,,,silence,,,,"---- --------- ---------- - --- ------- -- --- prosecution,<br>----- -- -------- ------- ---- ------ - -------- ---- -----<br>--- ------- ---- -- --- -------- --- - ----- ------ ---- --<br>-------- --- -------- -------- --- -------- ---- -- ----- -<br>-------- ---- --- ---------- --------- -- ------- ------ -<br>--------- ----- -----",357683.3099999931,357681.0500000138,356675.797,356681.9350000005,356692.463,357692.423,,8,"prosecution,"
screen,html.Screen,2_3_1_0_1_9,2021-04-24T15:39:30.883Z,,,,,,,,,,,,,,,,,15,,,,,,,,,,,,,,688.7669999854988,,response,,,,7,D,,,,,,Space,keypress(Space),,,,silence,,,,---- --------- ---------- - --- ------- -- --- ------------<br>vowed -- -------- ------- ---- ------ - -------- ---- -----<br>--- ------- ---- -- --- -------- --- - ----- ------ ---- --<br>-------- --- -------- -------- --- -------- ---- -- ----- -<br>-------- ---- --- ---------- --------- -- ------- ------ -<br>--------- ----- -----,358383.79500003066,358381.1899999855,357675.757,357683.40500001796,357692.423,358392.395,,9,vowed
screen,html.Screen,2_3_1_0_1_10,2021-04-24T15:39:31.236Z,,,,,,,,,,,,,,,,,15,,,,,,,,,,,,,,342.5749999904074,,response,,,,7,D,,,,,,Space,keypress(Space),,,,silence,,,,---- --------- ---------- - --- ------- -- --- ------------<br>----- he -------- ------- ---- ------ - -------- ---- -----<br>--- ------- ---- -- --- -------- --- - ----- ------ ---- --<br>-------- --- -------- -------- --- -------- ---- -- ----- -<br>-------- ---- --- ---------- --------- -- ------- ------ -<br>--------- ----- -----,358736.88500002027,358734.9699999904,358375.729,358383.9000000153,358392.395,358742.381,,10,he
screen,html.Screen,2_3_1_0_1_11,2021-04-24T15:39:31.687Z,,,,,,,,,,,,,,,,,15,,,,,,,,,,,,,,442.7789999936358,,response,,,,7,D,,,,,,Space,keypress(Space),,,,silence,,,,---- --------- ---------- - --- ------- -- --- ------------<br>----- -- wouldn't ------- ---- ------ - -------- ---- -----<br>--- ------- ---- -- --- -------- --- - ----- ------ ---- --<br>-------- --- -------- -------- --- -------- ---- -- ----- -<br>-------- ---- --- ---------- --------- -- ------- ------ -<br>--------- ----- -----,359187.7099999692,359185.15999999363,358725.715,358736.9750000071,358742.381,359192.363,,11,wouldn't
screen,html.Screen,2_3_1_0_1_12,2021-04-24T15:39:32.074Z,,,,,,,,,,,,,,,,,15,,,,,,,,,,,,,,379.706999994698,,response,,,,7,D,,,,,,Space,keypress(Space),,,,silence,,,,---- --------- ---------- - --- ------- -- --- ------------<br>----- -- -------- testify ---- ------ - -------- ---- -----<br>--- ------- ---- -- --- -------- --- - ----- ------ ---- --<br>-------- --- -------- -------- --- -------- ---- -- ----- -<br>-------- ---- --- ---------- --------- -- ------- ------ -<br>--------- ----- -----,359574.5149999857,359572.0699999947,359175.697,359187.8199999919,359192.363,359575.681,,12,testify
screen,html.Screen,2_3_1_0_1_13,2021-04-24T15:39:32.566Z,,,,,,,,,,,,,,,,,15,,,,,,,,,,,,,,488.43899999547284,,response,,,,7,D,,,,,,Space,keypress(Space),,,,silence,,,,---- --------- ---------- - --- ------- -- --- ------------<br>----- -- -------- ------- when ------ - -------- ---- -----<br>--- ------- ---- -- --- -------- --- - ----- ------ ---- --<br>-------- --- -------- -------- --- -------- ---- -- ----- -<br>-------- ---- --- ---------- --------- -- ------- ------ -<br>--------- ----- -----,360066.6800000472,360064.11999999546,359559.015,359574.63000004645,359575.681,360075.661,,13,when
screen,html.Screen,2_3_1_0_1_14,2021-04-24T15:39:33.139Z,,,,,,,,,,,,,,,,,15,,,,,,,,,,,,,,561.4589999702876,,response,,,,7,D,,,,,,Space,keypress(Space),,,,silence,,,,---- --------- ---------- - --- ------- -- --- ------------<br>----- -- -------- ------- ---- served - -------- ---- -----<br>--- ------- ---- -- --- -------- --- - ----- ------ ---- --<br>-------- --- -------- -------- --- -------- ---- -- ----- -<br>-------- ---- --- ---------- --------- -- ------- ------ -<br>--------- ----- -----,360639.71000001766,360637.1199999703,360058.995,360066.7900000699,360075.661,360642.305,,14,served
screen,html.Screen,2_3_1_0_1_15,2021-04-24T15:39:33.637Z,,,,,,,,,,,,,,,,,15,,,,,,,,,,,,,,492.7699999983306,,response,,,,7,D,,,,,,Space,keypress(Space),,,,silence,,,,---- --------- ---------- - --- ------- -- --- ------------<br>----- -- -------- ------- ---- ------ a -------- ---- -----<br>--- ------- ---- -- --- -------- --- - ----- ------ ---- --<br>-------- --- -------- -------- --- -------- ---- -- ----- -<br>-------- ---- --- ---------- --------- -- ------- ------ -<br>--------- ----- -----,361137.6000000164,361135.0749999983,360625.639,360639.82000004034,360642.305,361142.285,,15,a
screen,html.Screen,2_3_1_0_1_16,2021-04-24T15:39:35.255Z,,,,,,,,,,,,,,,,,15,,,,,,,,,,,,,,1610.7950000531855,,response,,,,7,D,,,,,,Space,keypress(Space),,,,silence,,,,---- --------- ---------- - --- ------- -- --- ------------<br>----- -- -------- ------- ---- ------ - subpoena ---- -----<br>--- ------- ---- -- --- -------- --- - ----- ------ ---- --<br>-------- --- -------- -------- --- -------- ---- -- ----- -<br>-------- ---- --- ---------- --------- -- ------- ------ -<br>--------- ----- -----,362755.9350000229,362753.08000005316,361125.619,361137.705000001,361142.285,362758.887,,16,subpoena
screen,html.Screen,2_3_1_0_1_17,2021-04-24T15:39:35.767Z,,,,,,,,,,,,,,,,,15,,,,,,,,,,,,,,506.1180000520544,,response,,,,7,D,,,,,,Space,keypress(Space),,,,silence,,,,---- --------- ---------- - --- ------- -- --- ------------<br>----- -- -------- ------- ---- ------ - -------- last -----<br>--- ------- ---- -- --- -------- --- - ----- ------ ---- --<br>-------- --- -------- -------- --- -------- ---- -- ----- -<br>-------- ---- --- ---------- --------- -- ------- ------ -<br>--------- ----- -----,363267.51999999397,363265.00500005204,362742.221,362756.04500004556,362758.887,363275.533,,17,last
screen,html.Screen,2_3_1_0_1_18,2021-04-24T15:39:36.572Z,,,,,,,,,,,,,,,,,15,,,,,,,,,,,,,,794.4370000695926,,response,,,,7,D,,,,,,Space,keypress(Space),,,,silence,,,,---- --------- ---------- - --- ------- -- --- ------------<br>----- -- -------- ------- ---- ------ - -------- ---- week.<br>--- ------- ---- -- --- -------- --- - ----- ------ ---- --<br>-------- --- -------- -------- --- -------- ---- -- ----- -<br>-------- ---- --- ---------- --------- -- ------- ------ -<br>--------- ----- -----,364072.5800000364,364069.9700000696,363258.867,363267.63000001665,363275.533,364075.501,,18,week.
screen,html.Screen,2_3_1_0_1_19,2021-04-24T15:39:37.063Z,,,,,,,,,,,,,,,,,15,,,,,,,,,,,,,,485.46899999136804,,response,,,,7,D,,,,,,Space,keypress(Space),,,,silence,,,,---- --------- ---------- - --- ------- -- --- ------------<br>----- -- -------- ------- ---- ------ - -------- ---- -----<br>His ------- ---- -- --- -------- --- - ----- ------ ---- --<br>-------- --- -------- -------- --- -------- ---- -- ----- -<br>-------- ---- --- ---------- --------- -- ------- ------ -<br>--------- ----- -----,364563.62999998964,364560.96999999136,364058.835,364072.69499998074,364075.501,364575.481,,19,His
screen,html.Screen,2_3_1_0_1_20,2021-04-24T15:39:37.604Z,,,,,,,,,,,,,,,,,15,,,,,,,,,,,,,,526.4990000358084,,response,,,,7,D,,,,,,Space,keypress(Space),,,,silence,,,,---- --------- ---------- - --- ------- -- --- ------------<br>----- -- -------- ------- ---- ------ - -------- ---- -----<br>--- lawyers ---- -- --- -------- --- - ----- ------ ---- --<br>-------- --- -------- -------- --- -------- ---- -- ----- -<br>-------- ---- --- ---------- --------- -- ------- ------ -<br>--------- ----- -----,365104.4250000268,365101.98000003584,364558.815,364563.74000001233,364575.481,365108.793,,20,lawyers
screen,html.Screen,2_3_1_0_1_21,2021-04-24T15:39:37.998Z,,,,,,,,,,,,,,,,,15,,,,,,,,,,,,,,387.157000011357,,response,,,,7,D,,,,,,Space,keypress(Space),,,,silence,,,,---- --------- ---------- - --- ------- -- --- ------------<br>----- -- -------- ------- ---- ------ - -------- ---- -----<br>--- ------- said -- --- -------- --- - ----- ------ ---- --<br>-------- --- -------- -------- --- -------- ---- -- ----- -<br>-------- ---- --- ---------- --------- -- ------- ------ -<br>--------- ----- -----,365498.5550000565,365495.95000001136,365092.127,365104.5350000495,365108.793,365508.777,,21,said
screen,html.Screen,2_3_1_0_1_22,2021-04-24T15:39:38.587Z,,,,,,,,,,,,,,,,,15,,,,,,,,,,,,,,576.1179999781307,,response,,,,7,D,,,,,,Space,keypress(Space),,,,silence,,,,---- --------- ---------- - --- ------- -- --- ------------<br>----- -- -------- ------- ---- ------ - -------- ---- -----<br>--- ------- ---- he --- -------- --- - ----- ------ ---- --<br>-------- --- -------- -------- --- -------- ---- -- ----- -<br>-------- ---- --- ---------- --------- -- ------- ------ -<br>--------- ----- -----,366087.4149999581,366084.89499997813,365492.111,365498.6600000411,365508.777,366102.19,,22,he
screen,html.Screen,2_3_1_0_1_23,2021-04-24T15:39:39.023Z,,,,,,,,,,,,,,,,,15,,,,,,,,,,,,,,418.7549999965704,,response,,,,7,D,,,,,,Space,keypress(Space),,,,silence,,,,---- --------- ---------- - --- ------- -- --- ------------<br>----- -- -------- ------- ---- ------ - -------- ---- -----<br>--- ------- ---- -- was -------- --- - ----- ------ ---- --<br>-------- --- -------- -------- --- -------- ---- -- ----- -<br>-------- ---- --- ---------- --------- -- ------- ------ -<br>--------- ----- -----,366523.53000000585,366520.9449999966,366085.524,366087.5249999808,366102.19,366535.506,,23,was
screen,html.Screen,2_3_1_0_1_24,2021-04-24T15:39:39.358Z,,,,,,,,,,,,,,,,,15,,,,,,,,,,,,,,320.37899996811757,,response,,,,7,D,,,,,,Space,keypress(Space),,,,silence,,,,---- --------- ---------- - --- ------- -- --- ------------<br>----- -- -------- ------- ---- ------ - -------- ---- -----<br>--- ------- ---- -- --- prepared --- - ----- ------ ---- --<br>-------- --- -------- -------- --- -------- ---- -- ----- -<br>-------- ---- --- ---------- --------- -- ------- ------ -<br>--------- ----- -----,366858.4849999752,366855.8849999681,366518.84,366523.64000002854,366535.506,366868.826,,24,prepared
screen,html.Screen,2_3_1_0_1_25,2021-04-24T15:39:39.912Z,,,,,,,,,,,,,,,,,15,,,,,,,,,,,,,,540.0339999668067,,response,,,,7,D,,,,,,Space,keypress(Space),,,,silence,,,,---- --------- ---------- - --- ------- -- --- ------------<br>----- -- -------- ------- ---- ------ - -------- ---- -----<br>--- ------- ---- -- --- -------- for - ----- ------ ---- --<br>-------- --- -------- -------- --- -------- ---- -- ----- -<br>-------- ---- --- ---------- --------- -- ------- ------ -<br>--------- ----- -----,367412.00500004925,367408.8599999668,366852.16,366858.5949999979,366868.826,367418.804,,25,for
screen,html.Screen,2_3_1_0_1_26,2021-04-24T15:39:40.717Z,,,,,,,,,,,,,,,,,15,,,,,,,,,,,,,,795.0359999821521,,response,,,,7,D,,,,,,Space,keypress(Space),,,,silence,,,,---- --------- ---------- - --- ------- -- --- ------------<br>----- -- -------- ------- ---- ------ - -------- ---- -----<br>--- ------- ---- -- --- -------- --- a ----- ------ ---- --<br>-------- --- -------- -------- --- -------- ---- -- ----- -<br>-------- ---- --- ---------- --------- -- ------- ------ -<br>--------- ----- -----,368217.10000000894,368213.83999998216,367402.138,367412.1199999936,367418.804,368218.772,,26,a
screen,html.Screen,2_3_1_0_1_27,2021-04-24T15:39:41.174Z,,,,,,,,,,,,,,,,,15,,,,,,,,,,,,,,453.02299997291993,,response,,,,7,D,,,,,,Space,keypress(Space),,,,silence,,,,---- --------- ---------- - --- ------- -- --- ------------<br>----- -- -------- ------- ---- ------ - -------- ---- -----<br>--- ------- ---- -- --- -------- --- - third ------ ---- --<br>-------- --- -------- -------- --- -------- ---- -- ----- -<br>-------- ---- --- ---------- --------- -- ------- ------ -<br>--------- ----- -----,368674.39000005834,368671.7949999729,368202.106,368217.2150000697,368218.772,368685.42,,27,third
screen,html.Screen,2_3_1_0_1_28,2021-04-24T15:39:41.544Z,,,,,,,,,,,,,,,,,15,,,,,,,,,,,,,,356.3800000063493,,response,,,,7,D,,,,,,Space,keypress(Space),,,,silence,,,,---- --------- ---------- - --- ------- -- --- ------------<br>----- -- -------- ------- ---- ------ - -------- ---- -----<br>--- ------- ---- -- --- -------- --- - ----- prison ---- --<br>-------- --- -------- -------- --- -------- ---- -- ----- -<br>-------- ---- --- ---------- --------- -- ------- ------ -<br>--------- ----- -----,369044.51500007417,369041.80000000633,368668.754,368674.49500004295,368685.42,369052.072,,28,prison
screen,html.Screen,2_3_1_0_1_29,2021-04-24T15:39:41.898Z,,,,,,,,,,,,,,,,,15,,,,,,,,,,,,,,343.72800005663885,,response,,,,7,D,,,,,,Space,keypress(Space),,,,silence,,,,---- --------- ---------- - --- ------- -- --- ------------<br>----- -- -------- ------- ---- ------ - -------- ---- -----<br>--- ------- ---- -- --- -------- --- - ----- ------ stay --<br>-------- --- -------- -------- --- -------- ---- -- ----- -<br>-------- ---- --- ---------- --------- -- ------- ------ -<br>--------- ----- -----,369398.32999999635,369395.8000000566,369035.406,369044.6300000185,369052.072,369402.058,,29,stay
screen,html.Screen,2_3_1_0_1_30,2021-04-24T15:39:42.336Z,,,,,,,,,,,,,,,,,15,,,,,,,,,,,,,,431.6919999906677,,response,,,,7,D,,,,,,Space,keypress(Space),,,,silence,,,,---- --------- ---------- - --- ------- -- --- ------------<br>----- -- -------- ------- ---- ------ - -------- ---- -----<br>--- ------- ---- -- --- -------- --- - ----- ------ ---- to<br>-------- --- -------- -------- --- -------- ---- -- ----- -<br>-------- ---- --- ---------- --------- -- ------- ------ -<br>--------- ----- -----,369836.29000000656,369833.7499999907,369385.392,369398.44000001904,369402.058,369852.04,,30,to
screen,html.Screen,2_3_1_0_1_31,2021-04-24T15:39:42.785Z,,,,,,,,,,,,,,,,,15,,,,,,,,,,,,,,430.71000001305947,,response,,,,7,D,,,,,,Space,keypress(Space),,,,silence,,,,---- --------- ---------- - --- ------- -- --- ------------<br>----- -- -------- ------- ---- ------ - -------- ---- -----<br>--- ------- ---- -- --- -------- --- - ----- ------ ---- --<br>maintain --- -------- -------- --- -------- ---- -- ----- -<br>-------- ---- --- ---------- --------- -- ------- ------ -<br>--------- ----- -----,370285.38999997545,370282.75000001304,369835.374,369836.40000002924,369852.04,370302.022,,31,maintain
screen,html.Screen,2_3_1_0_1_32,2021-04-24T15:39:43.132Z,,,,,,,,,,,,,,,,,15,,,,,,,,,,,,,,327.7180000039516,,response,,,,7,D,,,,,,Space,keypress(Space),,,,silence,,,,---- --------- ---------- - --- ------- -- --- ------------<br>----- -- -------- ------- ---- ------ - -------- ---- -----<br>--- ------- ---- -- --- -------- --- - ----- ------ ---- --<br>-------- his -------- -------- --- -------- ---- -- ----- -<br>-------- ---- --- ---------- --------- -- ------- ------ -<br>--------- ----- -----,370632.2250000667,370629.74000000395,370285.356,370285.49499996006,370302.022,370635.342,,32,his
screen,html.Screen,2_3_1_0_1_33,2021-04-24T15:39:43.451Z,,,,,,,,,,,,,,,,,15,,,,,,,,,,,,,,313.3929999835673,,response,,,,7,D,,,,,,Space,keypress(Space),,,,silence,,,,---- --------- ---------- - --- ------- -- --- ------------<br>----- -- -------- ------- ---- ------ - -------- ---- -----<br>--- ------- ---- -- --- -------- --- - ----- ------ ---- --<br>-------- --- silence. -------- --- -------- ---- -- ----- -<br>-------- ---- --- ---------- --------- -- ------- ------ -<br>--------- ----- -----,370951.25499996357,370948.7349999836,370618.676,370632.33499997295,370635.342,370968.662,,33,silence.
screen,html.Screen,2_3_1_0_1_34,2021-04-24T15:39:44.331Z,,,,,,,,,,,,,,,,,15,,,,,,,,,,,,,,860.0330000328831,,response,,,,7,D,,,,,,Space,keypress(Space),,,,silence,,,,---- --------- ---------- - --- ------- -- --- ------------<br>----- -- -------- ------- ---- ------ - -------- ---- -----<br>--- ------- ---- -- --- -------- --- - ----- ------ ---- --<br>-------- --- -------- Anderson --- -------- ---- -- ----- -<br>-------- ---- --- ---------- --------- -- ------- ------ -<br>--------- ----- -----,371831.1550000217,371828.6950000329,370951.996,370951.3600000646,370968.662,371835.294,,34,Anderson
screen,html.Screen,2_3_1_0_1_35,2021-04-24T15:39:44.758Z,,,,,,,,,,,,,,,,,15,,,,,,,,,,,,,,420.38600006024353,,response,,,,7,D,,,,,,Space,keypress(Space),,,,silence,,,,---- --------- ---------- - --- ------- -- --- ------------<br>----- -- -------- ------- ---- ------ - -------- ---- -----<br>--- ------- ---- -- --- -------- --- - ----- ------ ---- --<br>-------- --- -------- -------- was -------- ---- -- ----- -<br>-------- ---- --- ---------- --------- -- ------- ------ -<br>--------- ----- -----,372258.2999999868,372255.68000006024,371818.628,371831.26500004437,371835.294,372268.61,,35,was
screen,html.Screen,2_3_1_0_1_36,2021-04-24T15:39:45.495Z,,,,,,,,,,,,,,,,,15,,,,,,,,,,,,,,724.04500006733,,response,,,,7,D,,,,,,Space,keypress(Space),,,,silence,,,,---- --------- ---------- - --- ------- -- --- ------------<br>----- -- -------- ------- ---- ------ - -------- ---- -----<br>--- ------- ---- -- --- -------- --- - ----- ------ ---- --<br>-------- --- -------- -------- --- released ---- -- ----- -<br>-------- ---- --- ---------- --------- -- ------- ------ -<br>--------- ----- -----,372995.53499999456,372992.6550000673,372251.944,372258.4049999714,372268.61,373001.914,,36,released
screen,html.Screen,2_3_1_0_1_37,2021-04-24T15:39:45.969Z,,,,,,,,,,,,,,,,,15,,,,,,,,,,,,,,464.7209999606712,,response,,,,7,D,,,,,,Space,keypress(Space),,,,silence,,,,---- --------- ---------- - --- ------- -- --- ------------<br>----- -- -------- ------- ---- ------ - -------- ---- -----<br>--- ------- ---- -- --- -------- --- - ----- ------ ---- --<br>-------- --- -------- -------- --- -------- July -- ----- -<br>-------- ---- --- ---------- --------- -- ------- ------ -<br>--------- ----- -----,373469.12500006147,373466.63499996066,372985.248,372995.6500000553,373001.914,373485.228,,37,July
screen,html.Screen,2_3_1_0_1_38,2021-04-24T15:39:46.516Z,,,,,,,,,,,,,,,,,15,,,,,,,,,,,,,,528.4320000550942,,response,,,,7,D,,,,,,Space,keypress(Space),,,,silence,,,,---- --------- ---------- - --- ------- -- --- ------------<br>----- -- -------- ------- ---- ------ - -------- ---- -----<br>--- ------- ---- -- --- -------- --- - ----- ------ ---- --<br>-------- --- -------- -------- --- -------- ---- 20 ----- -<br>-------- ---- --- ---------- --------- -- ------- ------ -<br>--------- ----- -----,374016.1150000058,374013.6600000551,373468.562,373469.2400000058,373485.228,374018.54,,38,20
