sender,sender_type,sender_id,timestamp,meta,,Blues,Classical,Country,Dance,Electronic,Folk,Gospel,Hip-Hop,Jazz,Latin,Musical/Film,New-age,Pop,Prolific_id,Provo_ID,R&B,Rap,Reggae,Religious,Rock,Soul,Swing,Traditional,age,artist_name,correct,correctResponse,distraction,duration,education,ended_on,familiarity,gender,headphone_check_performance,item,list,music_frequency,offensiveness,pleasantness,position_correct,preference,response,response_action,snippet_file,song_name,song_rating,sound,stimulus_1,stimulus_2,stimulus_3,text,time_commit,time_end,time_render,time_run,time_show,time_switch,url,word,word_ID
Prolific ID,html.Form,0,2021-04-24T12:42:01.057Z,"{""labjs_version"":""20.2.2"",""labjs_build"":{""flavor"":""production"",""commit"":""a25486e0c714a0ae2ce03ff94b7bb6896854dcfa""},""location"":""https://run.pavlovia.org/mvasilev/prolific_music_a/"",""userAgent"":""Mozilla/5.0 (Macintosh; Intel Mac OS X 10_14_6) AppleWebKit/537.36 (KHTML, like Gecko) Chrome/89.0.4389.128 Safari/537.36"",""platform"":""MacIntel"",""language"":""en-GB"",""locale"":""en-GB"",""timeZone"":""Europe/London"",""timezoneOffset"":-60,""screen_width"":1680,""screen_height"":1050,""scroll_width"":1397,""scroll_height"":731,""window_innerWidth"":1397,""window_innerHeight"":779,""devicePixelRatio"":2}",,,,,,,,,,,,,,,5c4729a9685da800014c6fc4,,,,,,,,,,,,,,,45447.645999987835,,form submission,,,,,,,,,,,,,,,,,,,,,58477.87000000244,58477.43999998784,12996.462,13002.59499999811,13029.794,58479.03,{},,
Introduction,html.Screen,1_0,2021-04-24T12:42:06.083Z,,,,,,,,,,,,,,,,,,,,,,,,,,,,,,,5022.034999989468,,response,,,,,,,,,,,continue,click button,,,,,,,,,63504.62999998126,63501.06499998947,58462.364,58478.19999998319,58479.03,63512.573,,,
Volume calibration,html.Screen,1_1,2021-04-24T12:42:30.313Z,,,,,,,,,,,,,,,,,,,,,,,,,,,,,,,24217.3619999812,,response,,,,,,,,,,,continue,click button,,,,,,,,,87734.5749999804,87729.9349999812,63495.907,63504.77999998839,63512.573,87745.456,,,
Task instructions,html.Screen,1_2,2021-04-24T12:42:38.129Z,,,,,,,,,,,,,,,,,,,,,,,,,,,,,,,7801.878999981098,,response,,,,,,,,,,,continue,click button,,,,,,,,,95550.51999998977,95547.3349999811,87728.79,87734.75000000326,87745.456,95561.81,,,
Sounds,html.Screen,1_3_0_0,2021-04-24T12:42:42.384Z,,,,,,,,,,,,,,,,,,,,,,,,,,,,,,,4249.830000000002,,timeout,,,,,,,,,2,,,,,,,,O,S,I,,99805.22499998915,99794.974,95545.144,95550.79499998828,95561.81,99811.64,,,
Judgement,html.Screen,1_3_0_1,2021-04-24T12:42:44.153Z,,,,,,,,,,,,,,,,,,,,,,,,,,,,true,2,,1760.4849999769503,,response,,,,,,,,,2,,2,click #choice-2,,,,,O,S,I,,101574.099999998,101572.12499997695,99794.974,99805.44499997632,99811.64,101578.503,,,
Trial,flow.Sequence,1_3_0,2021-04-24T12:42:44.153Z,,,,,,,,,,,,,,,,,,,,,,,,,,,,,,,6010.314999976952,,completion,,,,,,,,,2,,,,,,,,O,S,I,,101574.42999997875,101572.12499997695,95545.144,95550.73499999708,95561.81,101578.503,,,
Sounds,html.Screen,1_3_1_0,2021-04-24T12:42:48.392Z,,,,,,,,,,,,,,,,,,,,,,,,,,,,,,,4249.830000000002,,timeout,,,,,,,,,2,,,,,,,,I,S,O,,105812.63000000035,105811.667,101561.837,101574.58499999484,101578.503,105828.333,,,
Judgement,html.Screen,1_3_1_1,2021-04-24T12:42:49.116Z,,,,,,,,,,,,,,,,,,,,,,,,,,,,true,2,,707.1719999780034,,response,,,,,,,,,2,,2,click #choice-2,,,,,I,S,O,,106537.2249999782,106535.504999978,105811.667,105812.75499999174,105828.333,106544.971,,,
Trial,flow.Sequence,1_3_1,2021-04-24T12:42:49.116Z,,,,,,,,,,,,,,,,,,,,,,,,,,,,,,,4957.001999978005,,completion,,,,,,,,,2,,,,,,,,I,S,O,,106537.4099999899,106535.504999978,101561.837,101574.54000000143,101578.503,106544.971,,,
Sounds,html.Screen,1_3_2_0,2021-04-24T12:42:53.359Z,,,,,,,,,,,,,,,,,,,,,,,,,,,,,,,4249.830000000002,,timeout,,,,,,,,,3,,,,,,,,O,I,S,,110779.87999998732,110778.135,106528.305,106537.53499998129,106544.971,110794.801,,,
Judgement,html.Screen,1_3_2_1,2021-04-24T12:42:53.975Z,,,,,,,,,,,,,,,,,,,,,,,,,,,,true,3,,599.4239999963611,,response,,,,,,,,,3,,3,click #choice-3,,,,,O,I,S,,111396.03999999235,111394.22499999637,110778.135,110779.99999999884,110794.801,111411.68,,,
Trial,flow.Sequence,1_3_2,2021-04-24T12:42:53.975Z,,,,,,,,,,,,,,,,,,,,,,,,,,,,,,,4849.253999996363,,completion,,,,,,,,,3,,,,,,,,O,I,S,,111396.20499999728,111394.22499999637,106528.305,106537.48999998788,106544.971,111411.68,,,
Sounds,html.Screen,1_3_3_0,2021-04-24T12:42:58.227Z,,,,,,,,,,,,,,,,,,,,,,,,,,,,,,,4249.830000000002,,timeout,,,,,,,,,1,,,,,,,,S,I,O,,115647.6149999944,115644.844,111395.014,111396.34499998647,111411.68,115661.51,,,
Judgement,html.Screen,1_3_3_1,2021-04-24T12:42:58.907Z,,,,,,,,,,,,,,,,,,,,,,,,,,,,true,1,,664.3600000005827,,response,,,,,,,,,1,,1,click #choice-1,,,,,S,I,O,,116327.7549999766,116325.87000000058,115644.844,115647.81999998377,115661.51,116328.15,,,
Trial,flow.Sequence,1_3_3,2021-04-24T12:42:58.907Z,,,,,,,,,,,,,,,,,,,,,,,,,,,,,,,4914.190000000584,,completion,,,,,,,,,1,,,,,,,,S,I,O,,116327.94499999727,116325.87000000058,111395.014,111396.29000000423,111411.68,116328.15,,,
Sounds,html.Screen,1_3_4_0,2021-04-24T12:43:03.142Z,,,,,,,,,,,,,,,,,,,,,,,,,,,,,,,4249.830000000002,,timeout,,,,,,,,,1,,,,,,,,S,O,I,,120563.15000000177,120561.314,116311.484,116328.08499998646,116328.15,120577.98,,,
Judgement,html.Screen,1_3_4_1,2021-04-24T12:43:03.654Z,,,,,,,,,,,,,,,,,,,,,,,,,,,,true,1,,495.57499998084677,,response,,,,,,,,,1,,1,click #choice-1,,,,,S,O,I,,121075.205000001,121073.55499998084,120561.314,120563.35499999113,120577.98,121077.96,,,
Trial,flow.Sequence,1_3_4,2021-04-24T12:43:03.654Z,,,,,,,,,,,,,,,,,,,,,,,,,,,,,,,4745.4049999808485,,completion,,,,,,,,,1,,,,,,,,S,O,I,,121075.36499999696,121073.55499998084,116311.484,116328.03999999305,116328.15,121077.96,,,
Sounds,html.Screen,1_3_5_0,2021-04-24T12:43:07.892Z,,,,,,,,,,,,,,,,,,,,,,,,,,,,,,,4249.891999999993,,timeout,,,,,,,,,3,,,,,,,,I,O,S,,125312.8849999921,125311.186,121061.294,121075.47999999952,121077.96,125327.852,,,
Judgement,html.Screen,1_3_5_1,2021-04-24T12:43:08.470Z,,,,,,,,,,,,,,,,,,,,,,,,,,,,true,3,,561.4329999829206,,response,,,,,,,,,3,,3,click #choice-3,,,,,I,O,S,,125891.0399999877,125889.28499998292,125311.186,125313.00999998348,125327.852,125894.496,,,
Trial,flow.Sequence,1_3_5,2021-04-24T12:43:08.470Z,,,,,,,,,,,,,,,,,,,,,,,,,,,,,,,4811.324999982913,,completion,,,,,,,,,3,,,,,,,,I,O,S,,125891.18999999482,125889.28499998292,121061.294,121075.45000000391,121077.96,125894.496,,,
Task,flow.Loop,1_3,2021-04-24T12:43:08.474Z,,,,,,,,,,,,,,,,,,,,,,,,,,,,,,,30327.474999982922,,completion,,,1,,,,,,,,,,,,,,,,,,125894.82499999576,125889.28499998292,95545.144,95550.66499998793,95561.81,125894.496,,,
Trap,html.Screen,1_4,2021-04-24T12:43:08.475Z,,,,,,,,,,,,,,,,,,,,,,,,,,,,,,,NaN,,skipped,,,,,,,,,,,,,,,,,,,,,125896.21499998611,125889.28499998292,,125896.07499999693,,125894.496,,,
Thanks,html.Screen,1_5,2021-04-24T12:43:12.739Z,,,,,,,,,,,,,,,,,,,,,,,,,,,,,,,4264.018999988257,,response,,,,,,,,,,,continue,click button,,,,,,,,,130160.19999998389,130158.51499998826,125877.83,125896.46999997785,125894.496,133410.862,,,
Headphone screening,flow.Sequence,1,2021-04-24T12:43:12.739Z,,,,,,,,,,,,,,,,,,,,,,,,,,,,,,,71679.48499998826,,completion,,,,,,,,,,,,,,,,,,,,,130160.34999999101,130158.51499998826,58462.364,58478.15999999875,58479.03,133410.862,,,
Instructions,html.Page,2_0,2021-04-24T12:43:34.463Z,,,,,,,,,,,,,,,,,,,,,,,,,,,,,,,18472.372999986605,,form submission,,,,,,,,,,,,,,,,,,,,,151883.48499999847,151883.2349999866,133394.196,133405.0350000034,133410.862,151894.253,,,
Holding screen,html.Screen,2_1_0_0,2021-04-24T12:43:44.458Z,,,,,,,,,,,,,,,,,,,,,,,,,,,,,,,9999.600000000006,,timeout,,,,,,,,,,,,,,,,,,,,,161878.54499998502,161877.187,151877.587,151883.67499999003,151894.253,161893.853,,,
screen,html.Screen,2_1_0_1_0,2021-04-24T12:43:45.669Z,,,,,,,,,,,,,,,,,53,,,,,,,,,,,,,,1191.1619999896502,,response,,,,99,,,,,,,Space,keypress(Space),,,,,,,,When -- ----- -- ------ - ------- --- ----------<br>------------- ------ ------ ---- ---- ------- ----- -- ----<br>-------- ------- -- ---------- --- - --- ----- ----- ----<br>---- --- --- ----- --- ---- ---- ------- ----- ---- -------<br>--- --- -- ----- -- --- ---- -- --- ---- -- ------ ------<br>--- ----- -- ----,163090.03500000108,163085.01499998965,161877.187,161878.74499999452,161893.853,163093.805,,0,When
screen,html.Screen,2_1_0_1_1,2021-04-24T12:43:46.485Z,,,,,,,,,,,,,,,,,53,,,,,,,,,,,,,,809.2049999799929,,response,,,,99,,,,,,,Space,keypress(Space),,,,,,,,---- it ----- -- ------ - ------- --- ----------<br>------------- ------ ------ ---- ---- ------- ----- -- ----<br>-------- ------- -- ---------- --- - --- ----- ----- ----<br>---- --- --- ----- --- ---- ---- ------- ----- ---- -------<br>--- --- -- ----- -- --- ---- -- --- ---- -- ------ ------<br>--- ----- -- ----,163906.17999999085,163903.00999998,163077.139,163090.23999999044,163093.805,163910.655,,1,it
screen,html.Screen,2_1_0_1_2,2021-04-24T12:43:47.179Z,,,,,,,,,,,,,,,,,53,,,,,,,,,,,,,,686.3399999998801,,response,,,,99,,,,,,,Space,keypress(Space),,,,,,,,---- -- comes -- ------ - ------- --- ----------<br>------------- ------ ------ ---- ---- ------- ----- -- ----<br>-------- ------- -- ---------- --- - --- ----- ----- ----<br>---- --- --- ----- --- ---- ---- ------- ----- ---- -------<br>--- --- -- ----- -- --- ---- -- --- ---- -- ------ ------<br>--- ----- -- ----,164600.08499998366,164596.99499999988,163893.989,163906.30499998224,163910.655,164610.627,,2,comes
screen,html.Screen,2_1_0_1_3,2021-04-24T12:43:47.898Z,,,,,,,,,,,,,,,,,53,,,,,,,,,,,,,,705.3379999870376,,response,,,,99,,,,,,,Space,keypress(Space),,,,,,,,---- -- ----- to ------ - ------- --- ----------<br>------------- ------ ------ ---- ---- ------- ----- -- ----<br>-------- ------- -- ---------- --- - --- ----- ----- ----<br>---- --- --- ----- --- ---- ---- ------- ----- ---- -------<br>--- --- -- ----- -- --- ---- -- --- ---- -- ------ ------<br>--- ----- -- ----,165319.00499999756,165315.96499998705,164593.961,164600.21000000415,164610.627,165327.265,,3,to
screen,html.Screen,2_1_0_1_4,2021-04-24T12:43:48.575Z,,,,,,,,,,,,,,,,,53,,,,,,,,,,,,,,665.5699999827193,,response,,,,99,,,,,,,Space,keypress(Space),,,,,,,,---- -- ----- -- having - ------- --- ----------<br>------------- ------ ------ ---- ---- ------- ----- -- ----<br>-------- ------- -- ---------- --- - --- ----- ----- ----<br>---- --- --- ----- --- ---- ---- ------- ----- ---- -------<br>--- --- -- ----- -- --- ---- -- --- ---- -- ------ ------<br>--- ----- -- ----,165996.0049999936,165992.83499998273,165310.599,165319.12499997998,165327.265,166010.571,,4,having
screen,html.Screen,2_1_0_1_5,2021-04-24T12:43:49.269Z,,,,,,,,,,,,,,,,,53,,,,,,,,,,,,,,676.3339999804739,,response,,,,99,,,,,,,Space,keypress(Space),,,,,,,,---- -- ----- -- ------ a ------- --- ----------<br>------------- ------ ------ ---- ---- ------- ----- -- ----<br>-------- ------- -- ---------- --- - --- ----- ----- ----<br>---- --- --- ----- --- ---- ---- ------- ----- ---- -------<br>--- --- -- ----- -- --- ---- -- --- ---- -- ------ ------<br>--- ----- -- ----,166689.72500000382,166686.90499998047,165993.905,165996.1599999806,166010.571,166693.877,,5,a
screen,html.Screen,2_1_0_1_6,2021-04-24T12:43:49.874Z,,,,,,,,,,,,,,,,,53,,,,,,,,,,,,,,597.977999988565,,response,,,,99,,,,,,,Space,keypress(Space),,,,,,,,---- -- ----- -- ------ - lasting --- ----------<br>------------- ------ ------ ---- ---- ------- ----- -- ----<br>-------- ------- -- ---------- --- - --- ----- ----- ----<br>---- --- --- ----- --- ---- ---- ------- ----- ---- -------<br>--- --- -- ----- -- --- ---- -- --- ---- -- ------ ------<br>--- ----- -- ----,167294.65499997605,167291.85499998857,166677.211,166689.84499998624,166693.877,167310.519,,6,lasting
screen,html.Screen,2_1_0_1_7,2021-04-24T12:43:50.469Z,,,,,,,,,,,,,,,,,53,,,,,,,,,,,,,,576.3709999943094,,response,,,,99,,,,,,,Space,keypress(Space),,,,,,,,---- -- ----- -- ------ - ------- and ----------<br>------------- ------ ------ ---- ---- ------- ----- -- ----<br>-------- ------- -- ---------- --- - --- ----- ----- ----<br>---- --- --- ----- --- ---- ---- ------- ----- ---- -------<br>--- --- -- ----- -- --- ---- -- --- ---- -- ------ ------<br>--- ----- -- ----,167889.88000000245,167886.8899999943,167293.853,167294.77999999654,167310.519,167893.829,,7,and
screen,html.Screen,2_1_0_1_8,2021-04-24T12:43:51.003Z,,,,,,,,,,,,,,,,,53,,,,,,,,,,,,,,527.1359999975248,,response,,,,99,,,,,,,Space,keypress(Space),,,,,,,,---- -- ----- -- ------ - ------- --- fulfilling<br>------------- ------ ------ ---- ---- ------- ----- -- ----<br>-------- ------- -- ---------- --- - --- ----- ----- ----<br>---- --- --- ----- --- ---- ---- ------- ----- ---- -------<br>--- --- -- ----- -- --- ---- -- --- ---- -- ------ ------<br>--- ----- -- ----,168423.84499998298,168420.96499999752,167877.163,167889.99999998487,167893.829,168427.141,,8,fulfilling
screen,html.Screen,2_1_0_1_9,2021-04-24T12:43:51.615Z,,,,,,,,,,,,,,,,,53,,,,,,,,,,,,,,605.7289999954519,,response,,,,99,,,,,,,Space,keypress(Space),,,,,,,,"---- -- ----- -- ------ - ------- --- ----------<br>relationship, ------ ------ ---- ---- ------- ----- -- ----<br>-------- ------- -- ---------- --- - --- ----- ----- ----<br>---- --- --- ----- --- ---- ---- ------- ----- ---- -------<br>--- --- -- ----- -- --- ---- -- --- ---- -- ------ ------<br>--- ----- -- ----",169035.7799999765,169032.86999999546,168410.475,168423.9649999945,168427.141,169043.783,,9,"relationship,"
screen,html.Screen,2_1_0_1_10,2021-04-24T12:43:52.433Z,,,,,,,,,,,,,,,,,53,,,,,,,,,,,,,,806.9419999966049,,response,,,,99,,,,,,,Space,keypress(Space),,,,,,,,---- -- ----- -- ------ - ------- --- ----------<br>------------- common ------ ---- ---- ------- ----- -- ----<br>-------- ------- -- ---------- --- - --- ----- ----- ----<br>---- --- --- ----- --- ---- ---- ------- ----- ---- -------<br>--- --- -- ----- -- --- ---- -- --- ---- -- ------ ------<br>--- ----- -- ----,169853.53999998188,169850.7249999966,169027.117,169035.89999998803,169043.783,169860.417,,10,common
screen,html.Screen,2_1_0_1_11,2021-04-24T12:43:53.023Z,,,,,,,,,,,,,,,,,53,,,,,,,,,,,,,,580.412999977736,,response,,,,99,,,,,,,Space,keypress(Space),,,,,,,,---- -- ----- -- ------ - ------- --- ----------<br>------------- ------ wisdom ---- ---- ------- ----- -- ----<br>-------- ------- -- ---------- --- - --- ----- ----- ----<br>---- --- --- ----- --- ---- ---- ------- ----- ---- -------<br>--- --- -- ----- -- --- ---- -- --- ---- -- ------ ------<br>--- ----- -- ----,170444.01999999536,170440.82999997772,169843.751,169853.66500000237,169860.417,170460.393,,11,wisdom
screen,html.Screen,2_1_0_1_12,2021-04-24T12:43:53.445Z,,,,,,,,,,,,,,,,,53,,,,,,,,,,,,,,402.4169999914302,,response,,,,99,,,,,,,Space,keypress(Space),,,,,,,,---- -- ----- -- ------ - ------- --- ----------<br>------------- ------ ------ says ---- ------- ----- -- ----<br>-------- ------- -- ---------- --- - --- ----- ----- ----<br>---- --- --- ----- --- ---- ---- ------- ----- ---- -------<br>--- --- -- ----- -- --- ---- -- --- ---- -- ------ ------<br>--- ----- -- ----,170865.95999999554,170862.80999999144,170443.727,170444.12999998895,170460.393,170877.043,,12,says
screen,html.Screen,2_1_0_1_13,2021-04-24T12:43:53.939Z,,,,,,,,,,,,,,,,,53,,,,,,,,,,,,,,479.75699997955235,,response,,,,99,,,,,,,Space,keypress(Space),,,,,,,,---- -- ----- -- ------ - ------- --- ----------<br>------------- ------ ------ ---- that ------- ----- -- ----<br>-------- ------- -- ---------- --- - --- ----- ----- ----<br>---- --- --- ----- --- ---- ---- ------- ----- ---- -------<br>--- --- -- ----- -- --- ---- -- --- ---- -- ------ ------<br>--- ----- -- ----,171359.88499998348,171356.79999997956,170860.377,170866.06999998912,170877.043,171360.357,,13,that
screen,html.Screen,2_1_0_1_14,2021-04-24T12:43:54.429Z,,,,,,,,,,,,,,,,,53,,,,,,,,,,,,,,486.4229999925883,,response,,,,99,,,,,,,Space,keypress(Space),,,,,,,,---- -- ----- -- ------ - ------- --- ----------<br>------------- ------ ------ ---- ---- feeling ----- -- ----<br>-------- ------- -- ---------- --- - --- ----- ----- ----<br>---- --- --- ----- --- ---- ---- ------- ----- ---- -------<br>--- --- -- ----- -- --- ---- -- --- ---- -- ------ ------<br>--- ----- -- ----,171849.8499999987,171846.77999999258,171343.691,171360.004999995,171360.357,171860.337,,14,feeling
screen,html.Screen,2_1_0_1_15,2021-04-24T12:43:55.084Z,,,,,,,,,,,,,,,,,53,,,,,,,,,,,,,,641.4279999936116,,response,,,,99,,,,,,,Space,keypress(Space),,,,,,,,---- -- ----- -- ------ - ------- --- ----------<br>------------- ------ ------ ---- ---- ------- close -- ----<br>-------- ------- -- ---------- --- - --- ----- ----- ----<br>---- --- --- ----- --- ---- ---- ------- ----- ---- -------<br>--- --- -- ----- -- --- ---- -- --- ---- -- ------ ------<br>--- ----- -- ----,172504.7949999862,172501.7649999936,171843.671,171849.99999997672,171860.337,172510.311,,15,close
screen,html.Screen,2_1_0_1_16,2021-04-24T12:43:55.663Z,,,,,,,,,,,,,,,,,53,,,,,,,,,,,,,,570.4389999937266,,response,,,,99,,,,,,,Space,keypress(Space),,,,,,,,---- -- ----- -- ------ - ------- --- ----------<br>------------- ------ ------ ---- ---- ------- ----- to ----<br>-------- ------- -- ---------- --- - --- ----- ----- ----<br>---- --- --- ----- --- ---- ---- ------- ----- ---- -------<br>--- --- -- ----- -- --- ---- -- --- ---- -- ------ ------<br>--- ----- -- ----,173084.13999999175,173080.7499999937,172493.645,172504.91999997757,172510.311,173093.621,,16,to
screen,html.Screen,2_1_0_1_17,2021-04-24T12:43:56.174Z,,,,,,,,,,,,,,,,,53,,,,,,,,,,,,,,497.083999980503,,response,,,,99,,,,,,,Space,keypress(Space),,,,,,,,---- -- ----- -- ------ - ------- --- ----------<br>------------- ------ ------ ---- ---- ------- ----- -- your<br>-------- ------- -- ---------- --- - --- ----- ----- ----<br>---- --- --- ----- --- ---- ---- ------- ----- ---- -------<br>--- --- -- ----- -- --- ---- -- --- ---- -- ------ ------<br>--- ----- -- ----,173594.42999999737,173590.70499998052,173076.955,173084.29499997874,173093.621,173610.511,,17,your
screen,html.Screen,2_1_0_1_18,2021-04-24T12:43:56.856Z,,,,,,,,,,,,,,,,,53,,,,,,,,,,,,,,663.198999979475,,response,,,,99,,,,,,,Space,keypress(Space),,,,,,,,---- -- ----- -- ------ - ------- --- ----------<br>------------- ------ ------ ---- ---- ------- ----- -- ----<br>romantic ------- -- ---------- --- - --- ----- ----- ----<br>---- --- --- ----- --- ---- ---- ------- ----- ---- -------<br>--- --- -- ----- -- --- ---- -- --- ---- -- ------ ------<br>--- ----- -- ----,174276.74000000115,174273.70999997947,173593.845,173594.5499999798,173610.511,174293.817,,18,romantic
screen,html.Screen,2_1_0_1_19,2021-04-24T12:43:57.403Z,,,,,,,,,,,,,,,,,53,,,,,,,,,,,,,,527.8129999912635,,response,,,,99,,,,,,,Space,keypress(Space),,,,,,,,---- -- ----- -- ------ - ------- --- ----------<br>------------- ------ ------ ---- ---- ------- ----- -- ----<br>-------- partner -- ---------- --- - --- ----- ----- ----<br>---- --- --- ----- --- ---- ---- ------- ----- ---- -------<br>--- --- -- ----- -- --- ---- -- --- ---- -- ------ ------<br>--- ----- -- ----,174824.00500000222,174821.62999999127,174277.151,174276.86499999254,174293.817,174827.129,,19,partner
screen,html.Screen,2_1_0_1_20,2021-04-24T12:43:58.071Z,,,,,,,,,,,,,,,,,53,,,,,,,,,,,,,,661.4609999935783,,response,,,,99,,,,,,,Space,keypress(Space),,,,,,,,---- -- ----- -- ------ - ------- --- ----------<br>------------- ------ ------ ---- ---- ------- ----- -- ----<br>-------- ------- is ---------- --- - --- ----- ----- ----<br>---- --- --- ----- --- ---- ---- ------- ----- ---- -------<br>--- --- -- ----- -- --- ---- -- --- ---- -- ------ ------<br>--- ----- -- ----,175491.6249999951,175488.58999999356,174810.463,174824.1299999936,174827.129,175493.769,,20,is
screen,html.Screen,2_1_0_1_21,2021-04-24T12:43:59.524Z,,,,,,,,,,,,,,,,,53,,,,,,,,,,,,,,1447.871000004554,,response,,,,99,,,,,,,Space,keypress(Space),,,,,,,,---- -- ----- -- ------ - ------- --- ----------<br>------------- ------ ------ ---- ---- ------- ----- -- ----<br>-------- ------- -- paramount. --- - --- ----- ----- ----<br>---- --- --- ----- --- ---- ---- ------- ----- ---- -------<br>--- --- -- ----- -- --- ---- -- --- ---- -- ------ ------<br>--- ----- -- ----,176944.71499999054,176941.64000000455,175477.103,175491.7499999865,175493.769,176960.377,,21,paramount.
screen,html.Screen,2_1_0_1_22,2021-04-24T12:44:00.124Z,,,,,,,,,,,,,,,,,53,,,,,,,,,,,,,,581.2430000035965,,response,,,,99,,,,,,,Space,keypress(Space),,,,,,,,---- -- ----- -- ------ - ------- --- ----------<br>------------- ------ ------ ---- ---- ------- ----- -- ----<br>-------- ------- -- ---------- But - --- ----- ----- ----<br>---- --- --- ----- --- ---- ---- ------- ----- ---- -------<br>--- --- -- ----- -- --- ---- -- --- ---- -- ------ ------<br>--- ----- -- ----,177544.80999999214,177541.6200000036,176943.711,176944.83500000206,176960.377,177560.353,,22,But
screen,html.Screen,2_1_0_1_23,2021-04-24T12:44:00.705Z,,,,,,,,,,,,,,,,,53,,,,,,,,,,,,,,562.2219999866793,,response,,,,99,,,,,,,Space,keypress(Space),,,,,,,,---- -- ----- -- ------ - ------- --- ----------<br>------------- ------ ------ ---- ---- ------- ----- -- ----<br>-------- ------- -- ---------- --- a --- ----- ----- ----<br>---- --- --- ----- --- ---- ---- ------- ----- ---- -------<br>--- --- -- ----- -- --- ---- -- --- ---- -- ------ ------<br>--- ----- -- ----,178125.92999998014,178122.57499998668,177543.687,177544.93499998352,177560.353,178126.997,,23,a
screen,html.Screen,2_1_0_1_24,2021-04-24T12:44:01.190Z,,,,,,,,,,,,,,,,,53,,,,,,,,,,,,,,480.59299999961513,,response,,,,99,,,,,,,Space,keypress(Space),,,,,,,,---- -- ----- -- ------ - ------- --- ----------<br>------------- ------ ------ ---- ---- ------- ----- -- ----<br>-------- ------- -- ---------- --- - new ----- ----- ----<br>---- --- --- ----- --- ---- ---- ------- ----- ---- -------<br>--- --- -- ----- -- --- ---- -- --- ---- -- ------ ------<br>--- ----- -- ----,178610.709999979,178607.58999999962,178110.331,178126.0599999805,178126.997,178626.977,,24,new
screen,html.Screen,2_1_0_1_25,2021-04-24T12:44:01.775Z,,,,,,,,,,,,,,,,,53,,,,,,,,,,,,,,565.5079999777372,,response,,,,99,,,,,,,Space,keypress(Space),,,,,,,,---- -- ----- -- ------ - ------- --- ----------<br>------------- ------ ------ ---- ---- ------- ----- -- ----<br>-------- ------- -- ---------- --- - --- study ----- ----<br>---- --- --- ----- --- ---- ---- ------- ----- ---- -------<br>--- --- -- ----- -- --- ---- -- --- ---- -- ------ ------<br>--- ----- -- ----,179195.62499999302,179192.48499997775,178610.311,178610.87000000407,178626.977,179210.287,,25,study
screen,html.Screen,2_1_0_1_26,2021-04-24T12:44:02.174Z,,,,,,,,,,,,,,,,,53,,,,,,,,,,,,,,381.277999980608,,response,,,,99,,,,,,,Space,keypress(Space),,,,,,,,---- -- ----- -- ------ - ------- --- ----------<br>------------- ------ ------ ---- ---- ------- ----- -- ----<br>-------- ------- -- ---------- --- - --- ----- finds ----<br>---- --- --- ----- --- ---- ---- ------- ----- ---- -------<br>--- --- -- ----- -- --- ---- -- --- ---- -- ------ ------<br>--- ----- -- ----,179594.67500000028,179591.56499998062,179193.621,179195.74500000454,179210.287,179610.271,,26,finds
screen,html.Screen,2_1_0_1_27,2021-04-24T12:44:02.797Z,,,,,,,,,,,,,,,,,53,,,,,,,,,,,,,,604.2189999839175,,response,,,,99,,,,,,,Space,keypress(Space),,,,,,,,---- -- ----- -- ------ - ------- --- ----------<br>------------- ------ ------ ---- ---- ------- ----- -- ----<br>-------- ------- -- ---------- --- - --- ----- ----- that<br>---- --- --- ----- --- ---- ---- ------- ----- ---- -------<br>--- --- -- ----- -- --- ---- -- --- ---- -- ------ ------<br>--- ----- -- ----,180217.3049999983,180214.48999998393,179593.605,179594.7949999827,179610.271,180226.913,,27,that
screen,html.Screen,2_1_0_1_28,2021-04-24T12:44:03.559Z,,,,,,,,,,,,,,,,,53,,,,,,,,,,,,,,749.5919999987236,,response,,,,99,,,,,,,Space,keypress(Space),,,,,,,,---- -- ----- -- ------ - ------- --- ----------<br>------------- ------ ------ ---- ---- ------- ----- -- ----<br>-------- ------- -- ---------- --- - --- ----- ----- ----<br>it's --- --- ----- --- ---- ---- ------- ----- ---- -------<br>--- --- -- ----- -- --- ---- -- --- ---- -- ------ ------<br>--- ----- -- ----,180979.61999999825,180976.50499999872,180210.247,180217.92500000447,180226.913,180993.549,,28,it's
screen,html.Screen,2_1_0_1_29,2021-04-24T12:44:03.989Z,,,,,,,,,,,,,,,,,53,,,,,,,,,,,,,,412.9759999985108,,response,,,,99,,,,,,,Space,keypress(Space),,,,,,,,---- -- ----- -- ------ - ------- --- ----------<br>------------- ------ ------ ---- ---- ------- ----- -- ----<br>-------- ------- -- ---------- --- - --- ----- ----- ----<br>---- not --- ----- --- ---- ---- ------- ----- ---- -------<br>--- --- -- ----- -- --- ---- -- --- ---- -- ------ ------<br>--- ----- -- ----,181409.61000000243,181406.5249999985,180976.883,180979.75499997847,180993.549,181426.865,,29,not
screen,html.Screen,2_1_0_1_30,2021-04-24T12:44:04.411Z,,,,,,,,,,,,,,,,,53,,,,,,,,,,,,,,401.5349999985192,,response,,,,99,,,,,,,Space,keypress(Space),,,,,,,,---- -- ----- -- ------ - ------- --- ----------<br>------------- ------ ------ ---- ---- ------- ----- -- ----<br>-------- ------- -- ---------- --- - --- ----- ----- ----<br>---- --- how ----- --- ---- ---- ------- ----- ---- -------<br>--- --- -- ----- -- --- ---- -- --- ---- -- ------ ------<br>--- ----- -- ----,181831.48500000243,181828.3999999985,181410.199,181410.6299999985,181426.865,181843.515,,30,how
screen,html.Screen,2_1_0_1_31,2021-04-24T12:44:04.842Z,,,,,,,,,,,,,,,,,53,,,,,,,,,,,,,,416.1999999928521,,response,,,,99,,,,,,,Space,keypress(Space),,,,,,,,---- -- ----- -- ------ - ------- --- ----------<br>------------- ------ ------ ---- ---- ------- ----- -- ----<br>-------- ------- -- ---------- --- - --- ----- ----- ----<br>---- --- --- close --- ---- ---- ------- ----- ---- -------<br>--- --- -- ----- -- --- ---- -- --- ---- -- ------ ------<br>--- ----- -- ----,182262.55499999388,182259.71499999287,181826.849,181831.6449999984,181843.515,182276.831,,31,close
screen,html.Screen,2_1_0_1_32,2021-04-24T12:44:05.123Z,,,,,,,,,,,,,,,,,53,,,,,,,,,,,,,,263.60899998247623,,response,,,,99,,,,,,,Space,keypress(Space),,,,,,,,---- -- ----- -- ------ - ------- --- ----------<br>------------- ------ ------ ---- ---- ------- ----- -- ----<br>-------- ------- -- ---------- --- - --- ----- ----- ----<br>---- --- --- ----- you ---- ---- ------- ----- ---- -------<br>--- --- -- ----- -- --- ---- -- --- ---- -- ------ ------<br>--- ----- -- ----,182543.47000000416,182540.43999998248,182260.165,182262.66999999643,182276.831,182560.153,,32,you
screen,html.Screen,2_1_0_1_33,2021-04-24T12:44:05.710Z,,,,,,,,,,,,,,,,,53,,,,,,,,,,,,,,567.3419999933685,,response,,,,99,,,,,,,Space,keypress(Space),,,,,,,,---- -- ----- -- ------ - ------- --- ----------<br>------------- ------ ------ ---- ---- ------- ----- -- ----<br>-------- ------- -- ---------- --- - --- ----- ----- ----<br>---- --- --- ----- --- feel ---- ------- ----- ---- -------<br>--- --- -- ----- -- --- ---- -- --- ---- -- ------ ------<br>--- ----- -- ----,183130.87500000256,183127.49499999336,182543.487,182543.58999998658,182560.153,183143.463,,33,feel
screen,html.Screen,2_1_0_1_34,2021-04-24T12:44:06.301Z,,,,,,,,,,,,,,,,,53,,,,,,,,,,,,,,574.9819999767933,,response,,,,99,,,,,,,Space,keypress(Space),,,,,,,,---- -- ----- -- ------ - ------- --- ----------<br>------------- ------ ------ ---- ---- ------- ----- -- ----<br>-------- ------- -- ---------- --- - --- ----- ----- ----<br>---- --- --- ----- --- ---- that ------- ----- ---- -------<br>--- --- -- ----- -- --- ---- -- --- ---- -- ------ ------<br>--- ----- -- ----,183722.06000000006,183718.44499997678,183126.797,183131.01499999175,183143.463,183726.968,,34,that
screen,html.Screen,2_1_0_1_35,2021-04-24T12:44:06.819Z,,,,,,,,,,,,,,,,,53,,,,,,,,,,,,,,509.47199997876305,,response,,,,99,,,,,,,Space,keypress(Space),,,,,,,,---- -- ----- -- ------ - ------- --- ----------<br>------------- ------ ------ ---- ---- ------- ----- -- ----<br>-------- ------- -- ---------- --- - --- ----- ----- ----<br>---- --- --- ----- --- ---- ---- matters ----- ---- -------<br>--- --- -- ----- -- --- ---- -- --- ---- -- ------ ------<br>--- ----- -- ----,184239.70999999437,184236.43999997876,183710.302,183722.17999998247,183726.968,184243.614,,35,matters
screen,html.Screen,2_1_0_1_36,2021-04-24T12:44:07.343Z,,,,,,,,,,,,,,,,,53,,,,,,,,,,,,,,516.8809999949881,,response,,,,99,,,,,,,Space,keypress(Space),,,,,,,,"---- -- ----- -- ------ - ------- --- ----------<br>------------- ------ ------ ---- ---- ------- ----- -- ----<br>-------- ------- -- ---------- --- - --- ----- ----- ----<br>---- --- --- ----- --- ---- ---- ------- most, ---- -------<br>--- --- -- ----- -- --- ---- -- --- ---- -- ------ ------<br>--- ----- -- ----",184763.69999998133,184760.494999995,184226.948,184239.8299999768,184243.614,184776.926,,36,"most,"
screen,html.Screen,2_1_0_1_37,2021-04-24T12:44:08.060Z,,,,,,,,,,,,,,,,,53,,,,,,,,,,,,,,700.4939999810595,,response,,,,99,,,,,,,Space,keypress(Space),,,,,,,,---- -- ----- -- ------ - ------- --- ----------<br>------------- ------ ------ ---- ---- ------- ----- -- ----<br>-------- ------- -- ---------- --- - --- ----- ----- ----<br>---- --- --- ----- --- ---- ---- ------- ----- it's -------<br>--- --- -- ----- -- --- ---- -- --- ---- -- ------ ------<br>--- ----- -- ----,185480.4099999892,185477.41999998107,184760.26,184763.84499997948,184776.926,185493.564,,37,it's
screen,html.Screen,2_1_0_1_38,2021-04-24T12:44:08.513Z,,,,,,,,,,,,,,,,,53,,,,,,,,,,,,,,436.88599998527206,,response,,,,99,,,,,,,Space,keypress(Space),,,,,,,,---- -- ----- -- ------ - ------- --- ----------<br>------------- ------ ------ ---- ---- ------- ----- -- ----<br>-------- ------- -- ---------- --- - --- ----- ----- ----<br>---- --- --- ----- --- ---- ---- ------- ----- ---- whether<br>--- --- -- ----- -- --- ---- -- --- ---- -- ------ ------<br>--- ----- -- ----,185933.27999999747,185930.44999998529,185476.898,185480.53000000073,185493.564,185943.546,,38,whether
screen,html.Screen,2_1_0_1_39,2021-04-24T12:44:08.887Z,,,,,,,,,,,,,,,,,53,,,,,,,,,,,,,,360.8139999800769,,response,,,,99,,,,,,,Space,keypress(Space),,,,,,,,---- -- ----- -- ------ - ------- --- ----------<br>------------- ------ ------ ---- ---- ------- ----- -- ----<br>-------- ------- -- ---------- --- - --- ----- ----- ----<br>---- --- --- ----- --- ---- ---- ------- ----- ---- -------<br>you --- -- ----- -- --- ---- -- --- ---- -- ------ ------<br>--- ----- -- ----,186307.49499998637,186304.35999998008,185926.88,185933.39500000002,185943.546,186310.198,,39,you
screen,html.Screen,2_1_0_1_40,2021-04-24T12:44:09.225Z,,,,,,,,,,,,,,,,,53,,,,,,,,,,,,,,332.1669999778678,,response,,,,99,,,,,,,Space,keypress(Space),,,,,,,,---- -- ----- -- ------ - ------- --- ----------<br>------------- ------ ------ ---- ---- ------- ----- -- ----<br>-------- ------- -- ---------- --- - --- ----- ----- ----<br>---- --- --- ----- --- ---- ---- ------- ----- ---- -------<br>--- are -- ----- -- --- ---- -- --- ---- -- ------ ------<br>--- ----- -- ----,186645.45999999973,186642.36499997787,186293.532,186307.65499998233,186310.198,186660.184,,40,are
screen,html.Screen,2_1_0_1_41,2021-04-24T12:44:09.563Z,,,,,,,,,,,,,,,,,53,,,,,,,,,,,,,,320.1659999979893,,response,,,,99,,,,,,,Space,keypress(Space),,,,,,,,---- -- ----- -- ------ - ------- --- ----------<br>------------- ------ ------ ---- ---- ------- ----- -- ----<br>-------- ------- -- ---------- --- - --- ----- ----- ----<br>---- --- --- ----- --- ---- ---- ------- ----- ---- -------<br>--- --- as ----- -- --- ---- -- --- ---- -- ------ ------<br>--- ----- -- ----,186983.5599999933,186980.349999998,186643.518,186645.58499999112,186660.184,186993.504,,41,as
screen,html.Screen,2_1_0_1_42,2021-04-24T12:44:10.054Z,,,,,,,,,,,,,,,,,53,,,,,,,,,,,,,,477.8159999823838,,response,,,,99,,,,,,,Space,keypress(Space),,,,,,,,---- -- ----- -- ------ - ------- --- ----------<br>------------- ------ ------ ---- ---- ------- ----- -- ----<br>-------- ------- -- ---------- --- - --- ----- ----- ----<br>---- --- --- ----- --- ---- ---- ------- ----- ---- -------<br>--- --- -- close -- --- ---- -- --- ---- -- ------ ------<br>--- ----- -- ----,187474.42499999306,187471.31999998237,186976.838,186983.68999999366,186993.504,187476.818,,42,close
screen,html.Screen,2_1_0_1_43,2021-04-24T12:44:10.372Z,,,,,,,,,,,,,,,,,53,,,,,,,,,,,,,,312.3969999970577,,response,,,,99,,,,,,,Space,keypress(Space),,,,,,,,---- -- ----- -- ------ - ------- --- ----------<br>------------- ------ ------ ---- ---- ------- ----- -- ----<br>-------- ------- -- ---------- --- - --- ----- ----- ----<br>---- --- --- ----- --- ---- ---- ------- ----- ---- -------<br>--- --- -- ----- as --- ---- -- --- ---- -- ------ ------<br>--- ----- -- ----,187792.66999999527,187789.21499999706,187460.152,187474.5399999956,187476.818,187793.472,,43,as
screen,html.Screen,2_1_0_1_44,2021-04-24T12:44:10.646Z,,,,,,,,,,,,,,,,,53,,,,,,,,,,,,,,269.8379999977187,,response,,,,99,,,,,,,Space,keypress(Space),,,,,,,,---- -- ----- -- ------ - ------- --- ----------<br>------------- ------ ------ ---- ---- ------- ----- -- ----<br>-------- ------- -- ---------- --- - --- ----- ----- ----<br>---- --- --- ----- --- ---- ---- ------- ----- ---- -------<br>--- --- -- ----- -- you ---- -- --- ---- -- ------ ------<br>--- ----- -- ----,188066.4799999795,188063.30999999773,187776.806,187792.80999998446,187793.472,188076.794,,44,you
screen,html.Screen,2_1_0_1_45,2021-04-24T12:44:11.014Z,,,,,,,,,,,,,,,,,53,,,,,,,,,,,,,,354.6159999901429,,response,,,,99,,,,,,,Space,keypress(Space),,,,,,,,---- -- ----- -- ------ - ------- --- ----------<br>------------- ------ ------ ---- ---- ------- ----- -- ----<br>-------- ------- -- ---------- --- - --- ----- ----- ----<br>---- --- --- ----- --- ---- ---- ------- ----- ---- -------<br>--- --- -- ----- -- --- want -- --- ---- -- ------ ------<br>--- ----- -- ----,188434.25999998,188431.40999999014,188060.128,188066.59499998204,188076.794,188443.446,,45,want
screen,html.Screen,2_1_0_1_46,2021-04-24T12:44:11.778Z,,,,,,,,,,,,,,,,,53,,,,,,,,,,,,,,751.8289999763947,,response,,,,99,,,,,,,Space,keypress(Space),,,,,,,,---- -- ----- -- ------ - ------- --- ----------<br>------------- ------ ------ ---- ---- ------- ----- -- ----<br>-------- ------- -- ---------- --- - --- ----- ----- ----<br>---- --- --- ----- --- ---- ---- ------- ----- ---- -------<br>--- --- -- ----- -- --- ---- to --- ---- -- ------ ------<br>--- ----- -- ----,189198.3599999803,189195.2749999764,188426.78,188434.3799999915,188443.446,189210.082,,46,to
screen,html.Screen,2_1_0_1_47,2021-04-24T12:44:12.455Z,,,,,,,,,,,,,,,,,53,,,,,,,,,,,,,,662.1780000037397,,response,,,,99,,,,,,,Space,keypress(Space),,,,,,,,"---- -- ----- -- ------ - ------- --- ----------<br>------------- ------ ------ ---- ---- ------- ----- -- ----<br>-------- ------- -- ---------- --- - --- ----- ----- ----<br>---- --- --- ----- --- ---- ---- ------- ----- ---- -------<br>--- --- -- ----- -- --- ---- -- be, ---- -- ------ ------<br>--- ----- -- ----",189875.31999999192,189872.26000000373,189193.416,189198.470000003,189210.082,189876.722,,47,"be,"
screen,html.Screen,2_1_0_1_48,2021-04-24T12:44:13.092Z,,,,,,,,,,,,,,,,,53,,,,,,,,,,,,,,632.5179999848478,,response,,,,99,,,,,,,Space,keypress(Space),,,,,,,,---- -- ----- -- ------ - ------- --- ----------<br>------------- ------ ------ ---- ---- ------- ----- -- ----<br>-------- ------- -- ---------- --- - --- ----- ----- ----<br>---- --- --- ----- --- ---- ---- ------- ----- ---- -------<br>--- --- -- ----- -- --- ---- -- --- even -- ------ ------<br>--- ----- -- ----,190512.25499997963,190509.23999998486,189860.056,189875.4299999855,189876.722,190526.696,,48,even
screen,html.Screen,2_1_0_1_49,2021-04-24T12:44:13.512Z,,,,,,,,,,,,,,,,,53,,,,,,,,,,,,,,402.528999999864,,response,,,,99,,,,,,,Space,keypress(Space),,,,,,,,---- -- ----- -- ------ - ------- --- ----------<br>------------- ------ ------ ---- ---- ------- ----- -- ----<br>-------- ------- -- ---------- --- - --- ----- ----- ----<br>---- --- --- ----- --- ---- ---- ------- ----- ---- -------<br>--- --- -- ----- -- --- ---- -- --- ---- if ------ ------<br>--- ----- -- ----,190932.55999998655,190929.22499999986,190510.03,190512.36999998218,190526.696,190943.346,,49,if
screen,html.Screen,2_1_0_1_50,2021-04-24T12:44:13.932Z,,,,,,,,,,,,,,,,,53,,,,,,,,,,,,,,405.86899999473826,,response,,,,99,,,,,,,Space,keypress(Space),,,,,,,,---- -- ----- -- ------ - ------- --- ----------<br>------------- ------ ------ ---- ---- ------- ----- -- ----<br>-------- ------- -- ---------- --- - --- ----- ----- ----<br>---- --- --- ----- --- ---- ---- ------- ----- ---- -------<br>--- --- -- ----- -- --- ---- -- --- ---- -- that's ------<br>--- ----- -- ----,191352.2299999895,191349.21499999473,190926.68,190932.70000000484,190943.346,191359.996,,50,that's
screen,html.Screen,2_1_0_1_51,2021-04-24T12:44:14.329Z,,,,,,,,,,,,,,,,,53,,,,,,,,,,,,,,386.20900000308757,,response,,,,99,,,,,,,Space,keypress(Space),,,,,,,,---- -- ----- -- ------ - ------- --- ----------<br>------------- ------ ------ ---- ---- ------- ----- -- ----<br>-------- ------- -- ---------- --- - --- ----- ----- ----<br>---- --- --- ----- --- ---- ---- ------- ----- ---- -------<br>--- --- -- ----- -- --- ---- -- --- ---- -- ------ really<br>--- ----- -- ----,191749.27000000025,191746.2050000031,191343.33,191352.34499999206,191359.996,191759.98,,51,really
screen,html.Screen,2_1_0_1_52,2021-04-24T12:44:14.718Z,,,,,,,,,,,,,,,,,53,,,,,,,,,,,,,,375.3049999966461,,response,,,,99,,,,,,,Space,keypress(Space),,,,,,,,---- -- ----- -- ------ - ------- --- ----------<br>------------- ------ ------ ---- ---- ------- ----- -- ----<br>-------- ------- -- ---------- --- - --- ----- ----- ----<br>---- --- --- ----- --- ---- ---- ------- ----- ---- -------<br>--- --- -- ----- -- --- ---- -- --- ---- -- ------ ------<br>not ----- -- ----,192138.42000000295,192135.28499999666,191743.314,191749.40499998047,191759.98,192143.298,,52,not
screen,html.Screen,2_1_0_1_53,2021-04-24T12:44:15.113Z,,,,,,,,,,,,,,,,,53,,,,,,,,,,,,,,386.88200000155484,,response,,,,99,,,,,,,Space,keypress(Space),,,,,,,,---- -- ----- -- ------ - ------- --- ----------<br>------------- ------ ------ ---- ---- ------- ----- -- ----<br>-------- ------- -- ---------- --- - --- ----- ----- ----<br>---- --- --- ----- --- ---- ---- ------- ----- ---- -------<br>--- --- -- ----- -- --- ---- -- --- ---- -- ------ ------<br>--- close -- ----,192533.26999998535,192530.18000000156,192126.632,192138.52999999654,192143.298,192543.282,,53,close
screen,html.Screen,2_1_0_1_54,2021-04-24T12:44:15.562Z,,,,,,,,,,,,,,,,,53,,,,,,,,,,,,,,435.77300000342075,,response,,,,99,,,,,,,Space,keypress(Space),,,,,,,,---- -- ----- -- ------ - ------- --- ----------<br>------------- ------ ------ ---- ---- ------- ----- -- ----<br>-------- ------- -- ---------- --- - --- ----- ----- ----<br>---- --- --- ----- --- ---- ---- ------- ----- ---- -------<br>--- --- -- ----- -- --- ---- -- --- ---- -- ------ ------<br>--- ----- at ----,192982.1299999894,192979.05500000343,192526.616,192533.40499999467,192543.282,192993.264,,54,at
screen,html.Screen,2_1_0_1_55,2021-04-24T12:44:16.161Z,,,,,,,,,,,,,,,,,53,,,,,,,,,,,,,,585.1860000008892,,response,,,,99,,,,,,,Space,keypress(Space),,,,,,,,---- -- ----- -- ------ - ------- --- ----------<br>------------- ------ ------ ---- ---- ------- ----- -- ----<br>-------- ------- -- ---------- --- - --- ----- ----- ----<br>---- --- --- ----- --- ---- ---- ------- ----- ---- -------<br>--- --- -- ----- -- --- ---- -- --- ---- -- ------ ------<br>--- ----- -- all.,193581.60499998485,193578.45000000088,192976.598,192982.24499999196,192993.264,193593.24,,55,all.
Item 99,flow.Loop,2_1_0_1,2021-04-24T12:44:16.161Z,,,,,,,,,,,,,,,,,,,,,,,,,,,,,,,31684.597000000882,,completion,,,,,A,,,,,,,,,,,silence,,,,,193581.82500000112,193578.45000000088,161877.187,161878.68999998318,161893.853,193593.24,,,
Question 1,html.Screen,2_1_0_2,2021-04-24T12:44:21.116Z,,,,,,,,,,,,,,,,,,,,,,,,,,,,true,FALSE,,4940.194999990286,,response,,,,99,A,,,,,,FALSE,click #choice-2,,,,silence,,,,,198536.2599999935,198533.43499999028,193576.574,193581.92999998573,193593.24,198543.267,,,
Question 2,html.Screen,2_1_0_3,2021-04-24T12:44:26.005Z,,,,,,,,,,,,,,,,,,,,,,,,,,,,true,TRUE,,4880.517999991775,,response,,,,99,A,,,,,,TRUE,click #choice-1,,,,silence,,,,,203425.83500000183,203423.78499999177,198526.601,198536.43499998725,198543.267,203426.523,,,
Item 99,flow.Sequence,2_1_0,2021-04-24T12:44:26.006Z,,,,,,,,,,,,,,,,,,,,,,,,,,,,,,,51529.53199999177,,completion,,,,,,,,,,,,,,,,,,,,,203426.0099999956,203423.78499999177,151877.587,151883.64499999443,151894.253,203426.523,,,
Holding screen,html.Screen,2_1_1_0,2021-04-24T12:44:35.991Z,,,,,,,,,,,,,,,,,,,,,,,,,,,,,,,9999.600000000006,,timeout,,,,,,,,,,,,,,,,,,,,,213411.0899999796,213409.457,203409.857,203426.13999999594,203426.523,213426.123,,,
screen,html.Screen,2_1_1_1_0,2021-04-24T12:44:37.010Z,,,,,,,,,,,,,,,,,54,,,,,,,,,,,,,,1000.2970000034256,,response,,,,100,,,,,,,Space,keypress(Space),,,,,,,,At --- ---- --- ------ ----- ------- ---- -- --- ------- --<br>------- ---------- ------ -- ----- -- ----- -- ---- ------<br>--- ----- --- --- ------ -------- ----- --- ------ ----- --<br>----- ----- ---------- --- --- ------ ------ ---- -- ------<br>------- --- ------ ----- --- ---- ------- -- ---- --- --<br>------- ------,214430.3249999939,214426.42000000342,213409.457,213411.3499999803,213426.123,214442.749,,0,At
screen,html.Screen,2_1_1_1_1,2021-04-24T12:44:37.561Z,,,,,,,,,,,,,,,,,54,,,,,,,,,,,,,,535.4859999877517,,response,,,,100,,,,,,,Space,keypress(Space),,,,,,,,-- the ---- --- ------ ----- ------- ---- -- --- ------- --<br>------- ---------- ------ -- ----- -- ----- -- ---- ------<br>--- ----- --- --- ------ -------- ----- --- ------ ----- --<br>----- ----- ---------- --- --- ------ ------ ---- -- ------<br>------- --- ------ ----- --- ---- ------- -- ---- --- --<br>------- ------,214980.92999999062,214978.23499998776,214426.083,214430.46999999206,214442.749,214992.949,,1,the
screen,html.Screen,2_1_1_1_2,2021-04-24T12:44:38.038Z,,,,,,,,,,,,,,,,,54,,,,,,,,,,,,,,462.6110000021581,,response,,,,100,,,,,,,Space,keypress(Space),,,,,,,,-- --- time --- ------ ----- ------- ---- -- --- ------- --<br>------- ---------- ------ -- ----- -- ----- -- ---- ------<br>--- ----- --- --- ------ -------- ----- --- ------ ----- --<br>----- ----- ---------- --- --- ------ ------ ---- -- ------<br>------- --- ------ ----- --- ---- ------- -- ---- --- --<br>------- ------,215458.20500000264,215455.56000000215,214976.283,214981.0399999842,214992.949,215459.597,,2,time
screen,html.Screen,2_1_1_1_3,2021-04-24T12:44:38.419Z,,,,,,,,,,,,,,,,,54,,,,,,,,,,,,,,376.67299999977695,,response,,,,100,,,,,,,Space,keypress(Space),,,,,,,,-- --- ---- the ------ ----- ------- ---- -- --- ------- --<br>------- ---------- ------ -- ----- -- ----- -- ---- ------<br>--- ----- --- --- ------ -------- ----- --- ------ ----- --<br>----- ----- ---------- --- --- ------ ------ ---- -- ------<br>------- --- ------ ----- --- ---- ------- -- ---- --- --<br>------- ------,215839.14499997627,215836.2699999998,215442.931,215458.31499999622,215459.597,215842.915,,3,the
screen,html.Screen,2_1_1_1_4,2021-04-24T12:44:38.780Z,,,,,,,,,,,,,,,,,54,,,,,,,,,,,,,,355.37500000026193,,response,,,,100,,,,,,,Space,keypress(Space),,,,,,,,-- --- ---- --- French ----- ------- ---- -- --- ------- --<br>------- ---------- ------ -- ----- -- ----- -- ---- ------<br>--- ----- --- --- ------ -------- ----- --- ------ ----- --<br>----- ----- ---------- --- --- ------ ------ ---- -- ------<br>------- --- ------ ----- --- ---- ------- -- ---- --- --<br>------- ------,216200.77999998466,216198.29000000027,215826.249,215839.25999997882,215842.915,216209.567,,4,French
screen,html.Screen,2_1_1_1_5,2021-04-24T12:44:39.344Z,,,,,,,,,,,,,,,,,54,,,,,,,,,,,,,,551.9029999976337,,response,,,,100,,,,,,,Space,keypress(Space),,,,,,,,-- --- ---- --- ------ crown ------- ---- -- --- ------- --<br>------- ---------- ------ -- ----- -- ----- -- ---- ------<br>--- ----- --- --- ------ -------- ----- --- ------ ----- --<br>----- ----- ---------- --- --- ------ ------ ---- -- ------<br>------- --- ------ ----- --- ---- ------- -- ---- --- --<br>------- ------,216764.55999998143,216761.46999999764,216192.901,216200.8799999894,216209.567,216776.211,,5,crown
screen,html.Screen,2_1_1_1_6,2021-04-24T12:44:39.695Z,,,,,,,,,,,,,,,,,54,,,,,,,,,,,,,,336.2640000017127,,response,,,,100,,,,,,,Space,keypress(Space),,,,,,,,-- --- ---- --- ------ ----- secured ---- -- --- ------- --<br>------- ---------- ------ -- ----- -- ----- -- ---- ------<br>--- ----- --- --- ------ -------- ----- --- ------ ----- --<br>----- ----- ---------- --- --- ------ ------ ---- -- ------<br>------- --- ------ ----- --- ---- ------- -- ---- --- --<br>------- ------,217115.64000000362,217112.47500000172,216759.545,216764.67999999295,216776.211,217126.197,,6,secured
screen,html.Screen,2_1_1_1_7,2021-04-24T12:44:40.064Z,,,,,,,,,,,,,,,,,54,,,,,,,,,,,,,,356.2079999879352,,response,,,,100,,,,,,,Space,keypress(Space),,,,,,,,-- --- ---- --- ------ ----- ------- much -- --- ------- --<br>------- ---------- ------ -- ----- -- ----- -- ---- ------<br>--- ----- --- --- ------ -------- ----- --- ------ ----- --<br>----- ----- ---------- --- --- ------ ------ ---- -- ------<br>------- --- ------ ----- --- ---- ------- -- ---- --- --<br>------- ------,217484.83999999007,217482.40499998792,217109.531,217115.7499999972,217126.197,217492.849,,7,much
screen,html.Screen,2_1_1_1_8,2021-04-24T12:44:40.400Z,,,,,,,,,,,,,,,,,54,,,,,,,,,,,,,,324.3009999880451,,response,,,,100,,,,,,,Space,keypress(Space),,,,,,,,-- --- ---- --- ------ ----- ------- ---- of --- ------- --<br>------- ---------- ------ -- ----- -- ----- -- ---- ------<br>--- ----- --- --- ------ -------- ----- --- ------ ----- --<br>----- ----- ---------- --- --- ------ ------ ---- -- ------<br>------- --- ------ ----- --- ---- ------- -- ---- --- --<br>------- ------,217820.48500000383,217817.14999998803,217476.183,217484.9600000016,217492.849,217826.169,,8,of
screen,html.Screen,2_1_1_1_9,2021-04-24T12:44:40.772Z,,,,,,,,,,,,,,,,,54,,,,,,,,,,,,,,363.2659999784082,,response,,,,100,,,,,,,Space,keypress(Space),,,,,,,,-- --- ---- --- ------ ----- ------- ---- -- its ------- --<br>------- ---------- ------ -- ----- -- ----- -- ---- ------<br>--- ----- --- --- ------ -------- ----- --- ------ ----- --<br>----- ----- ---------- --- --- ------ ------ ---- -- ------<br>------- --- ------ ----- --- ---- ------- -- ---- --- --<br>------- ------,218192.47499998892,218189.4349999784,217809.503,217820.63000000198,217826.169,218209.487,,9,its
screen,html.Screen,2_1_1_1_10,2021-04-24T12:44:41.207Z,,,,,,,,,,,,,,,,,54,,,,,,,,,,,,,,414.6329999931331,,response,,,,100,,,,,,,Space,keypress(Space),,,,,,,,-- --- ---- --- ------ ----- ------- ---- -- --- revenue --<br>------- ---------- ------ -- ----- -- ----- -- ---- ------<br>--- ----- --- --- ------ -------- ----- --- ------ ----- --<br>----- ----- ---------- --- --- ------ ------ ---- -- ------<br>------- --- ------ ----- --- ---- ------- -- ---- --- --<br>------- ------,218627.09500000346,218624.11999999313,218192.821,218192.58999999147,218209.487,218642.803,,10,revenue
screen,html.Screen,2_1_1_1_11,2021-04-24T12:44:41.831Z,,,,,,,,,,,,,,,,,54,,,,,,,,,,,,,,605.616999988968,,response,,,,100,,,,,,,Space,keypress(Space),,,,,,,,-- --- ---- --- ------ ----- ------- ---- -- --- ------- by<br>------- ---------- ------ -- ----- -- ----- -- ---- ------<br>--- ----- --- --- ------ -------- ----- --- ------ ----- --<br>----- ----- ---------- --- --- ------ ------ ---- -- ------<br>------- --- ------ ----- --- ---- ------- -- ---- --- --<br>------- ------,219251.00499999826,219248.41999998898,218626.137,218627.20499999705,218642.803,219259.445,,11,by
screen,html.Screen,2_1_1_1_12,2021-04-24T12:44:42.528Z,,,,,,,,,,,,,,,,,54,,,,,,,,,,,,,,686.01999999705,,response,,,,100,,,,,,,Space,keypress(Space),,,,,,,,-- --- ---- --- ------ ----- ------- ---- -- --- ------- --<br>issuing ---------- ------ -- ----- -- ----- -- ---- ------<br>--- ----- --- --- ------ -------- ----- --- ------ ----- --<br>----- ----- ---------- --- --- ------ ------ ---- -- ------<br>------- --- ------ ----- --- ---- ------- -- ---- --- --<br>------- ------,219948.51999997627,219945.46499999706,219242.779,219251.11499999184,219259.445,219959.417,,12,issuing
screen,html.Screen,2_1_1_1_13,2021-04-24T12:44:43.073Z,,,,,,,,,,,,,,,,,54,,,,,,,,,,,,,,531.0229999941366,,response,,,,100,,,,,,,Space,keypress(Space),,,,,,,,-- --- ---- --- ------ ----- ------- ---- -- --- ------- --<br>------- government ------ -- ----- -- ----- -- ---- ------<br>--- ----- --- --- ------ -------- ----- --- ------ ----- --<br>----- ----- ---------- --- --- ------ ------ ---- -- ------<br>------- --- ------ ----- --- ---- ------- -- ---- --- --<br>------- ------,220493.49500000244,220490.43999999412,219942.751,219948.6399999878,219959.417,220509.395,,13,government
screen,html.Screen,2_1_1_1_14,2021-04-24T12:44:45.205Z,,,,,,,,,,,,,,,,,54,,,,,,,,,,,,,,2112.9249999949534,,response,,,,100,,,,,,,Space,keypress(Space),,,,,,,,-- --- ---- --- ------ ----- ------- ---- -- --- ------- --<br>------- ---------- bonds. -- ----- -- ----- -- ---- ------<br>--- ----- --- --- ------ -------- ----- --- ------ ----- --<br>----- ----- ---------- --- --- ------ ------ ---- -- ------<br>------- --- ------ ----- --- ---- ------- -- ---- --- --<br>------- ------,222625.46999999904,222622.31999999494,220492.729,220493.61499998486,220509.395,222625.977,,14,bonds.
screen,html.Screen,2_1_1_1_15,2021-04-24T12:44:45.745Z,,,,,,,,,,,,,,,,,54,,,,,,,,,,,,,,536.3529999919119,,response,,,,100,,,,,,,Space,keypress(Space),,,,,,,,-- --- ---- --- ------ ----- ------- ---- -- --- ------- --<br>------- ---------- ------ In ----- -- ----- -- ---- ------<br>--- ----- --- --- ------ -------- ----- --- ------ ----- --<br>----- ----- ---------- --- --- ------ ------ ---- -- ------<br>------- --- ------ ----- --- ---- ------- -- ---- --- --<br>------- ------,223165.634999983,223162.32999999193,222609.311,222625.57999999262,222625.977,223175.955,,15,In
screen,html.Screen,2_1_1_1_16,2021-04-24T12:44:46.015Z,,,,,,,,,,,,,,,,,54,,,,,,,,,,,,,,256.2299999833049,,response,,,,100,,,,,,,Space,keypress(Space),,,,,,,,"-- --- ---- --- ------ ----- ------- ---- -- --- ------- --<br>------- ---------- ------ -- 1727, -- ----- -- ---- ------<br>--- ----- --- --- ------ -------- ----- --- ------ ----- --<br>----- ----- ---------- --- --- ------ ------ ---- -- ------<br>------- --- ------ ----- --- ---- ------- -- ---- --- --<br>------- ------",223435.7500000042,223432.1849999833,223159.289,223165.77999998117,223175.955,223442.611,,16,"1727,"
screen,html.Screen,2_1_1_1_17,2021-04-24T12:44:47.223Z,,,,,,,,,,,,,,,,,54,,,,,,,,,,,,,,1197.6039999921632,,response,,,,100,,,,,,,Space,keypress(Space),,,,,,,,-- --- ---- --- ------ ----- ------- ---- -- --- ------- --<br>------- ---------- ------ -- ----- in ----- -- ---- ------<br>--- ----- --- --- ------ -------- ----- --- ------ ----- --<br>----- ----- ---------- --- --- ------ ------ ---- -- ------<br>------- --- ------ ----- --- ---- ------- -- ---- --- --<br>------- ------,224643.4500000032,224640.21499999217,223425.945,223435.89500000235,223442.611,224659.229,,17,in
screen,html.Screen,2_1_1_1_18,2021-04-24T12:44:47.682Z,,,,,,,,,,,,,,,,,54,,,,,,,,,,,,,,440.0409999769763,,response,,,,100,,,,,,,Space,keypress(Space),,,,,,,,-- --- ---- --- ------ ----- ------- ---- -- --- ------- --<br>------- ---------- ------ -- ----- -- order -- ---- ------<br>--- ----- --- --- ------ -------- ----- --- ------ ----- --<br>----- ----- ---------- --- --- ------ ------ ---- -- ------<br>------- --- ------ ----- --- ---- ------- -- ---- --- --<br>------- ------,225102.27000000305,225099.26999997697,224642.563,224643.56499997666,224659.229,225109.52,,18,order
screen,html.Screen,2_1_1_1_19,2021-04-24T12:44:48.153Z,,,,,,,,,,,,,,,,,54,,,,,,,,,,,,,,461.97499998196145,,response,,,,100,,,,,,,Space,keypress(Space),,,,,,,,-- --- ---- --- ------ ----- ------- ---- -- --- ------- --<br>------- ---------- ------ -- ----- -- ----- to ---- ------<br>--- ----- --- --- ------ -------- ----- --- ------ ----- --<br>----- ----- ---------- --- --- ------ ------ ---- -- ------<br>------- --- ------ ----- --- ---- ------- -- ---- --- --<br>------- ------,225573.73499998357,225571.49499998195,225092.854,225102.37999999663,225109.52,225576.168,,19,to
screen,html.Screen,2_1_1_1_20,2021-04-24T12:44:48.601Z,,,,,,,,,,,,,,,,,54,,,,,,,,,,,,,,441.99199997779215,,response,,,,100,,,,,,,Space,keypress(Space),,,,,,,,-- --- ---- --- ------ ----- ------- ---- -- --- ------- --<br>------- ---------- ------ -- ----- -- ----- -- save ------<br>--- ----- --- --- ------ -------- ----- --- ------ ----- --<br>----- ----- ---------- --- --- ------ ------ ---- -- ------<br>------- --- ------ ----- --- ---- ------- -- ---- --- --<br>------- ------,226020.82999999402,226018.1599999778,225559.502,225573.81999999052,225576.168,226026.15,,20,save
screen,html.Screen,2_1_1_1_21,2021-04-24T12:44:50.550Z,,,,,,,,,,,,,,,,,54,,,,,,,,,,,,,,1941.0049999911862,,response,,,,100,,,,,,,Space,keypress(Space),,,,,,,,"-- --- ---- --- ------ ----- ------- ---- -- --- ------- --<br>------- ---------- ------ -- ----- -- ----- -- ---- money,<br>--- ----- --- --- ------ -------- ----- --- ------ ----- --<br>----- ----- ---------- --- --- ------ ------ ---- -- ------<br>------- --- ------ ----- --- ---- ------- -- ---- --- --<br>------- ------",227970.39000000223,227967.15499999118,226009.484,226020.94499999657,226026.15,227976.072,,21,"money,"
screen,html.Screen,2_1_1_1_22,2021-04-24T12:44:51.003Z,,,,,,,,,,,,,,,,,54,,,,,,,,,,,,,,444.0729999818723,,response,,,,100,,,,,,,Space,keypress(Space),,,,,,,,-- --- ---- --- ------ ----- ------- ---- -- --- ------- --<br>------- ---------- ------ -- ----- -- ----- -- ---- ------<br>the ----- --- --- ------ -------- ----- --- ------ ----- --<br>----- ----- ---------- --- --- ------ ------ ---- -- ------<br>------- --- ------ ----- --- ---- ------- -- ---- --- --<br>------- ------,228423.1649999856,228420.14499998186,227959.406,227970.50500000478,227976.072,228426.054,,22,the
screen,html.Screen,2_1_1_1_23,2021-04-24T12:44:52.062Z,,,,,,,,,,,,,,,,,54,,,,,,,,,,,,,,1053.0359999788925,,response,,,,100,,,,,,,Space,keypress(Space),,,,,,,,-- --- ---- --- ------ ----- ------- ---- -- --- ------- --<br>------- ---------- ------ -- ----- -- ----- -- ---- ------<br>--- state --- --- ------ -------- ----- --- ------ ----- --<br>----- ----- ---------- --- --- ------ ------ ---- -- ------<br>------- --- ------ ----- --- ---- ------- -- ---- --- --<br>------- ------,229481.93499998888,229479.0899999789,228409.388,228423.27499997918,228426.054,229492.678,,23,state
screen,html.Screen,2_1_1_1_24,2021-04-24T12:44:52.456Z,,,,,,,,,,,,,,,,,54,,,,,,,,,,,,,,380.43199998588534,,response,,,,100,,,,,,,Space,keypress(Space),,,,,,,,-- --- ---- --- ------ ----- ------- ---- -- --- ------- --<br>------- ---------- ------ -- ----- -- ----- -- ---- ------<br>--- ----- cut --- ------ -------- ----- --- ------ ----- --<br>----- ----- ---------- --- --- ------ ------ ---- -- ------<br>------- --- ------ ----- --- ---- ------- -- ---- --- --<br>------- ------,229876.2149999966,229873.1099999859,229476.012,229482.0550000004,229492.678,229892.662,,24,cut
screen,html.Screen,2_1_1_1_25,2021-04-24T12:44:52.861Z,,,,,,,,,,,,,,,,,54,,,,,,,,,,,,,,385.42799997795373,,response,,,,100,,,,,,,Space,keypress(Space),,,,,,,,-- --- ---- --- ------ ----- ------- ---- -- --- ------- --<br>------- ---------- ------ -- ----- -- ----- -- ---- ------<br>--- ----- --- the ------ -------- ----- --- ------ ----- --<br>----- ----- ---------- --- --- ------ ------ ---- -- ------<br>------- --- ------ ----- --- ---- ------- -- ---- --- --<br>------- ------,230281.11499999068,230278.08999997796,229875.996,229876.32999999914,229892.662,230292.646,,25,the
screen,html.Screen,2_1_1_1_26,2021-04-24T12:44:54.074Z,,,,,,,,,,,,,,,,,54,,,,,,,,,,,,,,1198.4089999913122,,response,,,,100,,,,,,,Space,keypress(Space),,,,,,,,-- --- ---- --- ------ ----- ------- ---- -- --- ------- --<br>------- ---------- ------ -- ----- -- ----- -- ---- ------<br>--- ----- --- --- bonds' -------- ----- --- ------ ----- --<br>----- ----- ---------- --- --- ------ ------ ---- -- ------<br>------- --- ------ ----- --- ---- ------- -- ---- --- --<br>------- ------,231494.1450000042,231491.05499999132,230275.98,230281.22999999323,230292.646,231509.264,,26,bonds'
screen,html.Screen,2_1_1_1_27,2021-04-24T12:44:55.592Z,,,,,,,,,,,,,,,,,54,,,,,,,,,,,,,,1498.8409999862488,,response,,,,100,,,,,,,Space,keypress(Space),,,,,,,,-- --- ---- --- ------ ----- ------- ---- -- --- ------- --<br>------- ---------- ------ -- ----- -- ----- -- ---- ------<br>--- ----- --- --- ------ interest ----- --- ------ ----- --<br>----- ----- ---------- --- --- ------ ------ ---- -- ------<br>------- --- ------ ----- --- ---- ------- -- ---- --- --<br>------- ------,233011.8300000031,233008.10499998624,231492.598,231494.2549999978,231509.264,233025.87,,27,interest
screen,html.Screen,2_1_1_1_28,2021-04-24T12:44:57.252Z,,,,,,,,,,,,,,,,,54,,,,,,,,,,,,,,1643.0649999942398,,response,,,,100,,,,,,,Space,keypress(Space),,,,,,,,-- --- ---- --- ------ ----- ------- ---- -- --- ------- --<br>------- ---------- ------ -- ----- -- ----- -- ---- ------<br>--- ----- --- --- ------ -------- rate. --- ------ ----- --<br>----- ----- ---------- --- --- ------ ------ ---- -- ------<br>------- --- ------ ----- --- ---- ------- -- ---- --- --<br>------- ------,234672.26500000106,234668.93499999424,233009.204,233011.9699999923,233025.87,234675.804,,28,rate.
screen,html.Screen,2_1_1_1_29,2021-04-24T12:44:57.676Z,,,,,,,,,,,,,,,,,54,,,,,,,,,,,,,,417.99600000237115,,response,,,,100,,,,,,,Space,keypress(Space),,,,,,,,-- --- ---- --- ------ ----- ------- ---- -- --- ------- --<br>------- ---------- ------ -- ----- -- ----- -- ---- ------<br>--- ----- --- --- ------ -------- ----- The ------ ----- --<br>----- ----- ---------- --- --- ------ ------ ---- -- ------<br>------- --- ------ ----- --- ---- ------- -- ---- --- --<br>------- ------,235096.72000000137,235093.80000000237,234659.138,234672.3800000036,234675.804,235109.12,,29,The
screen,html.Screen,2_1_1_1_30,2021-04-24T12:44:57.945Z,,,,,,,,,,,,,,,,,54,,,,,,,,,,,,,,252.82000000250991,,response,,,,100,,,,,,,Space,keypress(Space),,,,,,,,-- --- ---- --- ------ ----- ------- ---- -- --- ------- --<br>------- ---------- ------ -- ----- -- ----- -- ---- ------<br>--- ----- --- --- ------ -------- ----- --- market ----- --<br>----- ----- ---------- --- --- ------ ------ ---- -- ------<br>------- --- ------ ----- --- ---- ------- -- ---- --- --<br>------- ------,235365.08499999763,235361.9400000025,235092.454,235096.83500000392,235109.12,235376.015,,30,market
screen,html.Screen,2_1_1_1_31,2021-04-24T12:44:58.373Z,,,,,,,,,,,,,,,,,54,,,,,,,,,,,,,,413.9149999989895,,response,,,,100,,,,,,,Space,keypress(Space),,,,,,,,-- --- ---- --- ------ ----- ------- ---- -- --- ------- --<br>------- ---------- ------ -- ----- -- ----- -- ---- ------<br>--- ----- --- --- ------ -------- ----- --- ------ value --<br>----- ----- ---------- --- --- ------ ------ ---- -- ------<br>------- --- ------ ----- --- ---- ------- -- ---- --- --<br>------- ------,235792.98499997822,235789.929999999,235359.349,235365.2000000002,235376.015,235809.331,,31,value
screen,html.Screen,2_1_1_1_32,2021-04-24T12:44:59.455Z,,,,,,,,,,,,,,,,,54,,,,,,,,,,,,,,1062.5739999781363,,response,,,,100,,,,,,,Space,keypress(Space),,,,,,,,-- --- ---- --- ------ ----- ------- ---- -- --- ------- --<br>------- ---------- ------ -- ----- -- ----- -- ---- ------<br>--- ----- --- --- ------ -------- ----- --- ------ ----- of<br>----- ----- ---------- --- --- ------ ------ ---- -- ------<br>------- --- ------ ----- --- ---- ------- -- ---- --- --<br>------- ------,236874.97999999323,236871.90499997814,235792.665,235793.09999998077,235809.331,236875.955,,32,of
screen,html.Screen,2_1_1_1_33,2021-04-24T12:45:00.009Z,,,,,,,,,,,,,,,,,54,,,,,,,,,,,,,,550.8299999887531,,response,,,,100,,,,,,,Space,keypress(Space),,,,,,,,-- --- ---- --- ------ ----- ------- ---- -- --- ------- --<br>------- ---------- ------ -- ----- -- ----- -- ---- ------<br>--- ----- --- --- ------ -------- ----- --- ------ ----- --<br>these ----- ---------- --- --- ------ ------ ---- -- ------<br>------- --- ------ ----- --- ---- ------- -- ---- --- --<br>------- ------,237429.68499998096,237426.78499998874,236859.289,236875.10000000475,236875.955,237442.599,,33,these
screen,html.Screen,2_1_1_1_34,2021-04-24T12:45:00.472Z,,,,,,,,,,,,,,,,,54,,,,,,,,,,,,,,447.30099998012884,,response,,,,100,,,,,,,Space,keypress(Space),,,,,,,,-- --- ---- --- ------ ----- ------- ---- -- --- ------- --<br>------- ---------- ------ -- ----- -- ----- -- ---- ------<br>--- ----- --- --- ------ -------- ----- --- ------ ----- --<br>----- bonds ---------- --- --- ------ ------ ---- -- ------<br>------- --- ------ ----- --- ---- ------- -- ---- --- --<br>------- ------,237892.7599999879,237889.89999998012,237425.933,237429.80499999248,237442.599,237909.247,,34,bonds
screen,html.Screen,2_1_1_1_35,2021-04-24T12:45:02.357Z,,,,,,,,,,,,,,,,,54,,,,,,,,,,,,,,1864.6829999957408,,response,,,,100,,,,,,,Space,keypress(Space),,,,,,,,"-- --- ---- --- ------ ----- ------- ---- -- --- ------- --<br>------- ---------- ------ -- ----- -- ----- -- ---- ------<br>--- ----- --- --- ------ -------- ----- --- ------ ----- --<br>----- ----- plummeted, --- --- ------ ------ ---- -- ------<br>------- --- ------ ----- --- ---- ------- -- ---- --- --<br>------- ------",239776.81499999017,239773.92999999574,237892.581,237892.90499998606,237909.247,239792.505,,35,"plummeted,"
screen,html.Screen,2_1_1_1_36,2021-04-24T12:45:02.687Z,,,,,,,,,,,,,,,,,54,,,,,,,,,,,,,,312.18999998725485,,response,,,,100,,,,,,,Space,keypress(Space),,,,,,,,-- --- ---- --- ------ ----- ------- ---- -- --- ------- --<br>------- ---------- ------ -- ----- -- ----- -- ---- ------<br>--- ----- --- --- ------ -------- ----- --- ------ ----- --<br>----- ----- ---------- and --- ------ ------ ---- -- ------<br>------- --- ------ ----- --- ---- ------- -- ---- --- --<br>------- ------,240107.74999999558,240104.69499998726,239775.839,239776.9350000017,239792.505,240109.159,,36,and
screen,html.Screen,2_1_1_1_37,2021-04-24T12:45:02.954Z,,,,,,,,,,,,,,,,,54,,,,,,,,,,,,,,261.6560000020254,,response,,,,100,,,,,,,Space,keypress(Space),,,,,,,,-- --- ---- --- ------ ----- ------- ---- -- --- ------- --<br>------- ---------- ------ -- ----- -- ----- -- ---- ------<br>--- ----- --- --- ------ -------- ----- --- ------ ----- --<br>----- ----- ---------- --- the ------ ------ ---- -- ------<br>------- --- ------ ----- --- ---- ------- -- ---- --- --<br>------- ------,240373.86999998125,240370.81500000204,240092.493,240107.86499999813,240109.159,240375.815,,37,the
screen,html.Screen,2_1_1_1_38,2021-04-24T12:45:03.206Z,,,,,,,,,,,,,,,,,54,,,,,,,,,,,,,,246.98499998281477,,response,,,,100,,,,,,,Space,keypress(Space),,,,,,,,-- --- ---- --- ------ ----- ------- ---- -- --- ------- --<br>------- ---------- ------ -- ----- -- ----- -- ---- ------<br>--- ----- --- --- ------ -------- ----- --- ------ ----- --<br>----- ----- ---------- --- --- market ------ ---- -- ------<br>------- --- ------ ----- --- ---- ------- -- ---- --- --<br>------- ------,240625.96499998472,240622.79999998282,240359.149,240373.98000000394,240375.815,240642.471,,38,market
screen,html.Screen,2_1_1_1_39,2021-04-24T12:45:03.977Z,,,,,,,,,,,,,,,,,54,,,,,,,,,,,,,,751.2839999973367,,response,,,,100,,,,,,,Space,keypress(Space),,,,,,,,-- --- ---- --- ------ ----- ------- ---- -- --- ------- --<br>------- ---------- ------ -- ----- -- ----- -- ---- ------<br>--- ----- --- --- ------ -------- ----- --- ------ ----- --<br>----- ----- ---------- --- --- ------ became ---- -- ------<br>------- --- ------ ----- --- ---- ------- -- ---- --- --<br>------- ------,241396.8799999857,241393.75499999733,240625.805,240626.07999998727,240642.471,241409.107,,39,became
screen,html.Screen,2_1_1_1_40,2021-04-24T12:45:04.473Z,,,,,,,,,,,,,,,,,54,,,,,,,,,,,,,,480.6579999999085,,response,,,,100,,,,,,,Space,keypress(Space),,,,,,,,-- --- ---- --- ------ ----- ------- ---- -- --- ------- --<br>------- ---------- ------ -- ----- -- ----- -- ---- ------<br>--- ----- --- --- ------ -------- ----- --- ------ ----- --<br>----- ----- ---------- --- --- ------ ------ wary -- ------<br>------- --- ------ ----- --- ---- ------- -- ---- --- --<br>------- ------,241892.74999999907,241889.7649999999,241392.441,241396.9999999972,241409.107,241909.087,,40,wary
screen,html.Screen,2_1_1_1_41,2021-04-24T12:45:04.953Z,,,,,,,,,,,,,,,,,54,,,,,,,,,,,,,,460.6580000036047,,response,,,,100,,,,,,,Space,keypress(Space),,,,,,,,-- --- ---- --- ------ ----- ------- ---- -- --- ------- --<br>------- ---------- ------ -- ----- -- ----- -- ---- ------<br>--- ----- --- --- ------ -------- ----- --- ------ ----- --<br>----- ----- ---------- --- --- ------ ------ ---- of ------<br>------- --- ------ ----- --- ---- ------- -- ---- --- --<br>------- ------,242372.78999999398,242369.7450000036,241892.421,241892.86500000162,241909.087,242375.735,,41,of
screen,html.Screen,2_1_1_1_42,2021-04-24T12:45:05.720Z,,,,,,,,,,,,,,,,,54,,,,,,,,,,,,,,760.9849999804283,,response,,,,100,,,,,,,Space,keypress(Space),,,,,,,,-- --- ---- --- ------ ----- ------- ---- -- --- ------- --<br>------- ---------- ------ -- ----- -- ----- -- ---- ------<br>--- ----- --- --- ------ -------- ----- --- ------ ----- --<br>----- ----- ---------- --- --- ------ ------ ---- -- French<br>------- --- ------ ----- --- ---- ------- -- ---- --- --<br>------- ------,243139.8249999911,243136.7199999804,242359.069,242372.89999998757,242375.735,243142.371,,42,French
screen,html.Screen,2_1_1_1_43,2021-04-24T12:45:07.452Z,,,,,,,,,,,,,,,,,54,,,,,,,,,,,,,,1726.2040000004054,,response,,,,100,,,,,,,Space,keypress(Space),,,,,,,,-- --- ---- --- ------ ----- ------- ---- -- --- ------- --<br>------- ---------- ------ -- ----- -- ----- -- ---- ------<br>--- ----- --- --- ------ -------- ----- --- ------ ----- --<br>----- ----- ---------- --- --- ------ ------ ---- -- ------<br>credit. --- ------ ----- --- ---- ------- -- ---- --- --<br>------- ------,244872.19999998342,244868.57500000042,243125.705,243139.9799999781,243142.371,244875.635,,43,credit.
screen,html.Screen,2_1_1_1_44,2021-04-24T12:45:07.798Z,,,,,,,,,,,,,,,,,54,,,,,,,,,,,,,,339.1349999913946,,response,,,,100,,,,,,,Space,keypress(Space),,,,,,,,-- --- ---- --- ------ ----- ------- ---- -- --- ------- --<br>------- ---------- ------ -- ----- -- ----- -- ---- ------<br>--- ----- --- --- ------ -------- ----- --- ------ ----- --<br>----- ----- ---------- --- --- ------ ------ ---- -- ------<br>------- The ------ ----- --- ---- ------- -- ---- --- --<br>------- ------,245217.91499998653,245214.7699999914,244858.969,244872.31999999494,244875.635,245225.621,,44,The
screen,html.Screen,2_1_1_1_45,2021-04-24T12:45:08.035Z,,,,,,,,,,,,,,,,,54,,,,,,,,,,,,,,225.8990000023332,,response,,,,100,,,,,,,Space,keypress(Space),,,,,,,,-- --- ---- --- ------ ----- ------- ---- -- --- ------- --<br>------- ---------- ------ -- ----- -- ----- -- ---- ------<br>--- ----- --- --- ------ -------- ----- --- ------ ----- --<br>----- ----- ---------- --- --- ------ ------ ---- -- ------<br>------- --- French ----- --- ---- ------- -- ---- --- --<br>------- ------,245454.75000000442,245451.52000000235,245208.955,245218.02999998908,245225.621,245459.177,,45,French
screen,html.Screen,2_1_1_1_46,2021-04-24T12:45:08.527Z,,,,,,,,,,,,,,,,,54,,,,,,,,,,,,,,485.4579999925627,,response,,,,100,,,,,,,Space,keypress(Space),,,,,,,,-- --- ---- --- ------ ----- ------- ---- -- --- ------- --<br>------- ---------- ------ -- ----- -- ----- -- ---- ------<br>--- ----- --- --- ------ -------- ----- --- ------ ----- --<br>----- ----- ---------- --- --- ------ ------ ---- -- ------<br>------- --- ------ state --- ---- ------- -- ---- --- --<br>------- ------,245947.60499999393,245944.63499999256,245442.511,245454.86999998684,245459.177,245959.157,,46,state
screen,html.Screen,2_1_1_1_47,2021-04-24T12:45:09.293Z,,,,,,,,,,,,,,,,,54,,,,,,,,,,,,,,751.4480000002077,,response,,,,100,,,,,,,Space,keypress(Space),,,,,,,,-- --- ---- --- ------ ----- ------- ---- -- --- ------- --<br>------- ---------- ------ -- ----- -- ----- -- ---- ------<br>--- ----- --- --- ------ -------- ----- --- ------ ----- --<br>----- ----- ---------- --- --- ------ ------ ---- -- ------<br>------- --- ------ ----- was ---- ------- -- ---- --- --<br>------- ------,246713.39999997872,246710.6050000002,245942.491,245947.72499997634,245959.157,246725.793,,47,was
screen,html.Screen,2_1_1_1_48,2021-04-24T12:45:09.585Z,,,,,,,,,,,,,,,,,54,,,,,,,,,,,,,,276.8269999847398,,response,,,,100,,,,,,,Space,keypress(Space),,,,,,,,-- --- ---- --- ------ ----- ------- ---- -- --- ------- --<br>------- ---------- ------ -- ----- -- ----- -- ---- ------<br>--- ----- --- --- ------ -------- ----- --- ------ ----- --<br>----- ----- ---------- --- --- ------ ------ ---- -- ------<br>------- --- ------ ----- --- left ------- -- ---- --- --<br>------- ------,247005.51999997697,247002.61999998474,246709.127,246713.5100000014,246725.793,247009.115,,48,left
screen,html.Screen,2_1_1_1_49,2021-04-24T12:45:09.856Z,,,,,,,,,,,,,,,,,54,,,,,,,,,,,,,,263.5050000033807,,response,,,,100,,,,,,,Space,keypress(Space),,,,,,,,-- --- ---- --- ------ ----- ------- ---- -- --- ------- --<br>------- ---------- ------ -- ----- -- ----- -- ---- ------<br>--- ----- --- --- ------ -------- ----- --- ------ ----- --<br>----- ----- ---------- --- --- ------ ------ ---- -- ------<br>------- --- ------ ----- --- ---- without -- ---- --- --<br>------- ------,247275.9349999833,247272.62000000337,246992.449,247005.6399999885,247009.115,247292.437,,49,without
screen,html.Screen,2_1_1_1_50,2021-04-24T12:45:10.524Z,,,,,,,,,,,,,,,,,54,,,,,,,,,,,,,,647.9530000033847,,response,,,,100,,,,,,,Space,keypress(Space),,,,,,,,-- --- ---- --- ------ ----- ------- ---- -- --- ------- --<br>------- ---------- ------ -- ----- -- ----- -- ---- ------<br>--- ----- --- --- ------ -------- ----- --- ------ ----- --<br>----- ----- ---------- --- --- ------ ------ ---- -- ------<br>------- --- ------ ----- --- ---- ------- an ---- --- --<br>------- ------,247943.97500000196,247940.3900000034,247275.771,247276.07999998145,247292.437,247959.077,,50,an
screen,html.Screen,2_1_1_1_51,2021-04-24T12:45:10.829Z,,,,,,,,,,,,,,,,,54,,,,,,,,,,,,,,287.5180000041728,,response,,,,100,,,,,,,Space,keypress(Space),,,,,,,,-- --- ---- --- ------ ----- ------- ---- -- --- ------- --<br>------- ---------- ------ -- ----- -- ----- -- ---- ------<br>--- ----- --- --- ------ -------- ----- --- ------ ----- --<br>----- ----- ---------- --- --- ------ ------ ---- -- ------<br>------- --- ------ ----- --- ---- ------- -- easy --- --<br>------- ------,248249.65499999234,248246.59500000416,247942.411,247944.1200000001,247959.077,248259.065,,51,easy
screen,html.Screen,2_1_1_1_52,2021-04-24T12:45:11.287Z,,,,,,,,,,,,,,,,,54,,,,,,,,,,,,,,445.49999999272404,,response,,,,100,,,,,,,Space,keypress(Space),,,,,,,,-- --- ---- --- ------ ----- ------- ---- -- --- ------- --<br>------- ---------- ------ -- ----- -- ----- -- ---- ------<br>--- ----- --- --- ------ -------- ----- --- ------ ----- --<br>----- ----- ---------- --- --- ------ ------ ---- -- ------<br>------- --- ------ ----- --- ---- ------- -- ---- way --<br>------- ------,248707.60500000324,248704.56499999273,248242.399,248249.7999999905,248259.065,248709.047,,52,way
screen,html.Screen,2_1_1_1_53,2021-04-24T12:45:11.682Z,,,,,,,,,,,,,,,,,54,,,,,,,,,,,,,,389.6479999933217,,response,,,,100,,,,,,,Space,keypress(Space),,,,,,,,-- --- ---- --- ------ ----- ------- ---- -- --- ------- --<br>------- ---------- ------ -- ----- -- ----- -- ---- ------<br>--- ----- --- --- ------ -------- ----- --- ------ ----- --<br>----- ----- ---------- --- --- ------ ------ ---- -- ------<br>------- --- ------ ----- --- ---- ------- -- ---- --- of<br>------- ------,249101.7549999815,249098.6949999933,248692.381,248707.71499999682,248709.047,249109.031,,53,of
screen,html.Screen,2_1_1_1_54,2021-04-24T12:45:12.092Z,,,,,,,,,,,,,,,,,54,,,,,,,,,,,,,,400.53899999472196,,response,,,,100,,,,,,,Space,keypress(Space),,,,,,,,-- --- ---- --- ------ ----- ------- ---- -- --- ------- --<br>------- ---------- ------ -- ----- -- ----- -- ---- ------<br>--- ----- --- --- ------ -------- ----- --- ------ ----- --<br>----- ----- ---------- --- --- ------ ------ ---- -- ------<br>------- --- ------ ----- --- ---- ------- -- ---- --- --<br>raising ------,249512.60999997612,249509.5699999947,249092.365,249101.86999998405,249109.031,249525.681,,54,raising
screen,html.Screen,2_1_1_1_55,2021-04-24T12:45:13.116Z,,,,,,,,,,,,,,,,,54,,,,,,,,,,,,,,1007.8489999860467,,response,,,,100,,,,,,,Space,keypress(Space),,,,,,,,-- --- ---- --- ------ ----- ------- ---- -- --- ------- --<br>------- ---------- ------ -- ----- -- ----- -- ---- ------<br>--- ----- --- --- ------ -------- ----- --- ------ ----- --<br>----- ----- ---------- --- --- ------ ------ ---- -- ------<br>------- --- ------ ----- --- ---- ------- -- ---- --- --<br>------- money.,250536.64499998558,250533.52999998606,249509.015,249512.72499997867,249525.681,250542.307,,55,money.
Item 100,flow.Loop,2_1_1_1,2021-04-24T12:45:13.117Z,,,,,,,,,,,,,,,,,,,,,,,,,,,,,,,37107.406999986066,,completion,,,,,A,,,,,,,,,,,silence,,,,,250536.82999999728,250533.52999998606,213409.457,213411.29999997793,213426.123,250542.307,,,
Question 1,html.Screen,2_1_1_2,2021-04-24T12:45:16.752Z,,,,,,,,,,,,,,,,,,,,,,,,,,,,true,TRUE,,3627.1929999890563,,response,,,,100,A,,,,,,TRUE,click #choice-1,,,,silence,,,,,254171.78999999305,254169.49999998906,250525.641,250536.92499999306,250542.307,254175.495,,,
Question 2,html.Screen,2_1_1_3,2021-04-24T12:45:19.369Z,,,,,,,,,,,,,,,,,,,,,,,,,,,,true,FALSE,,2611.1399999967543,,response,,,,100,A,,,,,,FALSE,click #choice-2,,,,silence,,,,,256788.8699999894,256786.63499999675,254158.829,254171.95999997784,254175.495,256792.282,,,
Item 100,flow.Sequence,2_1_1,2021-04-24T12:45:19.369Z,,,,,,,,,,,,,,,,,,,,,,,,,,,,,,,53360.11199999676,,completion,,,,,,,,,,,,,,,,,,,,,256789.02999998536,256786.63499999675,203409.857,203426.0999999824,203426.523,256792.282,,,
End of Practice,html.Page,2_1_2,2021-04-24T12:45:24.392Z,,,,,,,,,,,,,,,,,,,,,,,,,,,,,,,5019.807999992161,,form submission,,,,,,,,,,,,,,,,,,,,,261812.36499999068,261812.08999999217,256775.616,256789.12000000128,256792.282,261825.414,,,
Practice,flow.Sequence,2_1,2021-04-24T12:45:24.392Z,,,,,,,,,,,,,,,,,,,,,,,,,,,,,,,109917.83699999217,,completion,,,,,,,,,,,,,,,,,,,,,261812.56500000018,261812.08999999217,151877.587,151883.6049999809,151894.253,261825.414,,,
Trap_instruction,html.Page,2_2_0,2021-04-24T12:45:28.089Z,,,,,,,,,,,,,,,,,,,,,,,,,,,,,,,3683.840999982669,,form submission,,,,,,,,,,,,,,,,,,,,,265509.48499998776,265509.25499998266,261808.748,261812.68999999156,261825.414,265525.266,,,
trap_trial,html.Screen,2_2_1,2021-04-24T12:45:31.927Z,,,,,,,,,,,,,,,,,,,,,,,,,,,,true,1,,3820.2040000002016,,response,,,,,,,,,,,1,click #choice-1,,,,,,,,,269347.18499999144,269345.4700000002,265508.6,265509.5999999903,265525.266,269358.657,,,
end of trap trial,html.Page,2_2_2,2021-04-24T12:45:36.542Z,,,,,,,,,,,,,,,,,,,,,,,,,,,,,,,4602.923000002862,,form submission,,,,,,,,,,,,,,,,,,,,,273961.78499999223,273961.58000000287,269341.991,269347.30500000296,269358.657,273975.139,,,
Trap 1,flow.Sequence,2_2,2021-04-24T12:45:36.542Z,,,,,,,,,,,,,,,,,,,,,,,,,,,,,,,12136.166000002879,,completion,,,,,,,,,,,,,,,,,,,,,273961.9299999904,273961.58000000287,261808.748,261812.64999997802,261825.414,273975.139,,,
Standby,html.Page,2_3_0,2021-04-24T12:45:44.539Z,,,,,,,,,,,,,,,,,,,,,,,,,,,,,,,7999.679999999993,,timeout,,,,,,,,,,,,,,,,,,,,,281959.09499999834,281958.153,273958.473,273962.0350000041,273975.139,281974.819,,,
Holding screen,html.Screen,2_3_1_0_0,2021-04-24T12:45:51.540Z,,,,,,,,,,,,,,,,,,,,,,,,,,,,,,,6999.874000000011,,timeout,,,,,,,,,,,,,,,,,,,,,288959.6549999842,288958.027,281958.153,281959.3199999945,281974.819,288974.693,,,
screen,html.Screen,2_3_1_0_1_0,2021-04-24T12:45:53.044Z,,,,,,,,,,,,,,,,,51,,,,,,,,,,,,,,1486.8220000026631,,response,,,,13,A,,,,,,Space,keypress(Space),,,,silence,,,,American -------- --- --- ---- --- --- ------ -- --------<br>---- --------- --- ------- ------------ ---------- ---------<br>--- ---------- ------- ---------- ------- -- -------- ----<br>---- --- ------ ----- ------ -- ---- --- ----- -- - -------<br>-------- -- --- --- -- ----- ----------- ----- -----------<br>---- --- ---------- --- ---- --- -- ----------,290464.2649999878,290461.5150000027,288958.027,288959.8849999893,288974.693,290474.633,,0,American
screen,html.Screen,2_3_1_0_1_1,2021-04-24T12:45:54.539Z,,,,,,,,,,,,,,,,,51,,,,,,,,,,,,,,1480.8819999796688,,response,,,,13,A,,,,,,Space,keypress(Space),,,,silence,,,,-------- industry --- --- ---- --- --- ------ -- --------<br>---- --------- --- ------- ------------ ---------- ---------<br>--- ---------- ------- ---------- ------- -- -------- ----<br>---- --- ------ ----- ------ -- ---- --- ----- -- - -------<br>-------- -- --- --- -- ----- ----------- ----- -----------<br>---- --- ---------- --- ---- --- -- ----------,291958.5450000013,291955.51499997964,290457.967,290464.3899999792,290474.633,291974.573,,1,industry
screen,html.Screen,2_3_1_0_1_2,2021-04-24T12:45:54.983Z,,,,,,,,,,,,,,,,,51,,,,,,,,,,,,,,425.7819999906933,,response,,,,13,A,,,,,,Space,keypress(Space),,,,silence,,,,-------- -------- may --- ---- --- --- ------ -- --------<br>---- --------- --- ------- ------------ ---------- ---------<br>--- ---------- ------- ---------- ------- -- -------- ----<br>---- --- ------ ----- ------ -- ---- --- ----- -- - -------<br>-------- -- --- --- -- ----- ----------- ----- -----------<br>---- --- ---------- --- ---- --- -- ----------,292403.42999997665,292400.35499999067,291957.907,291958.6600000039,291974.573,292408.174,,2,may
screen,html.Screen,2_3_1_0_1_3,2021-04-24T12:45:55.508Z,,,,,,,,,,,,,,,,,51,,,,,,,,,,,,,,516.3059999869438,,response,,,,13,A,,,,,,Space,keypress(Space),,,,silence,,,,-------- -------- --- not ---- --- --- ------ -- --------<br>---- --------- --- ------- ------------ ---------- ---------<br>--- ---------- ------- ---------- ------- -- -------- ----<br>---- --- ------ ----- ------ -- ---- --- ----- -- - -------<br>-------- -- --- --- -- ----- ----------- ----- -----------<br>---- --- ---------- --- ---- --- -- ----------,292927.709999989,292924.47999998694,292391.508,292403.5449999792,292408.174,292941.486,,3,not
screen,html.Screen,2_3_1_0_1_4,2021-04-24T12:45:56.465Z,,,,,,,,,,,,,,,,,51,,,,,,,,,,,,,,939.9139999838662,,response,,,,13,A,,,,,,Space,keypress(Space),,,,silence,,,,-------- -------- --- --- know --- --- ------ -- --------<br>---- --------- --- ------- ------------ ---------- ---------<br>--- ---------- ------- ---------- ------- -- -------- ----<br>---- --- ------ ----- ------ -- ---- --- ----- -- - -------<br>-------- -- --- --- -- ----- ----------- ----- -----------<br>---- --- ---------- --- ---- --- -- ----------,293884.7249999817,293881.39999998384,292924.82,292927.8249999916,292941.486,293891.448,,4,know
screen,html.Screen,2_3_1_0_1_5,2021-04-24T12:45:56.878Z,,,,,,,,,,,,,,,,,51,,,,,,,,,,,,,,403.00199998670723,,response,,,,13,A,,,,,,Space,keypress(Space),,,,silence,,,,"-------- -------- --- --- ---- it, --- ------ -- --------<br>---- --------- --- ------- ------------ ---------- ---------<br>--- ---------- ------- ---------- ------- -- -------- ----<br>---- --- ------ ----- ------ -- ---- --- ----- -- - -------<br>-------- -- --- --- -- ----- ----------- ----- -----------<br>---- --- ---------- --- ---- --- -- ----------",294297.49999998603,294294.4499999867,293874.782,293884.83999998425,293891.448,294308.098,,5,"it,"
screen,html.Screen,2_3_1_0_1_6,2021-04-24T12:45:57.688Z,,,,,,,,,,,,,,,,,51,,,,,,,,,,,,,,797.3169999981765,,response,,,,13,A,,,,,,Space,keypress(Space),,,,silence,,,,-------- -------- --- --- ---- --- but ------ -- --------<br>---- --------- --- ------- ------------ ---------- ---------<br>--- ---------- ------- ---------- ------- -- -------- ----<br>---- --- ------ ----- ------ -- ---- --- ----- -- - -------<br>-------- -- --- --- -- ----- ----------- ----- -----------<br>---- --- ---------- --- ---- --- -- ----------,295108.11000000103,295105.4149999982,294291.432,294297.6099999796,294308.098,295124.732,,6,but
screen,html.Screen,2_3_1_0_1_7,2021-04-24T12:45:58.193Z,,,,,,,,,,,,,,,,,51,,,,,,,,,,,,,,485.66299999604234,,response,,,,13,A,,,,,,Space,keypress(Space),,,,silence,,,,-------- -------- --- --- ---- --- --- debate -- --------<br>---- --------- --- ------- ------------ ---------- ---------<br>--- ---------- ------- ---------- ------- -- -------- ----<br>---- --- ------ ----- ------ -- ---- --- ----- -- - -------<br>-------- -- --- --- -- ----- ----------- ----- -----------<br>---- --- ---------- --- ---- --- -- ----------,295613.3699999773,295610.39499999606,295108.066,295108.2199999946,295124.732,295624.712,,7,debate
screen,html.Screen,2_3_1_0_1_8,2021-04-24T12:45:58.663Z,,,,,,,,,,,,,,,,,51,,,,,,,,,,,,,,455.6979999950272,,response,,,,13,A,,,,,,Space,keypress(Space),,,,silence,,,,-------- -------- --- --- ---- --- --- ------ in --------<br>---- --------- --- ------- ------------ ---------- ---------<br>--- ---------- ------- ---------- ------- -- -------- ----<br>---- --- ------ ----- ------ -- ---- --- ----- -- - -------<br>-------- -- --- --- -- ----- ----------- ----- -----------<br>---- --- ---------- --- ---- --- -- ----------,296083.3500000008,296080.409999995,295608.046,295613.48499997985,295624.712,296091.36,,8,in
screen,html.Screen,2_3_1_0_1_9,2021-04-24T12:45:59.593Z,,,,,,,,,,,,,,,,,51,,,,,,,,,,,,,,918.8549999875249,,response,,,,13,A,,,,,,Space,keypress(Space),,,,silence,,,,-------- -------- --- --- ---- --- --- ------ -- Congress<br>---- --------- --- ------- ------------ ---------- ---------<br>--- ---------- ------- ---------- ------- -- -------- ----<br>---- --- ------ ----- ------ -- ---- --- ----- -- - -------<br>-------- -- --- --- -- ----- ----------- ----- -----------<br>---- --- ---------- --- ---- --- -- ----------,297013.20499999565,297010.2149999875,296074.694,296083.4599999944,296091.36,297024.656,,9,Congress
screen,html.Screen,2_3_1_0_1_10,2021-04-24T12:46:00.421Z,,,,,,,,,,,,,,,,,51,,,,,,,,,,,,,,813.6539999918896,,response,,,,13,A,,,,,,Space,keypress(Space),,,,silence,,,,-------- -------- --- --- ---- --- --- ------ -- --------<br>over --------- --- ------- ------------ ---------- ---------<br>--- ---------- ------- ---------- ------- -- -------- ----<br>---- --- ------ ----- ------ -- ---- --- ----- -- - -------<br>-------- -- --- --- -- ----- ----------- ----- -----------<br>---- --- ---------- --- ---- --- -- ----------,297841.0949999816,297838.3099999919,297007.99,297013.3199999982,297024.656,297857.956,,10,over
screen,html.Screen,2_3_1_0_1_11,2021-04-24T12:46:01.286Z,,,,,,,,,,,,,,,,,51,,,,,,,,,,,,,,845.3289999959525,,response,,,,13,A,,,,,,Space,keypress(Space),,,,silence,,,,-------- -------- --- --- ---- --- --- ------ -- --------<br>---- reforming --- ------- ------------ ---------- ---------<br>--- ---------- ------- ---------- ------- -- -------- ----<br>---- --- ------ ----- ------ -- ---- --- ----- -- - -------<br>-------- -- --- --- -- ----- ----------- ----- -----------<br>---- --- ---------- --- ---- --- -- ----------,298706.1499999836,298703.28499999596,297841.29,297841.20999998413,297857.956,298707.922,,11,reforming
screen,html.Screen,2_3_1_0_1_12,2021-04-24T12:46:01.691Z,,,,,,,,,,,,,,,,,51,,,,,,,,,,,,,,399.437999994494,,response,,,,13,A,,,,,,Space,keypress(Space),,,,silence,,,,-------- -------- --- --- ---- --- --- ------ -- --------<br>---- --------- the ------- ------------ ---------- ---------<br>--- ---------- ------- ---------- ------- -- -------- ----<br>---- --- ------ ----- ------ -- ---- --- ----- -- - -------<br>-------- -- --- --- -- ----- ----------- ----- -----------<br>---- --- ---------- --- ---- --- -- ----------,299110.6799999834,299107.3599999945,298691.256,298706.2549999973,298707.922,299124.572,,12,the
screen,html.Screen,2_3_1_0_1_13,2021-04-24T12:46:02.296Z,,,,,,,,,,,,,,,,,51,,,,,,,,,,,,,,588.6429999961401,,response,,,,13,A,,,,,,Space,keypress(Space),,,,silence,,,,-------- -------- --- --- ---- --- --- ------ -- --------<br>---- --------- --- federal ------------ ---------- ---------<br>--- ---------- ------- ---------- ------- -- -------- ----<br>---- --- ------ ----- ------ -- ---- --- ----- -- - -------<br>-------- -- --- --- -- ----- ----------- ----- -----------<br>---- --- ---------- --- ---- --- -- ----------,299715.82499999204,299713.2149999961,299107.906,299110.8200000017,299124.572,299724.548,,13,federal
screen,html.Screen,2_3_1_0_1_14,2021-04-24T12:46:03.503Z,,,,,,,,,,,,,,,,,51,,,,,,,,,,,,,,1194.71199999511,,response,,,,13,A,,,,,,Space,keypress(Space),,,,silence,,,,-------- -------- --- --- ---- --- --- ------ -- --------<br>---- --------- --- ------- government's ---------- ---------<br>--- ---------- ------- ---------- ------- -- -------- ----<br>---- --- ------ ----- ------ -- ---- --- ----- -- - -------<br>-------- -- --- --- -- ----- ----------- ----- -----------<br>---- --- ---------- --- ---- --- -- ----------,300922.4099999992,300919.2599999951,299707.882,299715.9399999946,299724.548,300924.5,,14,government's
screen,html.Screen,2_3_1_0_1_15,2021-04-24T12:46:03.983Z,,,,,,,,,,,,,,,,,51,,,,,,,,,,,,,,475.7399999881163,,response,,,,13,A,,,,,,Space,keypress(Space),,,,silence,,,,-------- -------- --- --- ---- --- --- ------ -- --------<br>---- --------- --- ------- ------------ regulatory ---------<br>--- ---------- ------- ---------- ------- -- -------- ----<br>---- --- ------ ----- ------ -- ---- --- ----- -- - -------<br>-------- -- --- --- -- ----- ----------- ----- -----------<br>---- --- ---------- --- ---- --- -- ----------,301403.29499999643,301400.2399999881,300907.834,300922.52500000177,300924.5,301407.814,,15,regulatory
screen,html.Screen,2_3_1_0_1_16,2021-04-24T12:46:05.915Z,,,,,,,,,,,,,,,,,51,,,,,,,,,,,,,,1924.2560000040103,,response,,,,13,A,,,,,,Space,keypress(Space),,,,silence,,,,-------- -------- --- --- ---- --- --- ------ -- --------<br>---- --------- --- ------- ------------ ---------- apparatus<br>--- ---------- ------- ---------- ------- -- -------- ----<br>---- --- ------ ----- ------ -- ---- --- ----- -- - -------<br>-------- -- --- --- -- ----- ----------- ----- -----------<br>---- --- ---------- --- ---- --- -- ----------,303335.15499997884,303332.070000004,301391.148,301403.41499997885,301407.814,303341.409,,16,apparatus
screen,html.Screen,2_3_1_0_1_17,2021-04-24T12:46:07.232Z,,,,,,,,,,,,,,,,,51,,,,,,,,,,,,,,1306.731000004802,,response,,,,13,A,,,,,,Space,keypress(Space),,,,silence,,,,-------- -------- --- --- ---- --- --- ------ -- --------<br>---- --------- --- ------- ------------ ---------- ---------<br>may ---------- ------- ---------- ------- -- -------- ----<br>---- --- ------ ----- ------ -- ---- --- ----- -- - -------<br>-------- -- --- --- -- ----- ----------- ----- -----------<br>---- --- ---------- --- ---- --- -- ----------,304651.60499999183,304648.1400000048,303324.743,303335.28999998816,303341.409,304658.023,,17,may
screen,html.Screen,2_3_1_0_1_18,2021-04-24T12:46:08.156Z,,,,,,,,,,,,,,,,,51,,,,,,,,,,,,,,915.0969999863883,,response,,,,13,A,,,,,,Space,keypress(Space),,,,silence,,,,-------- -------- --- --- ---- --- --- ------ -- --------<br>---- --------- --- ------- ------------ ---------- ---------<br>--- profoundly ------- ---------- ------- -- -------- ----<br>---- --- ------ ----- ------ -- ---- --- ----- -- - -------<br>-------- -- --- --- -- ----- ----------- ----- -----------<br>---- --- ---------- --- ---- --- -- ----------,305576.2849999883,305573.1199999864,304641.357,304651.72500000335,304658.023,305591.319,,18,profoundly
screen,html.Screen,2_3_1_0_1_19,2021-04-24T12:46:08.826Z,,,,,,,,,,,,,,,,,51,,,,,,,,,,,,,,651.780999992392,,response,,,,13,A,,,,,,Space,keypress(Space),,,,silence,,,,-------- -------- --- --- ---- --- --- ------ -- --------<br>---- --------- --- ------- ------------ ---------- ---------<br>--- ---------- improve ---------- ------- -- -------- ----<br>---- --- ------ ----- ------ -- ---- --- ----- -- - -------<br>-------- -- --- --- -- ----- ----------- ----- -----------<br>---- --- ---------- --- ---- --- -- ----------,306246.2700000033,306243.0999999924,305574.653,305576.3999999908,305591.319,306257.959,,19,improve
screen,html.Screen,2_3_1_0_1_20,2021-04-24T12:46:09.555Z,,,,,,,,,,,,,,,,,51,,,,,,,,,,,,,,714.1209999777493,,response,,,,13,A,,,,,,Space,keypress(Space),,,,silence,,,,-------- -------- --- --- ---- --- --- ------ -- --------<br>---- --------- --- ------- ------------ ---------- ---------<br>--- ---------- ------- companies' ------- -- -------- ----<br>---- --- ------ ----- ------ -- ---- --- ----- -- - -------<br>-------- -- --- --- -- ----- ----------- ----- -----------<br>---- --- ---------- --- ---- --- -- ----------,306975.13499998604,306972.0799999777,306241.293,306246.37999999686,306257.959,306991.263,,20,companies'
screen,html.Screen,2_3_1_0_1_21,2021-04-24T12:46:10.098Z,,,,,,,,,,,,,,,,,51,,,,,,,,,,,,,,523.812000003003,,response,,,,13,A,,,,,,Space,keypress(Space),,,,silence,,,,-------- -------- --- --- ---- --- --- ------ -- --------<br>---- --------- --- ------- ------------ ---------- ---------<br>--- ---------- ------- ---------- ability -- -------- ----<br>---- --- ------ ----- ------ -- ---- --- ----- -- - -------<br>-------- -- --- --- -- ----- ----------- ----- -----------<br>---- --- ---------- --- ---- --- -- ----------,307518.19499998237,307515.075000003,306974.597,306975.27500000433,306991.263,307524.575,,21,ability
screen,html.Screen,2_3_1_0_1_22,2021-04-24T12:46:10.707Z,,,,,,,,,,,,,,,,,51,,,,,,,,,,,,,,599.4799999929382,,response,,,,13,A,,,,,,Space,keypress(Space),,,,silence,,,,-------- -------- --- --- ---- --- --- ------ -- --------<br>---- --------- --- ------- ------------ ---------- ---------<br>--- ---------- ------- ---------- ------- to -------- ----<br>---- --- ------ ----- ------ -- ---- --- ----- -- - -------<br>-------- -- --- --- -- ----- ----------- ----- -----------<br>---- --- ---------- --- ---- --- -- ----------,308127.09999998333,308124.05499999295,307507.909,307518.3099999849,307524.575,308141.217,,22,to
screen,html.Screen,2_3_1_0_1_23,2021-04-24T12:46:11.665Z,,,,,,,,,,,,,,,,,51,,,,,,,,,,,,,,940.8129999904777,,response,,,,13,A,,,,,,Space,keypress(Space),,,,silence,,,,-------- -------- --- --- ---- --- --- ------ -- --------<br>---- --------- --- ------- ------------ ---------- ---------<br>--- ---------- ------- ---------- ------- -- survive. ----<br>---- --- ------ ----- ------ -- ---- --- ----- -- - -------<br>-------- -- --- --- -- ----- ----------- ----- -----------<br>---- --- ---------- --- ---- --- -- ----------,309085.10999998543,309082.0299999905,308124.551,308127.2099999769,308141.217,309091.179,,23,survive.
screen,html.Screen,2_3_1_0_1_24,2021-04-24T12:46:14.820Z,,,,,,,,,,,,,,,,,51,,,,,,,,,,,,,,3144.760999984108,,response,,,,13,A,,,,,,Space,keypress(Space),,,,silence,,,,-------- -------- --- --- ---- --- --- ------ -- --------<br>---- --------- --- ------- ------------ ---------- ---------<br>--- ---------- ------- ---------- ------- -- -------- This<br>---- --- ------ ----- ------ -- ---- --- ----- -- - -------<br>-------- -- --- --- -- ----- ----------- ----- -----------<br>---- --- ---------- --- ---- --- -- ----------,312239.579999994,312235.9399999841,309074.513,309085.224999988,309091.179,312241.053,,24,This
screen,html.Screen,2_3_1_0_1_25,2021-04-24T12:46:15.140Z,,,,,,,,,,,,,,,,,51,,,,,,,,,,,,,,315.867000002705,,response,,,,13,A,,,,,,Space,keypress(Space),,,,silence,,,,-------- -------- --- --- ---- --- --- ------ -- --------<br>---- --------- --- ------- ------------ ---------- ---------<br>--- ---------- ------- ---------- ------- -- -------- ----<br>week --- ------ ----- ------ -- ---- --- ----- -- - -------<br>-------- -- --- --- -- ----- ----------- ----- -----------<br>---- --- ---------- --- ---- --- -- ----------,312560.1349999779,312556.9200000027,312224.387,312239.7199999832,312241.053,312574.373,,25,week
screen,html.Screen,2_3_1_0_1_26,2021-04-24T12:46:15.419Z,,,,,,,,,,,,,,,,,51,,,,,,,,,,,,,,261.54200000327546,,response,,,,13,A,,,,,,Space,keypress(Space),,,,silence,,,,-------- -------- --- --- ---- --- --- ------ -- --------<br>---- --------- --- ------- ------------ ---------- ---------<br>--- ---------- ------- ---------- ------- -- -------- ----<br>---- the ------ ----- ------ -- ---- --- ----- -- - -------<br>-------- -- --- --- -- ----- ----------- ----- -----------<br>---- --- ---------- --- ---- --- -- ----------,312839.0049999871,312835.9150000033,312557.707,312560.24999998044,312574.373,312841.145,,26,the
screen,html.Screen,2_3_1_0_1_27,2021-04-24T12:46:15.668Z,,,,,,,,,,,,,,,,,51,,,,,,,,,,,,,,243.7599999960512,,response,,,,13,A,,,,,,Space,keypress(Space),,,,silence,,,,-------- -------- --- --- ---- --- --- ------ -- --------<br>---- --------- --- ------- ------------ ---------- ---------<br>--- ---------- ------- ---------- ------- -- -------- ----<br>---- --- Senate ----- ------ -- ---- --- ----- -- - -------<br>-------- -- --- --- -- ----- ----------- ----- -----------<br>---- --- ---------- --- ---- --- -- ----------,313087.91999999085,313084.90499999607,312824.479,312839.11499998067,312841.145,313091.135,,27,Senate
screen,html.Screen,2_3_1_0_1_28,2021-04-24T12:46:16.355Z,,,,,,,,,,,,,,,,,51,,,,,,,,,,,,,,680.7449999856763,,response,,,,13,A,,,,,,Space,keypress(Space),,,,silence,,,,-------- -------- --- --- ---- --- --- ------ -- --------<br>---- --------- --- ------- ------------ ---------- ---------<br>--- ---------- ------- ---------- ------- -- -------- ----<br>---- --- ------ seems ------ -- ---- --- ----- -- - -------<br>-------- -- --- --- -- ----- ----------- ----- -----------<br>---- --- ---------- --- ---- --- -- ----------,313774.9799999874,313771.8799999857,313074.469,313088.0349999934,313091.135,313791.107,,28,seems
screen,html.Screen,2_3_1_0_1_29,2021-04-24T12:46:16.690Z,,,,,,,,,,,,,,,,,51,,,,,,,,,,,,,,315.76799999765353,,response,,,,13,A,,,,,,Space,keypress(Space),,,,silence,,,,-------- -------- --- --- ---- --- --- ------ -- --------<br>---- --------- --- ------- ------------ ---------- ---------<br>--- ---------- ------- ---------- ------- -- -------- ----<br>---- --- ------ ----- poised -- ---- --- ----- -- - -------<br>-------- -- --- --- -- ----- ----------- ----- -----------<br>---- --- ---------- --- ---- --- -- ----------,314110.0349999906,314106.8749999977,313774.441,313775.089999981,313791.107,314124.427,,29,poised
screen,html.Screen,2_3_1_0_1_30,2021-04-24T12:46:17.480Z,,,,,,,,,,,,,,,,,51,,,,,,,,,,,,,,771.4230000007665,,response,,,,13,A,,,,,,Space,keypress(Space),,,,silence,,,,-------- -------- --- --- ---- --- --- ------ -- --------<br>---- --------- --- ------- ------------ ---------- ---------<br>--- ---------- ------- ---------- ------- -- -------- ----<br>---- --- ------ ----- ------ to ---- --- ----- -- - -------<br>-------- -- --- --- -- ----- ----------- ----- -----------<br>---- --- ---------- --- ---- --- -- ----------,314899.5849999774,314895.8500000008,314107.761,314110.14999999315,314124.427,314907.729,,30,to
screen,html.Screen,2_3_1_0_1_31,2021-04-24T12:46:18.208Z,,,,,,,,,,,,,,,,,51,,,,,,,,,,,,,,717.4059999802266,,response,,,,13,A,,,,,,Space,keypress(Space),,,,silence,,,,-------- -------- --- --- ---- --- --- ------ -- --------<br>---- --------- --- ------- ------------ ---------- ---------<br>--- ---------- ------- ---------- ------- -- -------- ----<br>---- --- ------ ----- ------ -- join --- ----- -- - -------<br>-------- -- --- --- -- ----- ----------- ----- -----------<br>---- --- ---------- --- ---- --- -- ----------,315628.0299999926,315625.1349999802,314891.063,314899.69500000007,314907.729,315641.033,,31,join
screen,html.Screen,2_3_1_0_1_32,2021-04-24T12:46:18.440Z,,,,,,,,,,,,,,,,,51,,,,,,,,,,,,,,215.82199999090517,,response,,,,13,A,,,,,,Space,keypress(Space),,,,silence,,,,-------- -------- --- --- ---- --- --- ------ -- --------<br>---- --------- --- ------- ------------ ---------- ---------<br>--- ---------- ------- ---------- ------- -- -------- ----<br>---- --- ------ ----- ------ -- ---- the ----- -- - -------<br>-------- -- --- --- -- ----- ----------- ----- -----------<br>---- --- ---------- --- ---- --- -- ----------,315860.004999995,315856.8549999909,315624.367,315628.14499999513,315641.033,315874.357,,32,the
screen,html.Screen,2_3_1_0_1_33,2021-04-24T12:46:18.730Z,,,,,,,,,,,,,,,,,51,,,,,,,,,,,,,,272.50799998786533,,response,,,,13,A,,,,,,Space,keypress(Space),,,,silence,,,,-------- -------- --- --- ---- --- --- ------ -- --------<br>---- --------- --- ------- ------------ ---------- ---------<br>--- ---------- ------- ---------- ------- -- -------- ----<br>---- --- ------ ----- ------ -- ---- --- House -- - -------<br>-------- -- --- --- -- ----- ----------- ----- -----------<br>---- --- ---------- --- ---- --- -- ----------,316149.78999999585,316146.8649999879,315857.691,315860.1149999886,315874.357,316157.679,,33,House
screen,html.Screen,2_3_1_0_1_34,2021-04-24T12:46:19.189Z,,,,,,,,,,,,,,,,,51,,,,,,,,,,,,,,448.13599998806603,,response,,,,13,A,,,,,,Space,keypress(Space),,,,silence,,,,-------- -------- --- --- ---- --- --- ------ -- --------<br>---- --------- --- ------- ------------ ---------- ---------<br>--- ---------- ------- ---------- ------- -- -------- ----<br>---- --- ------ ----- ------ -- ---- --- ----- in - -------<br>-------- -- --- --- -- ----- ----------- ----- -----------<br>---- --- ---------- --- ---- --- -- ----------,316609.05999998795,316605.81499998807,316141.013,316149.89999998943,316157.679,316624.327,,34,in
screen,html.Screen,2_3_1_0_1_35,2021-04-24T12:46:19.522Z,,,,,,,,,,,,,,,,,51,,,,,,,,,,,,,,314.35299999202834,,response,,,,13,A,,,,,,Space,keypress(Space),,,,silence,,,,-------- -------- --- --- ---- --- --- ------ -- --------<br>---- --------- --- ------- ------------ ---------- ---------<br>--- ---------- ------- ---------- ------- -- -------- ----<br>---- --- ------ ----- ------ -- ---- --- ----- -- a -------<br>-------- -- --- --- -- ----- ----------- ----- -----------<br>---- --- ---------- --- ---- --- -- ----------,316941.7850000027,316938.679999992,316607.661,316609.18499997933,316624.327,316957.647,,35,a
screen,html.Screen,2_3_1_0_1_36,2021-04-24T12:46:20.151Z,,,,,,,,,,,,,,,,,51,,,,,,,,,,,,,,610.2129999810131,,response,,,,13,A,,,,,,Space,keypress(Space),,,,silence,,,,-------- -------- --- --- ---- --- --- ------ -- --------<br>---- --------- --- ------- ------------ ---------- ---------<br>--- ---------- ------- ---------- ------- -- -------- ----<br>---- --- ------ ----- ------ -- ---- --- ----- -- - massive<br>-------- -- --- --- -- ----- ----------- ----- -----------<br>---- --- ---------- --- ---- --- -- ----------,317571.0299999919,317567.859999981,316940.981,316941.89999997616,316957.647,317574.289,,36,massive
screen,html.Screen,2_3_1_0_1_37,2021-04-24T12:46:20.657Z,,,,,,,,,,,,,,,,,51,,,,,,,,,,,,,,499.4609999813838,,response,,,,13,A,,,,,,Space,keypress(Space),,,,silence,,,,-------- -------- --- --- ---- --- --- ------ -- --------<br>---- --------- --- ------- ------------ ---------- ---------<br>--- ---------- ------- ---------- ------- -- -------- ----<br>---- --- ------ ----- ------ -- ---- --- ----- -- - -------<br>overhaul -- --- --- -- ----- ----------- ----- -----------<br>---- --- ---------- --- ---- --- -- ----------,318076.8949999765,318073.7499999814,317557.623,317571.14499999443,317574.289,318090.935,,37,overhaul
