sender,sender_type,sender_id,timestamp,meta,,Blues,Classical,Country,Dance,Electronic,Folk,Gospel,Hip-Hop,Jazz,Latin,Musical/Film,New-age,Pop,Prolific_id,Provo_ID,R&B,Rap,Reggae,Religious,Rock,Soul,Swing,Traditional,age,artist_name,correct,correctResponse,distraction,duration,education,ended_on,familiarity,gender,headphone_check_performance,item,list,music_frequency,offensiveness,pleasantness,position_correct,preference,response,response_action,snippet_file,song_name,song_rating,sound,stimulus_1,stimulus_2,stimulus_3,text,time_commit,time_end,time_render,time_run,time_show,time_switch,url,word,word_ID
Prolific ID,html.Form,0,2021-04-24T17:56:12.141Z,"{""labjs_version"":""20.2.2"",""labjs_build"":{""flavor"":""production"",""commit"":""a25486e0c714a0ae2ce03ff94b7bb6896854dcfa""},""location"":""https://run.pavlovia.org/mvasilev/prolific_music_e/"",""userAgent"":""Mozilla/5.0 (Macintosh; Intel Mac OS X 10_14_6) AppleWebKit/537.36 (KHTML, like Gecko) Chrome/89.0.4389.128 Safari/537.36"",""platform"":""MacIntel"",""language"":""en-GB"",""locale"":""en-GB"",""timeZone"":""Europe/London"",""timezoneOffset"":-60,""screen_width"":1280,""screen_height"":800,""scroll_width"":1280,""scroll_height"":641,""window_innerWidth"":1280,""window_innerHeight"":689,""devicePixelRatio"":2}",,,,,,,,,,,,,,,5e903d24f61c37012048e7de,,,,,,,,,,,,,,,4982.3680000303975,,form submission,,,,,,,,,,,,,,,,,,,,,15613.559999968857,15613.140000030398,10597.424,10608.934999909252,10630.772,15617.443,{},,
Introduction,html.Screen,1_0,2021-04-24T17:58:57.820Z,,,,,,,,,,,,,,,,,,,,,,,,,,,,,,,165670.436999727,,response,,,,,,,,,,,continue,click button,,,,,,,,,181291.29999969155,181287.879999727,15600.769,15613.819999620318,15617.443,181303.273,,,
Volume calibration,html.Screen,1_1,2021-04-24T17:59:07.221Z,,,,,,,,,,,,,,,,,,,,,,,,,,,,,,,9387.14200007735,,response,,,,,,,,,,,continue,click button,,,,,,,,,190692.54499999806,190690.41500007734,181286.599,181291.51999996975,181303.273,190707.409,,,
Task instructions,html.Screen,1_2,2021-04-24T17:59:10.309Z,,,,,,,,,,,,,,,,,,,,,,,,,,,,,,,3070.550999628351,,response,,,,,,,,,,,continue,click button,,,,,,,,,193780.0199999474,193777.95999962837,190690.735,190692.64999963343,190707.409,193785.549,,,
Sounds,html.Screen,1_3_0_0,2021-04-24T17:59:14.552Z,,,,,,,,,,,,,,,,,,,,,,,,,,,,,,,4251.869999999995,,timeout,,,,,,,,,1,,,,,,,,S,I,O,,198023.00499984995,198020.745,193768.875,193780.24500003085,193785.549,198037.419,,,
Judgement,html.Screen,1_3_0_1,2021-04-24T17:59:17.565Z,,,,,,,,,,,,,,,,,,,,,,,,,,,,true,1,,2997.081000067061,,response,,,,,,,,,1,,1,click #choice-1,,,,,S,I,O,,201036.44499974325,201034.50000006706,198020.745,198023.25999969617,198037.419,201038.739,,,
Trial,flow.Sequence,1_3_0,2021-04-24T17:59:17.565Z,,,,,,,,,,,,,,,,,,,,,,,,,,,,,,,7248.951000067056,,completion,,,,,,,,,1,,,,,,,,S,I,O,,201036.72500001267,201034.50000006706,193768.875,193780.17999976873,193785.549,201038.739,,,
Sounds,html.Screen,1_3_1_0,2021-04-24T17:59:21.810Z,,,,,,,,,,,,,,,,,,,,,,,,,,,,,,,4258.181000000011,,timeout,,,,,,,,,3,,,,,,,,O,I,S,,205281.50499984622,205280.246,201022.065,201036.84999980032,201038.739,205296.92,,,
Judgement,html.Screen,1_3_1_1,2021-04-24T17:59:22.400Z,,,,,,,,,,,,,,,,,,,,,,,,,,,,true,3,,572.5899996402732,,response,,,,,,,,,3,,3,click #choice-3,,,,,O,I,S,,205871.40999967232,205869.5099996403,205280.246,205281.60999994725,205296.92,205880.51,,,
Trial,flow.Sequence,1_3_1,2021-04-24T17:59:22.400Z,,,,,,,,,,,,,,,,,,,,,,,,,,,,,,,4830.770999640285,,completion,,,,,,,,,3,,,,,,,,O,I,S,,205871.60999979824,205869.5099996403,201022.065,201036.8099999614,201038.739,205880.51,,,
Sounds,html.Screen,1_3_2_0,2021-04-24T17:59:26.646Z,,,,,,,,,,,,,,,,,,,,,,,,,,,,,,,4251.869999999995,,timeout,,,,,,,,,3,,,,,,,,I,O,S,,210117.18499986455,210115.706,205863.836,205871.71499989927,205880.51,210132.38,,,
Judgement,html.Screen,1_3_2_1,2021-04-24T17:59:27.024Z,,,,,,,,,,,,,,,,,,,,,,,,,,,,true,3,,361.3199999917997,,response,,,,,,,,,3,,3,click #choice-3,,,,,I,O,S,,210495.54999964312,210493.6999999918,210115.706,210117.29499977082,210132.38,210499.208,,,
Trial,flow.Sequence,1_3_2,2021-04-24T17:59:27.024Z,,,,,,,,,,,,,,,,,,,,,,,,,,,,,,,4613.189999991795,,completion,,,,,,,,,3,,,,,,,,I,O,S,,210495.7099999301,210493.6999999918,205863.836,205871.6799998656,205880.51,210499.208,,,
Sounds,html.Screen,1_3_3_0,2021-04-24T17:59:31.265Z,,,,,,,,,,,,,,,,,,,,,,,,,,,,,,,4251.869999999995,,timeout,,,,,,,,,2,,,,,,,,I,S,O,,214736.35499970987,214734.404,210482.534,210495.81999983639,210499.208,214751.078,,,
Judgement,html.Screen,1_3_3_1,2021-04-24T17:59:31.621Z,,,,,,,,,,,,,,,,,,,,,,,,,,,,true,2,,339.8169999138627,,response,,,,,,,,,2,,2,click #choice-2,,,,,I,S,O,,215092.78000006452,215090.89499991387,214734.404,214736.5549998358,214751.078,215104.521,,,
Trial,flow.Sequence,1_3_3,2021-04-24T17:59:31.622Z,,,,,,,,,,,,,,,,,,,,,,,,,,,,,,,4591.686999913858,,completion,,,,,,,,,2,,,,,,,,I,S,O,,215092.92500000447,215090.89499991387,210482.534,210495.76999992132,210499.208,215104.521,,,
Sounds,html.Screen,1_3_4_0,2021-04-24T17:59:35.869Z,,,,,,,,,,,,,,,,,,,,,,,,,,,,,,,4251.869999999995,,timeout,,,,,,,,,1,,,,,,,,S,O,I,,219340.72999982163,219339.717,215087.847,215093.01499975845,215104.521,219356.391,,,
Judgement,html.Screen,1_3_4_1,2021-04-24T17:59:36.912Z,,,,,,,,,,,,,,,,,,,,,,,,,,,,true,1,,1025.3839996669558,,response,,,,,,,,,1,,1,click #choice-1,,,,,S,O,I,,220383.62499978393,220381.77499966696,219339.717,219340.82499984652,219356.391,220390.179,,,
Trial,flow.Sequence,1_3_4,2021-04-24T17:59:36.913Z,,,,,,,,,,,,,,,,,,,,,,,,,,,,,,,5277.253999666951,,completion,,,,,,,,,1,,,,,,,,S,O,I,,220383.78500007093,220381.77499966696,215087.847,215092.98499999568,215104.521,220390.179,,,
Sounds,html.Screen,1_3_5_0,2021-04-24T17:59:41.156Z,,,,,,,,,,,,,,,,,,,,,,,,,,,,,,,4251.869999999995,,timeout,,,,,,,,,2,,,,,,,,O,S,I,,224627.0099999383,224625.375,220373.505,220383.8749998249,220390.179,224642.049,,,
Judgement,html.Screen,1_3_5_1,2021-04-24T17:59:41.546Z,,,,,,,,,,,,,,,,,,,,,,,,,,,,true,2,,372.6959998185048,,response,,,,,,,,,2,,2,click #choice-2,,,,,O,S,I,,225016.82499982417,225014.7449998185,224625.375,224627.10999976844,224642.049,225025.551,,,
Trial,flow.Sequence,1_3_5,2021-04-24T17:59:41.546Z,,,,,,,,,,,,,,,,,,,,,,,,,,,,,,,4624.5659998185,,completion,,,,,,,,,2,,,,,,,,O,S,I,,225017.05499971285,225014.7449998185,220373.505,220383.84500006214,220390.179,225025.551,,,
Task,flow.Loop,1_3,2021-04-24T17:59:41.549Z,,,,,,,,,,,,,,,,,,,,,,,,,,,,,,,31229.195999818505,,completion,,,1,,,,,,,,,,,,,,,,,,225020.6749998033,225014.7449998185,193768.875,193780.12500004843,193785.549,225025.551,,,
Trap,html.Screen,1_4,2021-04-24T17:59:41.552Z,,,,,,,,,,,,,,,,,,,,,,,,,,,,,,,NaN,,skipped,,,,,,,,,,,,,,,,,,,,,225022.98999996856,225014.7449998185,,225022.57499983534,,225025.551,,,
Thanks,html.Screen,1_5,2021-04-24T17:59:45.275Z,,,,,,,,,,,,,,,,,,,,,,,,,,,,,,,3718.5139997442893,,response,,,,,,,,,,,continue,click button,,,,,,,,,228746.04999972507,228744.0649997443,225008.877,225023.1550000608,225025.551,231366.089,,,
Headphone screening,flow.Sequence,1,2021-04-24T17:59:45.275Z,,,,,,,,,,,,,,,,,,,,,,,,,,,,,,,213126.6219997443,,completion,,,,,,,,,,,,,,,,,,,,,228746.18999985978,228744.0649997443,15600.769,15613.794999662787,15617.443,231366.089,,,
Instructions,html.Page,2_0,2021-04-24T18:00:02.883Z,,,,,,,,,,,,,,,,,,,,,,,,,,,,,,,14987.530999717914,,form submission,,,,,,,,,,,,,,,,,,,,,246354.24999985844,246353.61999971792,231349.415,231364.27999986336,231366.089,246356.262,,,
Holding screen,html.Screen,2_1_0_0,2021-04-24T18:00:12.876Z,,,,,,,,,,,,,,,,,,,,,,,,,,,,,,,10005.717000000004,,timeout,,,,,,,,,,,,,,,,,,,,,256347.07499993965,256345.305,246339.588,246354.4349996373,246356.262,256361.979,,,
screen,html.Screen,2_1_0_1_0,2021-04-24T18:00:13.846Z,,,,,,,,,,,,,,,,,53,,,,,,,,,,,,,,950.4759998901864,,response,,,,99,,,,,,,Space,keypress(Space),,,,,,,,When -- ----- -- ------ - ------- --- ----------<br>------------- ------ ------ ---- ---- ------- ----- -- ----<br>-------- ------- -- ---------- --- - --- ----- ----- ----<br>---- --- --- ----- --- ---- ---- ------- ----- ---- -------<br>--- --- -- ----- -- --- ---- -- --- ---- -- ------ ------<br>--- ----- -- ----,257317.36500002444,257312.45499989018,256345.305,256347.38499997184,256361.979,257329.071,,0,When
screen,html.Screen,2_1_0_1_1,2021-04-24T18:00:14.121Z,,,,,,,,,,,,,,,,,53,,,,,,,,,,,,,,260.2289996431209,,response,,,,99,,,,,,,Space,keypress(Space),,,,,,,,---- it ----- -- ------ - ------- --- ----------<br>------------- ------ ------ ---- ---- ------- ----- -- ----<br>-------- ------- -- ---------- --- - --- ----- ----- ----<br>---- --- --- ----- --- ---- ---- ------- ----- ---- -------<br>--- --- -- ----- -- --- ---- -- --- ---- -- ------ ------<br>--- ----- -- ----,257591.76500001922,257589.29999964312,257312.397,257317.48500000685,257329.071,257595.855,,1,it
screen,html.Screen,2_1_0_1_2,2021-04-24T18:00:14.685Z,,,,,,,,,,,,,,,,,53,,,,,,,,,,,,,,557.5499999900057,,response,,,,99,,,,,,,Space,keypress(Space),,,,,,,,---- -- comes -- ------ - ------- --- ----------<br>------------- ------ ------ ---- ---- ------- ----- -- ----<br>-------- ------- -- ---------- --- - --- ----- ----- ----<br>---- --- --- ----- --- ---- ---- ------- ----- ---- -------<br>--- --- -- ----- -- --- ---- -- --- ---- -- ------ ------<br>--- ----- -- ----,258155.97999980673,258153.40499999002,257579.181,257591.9299996458,257595.855,258162.771,,2,comes
screen,html.Screen,2_1_0_1_3,2021-04-24T18:00:15.037Z,,,,,,,,,,,,,,,,,53,,,,,,,,,,,,,,342.58899983548326,,response,,,,99,,,,,,,Space,keypress(Space),,,,,,,,---- -- ----- to ------ - ------- --- ----------<br>------------- ------ ------ ---- ---- ------- ----- -- ----<br>-------- ------- -- ---------- --- - --- ----- ----- ----<br>---- --- --- ----- --- ---- ---- ------- ----- ---- -------<br>--- --- -- ----- -- --- ---- -- --- ---- -- ------ ------<br>--- ----- -- ----,258507.89000000805,258505.3599998355,258146.097,258156.13999962807,258162.771,258512.925,,3,to
screen,html.Screen,2_1_0_1_4,2021-04-24T18:00:15.355Z,,,,,,,,,,,,,,,,,53,,,,,,,,,,,,,,310.405000042927,,response,,,,99,,,,,,,Space,keypress(Space),,,,,,,,---- -- ----- -- having - ------- --- ----------<br>------------- ------ ------ ---- ---- ------- ----- -- ----<br>-------- ------- -- ---------- --- - --- ----- ----- ----<br>---- --- --- ----- --- ---- ---- ------- ----- ---- -------<br>--- --- -- ----- -- --- ---- -- --- ---- -- ------ ------<br>--- ----- -- ----,258826.04499999434,258823.33000004292,258496.251,258508.04999982938,258512.925,258829.731,,4,having
screen,html.Screen,2_1_0_1_5,2021-04-24T18:00:15.856Z,,,,,,,,,,,,,,,,,53,,,,,,,,,,,,,,494.5790000545385,,response,,,,99,,,,,,,Space,keypress(Space),,,,,,,,---- -- ----- -- ------ a ------- --- ----------<br>------------- ------ ------ ---- ---- ------- ----- -- ----<br>-------- ------- -- ---------- --- - --- ----- ----- ----<br>---- --- --- ----- --- ---- ---- ------- ----- ---- -------<br>--- --- -- ----- -- --- ---- -- --- ---- -- ------ ------<br>--- ----- -- ----,259326.83999976143,259324.31000005454,258813.057,258826.20499981567,258829.731,259329.951,,5,a
screen,html.Screen,2_1_0_1_6,2021-04-24T18:00:16.321Z,,,,,,,,,,,,,,,,,53,,,,,,,,,,,,,,459.2439997283509,,response,,,,99,,,,,,,Space,keypress(Space),,,,,,,,---- -- ----- -- ------ - lasting --- ----------<br>------------- ------ ------ ---- ---- ------- ----- -- ----<br>-------- ------- -- ---------- --- - --- ----- ----- ----<br>---- --- --- ----- --- ---- ---- ------- ----- ---- -------<br>--- --- -- ----- -- --- ---- -- --- ---- -- ------ ------<br>--- ----- -- ----,259791.67499998584,259789.19499972835,259313.277,259327.00000004843,259329.951,259796.823,,6,lasting
screen,html.Screen,2_1_0_1_7,2021-04-24T18:00:16.761Z,,,,,,,,,,,,,,,,,53,,,,,,,,,,,,,,431.2819997545739,,response,,,,99,,,,,,,Space,keypress(Space),,,,,,,,---- -- ----- -- ------ - ------- and ----------<br>------------- ------ ------ ---- ---- ------- ----- -- ----<br>-------- ------- -- ---------- --- - --- ----- ----- ----<br>---- --- --- ----- --- ---- ---- ------- ----- ---- -------<br>--- --- -- ----- -- --- ---- -- --- ---- -- ------ ------<br>--- ----- -- ----,260231.90499981865,260228.10499975458,259780.149,259791.83499980718,259796.823,260247.021,,7,and
screen,html.Screen,2_1_0_1_8,2021-04-24T18:00:17.190Z,,,,,,,,,,,,,,,,,53,,,,,,,,,,,,,,411.25399981968803,,response,,,,99,,,,,,,Space,keypress(Space),,,,,,,,---- -- ----- -- ------ - ------- --- fulfilling<br>------------- ------ ------ ---- ---- ------- ----- -- ----<br>-------- ------- -- ---------- --- - --- ----- ----- ----<br>---- --- --- ----- --- ---- ---- ------- ----- ---- -------<br>--- --- -- ----- -- --- ---- -- --- ---- -- ------ ------<br>--- ----- -- ----,260660.74500000104,260658.2749998197,260230.347,260231.99999984354,260247.021,260663.871,,8,fulfilling
screen,html.Screen,2_1_0_1_9,2021-04-24T18:00:17.589Z,,,,,,,,,,,,,,,,,53,,,,,,,,,,,,,,393.39399995215354,,response,,,,99,,,,,,,Space,keypress(Space),,,,,,,,"---- -- ----- -- ------ - ------- --- ----------<br>relationship, ------ ------ ---- ---- ------- ----- -- ----<br>-------- ------- -- ---------- --- - --- ----- ----- ----<br>---- --- --- ----- --- ---- ---- ------- ----- ---- -------<br>--- --- -- ----- -- --- ---- -- --- ---- -- ------ ------<br>--- ----- -- ----",261059.91999991238,261057.26499995217,260647.197,260660.90499982238,260663.871,261064.047,,9,"relationship,"
screen,html.Screen,2_1_0_1_10,2021-04-24T18:00:17.834Z,,,,,,,,,,,,,,,,,53,,,,,,,,,,,,,,238.20799998778966,,response,,,,99,,,,,,,Space,keypress(Space),,,,,,,,---- -- ----- -- ------ - ------- --- ----------<br>------------- common ------ ---- ---- ------- ----- -- ----<br>-------- ------- -- ---------- --- - --- ----- ----- ----<br>---- --- --- ----- --- ---- ---- ------- ----- ---- -------<br>--- --- -- ----- -- --- ---- -- --- ---- -- ------ ------<br>--- ----- -- ----,261304.86000003293,261302.25499998778,261047.373,261060.07999973372,261064.047,261314.157,,10,common
screen,html.Screen,2_1_0_1_11,2021-04-24T18:00:18.067Z,,,,,,,,,,,,,,,,,53,,,,,,,,,,,,,,221.08299964817706,,response,,,,99,,,,,,,Space,keypress(Space),,,,,,,,---- -- ----- -- ------ - ------- --- ----------<br>------------- ------ wisdom ---- ---- ------- ----- -- ----<br>-------- ------- -- ---------- --- - --- ----- ----- ----<br>---- --- --- ----- --- ---- ---- ------- ----- ---- -------<br>--- --- -- ----- -- --- ---- -- --- ---- -- ------ ------<br>--- ----- -- ----,261537.89500007406,261535.23999964818,261297.483,261305.0249996595,261314.157,261547.593,,11,wisdom
screen,html.Screen,2_1_0_1_12,2021-04-24T18:00:18.497Z,,,,,,,,,,,,,,,,,53,,,,,,,,,,,,,,417.58200001937803,,response,,,,99,,,,,,,Space,keypress(Space),,,,,,,,---- -- ----- -- ------ - ------- --- ----------<br>------------- ------ ------ says ---- ------- ----- -- ----<br>-------- ------- -- ---------- --- - --- ----- ----- ----<br>---- --- --- ----- --- ---- ---- ------- ----- ---- -------<br>--- --- -- ----- -- --- ---- -- --- ---- -- ------ ------<br>--- ----- -- ----,261967.61499997228,261965.17500001937,261530.919,261538.0549998954,261547.593,261981.117,,12,says
screen,html.Screen,2_1_0_1_13,2021-04-24T18:00:18.840Z,,,,,,,,,,,,,,,,,53,,,,,,,,,,,,,,327.05299962553545,,response,,,,99,,,,,,,Space,keypress(Space),,,,,,,,---- -- ----- -- ------ - ------- --- ----------<br>------------- ------ ------ ---- that ------- ----- -- ----<br>-------- ------- -- ---------- --- - --- ----- ----- ----<br>---- --- --- ----- --- ---- ---- ------- ----- ---- -------<br>--- --- -- ----- -- --- ---- -- --- ---- -- ------ ------<br>--- ----- -- ----,262310.5649999343,262308.16999962553,261964.443,261967.77499979362,261981.117,262314.597,,13,that
screen,html.Screen,2_1_0_1_14,2021-04-24T18:00:19.129Z,,,,,,,,,,,,,,,,,53,,,,,,,,,,,,,,282.56299988838146,,response,,,,99,,,,,,,Space,keypress(Space),,,,,,,,---- -- ----- -- ------ - ------- --- ----------<br>------------- ------ ------ ---- ---- feeling ----- -- ----<br>-------- ------- -- ---------- --- - --- ----- ----- ----<br>---- --- --- ----- --- ---- ---- ------- ----- ---- -------<br>--- --- -- ----- -- --- ---- -- --- ---- -- ------ ------<br>--- ----- -- ----,262599.62499979883,262597.1599998884,262297.923,262310.7249997556,262314.597,262614.729,,14,feeling
screen,html.Screen,2_1_0_1_15,2021-04-24T18:00:19.516Z,,,,,,,,,,,,,,,,,53,,,,,,,,,,,,,,369.34099977306323,,response,,,,99,,,,,,,Space,keypress(Space),,,,,,,,---- -- ----- -- ------ - ------- --- ----------<br>------------- ------ ------ ---- ---- ------- close -- ----<br>-------- ------- -- ---------- --- - --- ----- ----- ----<br>---- --- --- ----- --- ---- ---- ------- ----- ---- -------<br>--- --- -- ----- -- --- ---- -- --- ---- -- ------ ------<br>--- ----- -- ----,262986.54499975964,262984.06999977306,262598.055,262599.78499962017,262614.729,262998.231,,15,close
screen,html.Screen,2_1_0_1_16,2021-04-24T18:00:19.947Z,,,,,,,,,,,,,,,,,53,,,,,,,,,,,,,,416.8739996725926,,response,,,,99,,,,,,,Space,keypress(Space),,,,,,,,---- -- ----- -- ------ - ------- --- ----------<br>------------- ------ ------ ---- ---- ------- ----- to ----<br>-------- ------- -- ---------- --- - --- ----- ----- ----<br>---- --- --- ----- --- ---- ---- ------- ----- ---- -------<br>--- --- -- ----- -- --- ---- -- --- ---- -- ------ ------<br>--- ----- -- ----,263417.6749996841,263415.1049996726,262981.557,262986.7099998519,262998.231,263431.755,,16,to
screen,html.Screen,2_1_0_1_17,2021-04-24T18:00:20.343Z,,,,,,,,,,,,,,,,,53,,,,,,,,,,,,,,379.3700000074459,,response,,,,99,,,,,,,Space,keypress(Space),,,,,,,,---- -- ----- -- ------ - ------- --- ----------<br>------------- ------ ------ ---- ---- ------- ----- -- your<br>-------- ------- -- ---------- --- - --- ----- ----- ----<br>---- --- --- ----- --- ---- ---- ------- ----- ---- -------<br>--- --- -- ----- -- --- ---- -- --- ---- -- ------ ------<br>--- ----- -- ----,263813.584999647,263811.12500000745,263415.081,263417.83999977633,263431.755,263815.257,,17,your
screen,html.Screen,2_1_0_1_18,2021-04-24T18:00:20.760Z,,,,,,,,,,,,,,,,,53,,,,,,,,,,,,,,412.7179996960331,,response,,,,99,,,,,,,Space,keypress(Space),,,,,,,,---- -- ----- -- ------ - ------- --- ----------<br>------------- ------ ------ ---- ---- ------- ----- -- ----<br>romantic ------- -- ---------- --- - --- ----- ----- ----<br>---- --- --- ----- --- ---- ---- ------- ----- ---- -------<br>--- --- -- ----- -- --- ---- -- --- ---- -- ------ ------<br>--- ----- -- ----,264230.57999974117,264227.974999696,263798.583,263813.744999934,263815.257,264232.107,,18,romantic
screen,html.Screen,2_1_0_1_19,2021-04-24T18:00:21.166Z,,,,,,,,,,,,,,,,,53,,,,,,,,,,,,,,401.97800002695294,,response,,,,99,,,,,,,Space,keypress(Space),,,,,,,,---- -- ----- -- ------ - ------- --- ----------<br>------------- ------ ------ ---- ---- ------- ----- -- ----<br>-------- partner -- ---------- --- - --- ----- ----- ----<br>---- --- --- ----- --- ---- ---- ------- ----- ---- -------<br>--- --- -- ----- -- --- ---- -- --- ---- -- ------ ------<br>--- ----- -- ----,264636.61499973387,264634.085000027,264215.433,264230.74000002816,264232.107,264648.957,,19,partner
screen,html.Screen,2_1_0_1_20,2021-04-24T18:00:21.594Z,,,,,,,,,,,,,,,,,53,,,,,,,,,,,,,,412.1080000162474,,response,,,,99,,,,,,,Space,keypress(Space),,,,,,,,---- -- ----- -- ------ - ------- --- ----------<br>------------- ------ ------ ---- ---- ------- ----- -- ----<br>-------- ------- is ---------- --- - --- ----- ----- ----<br>---- --- --- ----- --- ---- ---- ------- ----- ---- -------<br>--- --- -- ----- -- --- ---- -- --- ---- -- ------ ------<br>--- ----- -- ----,265064.934999682,265061.06500001624,264632.283,264636.77500002086,264648.957,265065.807,,20,is
screen,html.Screen,2_1_0_1_21,2021-04-24T18:00:21.941Z,,,,,,,,,,,,,,,,,53,,,,,,,,,,,,,,343.2429999001906,,response,,,,99,,,,,,,Space,keypress(Space),,,,,,,,---- -- ----- -- ------ - ------- --- ----------<br>------------- ------ ------ ---- ---- ------- ----- -- ----<br>-------- ------- -- paramount. --- - --- ----- ----- ----<br>---- --- --- ----- --- ---- ---- ------- ----- ---- -------<br>--- --- -- ----- -- --- ---- -- --- ---- -- ------ ------<br>--- ----- -- ----,265411.5499998443,265409.04999990016,265049.133,265065.10500004515,265065.807,265419.645,,21,paramount.
screen,html.Screen,2_1_0_1_22,2021-04-24T18:00:22.342Z,,,,,,,,,,,,,,,,,53,,,,,,,,,,,,,,390.3800000133924,,response,,,,99,,,,,,,Space,keypress(Space),,,,,,,,---- -- ----- -- ------ - ------- --- ----------<br>------------- ------ ------ ---- ---- ------- ----- -- ----<br>-------- ------- -- ---------- But - --- ----- ----- ----<br>---- --- --- ----- --- ---- ---- ------- ----- ---- -------<br>--- --- -- ----- -- --- ---- -- --- ---- -- ------ ------<br>--- ----- -- ----,265812.65999982134,265810.0250000134,265402.971,265411.7049998604,265419.645,265819.821,,22,But
screen,html.Screen,2_1_0_1_23,2021-04-24T18:00:22.733Z,,,,,,,,,,,,,,,,,53,,,,,,,,,,,,,,381.16400000313297,,response,,,,99,,,,,,,Space,keypress(Space),,,,,,,,---- -- ----- -- ------ - ------- --- ----------<br>------------- ------ ------ ---- ---- ------- ----- -- ----<br>-------- ------- -- ---------- --- a --- ----- ----- ----<br>---- --- --- ----- --- ---- ---- ------- ----- ---- -------<br>--- --- -- ----- -- --- ---- -- --- ---- -- ------ ------<br>--- ----- -- ----,266203.4549997188,266200.98500000313,265803.147,265812.8149998374,265819.821,266219.997,,23,a
screen,html.Screen,2_1_0_1_24,2021-04-24T18:00:23.139Z,,,,,,,,,,,,,,,,,53,,,,,,,,,,,,,,386.9179998948239,,response,,,,99,,,,,,,Space,keypress(Space),,,,,,,,---- -- ----- -- ------ - ------- --- ----------<br>------------- ------ ------ ---- ---- ------- ----- -- ----<br>-------- ------- -- ---------- --- - new ----- ----- ----<br>---- --- --- ----- --- ---- ---- ------- ----- ---- -------<br>--- --- -- ----- -- --- ---- -- --- ---- -- ------ ------<br>--- ----- -- ----,266609.45499967784,266606.9149998948,266203.323,266203.6150000058,266219.997,266620.173,,24,new
screen,html.Screen,2_1_0_1_25,2021-04-24T18:00:23.590Z,,,,,,,,,,,,,,,,,53,,,,,,,,,,,,,,437.8219999228022,,response,,,,99,,,,,,,Space,keypress(Space),,,,,,,,---- -- ----- -- ------ - ------- --- ----------<br>------------- ------ ------ ---- ---- ------- ----- -- ----<br>-------- ------- -- ---------- --- - --- study ----- ----<br>---- --- --- ----- --- ---- ---- ------- ----- ---- -------<br>--- --- -- ----- -- --- ---- -- --- ---- -- ------ ------<br>--- ----- -- ----,267060.6649997644,267057.9949999228,266603.499,266609.6199997701,266620.173,267070.371,,25,study
screen,html.Screen,2_1_0_1_26,2021-04-24T18:00:24.008Z,,,,,,,,,,,,,,,,,53,,,,,,,,,,,,,,405.41399978409754,,response,,,,99,,,,,,,Space,keypress(Space),,,,,,,,---- -- ----- -- ------ - ------- --- ----------<br>------------- ------ ------ ---- ---- ------- ----- -- ----<br>-------- ------- -- ---------- --- - --- ----- finds ----<br>---- --- --- ----- --- ---- ---- ------- ----- ---- -------<br>--- --- -- ----- -- --- ---- -- --- ---- -- ------ ------<br>--- ----- -- ----,267478.80499996245,267475.7849997841,267053.697,267060.82999985665,267070.371,267487.221,,26,finds
screen,html.Screen,2_1_0_1_27,2021-04-24T18:00:24.438Z,,,,,,,,,,,,,,,,,53,,,,,,,,,,,,,,418.708999891649,,response,,,,99,,,,,,,Space,keypress(Space),,,,,,,,---- -- ----- -- ------ - ------- --- ----------<br>------------- ------ ------ ---- ---- ------- ----- -- ----<br>-------- ------- -- ---------- --- - --- ----- ----- that<br>---- --- --- ----- --- ---- ---- ------- ----- ---- -------<br>--- --- -- ----- -- --- ---- -- --- ---- -- ------ ------<br>--- ----- -- ----,267908.4699996747,267905.92999989167,267470.547,267478.9649997838,267487.221,267920.745,,27,that
screen,html.Screen,2_1_0_1_28,2021-04-24T18:00:24.945Z,,,,,,,,,,,,,,,,,53,,,,,,,,,,,,,,493.1149997386383,,response,,,,99,,,,,,,Space,keypress(Space),,,,,,,,---- -- ----- -- ------ - ------- --- ----------<br>------------- ------ ------ ---- ---- ------- ----- -- ----<br>-------- ------- -- ---------- --- - --- ----- ----- ----<br>it's --- --- ----- --- ---- ---- ------- ----- ---- -------<br>--- --- -- ----- -- --- ---- -- --- ---- -- ------ ------<br>--- ----- -- ----,268416.3699997589,268413.85999973863,267904.071,267909.4099998474,267920.745,268420.965,,28,it's
screen,html.Screen,2_1_0_1_29,2021-04-24T18:00:25.420Z,,,,,,,,,,,,,,,,,53,,,,,,,,,,,,,,467.8999996369821,,response,,,,99,,,,,,,Space,keypress(Space),,,,,,,,---- -- ----- -- ------ - ------- --- ----------<br>------------- ------ ------ ---- ---- ------- ----- -- ----<br>-------- ------- -- ---------- --- - --- ----- ----- ----<br>---- not --- ----- --- ---- ---- ------- ----- ---- -------<br>--- --- -- ----- -- --- ---- -- --- ---- -- ------ ------<br>--- ----- -- ----,268890.48999967054,268888.864999637,268404.291,268416.5300000459,268420.965,268904.511,,29,not
screen,html.Screen,2_1_0_1_30,2021-04-24T18:00:25.855Z,,,,,,,,,,,,,,,,,53,,,,,,,,,,,,,,419.2539998627617,,response,,,,99,,,,,,,Space,keypress(Space),,,,,,,,---- -- ----- -- ------ - ------- --- ----------<br>------------- ------ ------ ---- ---- ------- ----- -- ----<br>-------- ------- -- ---------- --- - --- ----- ----- ----<br>---- --- how ----- --- ---- ---- ------- ----- ---- -------<br>--- --- -- ----- -- --- ---- -- --- ---- -- ------ ------<br>--- ----- -- ----,269326.2649998069,269323.76499986276,268887.837,268891.6400000453,268904.511,269338.035,,30,how
screen,html.Screen,2_1_0_1_31,2021-04-24T18:00:26.102Z,,,,,,,,,,,,,,,,,53,,,,,,,,,,,,,,232.6549999641138,,response,,,,99,,,,,,,Space,keypress(Space),,,,,,,,---- -- ----- -- ------ - ------- --- ----------<br>------------- ------ ------ ---- ---- ------- ----- -- ----<br>-------- ------- -- ---------- --- - --- ----- ----- ----<br>---- --- --- close --- ---- ---- ------- ----- ---- -------<br>--- --- -- ----- -- --- ---- -- --- ---- -- ------ ------<br>--- ----- -- ----,269573.2249999419,269570.6899999641,269321.361,269326.43999997526,269338.035,269588.145,,31,close
screen,html.Screen,2_1_0_1_32,2021-04-24T18:00:26.341Z,,,,,,,,,,,,,,,,,53,,,,,,,,,,,,,,221.64499985380098,,response,,,,99,,,,,,,Space,keypress(Space),,,,,,,,---- -- ----- -- ------ - ------- --- ----------<br>------------- ------ ------ ---- ---- ------- ----- -- ----<br>-------- ------- -- ---------- --- - --- ----- ----- ----<br>---- --- --- ----- you ---- ---- ------- ----- ---- -------<br>--- --- -- ----- -- --- ---- -- --- ---- -- ------ ------<br>--- ----- -- ----,269812.2799997218,269809.7899998538,269571.471,269573.379999958,269588.145,269821.581,,32,you
screen,html.Screen,2_1_0_1_33,2021-04-24T18:00:26.596Z,,,,,,,,,,,,,,,,,53,,,,,,,,,,,,,,243.13399986946024,,response,,,,99,,,,,,,Space,keypress(Space),,,,,,,,---- -- ----- -- ------ - ------- --- ----------<br>------------- ------ ------ ---- ---- ------- ----- -- ----<br>-------- ------- -- ---------- --- - --- ----- ----- ----<br>---- --- --- ----- --- feel ---- ------- ----- ---- -------<br>--- --- -- ----- -- --- ---- -- --- ---- -- ------ ------<br>--- ----- -- ----,270067.12999986485,270064.71499986947,269804.907,269812.42999993265,269821.581,270071.691,,33,feel
screen,html.Screen,2_1_0_1_34,2021-04-24T18:00:26.813Z,,,,,,,,,,,,,,,,,53,,,,,,,,,,,,,,209.1189999092603,,response,,,,99,,,,,,,Space,keypress(Space),,,,,,,,---- -- ----- -- ------ - ------- --- ----------<br>------------- ------ ------ ---- ---- ------- ----- -- ----<br>-------- ------- -- ---------- --- - --- ----- ----- ----<br>---- --- --- ----- --- ---- that ------- ----- ---- -------<br>--- --- -- ----- -- --- ---- -- --- ---- -- ------ ------<br>--- ----- -- ----,270283.49999990314,270280.80999990925,270055.017,270067.2800000757,270071.691,270288.453,,34,that
screen,html.Screen,2_1_0_1_35,2021-04-24T18:00:27.046Z,,,,,,,,,,,,,,,,,53,,,,,,,,,,,,,,226.34199973358773,,response,,,,99,,,,,,,Space,keypress(Space),,,,,,,,---- -- ----- -- ------ - ------- --- ----------<br>------------- ------ ------ ---- ---- ------- ----- -- ----<br>-------- ------- -- ---------- --- - --- ----- ----- ----<br>---- --- --- ----- --- ---- ---- matters ----- ---- -------<br>--- --- -- ----- -- --- ---- -- --- ---- -- ------ ------<br>--- ----- -- ----,270517.2999999486,270514.79499973357,270271.779,270283.65499991924,270288.453,270521.889,,35,matters
screen,html.Screen,2_1_0_1_36,2021-04-24T18:00:27.351Z,,,,,,,,,,,,,,,,,53,,,,,,,,,,,,,,297.870999867504,,response,,,,99,,,,,,,Space,keypress(Space),,,,,,,,"---- -- ----- -- ------ - ------- --- ----------<br>------------- ------ ------ ---- ---- ------- ----- -- ----<br>-------- ------- -- ---------- --- - --- ----- ----- ----<br>---- --- --- ----- --- ---- ---- ------- most, ---- -------<br>--- --- -- ----- -- --- ---- -- --- ---- -- ------ ------<br>--- ----- -- ----",270822.27999996394,270819.7599998675,270505.215,270517.4599997699,270521.889,270838.695,,36,"most,"
screen,html.Screen,2_1_0_1_37,2021-04-24T18:00:27.637Z,,,,,,,,,,,,,,,,,53,,,,,,,,,,,,,,266.90999969869154,,response,,,,99,,,,,,,Space,keypress(Space),,,,,,,,---- -- ----- -- ------ - ------- --- ----------<br>------------- ------ ------ ---- ---- ------- ----- -- ----<br>-------- ------- -- ---------- --- - --- ----- ----- ----<br>---- --- --- ----- --- ---- ---- ------- ----- it's -------<br>--- --- -- ----- -- --- ---- -- --- ---- -- ------ ------<br>--- ----- -- ----,271108.21500001475,271105.6049996987,270822.021,270822.42999970913,270838.695,271122.153,,37,it's
screen,html.Screen,2_1_0_1_38,2021-04-24T18:00:27.971Z,,,,,,,,,,,,,,,,,53,,,,,,,,,,,,,,317.5669996747165,,response,,,,99,,,,,,,Space,keypress(Space),,,,,,,,---- -- ----- -- ------ - ------- --- ----------<br>------------- ------ ------ ---- ---- ------- ----- -- ----<br>-------- ------- -- ---------- --- - --- ----- ----- ----<br>---- --- --- ----- --- ---- ---- ------- ----- ---- whether<br>--- --- -- ----- -- --- ---- -- --- ---- -- ------ ------<br>--- ----- -- ----,271442.11499998346,271439.7199996747,271105.479,271108.31000003964,271122.153,271455.633,,38,whether
screen,html.Screen,2_1_0_1_39,2021-04-24T18:00:28.449Z,,,,,,,,,,,,,,,,,53,,,,,,,,,,,,,,462.1019996753312,,response,,,,99,,,,,,,Space,keypress(Space),,,,,,,,---- -- ----- -- ------ - ------- --- ----------<br>------------- ------ ------ ---- ---- ------- ----- -- ----<br>-------- ------- -- ---------- --- - --- ----- ----- ----<br>---- --- --- ----- --- ---- ---- ------- ----- ---- -------<br>you --- -- ----- -- --- ---- -- --- ---- -- ------ ------<br>--- ----- -- ----,271920.2349996194,271917.7349996753,271438.959,271442.26499972865,271455.633,271922.505,,39,you
screen,html.Screen,2_1_0_1_40,2021-04-24T18:00:28.643Z,,,,,,,,,,,,,,,,,53,,,,,,,,,,,,,,189.1499996659113,,response,,,,99,,,,,,,Space,keypress(Space),,,,,,,,---- -- ----- -- ------ - ------- --- ----------<br>------------- ------ ------ ---- ---- ------- ----- -- ----<br>-------- ------- -- ---------- --- - --- ----- ----- ----<br>---- --- --- ----- --- ---- ---- ------- ----- ---- -------<br>--- are -- ----- -- --- ---- -- --- ---- -- ------ ------<br>--- ----- -- ----,272114.30999962613,272111.6549996659,271905.831,271920.3899996355,271922.505,272122.593,,40,are
screen,html.Screen,2_1_0_1_41,2021-04-24T18:00:28.812Z,,,,,,,,,,,,,,,,,53,,,,,,,,,,,,,,157.12199972046074,,response,,,,99,,,,,,,Space,keypress(Space),,,,,,,,---- -- ----- -- ------ - ------- --- ----------<br>------------- ------ ------ ---- ---- ------- ----- -- ----<br>-------- ------- -- ---------- --- - --- ----- ----- ----<br>---- --- --- ----- --- ---- ---- ------- ----- ---- -------<br>--- --- as ----- -- --- ---- -- --- ---- -- ------ ------<br>--- ----- -- ----,272282.4200000614,272279.71499972045,272105.919,272114.4649996422,272122.593,272289.333,,41,as
screen,html.Screen,2_1_0_1_42,2021-04-24T18:00:29.215Z,,,,,,,,,,,,,,,,,53,,,,,,,,,,,,,,394.2969998685876,,response,,,,99,,,,,,,Space,keypress(Space),,,,,,,,---- -- ----- -- ------ - ------- --- ----------<br>------------- ------ ------ ---- ---- ------- ----- -- ----<br>-------- ------- -- ---------- --- - --- ----- ----- ----<br>---- --- --- ----- --- ---- ---- ------- ----- ---- -------<br>--- --- -- close -- --- ---- -- --- ---- -- ------ ------<br>--- ----- -- ----,272686.1000000499,272683.6299998686,272272.659,272282.5750000775,272289.333,272689.509,,42,close
screen,html.Screen,2_1_0_1_43,2021-04-24T18:00:29.354Z,,,,,,,,,,,,,,,,,53,,,,,,,,,,,,,,133.9509996357956,,response,,,,99,,,,,,,Space,keypress(Space),,,,,,,,---- -- ----- -- ------ - ------- --- ----------<br>------------- ------ ------ ---- ---- ------- ----- -- ----<br>-------- ------- -- ---------- --- - --- ----- ----- ----<br>---- --- --- ----- --- ---- ---- ------- ----- ---- -------<br>--- --- -- ----- as --- ---- -- --- ---- -- ------ ------<br>--- ----- -- ----,272825.0649999827,272823.4599996358,272672.835,272686.2699999474,272689.509,272839.575,,43,as
screen,html.Screen,2_1_0_1_44,2021-04-24T18:00:29.818Z,,,,,,,,,,,,,,,,,53,,,,,,,,,,,,,,447.0449999116245,,response,,,,99,,,,,,,Space,keypress(Space),,,,,,,,---- -- ----- -- ------ - ------- --- ----------<br>------------- ------ ------ ---- ---- ------- ----- -- ----<br>-------- ------- -- ---------- --- - --- ----- ----- ----<br>---- --- --- ----- --- ---- ---- ------- ----- ---- -------<br>--- --- -- ----- -- you ---- -- --- ---- -- ------ ------<br>--- ----- -- ----,273289.25999999046,273286.61999991164,272822.901,272825.1600000076,272839.575,273306.447,,44,you
screen,html.Screen,2_1_0_1_45,2021-04-24T18:00:29.951Z,,,,,,,,,,,,,,,,,53,,,,,,,,,,,,,,113.05299984355224,,response,,,,99,,,,,,,Space,keypress(Space),,,,,,,,---- -- ----- -- ------ - ------- --- ----------<br>------------- ------ ------ ---- ---- ------- ----- -- ----<br>-------- ------- -- ---------- --- - --- ----- ----- ----<br>---- --- --- ----- --- ---- ---- ------- ----- ---- -------<br>--- --- -- ----- -- --- want -- --- ---- -- ------ ------<br>--- ----- -- ----,273422.3650000058,273419.49999984354,273289.773,273289.3999996595,273306.447,273439.839,,45,want
screen,html.Screen,2_1_0_1_46,2021-04-24T18:00:30.400Z,,,,,,,,,,,,,,,,,53,,,,,,,,,,,,,,428.7609996960382,,response,,,,99,,,,,,,Space,keypress(Space),,,,,,,,---- -- ----- -- ------ - ------- --- ----------<br>------------- ------ ------ ---- ---- ------- ----- -- ----<br>-------- ------- -- ---------- --- - --- ----- ----- ----<br>---- --- --- ----- --- ---- ---- ------- ----- ---- -------<br>--- --- -- ----- -- --- ---- to --- ---- -- ------ ------<br>--- ----- -- ----,273871.09000002965,273868.599999696,273423.165,273422.5200000219,273439.839,273873.363,,46,to
screen,html.Screen,2_1_0_1_47,2021-04-24T18:00:30.564Z,,,,,,,,,,,,,,,,,53,,,,,,,,,,,,,,159.2619999925373,,response,,,,99,,,,,,,Space,keypress(Space),,,,,,,,"---- -- ----- -- ------ - ------- --- ----------<br>------------- ------ ------ ---- ---- ------- ----- -- ----<br>-------- ------- -- ---------- --- - --- ----- ----- ----<br>---- --- --- ----- --- ---- ---- ------- ----- ---- -------<br>--- --- -- ----- -- --- ---- -- be, ---- -- ------ ------<br>--- ----- -- ----",274035.1299997419,274032.62499999255,273856.689,273871.23999977484,273873.363,274040.103,,47,"be,"
screen,html.Screen,2_1_0_1_48,2021-04-24T18:00:30.944Z,,,,,,,,,,,,,,,,,53,,,,,,,,,,,,,,372.4619998895796,,response,,,,99,,,,,,,Space,keypress(Space),,,,,,,,---- -- ----- -- ------ - ------- --- ----------<br>------------- ------ ------ ---- ---- ------- ----- -- ----<br>-------- ------- -- ---------- --- - --- ----- ----- ----<br>---- --- --- ----- --- ---- ---- ------- ----- ---- -------<br>--- --- -- ----- -- --- ---- -- --- even -- ------ ------<br>--- ----- -- ----,274415.03500007093,274412.5649998896,274023.429,274035.2699998766,274040.103,274423.605,,48,even
screen,html.Screen,2_1_0_1_49,2021-04-24T18:00:31.098Z,,,,,,,,,,,,,,,,,53,,,,,,,,,,,,,,142.95499971555546,,response,,,,99,,,,,,,Space,keypress(Space),,,,,,,,---- -- ----- -- ------ - ------- --- ----------<br>------------- ------ ------ ---- ---- ------- ----- -- ----<br>-------- ------- -- ---------- --- - --- ----- ----- ----<br>---- --- --- ----- --- ---- ---- ------- ----- ---- -------<br>--- --- -- ----- -- --- ---- -- --- ---- if ------ ------<br>--- ----- -- ----,274569.05999965966,274566.55999971554,274406.931,274415.1849998161,274423.605,274573.671,,49,if
screen,html.Screen,2_1_0_1_50,2021-04-24T18:00:31.804Z,,,,,,,,,,,,,,,,,53,,,,,,,,,,,,,,698.8939997592242,,response,,,,99,,,,,,,Space,keypress(Space),,,,,,,,---- -- ----- -- ------ - ------- --- ----------<br>------------- ------ ------ ---- ---- ------- ----- -- ----<br>-------- ------- -- ---------- --- - --- ----- ----- ----<br>---- --- --- ----- --- ---- ---- ------- ----- ---- -------<br>--- --- -- ----- -- --- ---- -- --- ---- -- that's ------<br>--- ----- -- ----,275274.9899998307,275272.5649997592,274556.997,274569.2099998705,274573.671,275290.653,,50,that's
screen,html.Screen,2_1_0_1_51,2021-04-24T18:00:32.374Z,,,,,,,,,,,,,,,,,53,,,,,,,,,,,,,,551.8819998287945,,response,,,,99,,,,,,,Space,keypress(Space),,,,,,,,---- -- ----- -- ------ - ------- --- ----------<br>------------- ------ ------ ---- ---- ------- ----- -- ----<br>-------- ------- -- ---------- --- - --- ----- ----- ----<br>---- --- --- ----- --- ---- ---- ------- ----- ---- -------<br>--- --- -- ----- -- --- ---- -- --- ---- -- ------ really<br>--- ----- -- ----,275845.0499996543,275842.5349998288,275273.979,275275.1349997707,275290.653,275857.569,,51,really
screen,html.Screen,2_1_0_1_52,2021-04-24T18:00:32.868Z,,,,,,,,,,,,,,,,,53,,,,,,,,,,,,,,478.971000047517,,response,,,,99,,,,,,,Space,keypress(Space),,,,,,,,---- -- ----- -- ------ - ------- --- ----------<br>------------- ------ ------ ---- ---- ------- ----- -- ----<br>-------- ------- -- ---------- --- - --- ----- ----- ----<br>---- --- --- ----- --- ---- ---- ------- ----- ---- -------<br>--- --- -- ----- -- --- ---- -- --- ---- -- ------ ------<br>not ----- -- ----,276339.0249996446,276336.54000004753,275840.895,275845.19999986514,275857.569,276348.81,,52,not
screen,html.Screen,2_1_0_1_53,2021-04-24T18:00:33.282Z,,,,,,,,,,,,,,,,,53,,,,,,,,,,,,,,401.6849998110556,,response,,,,99,,,,,,,Space,keypress(Space),,,,,,,,---- -- ----- -- ------ - ------- --- ----------<br>------------- ------ ------ ---- ---- ------- ----- -- ----<br>-------- ------- -- ---------- --- - --- ----- ----- ----<br>---- --- --- ----- --- ---- ---- ------- ----- ---- -------<br>--- --- -- ----- -- --- ---- -- --- ---- -- ------ ------<br>--- close -- ----,276752.8399997391,276750.49499981105,276332.136,276340.29999980703,276348.81,276765.66,,53,close
screen,html.Screen,2_1_0_1_54,2021-04-24T18:00:33.898Z,,,,,,,,,,,,,,,,,53,,,,,,,,,,,,,,600.8400000037509,,response,,,,99,,,,,,,Space,keypress(Space),,,,,,,,---- -- ----- -- ------ - ------- --- ----------<br>------------- ------ ------ ---- ---- ------- ----- -- ----<br>-------- ------- -- ---------- --- - --- ----- ----- ----<br>---- --- --- ----- --- ---- ---- ------- ----- ---- -------<br>--- --- -- ----- -- --- ---- -- --- ---- -- ------ ------<br>--- ----- at ----,277368.8949998468,277366.5000000037,276748.986,276752.984999679,276765.66,277382.598,,54,at
screen,html.Screen,2_1_0_1_55,2021-04-24T18:00:34.404Z,,,,,,,,,,,,,,,,,53,,,,,,,,,,,,,,489.0819998655934,,response,,,,99,,,,,,,Space,keypress(Space),,,,,,,,---- -- ----- -- ------ - ------- --- ----------<br>------------- ------ ------ ---- ---- ------- ----- -- ----<br>-------- ------- -- ---------- --- - --- ----- ----- ----<br>---- --- --- ----- --- ---- ---- ------- ----- ---- -------<br>--- --- -- ----- -- --- ---- -- --- ---- -- ------ ------<br>--- ----- -- all.,277874.5349999517,277871.6799998656,277365.924,277369.04500005767,277382.598,277882.818,,55,all.
Item 99,flow.Loop,2_1_0_1,2021-04-24T18:00:34.404Z,,,,,,,,,,,,,,,,,,,,,,,,,,,,,,,21509.7009998656,,completion,,,,,E,,,,,,,,,,,silence,,,,,277874.82999963686,277871.6799998656,256345.305,256347.28499967605,256361.979,277882.818,,,
Question 1,html.Screen,2_1_0_2,2021-04-24T18:00:37.172Z,,,,,,,,,,,,,,,,,,,,,,,,,,,,true,FALSE,,2757.056999877037,,response,,,,99,E,,,,,,FALSE,click #choice-2,,,,silence,,,,,280642.70500000566,280639.87499987707,277866.144,277874.9649999663,277882.818,280650.702,,,
Question 2,html.Screen,2_1_0_3,2021-04-24T18:00:48.806Z,,,,,,,,,,,,,,,,,,,,,,,,,,,,true,TRUE,,11622.892999685893,,response,,,,99,E,,,,,,TRUE,click #choice-1,,,,silence,,,,,292276.79000003263,292273.5949996859,280634.028,280642.8049998358,280650.702,292276.426,,,
Item 99,flow.Sequence,2_1_0,2021-04-24T18:00:48.806Z,,,,,,,,,,,,,,,,,,,,,,,,,,,,,,,45917.332999685896,,completion,,,,,,,,,,,,,,,,,,,,,292277.0199999213,292273.5949996859,246339.588,246354.40999967977,246356.262,292276.426,,,
Holding screen,html.Screen,2_1_1_0,2021-04-24T18:00:58.787Z,,,,,,,,,,,,,,,,,,,,,,,,,,,,,,,9995.17200000002,,timeout,,,,,,,,,,,,,,,,,,,,,302257.26499967277,302254.924,292259.752,292277.12500002235,292276.426,302271.598,,,
screen,html.Screen,2_1_1_1_0,2021-04-24T18:00:59.764Z,,,,,,,,,,,,,,,,,54,,,,,,,,,,,,,,959.5619999666233,,response,,,,100,,,,,,,Space,keypress(Space),,,,,,,,At --- ---- --- ------ ----- ------- ---- -- --- ------- --<br>------- ---------- ------ -- ----- -- ----- -- ---- ------<br>--- ----- --- --- ------ -------- ----- --- ------ ----- --<br>----- ----- ---------- --- --- ------ ------ ---- -- ------<br>------- --- ------ ----- --- ---- ------- -- ---- --- --<br>------- ------,303234.57499966025,303231.1599999666,302254.924,302257.53499986604,302271.598,303238.69,,0,At
screen,html.Screen,2_1_1_1_1,2021-04-24T18:00:59.975Z,,,,,,,,,,,,,,,,,54,,,,,,,,,,,,,,204.1849997168756,,response,,,,100,,,,,,,Space,keypress(Space),,,,,,,,-- the ---- --- ------ ----- ------- ---- -- --- ------- --<br>------- ---------- ------ -- ----- -- ----- -- ---- ------<br>--- ----- --- --- ------ -------- ----- --- ------ ----- --<br>----- ----- ---------- --- --- ------ ------ ---- -- ------<br>------- --- ------ ----- --- ---- ------- -- ---- --- --<br>------- ------,303445.35499997437,303442.8749997169,303222.016,303234.73499994725,303238.69,303455.452,,1,the
screen,html.Screen,2_1_1_1_2,2021-04-24T18:01:00.172Z,,,,,,,,,,,,,,,,,54,,,,,,,,,,,,,,184.5879999693134,,response,,,,100,,,,,,,Space,keypress(Space),,,,,,,,-- --- time --- ------ ----- ------- ---- -- --- ------- --<br>------- ---------- ------ -- ----- -- ----- -- ---- ------<br>--- ----- --- --- ------ -------- ----- --- ------ ----- --<br>----- ----- ---------- --- --- ------ ------ ---- -- ------<br>------- --- ------ ----- --- ---- ------- -- ---- --- --<br>------- ------,303642.40999985486,303640.0399999693,303438.778,303445.50499971956,303455.452,303655.54,,2,time
screen,html.Screen,2_1_1_1_3,2021-04-24T18:01:00.361Z,,,,,,,,,,,,,,,,,54,,,,,,,,,,,,,,173.47499979200074,,response,,,,100,,,,,,,Space,keypress(Space),,,,,,,,-- --- ---- the ------ ----- ------- ---- -- --- ------- --<br>------- ---------- ------ -- ----- -- ----- -- ---- ------<br>--- ----- --- --- ------ -------- ----- --- ------ ----- --<br>----- ----- ---------- --- --- ------ ------ ---- -- ------<br>------- --- ------ ----- --- ---- ------- -- ---- --- --<br>------- ------,303831.4699996263,303829.014999792,303638.866,303642.5549997948,303655.54,303838.954,,3,the
screen,html.Screen,2_1_1_1_4,2021-04-24T18:01:00.544Z,,,,,,,,,,,,,,,,,54,,,,,,,,,,,,,,172.93599973234814,,response,,,,100,,,,,,,Space,keypress(Space),,,,,,,,-- --- ---- --- French ----- ------- ---- -- --- ------- --<br>------- ---------- ------ -- ----- -- ----- -- ---- ------<br>--- ----- --- --- ------ -------- ----- --- ------ ----- --<br>----- ----- ---------- --- --- ------ ------ ---- -- ------<br>------- --- ------ ----- --- ---- ------- -- ---- --- --<br>------- ------,304014.3499998376,304011.8899997324,303822.28,303831.6249996424,303838.954,304022.368,,4,French
screen,html.Screen,2_1_1_1_5,2021-04-24T18:01:00.737Z,,,,,,,,,,,,,,,,,54,,,,,,,,,,,,,,182.59700004081242,,response,,,,100,,,,,,,Space,keypress(Space),,,,,,,,-- --- ---- --- ------ crown ------- ---- -- --- ------- --<br>------- ---------- ------ -- ----- -- ----- -- ---- ------<br>--- ----- --- --- ------ -------- ----- --- ------ ----- --<br>----- ----- ---------- --- --- ------ ------ ---- -- ------<br>------- --- ------ ----- --- ---- ------- -- ---- --- --<br>------- ------,304207.50499982387,304204.96500004083,304005.694,304014.4949997775,304022.368,304222.456,,5,crown
screen,html.Screen,2_1_1_1_6,2021-04-24T18:01:00.929Z,,,,,,,,,,,,,,,,,54,,,,,,,,,,,,,,174.5390000755433,,response,,,,100,,,,,,,Space,keypress(Space),,,,,,,,-- --- ---- --- ------ ----- secured ---- -- --- ------- --<br>------- ---------- ------ -- ----- -- ----- -- ---- ------<br>--- ----- --- --- ------ -------- ----- --- ------ ----- --<br>----- ----- ---------- --- --- ------ ------ ---- -- ------<br>------- --- ------ ----- --- ---- ------- -- ---- --- --<br>------- ------,304399.43500002846,304396.99500007555,304205.782,304207.6550000347,304222.456,304405.87,,6,secured
screen,html.Screen,2_1_1_1_7,2021-04-24T18:01:01.126Z,,,,,,,,,,,,,,,,,54,,,,,,,,,,,,,,188.07499985501636,,response,,,,100,,,,,,,Space,keypress(Space),,,,,,,,-- --- ---- --- ------ ----- ------- much -- --- ------- --<br>------- ---------- ------ -- ----- -- ----- -- ---- ------<br>--- ----- --- --- ------ -------- ----- --- ------ ----- --<br>----- ----- ---------- --- --- ------ ------ ---- -- ------<br>------- --- ------ ----- --- ---- ------- -- ---- --- --<br>------- ------,304596.42999991775,304593.944999855,304389.196,304399.5799999684,304405.87,304605.958,,7,much
screen,html.Screen,2_1_1_1_8,2021-04-24T18:01:01.327Z,,,,,,,,,,,,,,,,,54,,,,,,,,,,,,,,189.02700004412327,,response,,,,100,,,,,,,Space,keypress(Space),,,,,,,,-- --- ---- --- ------ ----- ------- ---- of --- ------- --<br>------- ---------- ------ -- ----- -- ----- -- ---- ------<br>--- ----- --- --- ------ -------- ----- --- ------ ----- --<br>----- ----- ---------- --- --- ------ ------ ---- -- ------<br>------- --- ------ ----- --- ---- ------- -- ---- --- --<br>------- ------,304797.50499967486,304794.9850000441,304589.284,304596.5749998577,304605.958,304806.046,,8,of
screen,html.Screen,2_1_1_1_9,2021-04-24T18:01:01.538Z,,,,,,,,,,,,,,,,,54,,,,,,,,,,,,,,199.9289996289881,,response,,,,100,,,,,,,Space,keypress(Space),,,,,,,,-- --- ---- --- ------ ----- ------- ---- -- its ------- --<br>------- ---------- ------ -- ----- -- ----- -- ---- ------<br>--- ----- --- --- ------ -------- ----- --- ------ ----- --<br>----- ----- ---------- --- --- ------ ------ ---- -- ------<br>------- --- ------ ----- --- ---- ------- -- ---- --- --<br>------- ------,305008.39499989524,305005.97499962896,304789.372,304797.64499980956,304806.046,305022.808,,9,its
screen,html.Screen,2_1_1_1_10,2021-04-24T18:01:01.745Z,,,,,,,,,,,,,,,,,54,,,,,,,,,,,,,,190.18699971790193,,response,,,,100,,,,,,,Space,keypress(Space),,,,,,,,-- --- ---- --- ------ ----- ------- ---- -- --- revenue --<br>------- ---------- ------ -- ----- -- ----- -- ---- ------<br>--- ----- --- --- ------ -------- ----- --- ------ ----- --<br>----- ----- ---------- --- --- ------ ------ ---- -- ------<br>------- --- ------ ----- --- ---- ------- -- ---- --- --<br>------- ------,305215.3749996796,305212.9949997179,305006.134,305008.5399998352,305022.808,305222.896,,10,revenue
screen,html.Screen,2_1_1_1_11,2021-04-24T18:01:01.957Z,,,,,,,,,,,,,,,,,54,,,,,,,,,,,,,,202.0839996614377,,response,,,,100,,,,,,,Space,keypress(Space),,,,,,,,-- --- ---- --- ------ ----- ------- ---- -- --- ------- by<br>------- ---------- ------ -- ----- -- ----- -- ---- ------<br>--- ----- --- --- ------ -------- ----- --- ------ ----- --<br>----- ----- ---------- --- --- ------ ------ ---- -- ------<br>------- --- ------ ----- --- ---- ------- -- ---- --- --<br>------- ------,305427.5449998677,305424.97999966145,305206.222,305215.5199996196,305222.896,305439.658,,11,by
screen,html.Screen,2_1_1_1_12,2021-04-24T18:01:02.197Z,,,,,,,,,,,,,,,,,54,,,,,,,,,,,,,,225.14199991134228,,response,,,,100,,,,,,,Space,keypress(Space),,,,,,,,-- --- ---- --- ------ ----- ------- ---- -- --- ------- --<br>issuing ---------- ------ -- ----- -- ----- -- ---- ------<br>--- ----- --- --- ------ -------- ----- --- ------ ----- --<br>----- ----- ---------- --- --- ------ ------ ---- -- ------<br>------- --- ------ ----- --- ---- ------- -- ---- --- --<br>------- ------,305667.15999972075,305664.79999991134,305422.984,305427.69500007853,305439.658,305673.094,,12,issuing
screen,html.Screen,2_1_1_1_13,2021-04-24T18:01:02.399Z,,,,,,,,,,,,,,,,,54,,,,,,,,,,,,,,193.86099997587735,,response,,,,100,,,,,,,Space,keypress(Space),,,,,,,,-- --- ---- --- ------ ----- ------- ---- -- --- ------- --<br>------- government ------ -- ----- -- ----- -- ---- ------<br>--- ----- --- --- ------ -------- ----- --- ------ ----- --<br>----- ----- ---------- --- --- ------ ------ ---- -- ------<br>------- --- ------ ----- --- ---- ------- -- ---- --- --<br>------- ------,305869.6200000122,305866.95499997586,305656.42,305667.3099999316,305673.094,305873.182,,13,government
screen,html.Screen,2_1_1_1_14,2021-04-24T18:01:02.618Z,,,,,,,,,,,,,,,,,54,,,,,,,,,,,,,,212.74299978843192,,response,,,,100,,,,,,,Space,keypress(Space),,,,,,,,-- --- ---- --- ------ ----- ------- ---- -- --- ------- --<br>------- ---------- bonds. -- ----- -- ----- -- ---- ------<br>--- ----- --- --- ------ -------- ----- --- ------ ----- --<br>----- ----- ---------- --- --- ------ ------ ---- -- ------<br>------- --- ------ ----- --- ---- ------- -- ---- --- --<br>------- ------,306088.52999983355,306085.9249997884,305856.508,305869.76499995217,305873.182,306089.944,,14,bonds.
screen,html.Screen,2_1_1_1_15,2021-04-24T18:01:02.808Z,,,,,,,,,,,,,,,,,54,,,,,,,,,,,,,,185.83099998731632,,response,,,,100,,,,,,,Space,keypress(Space),,,,,,,,-- --- ---- --- ------ ----- ------- ---- -- --- ------- --<br>------- ---------- ------ In ----- -- ----- -- ---- ------<br>--- ----- --- --- ------ -------- ----- --- ------ ----- --<br>----- ----- ---------- --- --- ------ ------ ---- -- ------<br>------- --- ------ ----- --- ---- ------- -- ---- --- --<br>------- ------,306278.3999997191,306275.77499998733,306073.27,306088.6749997735,306089.944,306290.032,,15,In
screen,html.Screen,2_1_1_1_16,2021-04-24T18:01:03.006Z,,,,,,,,,,,,,,,,,54,,,,,,,,,,,,,,183.87299990432803,,response,,,,100,,,,,,,Space,keypress(Space),,,,,,,,"-- --- ---- --- ------ ----- ------- ---- -- --- ------- --<br>------- ---------- ------ -- 1727, -- ----- -- ---- ------<br>--- ----- --- --- ------ -------- ----- --- ------ ----- --<br>----- ----- ---------- --- --- ------ ------ ---- -- ------<br>------- --- ------ ----- --- ---- ------- -- ---- --- --<br>------- ------",306476.429999806,306473.90499990433,306273.358,306278.54499965906,306290.032,306490.12,,16,"1727,"
screen,html.Screen,2_1_1_1_17,2021-04-24T18:01:03.204Z,,,,,,,,,,,,,,,,,54,,,,,,,,,,,,,,181.64999989897478,,response,,,,100,,,,,,,Space,keypress(Space),,,,,,,,-- --- ---- --- ------ ----- ------- ---- -- --- ------- --<br>------- ---------- ------ -- ----- in ----- -- ---- ------<br>--- ----- --- --- ------ -------- ----- --- ------ ----- --<br>----- ----- ---------- --- --- ------ ------ ---- -- ------<br>------- --- ------ ----- --- ---- ------- -- ---- --- --<br>------- ------,306674.33499963954,306671.76999989897,306473.446,306476.57499974594,306490.12,306690.208,,17,in
screen,html.Screen,2_1_1_1_18,2021-04-24T18:01:03.398Z,,,,,,,,,,,,,,,,,54,,,,,,,,,,,,,,175.44200005067978,,response,,,,100,,,,,,,Space,keypress(Space),,,,,,,,-- --- ---- --- ------ ----- ------- ---- -- --- ------- --<br>------- ---------- ------ -- ----- -- order -- ---- ------<br>--- ----- --- --- ------ -------- ----- --- ------ ----- --<br>----- ----- ---------- --- --- ------ ------ ---- -- ------<br>------- --- ------ ----- --- ---- ------- -- ---- --- --<br>------- ------,306868.1649998762,306865.65000005066,306673.534,306674.48000004515,306690.208,306877.529,,18,order
screen,html.Screen,2_1_1_1_19,2021-04-24T18:01:03.829Z,,,,,,,,,,,,,,,,,54,,,,,,,,,,,,,,419.28600000881124,,response,,,,100,,,,,,,Space,keypress(Space),,,,,,,,-- --- ---- --- ------ ----- ------- ---- -- --- ------- --<br>------- ---------- ------ -- ----- -- ----- to ---- ------<br>--- ----- --- --- ------ -------- ----- --- ------ ----- --<br>----- ----- ---------- --- --- ------ ------ ---- -- ------<br>------- --- ------ ----- --- ---- ------- -- ---- --- --<br>------- ------,307299.27999991924,307296.8150000088,306860.855,306868.25499963015,306877.529,307311.053,,19,to
screen,html.Screen,2_1_1_1_20,2021-04-24T18:01:04.046Z,,,,,,,,,,,,,,,,,54,,,,,,,,,,,,,,203.72200004692422,,response,,,,100,,,,,,,Space,keypress(Space),,,,,,,,-- --- ---- --- ------ ----- ------- ---- -- --- ------- --<br>------- ---------- ------ -- ----- -- ----- -- save ------<br>--- ----- --- --- ------ -------- ----- --- ------ ----- --<br>----- ----- ---------- --- --- ------ ------ ---- -- ------<br>------- --- ------ ----- --- ---- ------- -- ---- --- --<br>------- ------,307516.6599997319,307514.77500004694,307294.379,307299.4349999353,307311.053,307527.815,,20,save
screen,html.Screen,2_1_1_1_21,2021-04-24T18:01:04.258Z,,,,,,,,,,,,,,,,,54,,,,,,,,,,,,,,198.82999981328612,,response,,,,100,,,,,,,Space,keypress(Space),,,,,,,,"-- --- ---- --- ------ ----- ------- ---- -- --- ------- --<br>------- ---------- ------ -- ----- -- ----- -- ---- money,<br>--- ----- --- --- ------ -------- ----- --- ------ ----- --<br>----- ----- ---------- --- --- ------ ------ ---- -- ------<br>------- --- ------ ----- --- ---- ------- -- ---- --- --<br>------- ------",307728.82999992,307726.6449998133,307511.141,307516.7549997568,307527.815,307744.577,,21,"money,"
screen,html.Screen,2_1_1_1_22,2021-04-24T18:01:04.484Z,,,,,,,,,,,,,,,,,54,,,,,,,,,,,,,,207.27299983758712,,response,,,,100,,,,,,,Space,keypress(Space),,,,,,,,-- --- ---- --- ------ ----- ------- ---- -- --- ------- --<br>------- ---------- ------ -- ----- -- ----- -- ---- ------<br>the ----- --- --- ------ -------- ----- --- ------ ----- --<br>----- ----- ---------- --- --- ------ ------ ---- -- ------<br>------- --- ------ ----- --- ---- ------- -- ---- --- --<br>------- ------,307954.41999984905,307951.8499998376,307727.903,307728.91999967396,307744.577,307961.339,,22,the
screen,html.Screen,2_1_1_1_23,2021-04-24T18:01:04.699Z,,,,,,,,,,,,,,,,,54,,,,,,,,,,,,,,205.4809999258141,,response,,,,100,,,,,,,Space,keypress(Space),,,,,,,,-- --- ---- --- ------ ----- ------- ---- -- --- ------- --<br>------- ---------- ------ -- ----- -- ----- -- ---- ------<br>--- state --- --- ------ -------- ----- --- ------ ----- --<br>----- ----- ---------- --- --- ------ ------ ---- -- ------<br>------- --- ------ ----- --- ---- ------- -- ---- --- --<br>------- ------,308169.1549997777,308166.8199999258,307944.665,307954.564999789,307961.339,308178.101,,23,state
screen,html.Screen,2_1_1_1_24,2021-04-24T18:01:04.925Z,,,,,,,,,,,,,,,,,54,,,,,,,,,,,,,,216.47399980924092,,response,,,,100,,,,,,,Space,keypress(Space),,,,,,,,-- --- ---- --- ------ ----- ------- ---- -- --- ------- --<br>------- ---------- ------ -- ----- -- ----- -- ---- ------<br>--- ----- cut --- ------ -------- ----- --- ------ ----- --<br>----- ----- ---------- --- --- ------ ------ ---- -- ------<br>------- --- ------ ----- --- ---- ------- -- ---- --- --<br>------- ------,308396.0249996744,308394.57499980927,308161.427,308169.2999997176,308178.101,308411.537,,24,cut
screen,html.Screen,2_1_1_1_25,2021-04-24T18:01:05.138Z,,,,,,,,,,,,,,,,,54,,,,,,,,,,,,,,194.18799968110397,,response,,,,100,,,,,,,Space,keypress(Space),,,,,,,,-- --- ---- --- ------ ----- ------- ---- -- --- ------- --<br>------- ---------- ------ -- ----- -- ----- -- ---- ------<br>--- ----- --- the ------ -------- ----- --- ------ ----- --<br>----- ----- ---------- --- --- ------ ------ ---- -- ------<br>------- --- ------ ----- --- ---- ------- -- ---- --- --<br>------- ------,308608.2500000484,308605.7249996811,308394.863,308396.1049998179,308411.537,308611.625,,25,the
screen,html.Screen,2_1_1_1_26,2021-04-24T18:01:05.360Z,,,,,,,,,,,,,,,,,54,,,,,,,,,,,,,,216.06999998539686,,response,,,,100,,,,,,,Space,keypress(Space),,,,,,,,-- --- ---- --- ------ ----- ------- ---- -- --- ------- --<br>------- ---------- ------ -- ----- -- ----- -- ---- ------<br>--- ----- --- --- bonds' -------- ----- --- ------ ----- --<br>----- ----- ---------- --- --- ------ ------ ---- -- ------<br>------- --- ------ ----- --- ---- ------- -- ---- --- --<br>------- ------,308830.3449996747,308827.6949999854,308594.951,308608.3899997175,308611.625,308845.061,,26,bonds'
screen,html.Screen,2_1_1_1_27,2021-04-24T18:01:05.703Z,,,,,,,,,,,,,,,,,54,,,,,,,,,,,,,,325.658999820007,,response,,,,100,,,,,,,Space,keypress(Space),,,,,,,,-- --- ---- --- ------ ----- ------- ---- -- --- ------- --<br>------- ---------- ------ -- ----- -- ----- -- ---- ------<br>--- ----- --- --- ------ interest ----- --- ------ ----- --<br>----- ----- ---------- --- --- ------ ------ ---- -- ------<br>------- --- ------ ----- --- ---- ------- -- ---- --- --<br>------- ------,309173.1799999252,309170.71999982,308828.387,308830.49499988556,308845.061,309178.541,,27,interest
screen,html.Screen,2_1_1_1_28,2021-04-24T18:01:06.103Z,,,,,,,,,,,,,,,,,54,,,,,,,,,,,,,,393.11899989953963,,response,,,,100,,,,,,,Space,keypress(Space),,,,,,,,-- --- ---- --- ------ ----- ------- ---- -- --- ------- --<br>------- ---------- ------ -- ----- -- ----- -- ---- ------<br>--- ----- --- --- ------ -------- rate. --- ------ ----- --<br>----- ----- ---------- --- --- ------ ------ ---- -- ------<br>------- --- ------ ----- --- ---- ------- -- ---- --- --<br>------- ------,309574.0299997851,309571.65999989957,309161.867,309173.3299996704,309178.541,309578.717,,28,rate.
screen,html.Screen,2_1_1_1_29,2021-04-24T18:01:06.435Z,,,,,,,,,,,,,,,,,54,,,,,,,,,,,,,,324.02299981581746,,response,,,,100,,,,,,,Space,keypress(Space),,,,,,,,-- --- ---- --- ------ ----- ------- ---- -- --- ------- --<br>------- ---------- ------ -- ----- -- ----- -- ---- ------<br>--- ----- --- --- ------ -------- ----- The ------ ----- --<br>----- ----- ---------- --- --- ------ ------ ---- -- ------<br>------- --- ------ ----- --- ---- ------- -- ---- --- --<br>------- ------,309905.24500003085,309902.7399998158,309562.043,309574.1749997251,309578.717,309912.197,,29,The
screen,html.Screen,2_1_1_1_30,2021-04-24T18:01:06.740Z,,,,,,,,,,,,,,,,,54,,,,,,,,,,,,,,295.5329999073292,,response,,,,100,,,,,,,Space,keypress(Space),,,,,,,,-- --- ---- --- ------ ----- ------- ---- -- --- ------- --<br>------- ---------- ------ -- ----- -- ----- -- ---- ------<br>--- ----- --- --- ------ -------- ----- --- market ----- --<br>----- ----- ---------- --- --- ------ ------ ---- -- ------<br>------- --- ------ ----- --- ---- ------- -- ---- --- --<br>------- ------,310210.199999623,310207.7299999073,309895.523,309905.39499977604,309912.197,310212.329,,30,market
screen,html.Screen,2_1_1_1_31,2021-04-24T18:01:07.007Z,,,,,,,,,,,,,,,,,54,,,,,,,,,,,,,,262.3709996714024,,response,,,,100,,,,,,,Space,keypress(Space),,,,,,,,-- --- ---- --- ------ ----- ------- ---- -- --- ------- --<br>------- ---------- ------ -- ----- -- ----- -- ---- ------<br>--- ----- --- --- ------ -------- ----- --- ------ value --<br>----- ----- ---------- --- --- ------ ------ ---- -- ------<br>------- --- ------ ----- --- ---- ------- -- ---- --- --<br>------- ------,310477.21999976784,310474.69999967143,310195.655,310210.3450000286,310212.329,310479.113,,31,value
screen,html.Screen,2_1_1_1_32,2021-04-24T18:01:07.582Z,,,,,,,,,,,,,,,,,54,,,,,,,,,,,,,,571.4769996496616,,response,,,,100,,,,,,,Space,keypress(Space),,,,,,,,-- --- ---- --- ------ ----- ------- ---- -- --- ------- --<br>------- ---------- ------ -- ----- -- ----- -- ---- ------<br>--- ----- --- --- ------ -------- ----- --- ------ ----- of<br>----- ----- ---------- --- --- ------ ------ ---- -- ------<br>------- --- ------ ----- --- ---- ------- -- ---- --- --<br>------- ------,311052.51499963924,311050.5899996497,310462.439,310477.35999990255,310479.113,311062.703,,32,of
screen,html.Screen,2_1_1_1_33,2021-04-24T18:01:07.850Z,,,,,,,,,,,,,,,,,54,,,,,,,,,,,,,,254.94699963345192,,response,,,,100,,,,,,,Space,keypress(Space),,,,,,,,-- --- ---- --- ------ ----- ------- ---- -- --- ------- --<br>------- ---------- ------ -- ----- -- ----- -- ---- ------<br>--- ----- --- --- ------ -------- ----- --- ------ ----- --<br>these ----- ---------- --- --- ------ ------ ---- -- ------<br>------- --- ------ ----- --- ---- ------- -- ---- --- --<br>------- ------,311320.1949996874,311317.64999963343,311046.029,311052.6099996641,311062.703,311329.487,,33,these
screen,html.Screen,2_1_1_1_34,2021-04-24T18:01:08.199Z,,,,,,,,,,,,,,,,,54,,,,,,,,,,,,,,338.13299996376736,,response,,,,100,,,,,,,Space,keypress(Space),,,,,,,,-- --- ---- --- ------ ----- ------- ---- -- --- ------- --<br>------- ---------- ------ -- ----- -- ----- -- ---- ------<br>--- ----- --- --- ------ -------- ----- --- ------ ----- --<br>----- bonds ---------- --- --- ------ ------ ---- -- ------<br>------- --- ------ ----- --- ---- ------- -- ---- --- --<br>------- ------,311670.080000069,311667.6199999638,311312.813,311320.3399996273,311329.487,311679.641,,34,bonds
screen,html.Screen,2_1_1_1_35,2021-04-24T18:01:08.455Z,,,,,,,,,,,,,,,,,54,,,,,,,,,,,,,,243.91399975382956,,response,,,,100,,,,,,,Space,keypress(Space),,,,,,,,"-- --- ---- --- ------ ----- ------- ---- -- --- ------- --<br>------- ---------- ------ -- ----- -- ----- -- ---- ------<br>--- ----- --- --- ------ -------- ----- --- ------ ----- --<br>----- ----- plummeted, --- --- ------ ------ ---- -- ------<br>------- --- ------ ----- --- ---- ------- -- ---- --- --<br>------- ------",311925.820000004,311923.55499975383,311662.967,311670.22500000894,311679.641,311929.751,,35,"plummeted,"
screen,html.Screen,2_1_1_1_36,2021-04-24T18:01:08.786Z,,,,,,,,,,,,,,,,,54,,,,,,,,,,,,,,323.9089999293792,,response,,,,100,,,,,,,Space,keypress(Space),,,,,,,,-- --- ---- --- ------ ----- ------- ---- -- --- ------- --<br>------- ---------- ------ -- ----- -- ----- -- ---- ------<br>--- ----- --- --- ------ -------- ----- --- ------ ----- --<br>----- ----- ---------- and --- ------ ------ ---- -- ------<br>------- --- ------ ----- --- ---- ------- -- ---- --- --<br>------- ------,312256.0049998574,312253.65999992937,311913.077,311925.964999944,311929.751,312263.231,,36,and
screen,html.Screen,2_1_1_1_37,2021-04-24T18:01:09.118Z,,,,,,,,,,,,,,,,,54,,,,,,,,,,,,,,322.27399984991644,,response,,,,100,,,,,,,Space,keypress(Space),,,,,,,,-- --- ---- --- ------ ----- ------- ---- -- --- ------- --<br>------- ---------- ------ -- ----- -- ----- -- ---- ------<br>--- ----- --- --- ------ -------- ----- --- ------ ----- --<br>----- ----- ---------- --- the ------ ------ ---- -- ------<br>------- --- ------ ----- --- ---- ------- -- ---- --- --<br>------- ------,312588.0649997853,312585.50499984995,312246.557,312256.15500006825,312263.231,312596.711,,37,the
screen,html.Screen,2_1_1_1_38,2021-04-24T18:01:09.377Z,,,,,,,,,,,,,,,,,54,,,,,,,,,,,,,,246.82899979793,,response,,,,100,,,,,,,Space,keypress(Space),,,,,,,,-- --- ---- --- ------ ----- ------- ---- -- --- ------- --<br>------- ---------- ------ -- ----- -- ----- -- ---- ------<br>--- ----- --- --- ------ -------- ----- --- ------ ----- --<br>----- ----- ---------- --- --- market ------ ---- -- ------<br>------- --- ------ ----- --- ---- ------- -- ---- --- --<br>------- ------,312846.05499962345,312843.53999979794,312580.037,312588.20499992,312596.711,312863.495,,38,market
screen,html.Screen,2_1_1_1_39,2021-04-24T18:01:09.591Z,,,,,,,,,,,,,,,,,54,,,,,,,,,,,,,,194.08499978960026,,response,,,,100,,,,,,,Space,keypress(Space),,,,,,,,-- --- ---- --- ------ ----- ------- ---- -- --- ------- --<br>------- ---------- ------ -- ----- -- ----- -- ---- ------<br>--- ----- --- --- ------ -------- ----- --- ------ ----- --<br>----- ----- ---------- --- --- ------ became ---- -- ------<br>------- --- ------ ----- --- ---- ------- -- ---- --- --<br>------- ------,313060.1200000383,313057.5799997896,312846.821,312846.21499991044,312863.495,313063.583,,39,became
screen,html.Screen,2_1_1_1_40,2021-04-24T18:01:09.814Z,,,,,,,,,,,,,,,,,54,,,,,,,,,,,,,,215.99200005142484,,response,,,,100,,,,,,,Space,keypress(Space),,,,,,,,-- --- ---- --- ------ ----- ------- ---- -- --- ------- --<br>------- ---------- ------ -- ----- -- ----- -- ---- ------<br>--- ----- --- --- ------ -------- ----- --- ------ ----- --<br>----- ----- ---------- --- --- ------ ------ wary -- ------<br>------- --- ------ ----- --- ---- ------- -- ---- --- --<br>------- ------,313282.5949997641,313279.5750000514,313046.909,313060.3299997747,313063.583,313297.019,,40,wary
screen,html.Screen,2_1_1_1_41,2021-04-24T18:01:10.045Z,,,,,,,,,,,,,,,,,54,,,,,,,,,,,,,,213.46099970617797,,response,,,,100,,,,,,,Space,keypress(Space),,,,,,,,-- --- ---- --- ------ ----- ------- ---- -- --- ------- --<br>------- ---------- ------ -- ----- -- ----- -- ---- ------<br>--- ----- --- --- ------ -------- ----- --- ------ ----- --<br>----- ----- ---------- --- --- ------ ------ ---- of ------<br>------- --- ------ ----- --- ---- ------- -- ---- --- --<br>------- ------,313512.91999965906,313510.47999970615,313280.345,313282.7499997802,313297.019,313513.781,,41,of
screen,html.Screen,2_1_1_1_42,2021-04-24T18:01:10.291Z,,,,,,,,,,,,,,,,,54,,,,,,,,,,,,,,242.74899989686674,,response,,,,100,,,,,,,Space,keypress(Space),,,,,,,,-- --- ---- --- ------ ----- ------- ---- -- --- ------- --<br>------- ---------- ------ -- ----- -- ----- -- ---- ------<br>--- ----- --- --- ------ -------- ----- --- ------ ----- --<br>----- ----- ---------- --- --- ------ ------ ---- -- French<br>------- --- ------ ----- --- ---- ------- -- ---- --- --<br>------- ------,313758.9499996975,313756.5299998969,313497.107,313513.0650000647,313513.781,313763.891,,42,French
screen,html.Screen,2_1_1_1_43,2021-04-24T18:01:10.617Z,,,,,,,,,,,,,,,,,54,,,,,,,,,,,,,,317.56900001579197,,response,,,,100,,,,,,,Space,keypress(Space),,,,,,,,-- --- ---- --- ------ ----- ------- ---- -- --- ------- --<br>------- ---------- ------ -- ----- -- ----- -- ---- ------<br>--- ----- --- --- ------ -------- ----- --- ------ ----- --<br>----- ----- ---------- --- --- ------ ------ ---- -- ------<br>credit. --- ------ ----- --- ---- ------- -- ---- --- --<br>------- ------,314083.91000004485,314081.4600000158,313747.217,313759.09499963745,313763.891,314097.371,,43,credit.
screen,html.Screen,2_1_1_1_44,2021-04-24T18:01:10.886Z,,,,,,,,,,,,,,,,,54,,,,,,,,,,,,,,252.96899988810765,,response,,,,100,,,,,,,Space,keypress(Space),,,,,,,,-- --- ---- --- ------ ----- ------- ---- -- --- ------- --<br>------- ---------- ------ -- ----- -- ----- -- ---- ------<br>--- ----- --- --- ------ -------- ----- --- ------ ----- --<br>----- ----- ---------- --- --- ------ ------ ---- -- ------<br>------- The ------ ----- --- ---- ------- -- ---- --- --<br>------- ------,314352.7400000021,314350.3399998881,314080.697,314084.05999979004,314097.371,314364.155,,44,The
screen,html.Screen,2_1_1_1_45,2021-04-24T18:01:11.136Z,,,,,,,,,,,,,,,,,54,,,,,,,,,,,,,,236.34499970939942,,response,,,,100,,,,,,,Space,keypress(Space),,,,,,,,-- --- ---- --- ------ ----- ------- ---- -- --- ------- --<br>------- ---------- ------ -- ----- -- ----- -- ---- ------<br>--- ----- --- --- ------ -------- ----- --- ------ ----- --<br>----- ----- ---------- --- --- ------ ------ ---- -- ------<br>------- --- French ----- --- ---- ------- -- ---- --- --<br>------- ------,314602.9550000094,314600.4999997094,314347.481,314352.88499994203,314364.155,314614.265,,45,French
screen,html.Screen,2_1_1_1_46,2021-04-24T18:01:11.348Z,,,,,,,,,,,,,,,,,54,,,,,,,,,,,,,,197.31499997957144,,response,,,,100,,,,,,,Space,keypress(Space),,,,,,,,-- --- ---- --- ------ ----- ------- ---- -- --- ------- --<br>------- ---------- ------ -- ----- -- ----- -- ---- ------<br>--- ----- --- --- ------ -------- ----- --- ------ ----- --<br>----- ----- ---------- --- --- ------ ------ ---- -- ------<br>------- --- ------ state --- ---- ------- -- ---- --- --<br>------- ------,314814.1399999149,314811.5799999796,314597.591,314603.1049997546,314614.265,314831.027,,46,state
screen,html.Screen,2_1_1_1_47,2021-04-24T18:01:11.565Z,,,,,,,,,,,,,,,,,54,,,,,,,,,,,,,,197.40799975278787,,response,,,,100,,,,,,,Space,keypress(Space),,,,,,,,-- --- ---- --- ------ ----- ------- ---- -- --- ------- --<br>------- ---------- ------ -- ----- -- ----- -- ---- ------<br>--- ----- --- --- ------ -------- ----- --- ------ ----- --<br>----- ----- ---------- --- --- ------ ------ ---- -- ------<br>------- --- ------ ----- was ---- ------- -- ---- --- --<br>------- ------,315030.7849999517,315028.4349997528,314814.353,314814.2899996601,314831.027,315047.789,,47,was
screen,html.Screen,2_1_1_1_48,2021-04-24T18:01:11.800Z,,,,,,,,,,,,,,,,,54,,,,,,,,,,,,,,215.67599985084962,,response,,,,100,,,,,,,Space,keypress(Space),,,,,,,,-- --- ---- --- ------ ----- ------- ---- -- --- ------- --<br>------- ---------- ------ -- ----- -- ----- -- ---- ------<br>--- ----- --- --- ------ -------- ----- --- ------ ----- --<br>----- ----- ---------- --- --- ------ ------ ---- -- ------<br>------- --- ------ ----- --- left ------- -- ---- --- --<br>------- ------,315265.9599999897,315263.46499985084,315031.115,315030.9349996969,315047.789,315281.225,,48,left
screen,html.Screen,2_1_1_1_49,2021-04-24T18:01:12.059Z,,,,,,,,,,,,,,,,,54,,,,,,,,,,,,,,240.19499965535942,,response,,,,100,,,,,,,Space,keypress(Space),,,,,,,,-- --- ---- --- ------ ----- ------- ---- -- --- ------- --<br>------- ---------- ------ -- ----- -- ----- -- ---- ------<br>--- ----- --- --- ------ -------- ----- --- ------ ----- --<br>----- ----- ---------- --- --- ------ ------ ---- -- ------<br>------- --- ------ ----- --- ---- without -- ---- --- --<br>------- ------,315524.01999989524,315521.41999965534,315264.551,315266.1099997349,315281.225,315531.335,,49,without
screen,html.Screen,2_1_1_1_50,2021-04-24T18:01:12.238Z,,,,,,,,,,,,,,,,,54,,,,,,,,,,,,,,169.00499998120358,,response,,,,100,,,,,,,Space,keypress(Space),,,,,,,,-- --- ---- --- ------ ----- ------- ---- -- --- ------- --<br>------- ---------- ------ -- ----- -- ----- -- ---- ------<br>--- ----- --- --- ------ -------- ----- --- ------ ----- --<br>----- ----- ---------- --- --- ------ ------ ---- -- ------<br>------- --- ------ ----- --- ---- ------- an ---- --- --<br>------- ------,315702.8299998492,315700.3399999812,315514.661,315524.16999964043,315531.335,315714.749,,50,an
screen,html.Screen,2_1_1_1_51,2021-04-24T18:01:12.309Z,,,,,,,,,,,,,,,,,54,,,,,,,,,,,,,,56.686000002373476,,response,,,,100,,,,,,,Space,keypress(Space),,,,,,,,-- --- ---- --- ------ ----- ------- ---- -- --- ------- --<br>------- ---------- ------ -- ----- -- ----- -- ---- ------<br>--- ----- --- --- ------ -------- ----- --- ------ ----- --<br>----- ----- ---------- --- --- ------ ------ ---- -- ------<br>------- --- ------ ----- --- ---- ------- -- easy --- --<br>------- ------,315773.8949996419,315771.4350000024,315698.075,315702.98000006005,315714.749,315781.445,,51,easy
screen,html.Screen,2_1_1_1_52,2021-04-24T18:01:12.939Z,,,,,,,,,,,,,,,,,54,,,,,,,,,,,,,,618.9700000400771,,response,,,,100,,,,,,,Space,keypress(Space),,,,,,,,-- --- ---- --- ------ ----- ------- ---- -- --- ------- --<br>------- ---------- ------ -- ----- -- ----- -- ---- ------<br>--- ----- --- --- ------ -------- ----- --- ------ ----- --<br>----- ----- ---------- --- --- ------ ------ ---- -- ------<br>------- --- ------ ----- --- ---- ------- -- ---- way --<br>------- ------,316402.84499991685,316400.4150000401,315764.771,315774.0449998528,315781.445,316415.057,,52,way
screen,html.Screen,2_1_1_1_53,2021-04-24T18:01:13.229Z,,,,,,,,,,,,,,,,,54,,,,,,,,,,,,,,275.29799962049583,,response,,,,100,,,,,,,Space,keypress(Space),,,,,,,,-- --- ---- --- ------ ----- ------- ---- -- --- ------- --<br>------- ---------- ------ -- ----- -- ----- -- ---- ------<br>--- ----- --- --- ------ -------- ----- --- ------ ----- --<br>----- ----- ---------- --- --- ------ ------ ---- -- ------<br>------- --- ------ ----- --- ---- ------- -- ---- --- of<br>------- ------,316692.9049999453,316690.35499962047,316398.383,316402.9899998568,316415.057,316698.515,,53,of
screen,html.Screen,2_1_1_1_54,2021-04-24T18:01:13.747Z,,,,,,,,,,,,,,,,,54,,,,,,,,,,,,,,508.8300000025192,,response,,,,100,,,,,,,Space,keypress(Space),,,,,,,,-- --- ---- --- ------ ----- ------- ---- -- --- ------- --<br>------- ---------- ------ -- ----- -- ----- -- ---- ------<br>--- ----- --- --- ------ -------- ----- --- ------ ----- --<br>----- ----- ---------- --- --- ------ ------ ---- -- ------<br>------- --- ------ ----- --- ---- ------- -- ---- --- --<br>raising ------,317209.8349998705,317207.34500000253,316681.841,316693.0549996905,316698.515,317215.409,,54,raising
screen,html.Screen,2_1_1_1_55,2021-04-24T18:01:14.143Z,,,,,,,,,,,,,,,,,54,,,,,,,,,,,,,,386.9509999025613,,response,,,,100,,,,,,,Space,keypress(Space),,,,,,,,-- --- ---- --- ------ ----- ------- ---- -- --- ------- --<br>------- ---------- ------ -- ----- -- ----- -- ---- ------<br>--- ----- --- --- ------ -------- ----- --- ------ ----- --<br>----- ----- ---------- --- --- ------ ------ ---- -- ------<br>------- --- ------ ----- --- ---- ------- -- ---- --- --<br>------- money.,317604.8550000414,317602.35999990255,317198.735,317209.9750000052,317215.409,317608.959,,55,money.
Item 100,flow.Loop,2_1_1_1,2021-04-24T18:01:14.143Z,,,,,,,,,,,,,,,,,,,,,,,,,,,,,,,15330.761999902548,,completion,,,,,E,,,,,,,,,,,silence,,,,,317605.1399996504,317602.35999990255,302254.924,302257.47499987483,302271.598,317608.959,,,
Question 1,html.Screen,2_1_1_2,2021-04-24T18:01:20.780Z,,,,,,,,,,,,,,,,,,,,,,,,,,,,true,TRUE,,6623.450999705878,,response,,,,100,E,,,,,,TRUE,click #choice-1,,,,silence,,,,,324235.14499980956,324232.40999970585,317592.285,317605.25999963284,317608.959,324245.211,,,
Question 2,html.Screen,2_1_1_3,2021-04-24T18:01:23.693Z,,,,,,,,,,,,,,,,,,,,,,,,,,,,false,FALSE,,2897.843999876757,,response,,,,100,E,,,,,,TRUE,click #choice-1,,,,silence,,,,,327145.89999988675,327143.05499987677,324228.537,324235.2449996397,324245.211,327146.487,,,
Item 100,flow.Sequence,2_1_1,2021-04-24T18:01:23.693Z,,,,,,,,,,,,,,,,,,,,,,,,,,,,,,,34866.62899987679,,completion,,,,,,,,,,,,,,,,,,,,,327146.1449996568,327143.05499987677,292259.752,292277.0949997939,292276.426,327146.487,,,
End of Practice,html.Page,2_1_2,2021-04-24T18:01:27.077Z,,,,,,,,,,,,,,,,,,,,,,,,,,,,,,,3381.2679996971856,,form submission,,,,,,,,,,,,,,,,,,,,,330528.3999997191,330527.7549996972,327129.813,327146.2399996817,327146.487,330528.975,,,
Practice,flow.Sequence,2_1,2021-04-24T18:01:27.077Z,,,,,,,,,,,,,,,,,,,,,,,,,,,,,,,84171.49299969722,,completion,,,,,,,,,,,,,,,,,,,,,330528.5699996166,330527.7549996972,246339.588,246354.3749996461,246356.262,330528.975,,,
Trap_instruction,html.Page,2_2_0,2021-04-24T18:01:29.884Z,,,,,,,,,,,,,,,,,,,,,,,,,,,,,,,2805.0049996465677,,form submission,,,,,,,,,,,,,,,,,,,,,333334.2100000009,333333.97999964654,330512.301,330528.6649996415,330528.975,333346.881,,,
trap_trial,html.Screen,2_2_1,2021-04-24T18:01:33.864Z,,,,,,,,,,,,,,,,,,,,,,,,,,,,true,1,,3963.0789997513057,,response,,,,,,,,,,,1,click #choice-1,,,,,,,,,337311.8549999781,337309.9599997513,333330.207,333334.3050000258,333346.881,337315.293,,,
end of trap trial,html.Page,2_2_2,2021-04-24T18:01:35.592Z,,,,,,,,,,,,,,,,,,,,,,,,,,,,,,,1723.5019999421784,,form submission,,,,,,,,,,,,,,,,,,,,,339039.4999999553,339038.7949999422,337298.619,337311.9549998082,337315.293,339052.581,,,
Trap 1,flow.Sequence,2_2,2021-04-24T18:01:35.592Z,,,,,,,,,,,,,,,,,,,,,,,,,,,,,,,8509.819999942207,,completion,,,,,,,,,,,,,,,,,,,,,339039.64499989524,339038.7949999422,330512.301,330528.6349998787,330528.975,339052.581,,,
Standby,html.Page,2_3_0,2021-04-24T18:01:43.596Z,,,,,,,,,,,,,,,,,,,,,,,,,,,,,,,8003.520000000019,,timeout,,,,,,,,,,,,,,,,,,,,,347040.80000007525,347039.427,339035.907,339039.729999844,339052.581,347056.101,,,
Holding screen,html.Screen,2_3_1_0_0,2021-04-24T18:01:50.603Z,,,,,,,,,,,,,,,,,,,,,,,,,,,,,,,7004.120999999985,,timeout,,,,,,,,,,,,,,,,,,,,,354046.94500006735,354043.548,347039.427,347040.93499993905,347056.101,354060.222,,,
screen,html.Screen,2_3_1_0_1_0,2021-04-24T18:01:52.162Z,,,,,,,,,,,,,,,,,2,,,,,,,,,,,,,,1543.8029997749836,,response,,,,1,E,,,,,,Space,keypress(Space),,,,lyrical,,,,Two ---- ------ --- ------- ---------- ------- ----------<br>--- --------- --- ----------- ------- ----- ------- ---<br>--------- ---- -- --- ---- -- --------- -- ---- -------<br>-- --------- ------ --- ----- ------ ---- --- --------- --<br>------ - ---- -- --- ----------- ------- ---- ----- -----<br>--- -------- - ------ ---- -- ----- ---- --- --- -----------<br>-- -------,355606.0549998656,355604.024999775,354043.548,354047.07499966025,354060.222,355610.904,,0,Two
screen,html.Screen,2_3_1_0_1_1,2021-04-24T18:01:53.178Z,,,,,,,,,,,,,,,,,2,,,,,,,,,,,,,,1008.8959999858635,,response,,,,1,E,,,,,,Space,keypress(Space),,,,lyrical,,,,--- days ------ --- ------- ---------- ------- ----------<br>--- --------- --- ----------- ------- ----- ------- ---<br>--------- ---- -- --- ---- -- --------- -- ---- -------<br>-- --------- ------ --- ----- ------ ---- --- --------- --<br>------ - ---- -- --- ----------- ------- ---- ----- -----<br>--- -------- - ------ ---- -- ----- ---- --- --- -----------<br>-- -------,356621.4850000106,356619.79999998584,355594.23,355606.1549996957,355610.904,356628.018,,1,days
screen,html.Screen,2_3_1_0_1_2,2021-04-24T18:01:53.722Z,,,,,,,,,,,,,,,,,2,,,,,,,,,,,,,,535.6469998836401,,response,,,,1,E,,,,,,Space,keypress(Space),,,,lyrical,,,,"--- ---- later, --- ------- ---------- ------- ----------<br>--- --------- --- ----------- ------- ----- ------- ---<br>--------- ---- -- --- ---- -- --------- -- ---- -------<br>-- --------- ------ --- ----- ------ ---- --- --------- --<br>------ - ---- -- --- ----------- ------- ---- ----- -----<br>--- -------- - ------ ---- -- ----- ---- --- --- -----------<br>-- -------",357165.11499974877,357163.6649998836,356611.344,356621.58000003546,356628.018,357178.26,,2,"later,"
screen,html.Screen,2_3_1_0_1_3,2021-04-24T18:01:54.215Z,,,,,,,,,,,,,,,,,2,,,,,,,,,,,,,,478.4699999296572,,response,,,,1,E,,,,,,Space,keypress(Space),,,,lyrical,,,,--- ---- ------ the ------- ---------- ------- ----------<br>--- --------- --- ----------- ------- ----- ------- ---<br>--------- ---- -- --- ---- -- --------- -- ---- -------<br>-- --------- ------ --- ----- ------ ---- --- --------- --<br>------ - ---- -- --- ----------- ------- ---- ----- -----<br>--- -------- - ------ ---- -- ----- ---- --- --- -----------<br>-- -------,357658.3149996586,357656.72999992967,357161.586,357165.1999996975,357178.26,357661.806,,3,the
screen,html.Screen,2_3_1_0_1_4,2021-04-24T18:01:54.854Z,,,,,,,,,,,,,,,,,2,,,,,,,,,,,,,,633.9039997438667,,response,,,,1,E,,,,,,Space,keypress(Space),,,,lyrical,,,,--- ---- ------ --- British ---------- ------- ----------<br>--- --------- --- ----------- ------- ----- ------- ---<br>--------- ---- -- --- ---- -- --------- -- ---- -------<br>-- --------- ------ --- ----- ------ ---- --- --------- --<br>------ - ---- -- --- ----------- ------- ---- ----- -----<br>--- -------- - ------ ---- -- ----- ---- --- --- -----------<br>-- -------,358297.15499980375,358295.70999974385,357645.132,357658.4449997172,357661.806,358312.092,,4,British
screen,html.Screen,2_3_1_0_1_5,2021-04-24T18:01:55.255Z,,,,,,,,,,,,,,,,,2,,,,,,,,,,,,,,384.5979996623355,,response,,,,1,E,,,,,,Space,keypress(Space),,,,lyrical,,,,--- ---- ------ --- ------- astronomer ------- ----------<br>--- --------- --- ----------- ------- ----- ------- ---<br>--------- ---- -- --- ---- -- --------- -- ---- -------<br>-- --------- ------ --- ----- ------ ---- --- --------- --<br>------ - ---- -- --- ----------- ------- ---- ----- -----<br>--- -------- - ------ ---- -- ----- ---- --- --- -----------<br>-- -------,358698.1899999082,358696.68999966234,358295.418,358297.29499993846,358312.092,358712.268,,5,astronomer
screen,html.Screen,2_3_1_0_1_6,2021-04-24T18:01:55.678Z,,,,,,,,,,,,,,,,,2,,,,,,,,,,,,,,407.38700004591374,,response,,,,1,E,,,,,,Space,keypress(Space),,,,lyrical,,,,--- ---- ------ --- ------- ---------- Richard ----------<br>--- --------- --- ----------- ------- ----- ------- ---<br>--------- ---- -- --- ---- -- --------- -- ---- -------<br>-- --------- ------ --- ----- ------ ---- --- --------- --<br>------ - ---- -- --- ----------- ------- ---- ----- -----<br>--- -------- - ------ ---- -- ----- ---- --- --- -----------<br>-- -------,359121.20499974117,359119.6550000459,358695.594,358698.34999972954,358712.268,359128.566,,6,Richard
screen,html.Screen,2_3_1_0_1_7,2021-04-24T18:01:56.133Z,,,,,,,,,,,,,,,,,2,,,,,,,,,,,,,,445.9889998246217,,response,,,,1,E,,,,,,Space,keypress(Space),,,,lyrical,,,,--- ---- ------ --- ------- ---------- ------- Carrington<br>--- --------- --- ----------- ------- ----- ------- ---<br>--------- ---- -- --- ---- -- --------- -- ---- -------<br>-- --------- ------ --- ----- ------ ---- --- --------- --<br>------ - ---- -- --- ----------- ------- ---- ----- -----<br>--- -------- - ------ ---- -- ----- ---- --- --- -----------<br>-- -------,359576.0949999094,359574.5549998246,359111.892,359121.354999952,359128.566,359578.764,,7,Carrington
screen,html.Screen,2_3_1_0_1_8,2021-04-24T18:01:57.062Z,,,,,,,,,,,,,,,,,2,,,,,,,,,,,,,,924.8109999806038,,response,,,,1,E,,,,,,Space,keypress(Space),,,,lyrical,,,,--- ---- ------ --- ------- ---------- ------- ----------<br>was --------- --- ----------- ------- ----- ------- ---<br>--------- ---- -- --- ---- -- --------- -- ---- -------<br>-- --------- ------ --- ----- ------ ---- --- --------- --<br>------ - ---- -- --- ----------- ------- ---- ----- -----<br>--- -------- - ------ ---- -- ----- ---- --- --- -----------<br>-- -------,360505.3099999204,360503.5749999806,359562.09,359576.17999985814,359578.764,360512.508,,8,was
screen,html.Screen,2_3_1_0_1_9,2021-04-24T18:01:57.535Z,,,,,,,,,,,,,,,,,2,,,,,,,,,,,,,,464.00699975475436,,response,,,,1,E,,,,,,Space,keypress(Space),,,,lyrical,,,,--- ---- ------ --- ------- ---------- ------- ----------<br>--- observing --- ----------- ------- ----- ------- ---<br>--------- ---- -- --- ---- -- --------- -- ---- -------<br>-- --------- ------ --- ----- ------ ---- --- --------- --<br>------ - ---- -- --- ----------- ------- ---- ----- -----<br>--- -------- - ------ ---- -- ----- ---- --- --- -----------<br>-- -------,360978.0399999581,360976.5149997547,360495.834,360505.48499962315,360512.508,360979.38,,9,observing
screen,html.Screen,2_3_1_0_1_10,2021-04-24T18:01:58.493Z,,,,,,,,,,,,,,,,,2,,,,,,,,,,,,,,955.1550000075949,,response,,,,1,E,,,,,,Space,keypress(Space),,,,lyrical,,,,--- ---- ------ --- ------- ---------- ------- ----------<br>--- --------- the ----------- ------- ----- ------- ---<br>--------- ---- -- --- ---- -- --------- -- ---- -------<br>-- --------- ------ --- ----- ------ ---- --- --------- --<br>------ - ---- -- --- ----------- ------- ---- ----- -----<br>--- -------- - ------ ---- -- ----- ---- --- --- -----------<br>-- -------,361936.05999974534,361934.5350000076,360962.706,360978.1299997121,360979.38,361946.472,,10,the
screen,html.Screen,2_3_1_0_1_11,2021-04-24T18:01:59.072Z,,,,,,,,,,,,,,,,,2,,,,,,,,,,,,,,567.032999689749,,response,,,,1,E,,,,,,Space,keypress(Space),,,,lyrical,,,,--- ---- ------ --- ------- ---------- ------- ----------<br>--- --------- --- interesting ------- ----- ------- ---<br>--------- ---- -- --- ---- -- --------- -- ---- -------<br>-- --------- ------ --- ----- ------ ---- --- --------- --<br>------ - ---- -- --- ----------- ------- ---- ----- -----<br>--- -------- - ------ ---- -- ----- ---- --- --- -----------<br>-- -------,362514.93000006303,362513.50499968976,361929.798,361936.149999965,361946.472,362530.062,,11,interesting
screen,html.Screen,2_3_1_0_1_12,2021-04-24T18:01:59.558Z,,,,,,,,,,,,,,,,,2,,,,,,,,,,,,,,469.3929998082458,,response,,,,1,E,,,,,,Space,keypress(Space),,,,lyrical,,,,--- ---- ------ --- ------- ---------- ------- ----------<br>--- --------- --- ----------- sunspot ----- ------- ---<br>--------- ---- -- --- ---- -- --------- -- ---- -------<br>-- --------- ------ --- ----- ------ ---- --- --------- --<br>------ - ---- -- --- ----------- ------- ---- ----- -----<br>--- -------- - ------ ---- -- ----- ---- --- --- -----------<br>-- -------,363001.0349997319,362999.4549998082,362513.388,362515.0150000118,362530.062,363013.608,,12,sunspot
screen,html.Screen,2_3_1_0_1_13,2021-04-24T18:02:00.078Z,,,,,,,,,,,,,,,,,2,,,,,,,,,,,,,,505.8319999454543,,response,,,,1,E,,,,,,Space,keypress(Space),,,,lyrical,,,,--- ---- ------ --- ------- ---------- ------- ----------<br>--- --------- --- ----------- ------- group ------- ---<br>--------- ---- -- --- ---- -- --------- -- ---- -------<br>-- --------- ------ --- ----- ------ ---- --- --------- --<br>------ - ---- -- --- ----------- ------- ---- ----- -----<br>--- -------- - ------ ---- -- ----- ---- --- --- -----------<br>-- -------,363520.9849998355,363519.43999994546,362996.934,363001.1249999516,363013.608,363530.502,,13,group
screen,html.Screen,2_3_1_0_1_14,2021-04-24T18:02:00.642Z,,,,,,,,,,,,,,,,,2,,,,,,,,,,,,,,552.9079999629175,,response,,,,1,E,,,,,,Space,keypress(Space),,,,lyrical,,,,--- ---- ------ --- ------- ---------- ------- ----------<br>--- --------- --- ----------- ------- ----- through ---<br>--------- ---- -- --- ---- -- --------- -- ---- -------<br>-- --------- ------ --- ----- ------ ---- --- --------- --<br>------ - ---- -- --- ----------- ------- ---- ----- -----<br>--- -------- - ------ ---- -- ----- ---- --- --- -----------<br>-- -------,364084.9299998954,364083.4099999629,363513.828,363521.07500005513,363530.502,364097.418,,14,through
screen,html.Screen,2_3_1_0_1_15,2021-04-24T18:02:01.500Z,,,,,,,,,,,,,,,,,2,,,,,,,,,,,,,,843.9670000128099,,response,,,,1,E,,,,,,Space,keypress(Space),,,,lyrical,,,,--- ---- ------ --- ------- ---------- ------- ----------<br>--- --------- --- ----------- ------- ----- ------- his<br>--------- ---- -- --- ---- -- --------- -- ---- -------<br>-- --------- ------ --- ----- ------ ---- --- --------- --<br>------ - ---- -- --- ----------- ------- ---- ----- -----<br>--- -------- - ------ ---- -- ----- ---- --- --- -----------<br>-- -------,364942.94499978423,364941.3850000128,364080.744,364085.0199996494,364097.418,364947.792,,15,his
screen,html.Screen,2_3_1_0_1_16,2021-04-24T18:02:02.070Z,,,,,,,,,,,,,,,,,2,,,,,,,,,,,,,,563.6079997265479,,response,,,,1,E,,,,,,Space,keypress(Space),,,,lyrical,,,,--- ---- ------ --- ------- ---------- ------- ----------<br>--- --------- --- ----------- ------- ----- ------- ---<br>telescope ---- -- --- ---- -- --------- -- ---- -------<br>-- --------- ------ --- ----- ------ ---- --- --------- --<br>------ - ---- -- --- ----------- ------- ---- ----- -----<br>--- -------- - ------ ---- -- ----- ---- --- --- -----------<br>-- -------,365512.9499998875,365511.39999972656,364931.118,364943.0399998091,364947.792,365514.708,,16,telescope
screen,html.Screen,2_3_1_0_1_17,2021-04-24T18:02:02.561Z,,,,,,,,,,,,,,,,,2,,,,,,,,,,,,,,486.61199980659876,,response,,,,1,E,,,,,,Space,keypress(Space),,,,lyrical,,,,--- ---- ------ --- ------- ---------- ------- ----------<br>--- --------- --- ----------- ------- ----- ------- ---<br>--------- when -- --- ---- -- --------- -- ---- -------<br>-- --------- ------ --- ----- ------ ---- --- --------- --<br>------ - ---- -- --- ----------- ------- ---- ----- -----<br>--- -------- - ------ ---- -- ----- ---- --- --- -----------<br>-- -------,366003.4499997273,366001.3199998066,365498.034,365513.03499983624,365514.708,366014.928,,17,when
screen,html.Screen,2_3_1_0_1_18,2021-04-24T18:02:03.027Z,,,,,,,,,,,,,,,,,2,,,,,,,,,,,,,,453.3569999517058,,response,,,,1,E,,,,,,Space,keypress(Space),,,,lyrical,,,,--- ---- ------ --- ------- ---------- ------- ----------<br>--- --------- --- ----------- ------- ----- ------- ---<br>--------- ---- he --- ---- -- --------- -- ---- -------<br>-- --------- ------ --- ----- ------ ---- --- --------- --<br>------ - ---- -- --- ----------- ------- ---- ----- -----<br>--- -------- - ------ ---- -- ----- ---- --- --- -----------<br>-- -------,366469.96499970555,366468.2849999517,365998.254,366003.53999994695,366014.928,366481.8,,18,he
screen,html.Screen,2_3_1_0_1_19,2021-04-24T18:02:03.366Z,,,,,,,,,,,,,,,,,2,,,,,,,,,,,,,,325.4649999521789,,response,,,,1,E,,,,,,Space,keypress(Space),,,,lyrical,,,,--- ---- ------ --- ------- ---------- ------- ----------<br>--- --------- --- ----------- ------- ----- ------- ---<br>--------- ---- -- saw ---- -- --------- -- ---- -------<br>-- --------- ------ --- ----- ------ ---- --- --------- --<br>------ - ---- -- --- ----------- ------- ---- ----- -----<br>--- -------- - ------ ---- -- ----- ---- --- --- -----------<br>-- -------,366808.8699998334,366807.26499995217,366465.126,366470.0549999252,366481.8,366815.28,,19,saw
screen,html.Screen,2_3_1_0_1_20,2021-04-24T18:02:03.815Z,,,,,,,,,,,,,,,,,2,,,,,,,,,,,,,,440.884999678703,,response,,,,1,E,,,,,,Space,keypress(Space),,,,lyrical,,,,--- ---- ------ --- ------- ---------- ------- ----------<br>--- --------- --- ----------- ------- ----- ------- ---<br>--------- ---- -- --- what -- --------- -- ---- -------<br>-- --------- ------ --- ----- ------ ---- --- --------- --<br>------ - ---- -- --- ----------- ------- ---- ----- -----<br>--- -------- - ------ ---- -- ----- ---- --- --- -----------<br>-- -------,367257.784999907,367256.16499967873,366798.606,366808.96000005305,366815.28,367265.478,,20,what
screen,html.Screen,2_3_1_0_1_21,2021-04-24T18:02:04.130Z,,,,,,,,,,,,,,,,,2,,,,,,,,,,,,,,305.72199965652544,,response,,,,1,E,,,,,,Space,keypress(Space),,,,lyrical,,,,--- ---- ------ --- ------- ---------- ------- ----------<br>--- --------- --- ----------- ------- ----- ------- ---<br>--------- ---- -- --- ---- he --------- -- ---- -------<br>-- --------- ------ --- ----- ------ ---- --- --------- --<br>------ - ---- -- --- ----------- ------- ---- ----- -----<br>--- -------- - ------ ---- -- ----- ---- --- --- -----------<br>-- -------,367572.7200000547,367571.1999996565,367248.804,367257.86999985576,367265.478,367582.284,,21,he
screen,html.Screen,2_3_1_0_1_22,2021-04-24T18:02:04.531Z,,,,,,,,,,,,,,,,,2,,,,,,,,,,,,,,389.9259998034686,,response,,,,1,E,,,,,,Space,keypress(Space),,,,lyrical,,,,--- ---- ------ --- ------- ---------- ------- ----------<br>--- --------- --- ----------- ------- ----- ------- ---<br>--------- ---- -- --- ---- -- described -- ---- -------<br>-- --------- ------ --- ----- ------ ---- --- --------- --<br>------ - ---- -- --- ----------- ------- ---- ----- -----<br>--- -------- - ------ ---- -- ----- ---- --- --- -----------<br>-- -------,367973.8449999131,367972.20999980345,367565.61,367572.80999980867,367582.284,367982.46,,22,described
screen,html.Screen,2_3_1_0_1_23,2021-04-24T18:02:04.984Z,,,,,,,,,,,,,,,,,2,,,,,,,,,,,,,,442.6749996775179,,response,,,,1,E,,,,,,Space,keypress(Space),,,,lyrical,,,,--- ---- ------ --- ------- ---------- ------- ----------<br>--- --------- --- ----------- ------- ----- ------- ---<br>--------- ---- -- --- ---- -- --------- as ---- -------<br>-- --------- ------ --- ----- ------ ---- --- --------- --<br>------ - ---- -- --- ----------- ------- ---- ----- -----<br>--- -------- - ------ ---- -- ----- ---- --- --- -----------<br>-- -------,368426.7499996349,368425.13499967754,367965.786,367973.9349996671,367982.46,368432.658,,23,as
screen,html.Screen,2_3_1_0_1_24,2021-04-24T18:02:05.374Z,,,,,,,,,,,,,,,,,2,,,,,,,,,,,,,,382.4969999602181,,response,,,,1,E,,,,,,Space,keypress(Space),,,,lyrical,,,,"--- ---- ------ --- ------- ---------- ------- ----------<br>--- --------- --- ----------- ------- ----- ------- ---<br>--------- ---- -- --- ---- -- --------- -- ""two -------<br>-- --------- ------ --- ----- ------ ---- --- --------- --<br>------ - ---- -- --- ----------- ------- ---- ----- -----<br>--- -------- - ------ ---- -- ----- ---- --- --- -----------<br>-- -------",368816.74499996006,368815.1549999602,368415.984,368426.8449996598,368432.658,368832.834,,24,"""two"
screen,html.Screen,2_3_1_0_1_25,2021-04-24T18:02:05.978Z,,,,,,,,,,,,,,,,,2,,,,,,,,,,,,,,586.2910000149277,,response,,,,1,E,,,,,,Space,keypress(Space),,,,lyrical,,,,--- ---- ------ --- ------- ---------- ------- ----------<br>--- --------- --- ----------- ------- ----- ------- ---<br>--------- ---- -- --- ---- -- --------- -- ---- patches<br>-- --------- ------ --- ----- ------ ---- --- --------- --<br>------ - ---- -- --- ----------- ------- ---- ----- -----<br>--- -------- - ------ ---- -- ----- ---- --- --- -----------<br>-- -------,369420.6599998288,369419.1250000149,368816.16,368816.83499971405,368832.834,369432.526,,25,patches
screen,html.Screen,2_3_1_0_1_26,2021-04-24T18:02:06.382Z,,,,,,,,,,,,,,,,,2,,,,,,,,,,,,,,390.5890000356012,,response,,,,1,E,,,,,,Space,keypress(Space),,,,lyrical,,,,--- ---- ------ --- ------- ---------- ------- ----------<br>--- --------- --- ----------- ------- ----- ------- ---<br>--------- ---- -- --- ---- -- --------- -- ---- -------<br>of --------- ------ --- ----- ------ ---- --- --------- --<br>------ - ---- -- --- ----------- ------- ---- ----- -----<br>--- -------- - ------ ---- -- ----- ---- --- --- -----------<br>-- -------,369824.61999962106,369823.1150000356,369415.852,369420.92499975115,369432.526,369832.702,,26,of
screen,html.Screen,2_3_1_0_1_27,2021-04-24T18:02:06.721Z,,,,,,,,,,,,,,,,,2,,,,,,,,,,,,,,329.32299996871734,,response,,,,1,E,,,,,,Space,keypress(Space),,,,lyrical,,,,--- ---- ------ --- ------- ---------- ------- ----------<br>--- --------- --- ----------- ------- ----- ------- ---<br>--------- ---- -- --- ---- -- --------- -- ---- -------<br>-- intensely ------ --- ----- ------ ---- --- --------- --<br>------ - ---- -- --- ----------- ------- ---- ----- -----<br>--- -------- - ------ ---- -- ----- ---- --- --- -----------<br>-- -------,370163.53499982506,370162.0249999687,369816.028,369824.7099998407,369832.702,370166.182,,27,intensely
screen,html.Screen,2_3_1_0_1_28,2021-04-24T18:02:07.155Z,,,,,,,,,,,,,,,,,2,,,,,,,,,,,,,,429.81799990317086,,response,,,,1,E,,,,,,Space,keypress(Space),,,,lyrical,,,,--- ---- ------ --- ------- ---------- ------- ----------<br>--- --------- --- ----------- ------- ----- ------- ---<br>--------- ---- -- --- ---- -- --------- -- ---- -------<br>-- --------- bright --- ----- ------ ---- --- --------- --<br>------ - ---- -- --- ----------- ------- ---- ----- -----<br>--- -------- - ------ ---- -- ----- ---- --- --- -----------<br>-- -------,370597.5500000641,370595.99999990314,370149.508,370163.6199997738,370166.182,370599.706,,28,bright
screen,html.Screen,2_3_1_0_1_29,2021-04-24T18:02:07.595Z,,,,,,,,,,,,,,,,,2,,,,,,,,,,,,,,436.2839997711126,,response,,,,1,E,,,,,,Space,keypress(Space),,,,lyrical,,,,--- ---- ------ --- ------- ---------- ------- ----------<br>--- --------- --- ----------- ------- ----- ------- ---<br>--------- ---- -- --- ---- -- --------- -- ---- -------<br>-- --------- ------ and ----- ------ ---- --- --------- --<br>------ - ---- -- --- ----------- ------- ---- ----- -----<br>--- -------- - ------ ---- -- ----- ---- --- --- -----------<br>-- -------,371037.5649998896,371035.9899997711,370583.032,370597.6449996233,370599.706,371049.904,,29,and
screen,html.Screen,2_3_1_0_1_30,2021-04-24T18:02:08.037Z,,,,,,,,,,,,,,,,,2,,,,,,,,,,,,,,428.0309998571174,,response,,,,1,E,,,,,,Space,keypress(Space),,,,lyrical,,,,--- ---- ------ --- ------- ---------- ------- ----------<br>--- --------- --- ----------- ------- ----- ------- ---<br>--------- ---- -- --- ---- -- --------- -- ---- -------<br>-- --------- ------ --- white ------ ---- --- --------- --<br>------ - ---- -- --- ----------- ------- ---- ----- -----<br>--- -------- - ------ ---- -- ----- ---- --- --- -----------<br>-- -------,371479.54500000924,371477.9349998571,371033.23,371037.65999991447,371049.904,371483.428,,30,white
screen,html.Screen,2_3_1_0_1_31,2021-04-24T18:02:08.458Z,,,,,,,,,,,,,,,,,2,,,,,,,,,,,,,,415.51700002263533,,response,,,,1,E,,,,,,Space,keypress(Space),,,,lyrical,,,,"--- ---- ------ --- ------- ---------- ------- ----------<br>--- --------- --- ----------- ------- ----- ------- ---<br>--------- ---- -- --- ---- -- --------- -- ---- -------<br>-- --------- ------ --- ----- light"" ---- --- --------- --<br>------ - ---- -- --- ----------- ------- ---- ----- -----<br>--- -------- - ------ ---- -- ----- ---- --- --- -----------<br>-- -------",371900.5749998614,371898.94500002265,371466.754,371479.6349997632,371483.428,371916.952,,31,"light"""
screen,html.Screen,2_3_1_0_1_32,2021-04-24T18:02:08.916Z,,,,,,,,,,,,,,,,,2,,,,,,,,,,,,,,439.9429997425177,,response,,,,1,E,,,,,,Space,keypress(Space),,,,lyrical,,,,--- ---- ------ --- ------- ---------- ------- ----------<br>--- --------- --- ----------- ------- ----- ------- ---<br>--------- ---- -- --- ---- -- --------- -- ---- -------<br>-- --------- ------ --- ----- ------ over --- --------- --<br>------ - ---- -- --- ----------- ------- ---- ----- -----<br>--- -------- - ------ ---- -- ----- ---- --- --- -----------<br>-- -------,372358.50499989465,372356.8949997425,371900.278,371900.6699998863,371916.952,372367.15,,32,over
screen,html.Screen,2_3_1_0_1_33,2021-04-24T18:02:09.358Z,,,,,,,,,,,,,,,,,2,,,,,,,,,,,,,,431.72000005689915,,response,,,,1,E,,,,,,Space,keypress(Space),,,,lyrical,,,,--- ---- ------ --- ------- ---------- ------- ----------<br>--- --------- --- ----------- ------- ----- ------- ---<br>--------- ---- -- --- ---- -- --------- -- ---- -------<br>-- --------- ------ --- ----- ------ ---- the --------- --<br>------ - ---- -- --- ----------- ------- ---- ----- -----<br>--- -------- - ------ ---- -- ----- ---- --- --- -----------<br>-- -------,372800.56499969214,372798.8700000569,372350.476,372358.6099999957,372367.15,372817.348,,33,the
screen,html.Screen,2_3_1_0_1_34,2021-04-24T18:02:09.812Z,,,,,,,,,,,,,,,,,2,,,,,,,,,,,,,,435.50199981522746,,response,,,,1,E,,,,,,Space,keypress(Space),,,,lyrical,,,,--- ---- ------ --- ------- ---------- ------- ----------<br>--- --------- --- ----------- ------- ----- ------- ---<br>--------- ---- -- --- ---- -- --------- -- ---- -------<br>-- --------- ------ --- ----- ------ ---- --- sunspots. --<br>------ - ---- -- --- ----------- ------- ---- ----- -----<br>--- -------- - ------ ---- -- ----- ---- --- --- -----------<br>-- -------,373254.4449996203,373252.8499998152,372800.674,372800.64499983564,372817.348,373267.546,,34,sunspots.
screen,html.Screen,2_3_1_0_1_35,2021-04-24T18:02:10.377Z,,,,,,,,,,,,,,,,,2,,,,,,,,,,,,,,550.3239999116631,,response,,,,1,E,,,,,,Space,keypress(Space),,,,lyrical,,,,--- ---- ------ --- ------- ---------- ------- ----------<br>--- --------- --- ----------- ------- ----- ------- ---<br>--------- ---- -- --- ---- -- --------- -- ---- -------<br>-- --------- ------ --- ----- ------ ---- --- --------- He<br>------ - ---- -- --- ----------- ------- ---- ----- -----<br>--- -------- - ------ ---- -- ----- ---- --- --- -----------<br>-- -------,373819.5449998602,373817.86999991164,373250.872,373254.5399996452,373267.546,373834.462,,35,He
screen,html.Screen,2_3_1_0_1_36,2021-04-24T18:02:10.854Z,,,,,,,,,,,,,,,,,2,,,,,,,,,,,,,,460.3529996809666,,response,,,,1,E,,,,,,Space,keypress(Space),,,,lyrical,,,,--- ---- ------ --- ------- ---------- ------- ----------<br>--- --------- --- ----------- ------- ----- ------- ---<br>--------- ---- -- --- ---- -- --------- -- ---- -------<br>-- --------- ------ --- ----- ------ ---- --- --------- --<br>jotted - ---- -- --- ----------- ------- ---- ----- -----<br>--- -------- - ------ ---- -- ----- ---- --- --- -----------<br>-- -------,374296.3299998082,374294.81499968097,373817.788,373819.64499969035,373834.462,374301.334,,36,jotted
