sender,sender_type,sender_id,timestamp,meta,,Blues,Classical,Country,Dance,Electronic,Folk,Gospel,Hip-Hop,Jazz,Latin,Musical/Film,New-age,Pop,Prolific_id,Provo_ID,R&B,Rap,Reggae,Religious,Rock,Soul,Swing,Traditional,age,artist_name,correct,correctResponse,distraction,duration,education,ended_on,familiarity,gender,headphone_check_performance,item,list,music_frequency,offensiveness,pleasantness,position_correct,preference,response,response_action,snippet_file,song_name,song_rating,sound,stimulus_1,stimulus_2,stimulus_3,text,time_commit,time_end,time_render,time_run,time_show,time_switch,url,word,word_ID
Prolific ID,html.Form,0,2021-04-24T18:09:45.884Z,"{""labjs_version"":""20.2.2"",""labjs_build"":{""flavor"":""production"",""commit"":""a25486e0c714a0ae2ce03ff94b7bb6896854dcfa""},""location"":""https://run.pavlovia.org/mvasilev/prolific_music_e/"",""userAgent"":""Mozilla/5.0 (Windows NT 10.0; Win64; x64) AppleWebKit/537.36 (KHTML, like Gecko) Chrome/89.0.4389.128 Safari/537.36"",""platform"":""Win32"",""language"":""en-US"",""locale"":""en-GB"",""timeZone"":""Europe/London"",""timezoneOffset"":-60,""screen_width"":1366,""screen_height"":768,""scroll_width"":1366,""scroll_height"":609,""window_innerWidth"":1366,""window_innerHeight"":657,""devicePixelRatio"":1}",,,,,,,,,,,,,,,5e00fbf5130644ce3538aa00,,,,,,,,,,,,,,,17360.44200000002,,form submission,,,,,,,,,,,,,,,,,,,,,37457.23499999997,37456.81000000002,20063.055,20076.964999999975,20096.368,37476.336,{},,
Introduction,html.Screen,1_0,2021-04-24T18:09:49.299Z,,,,,,,,,,,,,,,,,,,,,,,,,,,,,,,3394.9090000000433,,response,,,,,,,,,,,continue,click button,,,,,,,,,40872.534999999974,40871.245000000046,37443.017,37457.58000000001,37476.336,40875.654,,,
Volume calibration,html.Screen,1_1,2021-04-24T18:10:43.668Z,,,,,,,,,,,,,,,,,,,,,,,,,,,,,,,54361.901000000034,,response,,,,,,,,,,,continue,click button,,,,,,,,,95241.10000000008,95237.55500000004,40859.025,40872.84499999999,40875.654,95248.463,,,
Task instructions,html.Screen,1_2,2021-04-24T18:10:49.951Z,,,,,,,,,,,,,,,,,,,,,,,,,,,,,,,6274.977000000043,,response,,,,,,,,,,,continue,click button,,,,,,,,,101524.33000000007,101523.44000000005,95231.88,95241.24000000006,95248.463,101530.549,,,
Sounds,html.Screen,1_3_0_0,2021-04-24T18:10:54.195Z,,,,,,,,,,,,,,,,,,,,,,,,,,,,,,,4249.229999999996,,timeout,,,,,,,,,3,,,,,,,,O,I,S,,105768.42499999997,105763.549,101513.948,101524.61000000006,101530.549,105779.779,,,
Judgement,html.Screen,1_3_0_1,2021-04-24T18:10:55.753Z,,,,,,,,,,,,,,,,,,,,,,,,,,,,true,3,,1545.4060000000318,,response,,,,,,,,,3,,3,click #choice-3,,,,,O,I,S,,107326.25500000006,107325.18500000003,105763.549,105768.955,105779.779,107329.425,,,
Trial,flow.Sequence,1_3_0,2021-04-24T18:10:55.753Z,,,,,,,,,,,,,,,,,,,,,,,,,,,,,,,5794.636000000028,,completion,,,,,,,,,3,,,,,,,,O,I,S,,107326.58500000002,107325.18500000003,101513.948,101524.54000000001,101530.549,107329.425,,,
Sounds,html.Screen,1_3_1_0,2021-04-24T18:10:59.990Z,,,,,,,,,,,,,,,,,,,,,,,,,,,,,,,4249.523000000001,,timeout,,,,,,,,,2,,,,,,,,I,S,O,,111563.18499999997,111562.471,107312.861,107326.76500000003,107329.425,111578.948,,,
Judgement,html.Screen,1_3_1_1,2021-04-24T18:11:00.938Z,,,,,,,,,,,,,,,,,,,,,,,,,,,,true,2,,931.6869999999763,,response,,,,,,,,,2,,2,click #choice-2,,,,,I,S,O,,112511.42000000004,112510.63499999998,111562.471,111563.34000000004,111578.948,112534.96,,,
Trial,flow.Sequence,1_3_1,2021-04-24T18:11:00.938Z,,,,,,,,,,,,,,,,,,,,,,,,,,,,,,,5181.209999999977,,completion,,,,,,,,,2,,,,,,,,I,S,O,,112511.63000000008,112510.63499999998,107312.861,107326.71000000005,107329.425,112534.96,,,
Sounds,html.Screen,1_3_2_0,2021-04-24T18:11:05.190Z,,,,,,,,,,,,,,,,,,,,,,,,,,,,,,,4242.669999999998,,timeout,,,,,,,,,2,,,,,,,,O,S,I,,116763.63000000003,116760.924,112495.338,112511.81000000008,112534.96,116777.63,,,
Judgement,html.Screen,1_3_2_1,2021-04-24T18:11:05.849Z,,,,,,,,,,,,,,,,,,,,,,,,,,,,true,2,,644.2800000000279,,response,,,,,,,,,2,,2,click #choice-2,,,,,O,S,I,,117422.76000000004,117421.91000000003,116760.924,116763.76500000003,116777.63,117427.473,,,
Trial,flow.Sequence,1_3_2,2021-04-24T18:11:05.850Z,,,,,,,,,,,,,,,,,,,,,,,,,,,,,,,4886.950000000026,,completion,,,,,,,,,2,,,,,,,,O,S,I,,117422.95999999999,117421.91000000003,112495.338,112511.76500000009,112534.96,117427.473,,,
Sounds,html.Screen,1_3_3_0,2021-04-24T18:11:10.088Z,,,,,,,,,,,,,,,,,,,,,,,,,,,,,,,4249.281000000003,,timeout,,,,,,,,,1,,,,,,,,S,O,I,,121660.81000000008,121660.049,117411.387,117423.12000000004,117427.473,121676.754,,,
Judgement,html.Screen,1_3_3_1,2021-04-24T18:11:10.691Z,,,,,,,,,,,,,,,,,,,,,,,,,,,,true,1,,586.0710000000254,,response,,,,,,,,,1,,1,click #choice-1,,,,,S,O,I,,122264.005,122262.82500000003,121660.049,121660.95000000007,121676.754,122276.528,,,
Trial,flow.Sequence,1_3_3,2021-04-24T18:11:10.691Z,,,,,,,,,,,,,,,,,,,,,,,,,,,,,,,4835.352000000028,,completion,,,,,,,,,1,,,,,,,,S,O,I,,122264.41,122262.82500000003,117411.387,117423.06500000006,117427.473,122276.528,,,
Sounds,html.Screen,1_3_4_0,2021-04-24T18:11:14.937Z,,,,,,,,,,,,,,,,,,,,,,,,,,,,,,,4249.159999999989,,timeout,,,,,,,,,3,,,,,,,,I,O,S,,126509.89000000004,126509.015,122259.962,122264.71000000004,122276.528,126525.688,,,
Judgement,html.Screen,1_3_4_1,2021-04-24T18:11:15.582Z,,,,,,,,,,,,,,,,,,,,,,,,,,,,true,3,,628.4770000000426,,response,,,,,,,,,3,,3,click #choice-3,,,,,I,O,S,,127155.03999999998,127154.16500000004,126509.015,126510.06000000007,126525.688,127158.885,,,
Trial,flow.Sequence,1_3_4,2021-04-24T18:11:15.582Z,,,,,,,,,,,,,,,,,,,,,,,,,,,,,,,4877.637000000032,,completion,,,,,,,,,3,,,,,,,,I,O,S,,127155.34000000003,127154.16500000004,122259.962,122264.61500000005,122276.528,127158.885,,,
Sounds,html.Screen,1_3_5_0,2021-04-24T18:11:19.820Z,,,,,,,,,,,,,,,,,,,,,,,,,,,,,,,4249.427000000011,,timeout,,,,,,,,,1,,,,,,,,S,I,O,,131392.96000000002,131391.687,127142.267,127155.57,127158.885,131408.312,,,
Judgement,html.Screen,1_3_5_1,2021-04-24T18:11:20.474Z,,,,,,,,,,,,,,,,,,,,,,,,,,,,true,1,,638.167999999976,,response,,,,,,,,,1,,1,click #choice-1,,,,,S,I,O,,132047.33,132046.47999999998,131391.687,131393.21500000005,131408.312,132057.958,,,
Trial,flow.Sequence,1_3_5,2021-04-24T18:11:20.474Z,,,,,,,,,,,,,,,,,,,,,,,,,,,,,,,4887.594999999987,,completion,,,,,,,,,1,,,,,,,,S,I,O,,132047.51499999998,132046.47999999998,127142.267,127155.50000000007,127158.885,132057.958,,,
Task,flow.Loop,1_3,2021-04-24T18:11:20.479Z,,,,,,,,,,,,,,,,,,,,,,,,,,,,,,,30515.930999999982,,completion,,,1,,,,,,,,,,,,,,,,,,132052.53000000006,132046.47999999998,101513.948,101524.47500000005,101530.549,132057.958,,,
Trap,html.Screen,1_4,2021-04-24T18:11:20.481Z,,,,,,,,,,,,,,,,,,,,,,,,,,,,,,,NaN,,skipped,,,,,,,,,,,,,,,,,,,,,132054.23500000007,132046.47999999998,,132054.06000000006,,132057.958,,,
Thanks,html.Screen,1_5,2021-04-24T18:11:24.345Z,,,,,,,,,,,,,,,,,,,,,,,,,,,,,,,3859.527000000031,,response,,,,,,,,,,,continue,click button,,,,,,,,,135918.36000000002,135917.48500000004,132041.363,132054.41500000007,132057.958,138340.208,,,
Headphone screening,flow.Sequence,1,2021-04-24T18:11:24.345Z,,,,,,,,,,,,,,,,,,,,,,,,,,,,,,,98441.14900000003,,completion,,,,,,,,,,,,,,,,,,,,,135918.55500000008,135917.48500000004,37443.017,37457.53000000002,37476.336,138340.208,,,
Instructions,html.Page,2_0,2021-04-24T18:11:47.450Z,,,,,,,,,,,,,,,,,,,,,,,,,,,,,,,20683.187000000034,,form submission,,,,,,,,,,,,,,,,,,,,,159023.67500000002,159023.39500000005,138323.43,138344.62000000008,138340.208,159036.691,,,
Holding screen,html.Screen,2_1_0_0,2021-04-24T18:11:57.446Z,,,,,,,,,,,,,,,,,,,,,,,,,,,,,,,9997.445999999996,,timeout,,,,,,,,,,,,,,,,,,,,,169019.57000000004,169017.907,159019.936,159023.91999999998,159036.691,169034.137,,,
screen,html.Screen,2_1_0_1_0,2021-04-24T18:11:58.471Z,,,,,,,,,,,,,,,,,53,,,,,,,,,,,,,,1007.6529999999912,,response,,,,99,,,,,,,Space,keypress(Space),,,,,,,,When -- ----- -- ------ - ------- --- ----------<br>------------- ------ ------ ---- ---- ------- ----- -- ----<br>-------- ------- -- ---------- --- - --- ----- ----- ----<br>---- --- --- ----- --- ---- ---- ------- ----- ---- -------<br>--- --- -- ----- -- --- ---- -- --- ---- -- ------ ------<br>--- ----- -- ----,170044.48500000002,170041.78999999998,169017.907,169020.42500000005,169034.137,170050.7,,0,When
screen,html.Screen,2_1_0_1_1,2021-04-24T18:11:59.200Z,,,,,,,,,,,,,,,,,53,,,,,,,,,,,,,,720.0199999999604,,response,,,,99,,,,,,,Space,keypress(Space),,,,,,,,---- it ----- -- ------ - ------- --- ----------<br>------------- ------ ------ ---- ---- ------- ----- -- ----<br>-------- ------- -- ---------- --- - --- ----- ----- ----<br>---- --- --- ----- --- ---- ---- ------- ----- ---- -------<br>--- --- -- ----- -- --- ---- -- --- ---- -- ------ ------<br>--- ----- -- ----,170773.415,170770.71999999997,170034.627,170044.665,170050.7,170783.797,,1,it
screen,html.Screen,2_1_0_1_2,2021-04-24T18:11:59.795Z,,,,,,,,,,,,,,,,,53,,,,,,,,,,,,,,583.6180000000459,,response,,,,99,,,,,,,Space,keypress(Space),,,,,,,,---- -- comes -- ------ - ------- --- ----------<br>------------- ------ ------ ---- ---- ------- ----- -- ----<br>-------- ------- -- ---------- --- - --- ----- ----- ----<br>---- --- --- ----- --- ---- ---- ------- ----- ---- -------<br>--- --- -- ----- -- --- ---- -- --- ---- -- ------ ------<br>--- ----- -- ----,171367.95000000007,171367.41500000004,170767.693,170774.00999999998,170783.797,171384.255,,2,comes
screen,html.Screen,2_1_0_1_3,2021-04-24T18:12:00.511Z,,,,,,,,,,,,,,,,,53,,,,,,,,,,,,,,698.765000000014,,response,,,,99,,,,,,,Space,keypress(Space),,,,,,,,---- -- ----- to ------ - ------- --- ----------<br>------------- ------ ------ ---- ---- ------- ----- -- ----<br>-------- ------- -- ---------- --- - --- ----- ----- ----<br>---- --- --- ----- --- ---- ---- ------- ----- ---- -------<br>--- --- -- ----- -- --- ---- -- --- ---- -- ------ ------<br>--- ----- -- ----,172083.81500000006,172083.02000000002,171367.179,171368.07499999998,171384.255,172100.349,,3,to
screen,html.Screen,2_1_0_1_4,2021-04-24T18:12:01.220Z,,,,,,,,,,,,,,,,,53,,,,,,,,,,,,,,691.8260000000591,,response,,,,99,,,,,,,Space,keypress(Space),,,,,,,,---- -- ----- -- having - ------- --- ----------<br>------------- ------ ------ ---- ---- ------- ----- -- ----<br>-------- ------- -- ---------- --- - --- ----- ----- ----<br>---- --- --- ----- --- ---- ---- ------- ----- ---- -------<br>--- --- -- ----- -- --- ---- -- --- ---- -- ------ ------<br>--- ----- -- ----,172793.63,172792.17500000005,172084.138,172083.96500000003,172100.349,172800.039,,4,having
screen,html.Screen,2_1_0_1_5,2021-04-24T18:12:01.625Z,,,,,,,,,,,,,,,,,53,,,,,,,,,,,,,,397.5810000000347,,response,,,,99,,,,,,,Space,keypress(Space),,,,,,,,---- -- ----- -- ------ a ------- --- ----------<br>------------- ------ ------ ---- ---- ------- ----- -- ----<br>-------- ------- -- ---------- --- - --- ----- ----- ----<br>---- --- --- ----- --- ---- ---- ------- ----- ---- -------<br>--- --- -- ----- -- --- ---- -- --- ---- -- ------ ------<br>--- ----- -- ----,173198.12000000002,173197.62000000002,172783.919,172793.93500000003,172800.039,173199.979,,5,a
screen,html.Screen,2_1_0_1_6,2021-04-24T18:12:02.233Z,,,,,,,,,,,,,,,,,53,,,,,,,,,,,,,,604.006000000023,,response,,,,99,,,,,,,Space,keypress(Space),,,,,,,,---- -- ----- -- ------ - lasting --- ----------<br>------------- ------ ------ ---- ---- ------- ----- -- ----<br>-------- ------- -- ---------- --- - --- ----- ----- ----<br>---- --- --- ----- --- ---- ---- ------- ----- ---- -------<br>--- --- -- ----- -- --- ---- -- --- ---- -- ------ ------<br>--- ----- -- ----,173805.87000000002,173803.98500000002,173183.386,173198.24500000005,173199.979,173816.637,,6,lasting
screen,html.Screen,2_1_0_1_7,2021-04-24T18:12:02.759Z,,,,,,,,,,,,,,,,,53,,,,,,,,,,,,,,513.3580000000657,,response,,,,99,,,,,,,Space,keypress(Space),,,,,,,,---- -- ----- -- ------ - ------- and ----------<br>------------- ------ ------ ---- ---- ------- ----- -- ----<br>-------- ------- -- ---------- --- - --- ----- ----- ----<br>---- --- --- ----- --- ---- ---- ------- ----- ---- -------<br>--- --- -- ----- -- --- ---- -- --- ---- -- ------ ------<br>--- ----- -- ----,174331.77999999997,174329.99500000005,173800.235,173806.48500000007,173816.637,174350.466,,7,and
screen,html.Screen,2_1_0_1_8,2021-04-24T18:12:03.247Z,,,,,,,,,,,,,,,,,53,,,,,,,,,,,,,,467.56400000004214,,response,,,,99,,,,,,,Space,keypress(Space),,,,,,,,---- -- ----- -- ------ - ------- --- fulfilling<br>------------- ------ ------ ---- ---- ------- ----- -- ----<br>-------- ------- -- ---------- --- - --- ----- ----- ----<br>---- --- --- ----- --- ---- ---- ------- ----- ---- -------<br>--- --- -- ----- -- --- ---- -- --- ---- -- ------ ------<br>--- ----- -- ----,174819.82000000004,174818.03000000003,174317.01,174332.38500000004,174350.466,174833.121,,8,fulfilling
screen,html.Screen,2_1_0_1_9,2021-04-24T18:12:04.128Z,,,,,,,,,,,,,,,,,53,,,,,,,,,,,,,,867.2589999999909,,response,,,,99,,,,,,,Space,keypress(Space),,,,,,,,"---- -- ----- -- ------ - ------- --- ----------<br>relationship, ------ ------ ---- ---- ------- ----- -- ----<br>-------- ------- -- ---------- --- - --- ----- ----- ----<br>---- --- --- ----- --- ---- ---- ------- ----- ---- -------<br>--- --- -- ----- -- --- ---- -- --- ---- -- ------ ------<br>--- ----- -- ----",175701.54000000004,175700.38,174816.563,174820.38999999998,174833.121,175716.649,,9,"relationship,"
screen,html.Screen,2_1_0_1_10,2021-04-24T18:12:04.724Z,,,,,,,,,,,,,,,,,53,,,,,,,,,,,,,,578.6860000000161,,response,,,,99,,,,,,,Space,keypress(Space),,,,,,,,---- -- ----- -- ------ - ------- --- ----------<br>------------- common ------ ---- ---- ------- ----- -- ----<br>-------- ------- -- ---------- --- - --- ----- ----- ----<br>---- --- --- ----- --- ---- ---- ------- ----- ---- -------<br>--- --- -- ----- -- --- ---- -- --- ---- -- ------ ------<br>--- ----- -- ----,176297.36000000002,176295.33500000002,175700.134,175702.01500000007,175716.649,176299.376,,10,common
screen,html.Screen,2_1_0_1_11,2021-04-24T18:12:05.602Z,,,,,,,,,,,,,,,,,53,,,,,,,,,,,,,,873.609000000055,,response,,,,99,,,,,,,Space,keypress(Space),,,,,,,,---- -- ----- -- ------ - ------- --- ----------<br>------------- ------ wisdom ---- ---- ------- ----- -- ----<br>-------- ------- -- ---------- --- - --- ----- ----- ----<br>---- --- --- ----- --- ---- ---- ------- ----- ---- -------<br>--- --- -- ----- -- --- ---- -- --- ---- -- ------ ------<br>--- ----- -- ----,177175.11000000002,177172.98500000004,176283.108,176297.5650000001,176299.376,177182.655,,11,wisdom
screen,html.Screen,2_1_0_1_12,2021-04-24T18:12:07.357Z,,,,,,,,,,,,,,,,,53,,,,,,,,,,,,,,1746.7100000000792,,response,,,,99,,,,,,,Space,keypress(Space),,,,,,,,---- -- ----- -- ------ - ------- --- ----------<br>------------- ------ ------ says ---- ------- ----- -- ----<br>-------- ------- -- ---------- --- - --- ----- ----- ----<br>---- --- --- ----- --- ---- ---- ------- ----- ---- -------<br>--- --- -- ----- -- --- ---- -- --- ---- -- ------ ------<br>--- ----- -- ----,178929.95000000007,178929.36500000008,177166.341,177175.68500000006,177182.655,178932.166,,12,says
screen,html.Screen,2_1_0_1_13,2021-04-24T18:12:07.920Z,,,,,,,,,,,,,,,,,53,,,,,,,,,,,,,,560.1740000000282,,response,,,,99,,,,,,,Space,keypress(Space),,,,,,,,---- -- ----- -- ------ - ------- --- ----------<br>------------- ------ ------ ---- that ------- ----- -- ----<br>-------- ------- -- ---------- --- - --- ----- ----- ----<br>---- --- --- ----- --- ---- ---- ------- ----- ---- -------<br>--- --- -- ----- -- --- ---- -- --- ---- -- ------ ------<br>--- ----- -- ----,179492.94500000007,179492.34000000003,178916.335,178930.14000000004,178932.166,179498.841,,13,that
screen,html.Screen,2_1_0_1_14,2021-04-24T18:12:08.447Z,,,,,,,,,,,,,,,,,53,,,,,,,,,,,,,,520.4040000000969,,response,,,,99,,,,,,,Space,keypress(Space),,,,,,,,---- -- ----- -- ------ - ------- --- ----------<br>------------- ------ ------ ---- ---- feeling ----- -- ----<br>-------- ------- -- ---------- --- - --- ----- ----- ----<br>---- --- --- ----- --- ---- ---- ------- ----- ---- -------<br>--- --- -- ----- -- --- ---- -- --- ---- -- ------ ------<br>--- ----- -- ----,180019.815,180019.24500000008,179482.125,179493.10000000003,179498.841,180032.335,,14,feeling
screen,html.Screen,2_1_0_1_15,2021-04-24T18:12:09.020Z,,,,,,,,,,,,,,,,,53,,,,,,,,,,,,,,559.4250000000175,,response,,,,99,,,,,,,Space,keypress(Space),,,,,,,,---- -- ----- -- ------ - ------- --- ----------<br>------------- ------ ------ ---- ---- ------- close -- ----<br>-------- ------- -- ---------- --- - --- ----- ----- ----<br>---- --- --- ----- --- ---- ---- ------- ----- ---- -------<br>--- --- -- ----- -- --- ---- -- --- ---- -- ------ ------<br>--- ----- -- ----,180593.23000000007,180591.76,180015.62,180019.93500000003,180032.335,180598.654,,15,close
screen,html.Screen,2_1_0_1_16,2021-04-24T18:12:09.397Z,,,,,,,,,,,,,,,,,53,,,,,,,,,,,,,,369.4659999999858,,response,,,,99,,,,,,,Space,keypress(Space),,,,,,,,---- -- ----- -- ------ - ------- --- ----------<br>------------- ------ ------ ---- ---- ------- ----- to ----<br>-------- ------- -- ---------- --- - --- ----- ----- ----<br>---- --- --- ----- --- ---- ---- ------- ----- ---- -------<br>--- --- -- ----- -- --- ---- -- --- ---- -- ------ ------<br>--- ----- -- ----,180970.06,180968.12,180582.479,180593.81500000006,180598.654,180981.933,,16,to
screen,html.Screen,2_1_0_1_17,2021-04-24T18:12:09.766Z,,,,,,,,,,,,,,,,,53,,,,,,,,,,,,,,356.0720000000729,,response,,,,99,,,,,,,Space,keypress(Space),,,,,,,,---- -- ----- -- ------ - ------- --- ----------<br>------------- ------ ------ ---- ---- ------- ----- -- your<br>-------- ------- -- ---------- --- - --- ----- ----- ----<br>---- --- --- ----- --- ---- ---- ------- ----- ---- -------<br>--- --- -- ----- -- --- ---- -- --- ---- -- ------ ------<br>--- ----- -- ----,181338.895,181338.00500000006,180965.483,180970.66000000006,180981.933,181348.875,,17,your
screen,html.Screen,2_1_0_1_18,2021-04-24T18:12:10.324Z,,,,,,,,,,,,,,,,,53,,,,,,,,,,,,,,546.2950000000128,,response,,,,99,,,,,,,Space,keypress(Space),,,,,,,,---- -- ----- -- ------ - ------- --- ----------<br>------------- ------ ------ ---- ---- ------- ----- -- ----<br>romantic ------- -- ---------- --- - --- ----- ----- ----<br>---- --- --- ----- --- ---- ---- ------- ----- ---- -------<br>--- --- -- ----- -- --- ---- -- --- ---- -- ------ ------<br>--- ----- -- ----,181897.13500000004,181895.17,181332.093,181339.15000000002,181348.875,181922.56,,18,romantic
screen,html.Screen,2_1_0_1_19,2021-04-24T18:12:10.731Z,,,,,,,,,,,,,,,,,53,,,,,,,,,,,,,,381.35000000009313,,response,,,,99,,,,,,,Space,keypress(Space),,,,,,,,---- -- ----- -- ------ - ------- --- ----------<br>------------- ------ ------ ---- ---- ------- ----- -- ----<br>-------- partner -- ---------- --- - --- ----- ----- ----<br>---- --- --- ----- --- ---- ---- ------- ----- ---- -------<br>--- --- -- ----- -- --- ---- -- --- ---- -- ------ ------<br>--- ----- -- ----,182304.42000000004,182303.9100000001,181881.676,181897.35500000007,181922.56,182315.454,,19,partner
screen,html.Screen,2_1_0_1_20,2021-04-24T18:12:11.197Z,,,,,,,,,,,,,,,,,53,,,,,,,,,,,,,,453.7610000000277,,response,,,,99,,,,,,,Space,keypress(Space),,,,,,,,---- -- ----- -- ------ - ------- --- ----------<br>------------- ------ ------ ---- ---- ------- ----- -- ----<br>-------- ------- is ---------- --- - --- ----- ----- ----<br>---- --- --- ----- --- ---- ---- ------- ----- ---- -------<br>--- --- -- ----- -- --- ---- -- --- ---- -- ------ ------<br>--- ----- -- ----,182770.23500000007,182769.21500000003,182298.82,182304.55500000005,182315.454,182781.551,,20,is
screen,html.Screen,2_1_0_1_21,2021-04-24T18:12:12.822Z,,,,,,,,,,,,,,,,,53,,,,,,,,,,,,,,1611.4990000000107,,response,,,,99,,,,,,,Space,keypress(Space),,,,,,,,---- -- ----- -- ------ - ------- --- ----------<br>------------- ------ ------ ---- ---- ------- ----- -- ----<br>-------- ------- -- paramount. --- - --- ----- ----- ----<br>---- --- --- ----- --- ---- ---- ------- ----- ---- -------<br>--- --- -- ----- -- --- ---- -- --- ---- -- ------ ------<br>--- ----- -- ----,184395.64000000007,184393.05000000002,182765.285,182770.55500000005,182781.551,184425.502,,21,paramount.
screen,html.Screen,2_1_0_1_22,2021-04-24T18:12:13.500Z,,,,,,,,,,,,,,,,,53,,,,,,,,,,,,,,646.1029999999737,,response,,,,99,,,,,,,Space,keypress(Space),,,,,,,,---- -- ----- -- ------ - ------- --- ----------<br>------------- ------ ------ ---- ---- ------- ----- -- ----<br>-------- ------- -- ---------- But - --- ----- ----- ----<br>---- --- --- ----- --- ---- ---- ------- ----- ---- -------<br>--- --- -- ----- -- --- ---- -- --- ---- -- ------ ------<br>--- ----- -- ----,185073.68000000008,185071.60499999998,184381.874,184396.41000000006,184425.502,185081.018,,22,But
screen,html.Screen,2_1_0_1_23,2021-04-24T18:12:13.892Z,,,,,,,,,,,,,,,,,53,,,,,,,,,,,,,,383.2070000000531,,response,,,,99,,,,,,,Space,keypress(Space),,,,,,,,---- -- ----- -- ------ - ------- --- ----------<br>------------- ------ ------ ---- ---- ------- ----- -- ----<br>-------- ------- -- ---------- --- a --- ----- ----- ----<br>---- --- --- ----- --- ---- ---- ------- ----- ---- -------<br>--- --- -- ----- -- --- ---- -- --- ---- -- ------ ------<br>--- ----- -- ----,185465.40500000003,185464.22500000006,185064.441,185074.295,185081.018,185481.491,,23,a
screen,html.Screen,2_1_0_1_24,2021-04-24T18:12:14.239Z,,,,,,,,,,,,,,,,,53,,,,,,,,,,,,,,329.3090000000666,,response,,,,99,,,,,,,Space,keypress(Space),,,,,,,,---- -- ----- -- ------ - ------- --- ----------<br>------------- ------ ------ ---- ---- ------- ----- -- ----<br>-------- ------- -- ---------- --- - new ----- ----- ----<br>---- --- --- ----- --- ---- ---- ------- ----- ---- -------<br>--- --- -- ----- -- --- ---- -- --- ---- -- ------ ------<br>--- ----- -- ----,185812.74000000008,185810.80000000008,185464.346,185465.72500000003,185481.491,185831.386,,24,new
screen,html.Screen,2_1_0_1_25,2021-04-24T18:12:14.666Z,,,,,,,,,,,,,,,,,53,,,,,,,,,,,,,,406.0940000000119,,response,,,,99,,,,,,,Space,keypress(Space),,,,,,,,---- -- ----- -- ------ - ------- --- ----------<br>------------- ------ ------ ---- ---- ------- ----- -- ----<br>-------- ------- -- ---------- --- - --- study ----- ----<br>---- --- --- ----- --- ---- ---- ------- ----- ---- -------<br>--- --- -- ----- -- --- ---- -- --- ---- -- ------ ------<br>--- ----- -- ----,186239.41000000003,186237.48,185798.084,185813.31,185831.386,186247.494,,25,study
screen,html.Screen,2_1_0_1_26,2021-04-24T18:12:15.020Z,,,,,,,,,,,,,,,,,53,,,,,,,,,,,,,,345.5560000000696,,response,,,,99,,,,,,,Space,keypress(Space),,,,,,,,---- -- ----- -- ------ - ------- --- ----------<br>------------- ------ ------ ---- ---- ------- ----- -- ----<br>-------- ------- -- ---------- --- - --- ----- finds ----<br>---- --- --- ----- --- ---- ---- ------- ----- ---- -------<br>--- --- -- ----- -- --- ---- -- --- ---- -- ------ ------<br>--- ----- -- ----,186593.58500000008,186593.05000000008,186231.085,186239.9700000001,186247.494,186597.602,,26,finds
screen,html.Screen,2_1_0_1_27,2021-04-24T18:12:15.586Z,,,,,,,,,,,,,,,,,53,,,,,,,,,,,,,,560.1779999999853,,response,,,,99,,,,,,,Space,keypress(Space),,,,,,,,---- -- ----- -- ------ - ------- --- ----------<br>------------- ------ ------ ---- ---- ------- ----- -- ----<br>-------- ------- -- ---------- --- - --- ----- ----- that<br>---- --- --- ----- --- ---- ---- ------- ----- ---- -------<br>--- --- -- ----- -- --- ---- -- --- ---- -- ------ ------<br>--- ----- -- ----,187159.74500000005,187157.78,186581.275,186593.71,186597.602,187180.644,,27,that
screen,html.Screen,2_1_0_1_28,2021-04-24T18:12:16.100Z,,,,,,,,,,,,,,,,,53,,,,,,,,,,,,,,491.87099999998463,,response,,,,99,,,,,,,Space,keypress(Space),,,,,,,,---- -- ----- -- ------ - ------- --- ----------<br>------------- ------ ------ ---- ---- ------- ----- -- ----<br>-------- ------- -- ---------- --- - --- ----- ----- ----<br>it's --- --- ----- --- ---- ---- ------- ----- ---- -------<br>--- --- -- ----- -- --- ---- -- --- ---- -- ------ ------<br>--- ----- -- ----,187673.31000000003,187672.51499999998,187164.117,187164.175,187180.644,187680.52,,28,it's
screen,html.Screen,2_1_0_1_29,2021-04-24T18:12:16.495Z,,,,,,,,,,,,,,,,,53,,,,,,,,,,,,,,386.88000000003376,,response,,,,99,,,,,,,Space,keypress(Space),,,,,,,,---- -- ----- -- ------ - ------- --- ----------<br>------------- ------ ------ ---- ---- ------- ----- -- ----<br>-------- ------- -- ---------- --- - --- ----- ----- ----<br>---- not --- ----- --- ---- ---- ------- ----- ---- -------<br>--- --- -- ----- -- --- ---- -- --- ---- -- ------ ------<br>--- ----- -- ----,188068.29500000004,188067.40000000002,187663.88,187673.45,187680.52,188080.47,,29,not
screen,html.Screen,2_1_0_1_30,2021-04-24T18:12:17.071Z,,,,,,,,,,,,,,,,,53,,,,,,,,,,,,,,560.7850000000035,,response,,,,99,,,,,,,Space,keypress(Space),,,,,,,,---- -- ----- -- ------ - ------- --- ----------<br>------------- ------ ------ ---- ---- ------- ----- -- ----<br>-------- ------- -- ---------- --- - --- ----- ----- ----<br>---- --- how ----- --- ---- ---- ------- ----- ---- -------<br>--- --- -- ----- -- --- ---- -- --- ---- -- ------ ------<br>--- ----- -- ----,188644.53000000003,188641.255,188064,188068.55500000005,188080.47,188647.054,,30,how
screen,html.Screen,2_1_0_1_31,2021-04-24T18:12:17.585Z,,,,,,,,,,,,,,,,,53,,,,,,,,,,,,,,509.7260000000242,,response,,,,99,,,,,,,Space,keypress(Space),,,,,,,,---- -- ----- -- ------ - ------- --- ----------<br>------------- ------ ------ ---- ---- ------- ----- -- ----<br>-------- ------- -- ---------- --- - --- ----- ----- ----<br>---- --- --- close --- ---- ---- ------- ----- ---- -------<br>--- --- -- ----- -- --- ---- -- --- ---- -- ------ ------<br>--- ----- -- ----,189158.09000000003,189156.78000000003,188630.927,188645.13499999998,188647.054,189163.574,,31,close
screen,html.Screen,2_1_0_1_32,2021-04-24T18:12:17.974Z,,,,,,,,,,,,,,,,,53,,,,,,,,,,,,,,382.71100000001024,,response,,,,99,,,,,,,Space,keypress(Space),,,,,,,,---- -- ----- -- ------ - ------- --- ----------<br>------------- ------ ------ ---- ---- ------- ----- -- ----<br>-------- ------- -- ---------- --- - --- ----- ----- ----<br>---- --- --- ----- you ---- ---- ------- ----- ---- -------<br>--- --- -- ----- -- --- ---- -- --- ---- -- ------ ------<br>--- ----- -- ----,189547.69,189546.285,189147.207,189158.42500000008,189163.574,189563.838,,32,you
screen,html.Screen,2_1_0_1_33,2021-04-24T18:12:18.793Z,,,,,,,,,,,,,,,,,53,,,,,,,,,,,,,,800.6670000000158,,response,,,,99,,,,,,,Space,keypress(Space),,,,,,,,---- -- ----- -- ------ - ------- --- ----------<br>------------- ------ ------ ---- ---- ------- ----- -- ----<br>-------- ------- -- ---------- --- - --- ----- ----- ----<br>---- --- --- ----- --- feel ---- ------- ----- ---- -------<br>--- --- -- ----- -- --- ---- -- --- ---- -- ------ ------<br>--- ----- -- ----,190365.97500000003,190364.505,189547.089,189548.02000000008,189563.838,190380.407,,33,feel
screen,html.Screen,2_1_0_1_34,2021-04-24T18:12:19.250Z,,,,,,,,,,,,,,,,,53,,,,,,,,,,,,,,441.2030000000668,,response,,,,99,,,,,,,Space,keypress(Space),,,,,,,,---- -- ----- -- ------ - ------- --- ----------<br>------------- ------ ------ ---- ---- ------- ----- -- ----<br>-------- ------- -- ---------- --- - --- ----- ----- ----<br>---- --- --- ----- --- ---- that ------- ----- ---- -------<br>--- --- -- ----- -- --- ---- -- --- ---- -- ------ ------<br>--- ----- -- ----,190822.81,190821.61000000007,190363.676,190366.48500000002,190380.407,190829.962,,34,that
screen,html.Screen,2_1_0_1_35,2021-04-24T18:12:19.630Z,,,,,,,,,,,,,,,,,53,,,,,,,,,,,,,,372.2930000000342,,response,,,,99,,,,,,,Space,keypress(Space),,,,,,,,---- -- ----- -- ------ - ------- --- ----------<br>------------- ------ ------ ---- ---- ------- ----- -- ----<br>-------- ------- -- ---------- --- - --- ----- ----- ----<br>---- --- --- ----- --- ---- ---- matters ----- ---- -------<br>--- --- -- ----- -- --- ---- -- --- ---- -- ------ ------<br>--- ----- -- ----,191203.21000000002,191202.25500000003,190813.766,190823.15500000003,190829.962,191213.162,,35,matters
screen,html.Screen,2_1_0_1_36,2021-04-24T18:12:20.035Z,,,,,,,,,,,,,,,,,53,,,,,,,,,,,,,,394.32299999997485,,response,,,,99,,,,,,,Space,keypress(Space),,,,,,,,"---- -- ----- -- ------ - ------- --- ----------<br>------------- ------ ------ ---- ---- ------- ----- -- ----<br>-------- ------- -- ---------- --- - --- ----- ----- ----<br>---- --- --- ----- --- ---- ---- ------- most, ---- -------<br>--- --- -- ----- -- --- ---- -- --- ---- -- ------ ------<br>--- ----- -- ----",191608.68500000003,191607.485,191196.816,191203.43500000003,191213.162,191613.151,,36,"most,"
screen,html.Screen,2_1_0_1_37,2021-04-24T18:12:20.432Z,,,,,,,,,,,,,,,,,53,,,,,,,,,,,,,,391.24400000003516,,response,,,,99,,,,,,,Space,keypress(Space),,,,,,,,---- -- ----- -- ------ - ------- --- ----------<br>------------- ------ ------ ---- ---- ------- ----- -- ----<br>-------- ------- -- ---------- --- - --- ----- ----- ----<br>---- --- --- ----- --- ---- ---- ------- ----- it's -------<br>--- --- -- ----- -- --- ---- -- --- ---- -- ------ ------<br>--- ----- -- ----,192005.42500000005,192004.39500000005,191596.434,191609.00500000003,191613.151,192012.998,,37,it's
screen,html.Screen,2_1_0_1_38,2021-04-24T18:12:20.806Z,,,,,,,,,,,,,,,,,53,,,,,,,,,,,,,,365.307000000088,,response,,,,99,,,,,,,Space,keypress(Space),,,,,,,,---- -- ----- -- ------ - ------- --- ----------<br>------------- ------ ------ ---- ---- ------- ----- -- ----<br>-------- ------- -- ---------- --- - --- ----- ----- ----<br>---- --- --- ----- --- ---- ---- ------- ----- ---- whether<br>--- --- -- ----- -- --- ---- -- --- ---- -- ------ ------<br>--- ----- -- ----,192378.87999999998,192378.30500000008,191996.384,192005.74500000005,192012.998,192411.627,,38,whether
screen,html.Screen,2_1_0_1_39,2021-04-24T18:12:21.220Z,,,,,,,,,,,,,,,,,53,,,,,,,,,,,,,,381.00800000000163,,response,,,,99,,,,,,,Space,keypress(Space),,,,,,,,---- -- ----- -- ------ - ------- --- ----------<br>------------- ------ ------ ---- ---- ------- ----- -- ----<br>-------- ------- -- ---------- --- - --- ----- ----- ----<br>---- --- --- ----- --- ---- ---- ------- ----- ---- -------<br>you --- -- ----- -- --- ---- -- --- ---- -- ------ ------<br>--- ----- -- ----,192793.60500000007,192792.635,192362.993,192379.01499999998,192411.627,192796.17,,39,you
screen,html.Screen,2_1_0_1_40,2021-04-24T18:12:21.640Z,,,,,,,,,,,,,,,,,53,,,,,,,,,,,,,,415.92499999995925,,response,,,,99,,,,,,,Space,keypress(Space),,,,,,,,---- -- ----- -- ------ - ------- --- ----------<br>------------- ------ ------ ---- ---- ------- ----- -- ----<br>-------- ------- -- ---------- --- - --- ----- ----- ----<br>---- --- --- ----- --- ---- ---- ------- ----- ---- -------<br>--- are -- ----- -- --- ---- -- --- ---- -- ------ ------<br>--- ----- -- ----,193213.65500000003,193212.09499999997,192779.58,192793.89000000004,192796.17,193229.454,,40,are
screen,html.Screen,2_1_0_1_41,2021-04-24T18:12:22.003Z,,,,,,,,,,,,,,,,,53,,,,,,,,,,,,,,345.5110000000277,,response,,,,99,,,,,,,Space,keypress(Space),,,,,,,,---- -- ----- -- ------ - ------- --- ----------<br>------------- ------ ------ ---- ---- ------- ----- -- ----<br>-------- ------- -- ---------- --- - --- ----- ----- ----<br>---- --- --- ----- --- ---- ---- ------- ----- ---- -------<br>--- --- as ----- -- --- ---- -- --- ---- -- ------ ------<br>--- ----- -- ----,193576.27500000002,193574.96500000003,193212.793,193214.04000000007,193229.454,193596.062,,41,as
screen,html.Screen,2_1_0_1_42,2021-04-24T18:12:22.388Z,,,,,,,,,,,,,,,,,53,,,,,,,,,,,,,,363.6130000000412,,response,,,,99,,,,,,,Space,keypress(Space),,,,,,,,---- -- ----- -- ------ - ------- --- ----------<br>------------- ------ ------ ---- ---- ------- ----- -- ----<br>-------- ------- -- ---------- --- - --- ----- ----- ----<br>---- --- --- ----- --- ---- ---- ------- ----- ---- -------<br>--- --- -- close -- --- ---- -- --- ---- -- ------ ------<br>--- ----- -- ----,193960.78499999997,193959.67500000005,193579.485,193579.38999999998,193596.062,193980.574,,42,close
screen,html.Screen,2_1_0_1_43,2021-04-24T18:12:22.730Z,,,,,,,,,,,,,,,,,53,,,,,,,,,,,,,,320.2060000000347,,response,,,,99,,,,,,,Space,keypress(Space),,,,,,,,---- -- ----- -- ------ - ------- --- ----------<br>------------- ------ ------ ---- ---- ------- ----- -- ----<br>-------- ------- -- ---------- --- - --- ----- ----- ----<br>---- --- --- ----- --- ---- ---- ------- ----- ---- -------<br>--- --- -- ----- as --- ---- -- --- ---- -- ------ ------<br>--- ----- -- ----,194302.775,194300.78000000003,193946.415,193961.09999999998,193980.574,194312.764,,43,as
screen,html.Screen,2_1_0_1_44,2021-04-24T18:12:23.113Z,,,,,,,,,,,,,,,,,53,,,,,,,,,,,,,,372.9210000000312,,response,,,,99,,,,,,,Space,keypress(Space),,,,,,,,---- -- ----- -- ------ - ------- --- ----------<br>------------- ------ ------ ---- ---- ------- ----- -- ----<br>-------- ------- -- ---------- --- - --- ----- ----- ----<br>---- --- --- ----- --- ---- ---- ------- ----- ---- -------<br>--- --- -- ----- -- you ---- -- --- ---- -- ------ ------<br>--- ----- -- ----,194686.73,194685.68500000003,194295.907,194303.15500000006,194312.764,194695.852,,44,you
screen,html.Screen,2_1_0_1_45,2021-04-24T18:12:23.551Z,,,,,,,,,,,,,,,,,53,,,,,,,,,,,,,,427.5779999999795,,response,,,,99,,,,,,,Space,keypress(Space),,,,,,,,---- -- ----- -- ------ - ------- --- ----------<br>------------- ------ ------ ---- ---- ------- ----- -- ----<br>-------- ------- -- ---------- --- - --- ----- ----- ----<br>---- --- --- ----- --- ---- ---- ------- ----- ---- -------<br>--- --- -- ----- -- --- want -- --- ---- -- ------ ------<br>--- ----- -- ----,195124.545,195123.43,194679.192,194686.95,194695.852,195129.127,,45,want
screen,html.Screen,2_1_0_1_46,2021-04-24T18:12:23.922Z,,,,,,,,,,,,,,,,,53,,,,,,,,,,,,,,364.99300000004587,,response,,,,99,,,,,,,Space,keypress(Space),,,,,,,,---- -- ----- -- ------ - ------- --- ----------<br>------------- ------ ------ ---- ---- ------- ----- -- ----<br>-------- ------- -- ---------- --- - --- ----- ----- ----<br>---- --- --- ----- --- ---- ---- ------- ----- ---- -------<br>--- --- -- ----- -- --- ---- to --- ---- -- ------ ------<br>--- ----- -- ----,195495.29000000007,195494.12000000005,195112.789,195124.88000000006,195129.127,195512.462,,46,to
screen,html.Screen,2_1_0_1_47,2021-04-24T18:12:24.743Z,,,,,,,,,,,,,,,,,53,,,,,,,,,,,,,,801.1080000000366,,response,,,,99,,,,,,,Space,keypress(Space),,,,,,,,"---- -- ----- -- ------ - ------- --- ----------<br>------------- ------ ------ ---- ---- ------- ----- -- ----<br>-------- ------- -- ---------- --- - --- ----- ----- ----<br>---- --- --- ----- --- ---- ---- ------- ----- ---- -------<br>--- --- -- ----- -- --- ---- -- be, ---- -- ------ ------<br>--- ----- -- ----",196315.965,196313.57000000004,195495.948,195495.60500000007,195512.462,196329.302,,47,"be,"
screen,html.Screen,2_1_0_1_48,2021-04-24T18:12:25.145Z,,,,,,,,,,,,,,,,,53,,,,,,,,,,,,,,388.6380000000063,,response,,,,99,,,,,,,Space,keypress(Space),,,,,,,,---- -- ----- -- ------ - ------- --- ----------<br>------------- ------ ------ ---- ---- ------- ----- -- ----<br>-------- ------- -- ---------- --- - --- ----- ----- ----<br>---- --- --- ----- --- ---- ---- ------- ----- ---- -------<br>--- --- -- ----- -- --- ---- -- --- even -- ------ ------<br>--- ----- -- ----,196718.71,196717.94,196312.234,196316.735,196329.302,196729.227,,48,even
screen,html.Screen,2_1_0_1_49,2021-04-24T18:12:25.429Z,,,,,,,,,,,,,,,,,53,,,,,,,,,,,,,,272.76800000006915,,response,,,,99,,,,,,,Space,keypress(Space),,,,,,,,---- -- ----- -- ------ - ------- --- ----------<br>------------- ------ ------ ---- ---- ------- ----- -- ----<br>-------- ------- -- ---------- --- - --- ----- ----- ----<br>---- --- --- ----- --- ---- ---- ------- ----- ---- -------<br>--- --- -- ----- -- --- ---- -- --- ---- if ------ ------<br>--- ----- -- ----,197002.52999999997,197001.99500000008,196712.155,196718.91500000004,196729.227,197012.027,,49,if
screen,html.Screen,2_1_0_1_50,2021-04-24T18:12:25.734Z,,,,,,,,,,,,,,,,,53,,,,,,,,,,,,,,293.7530000000261,,response,,,,99,,,,,,,Space,keypress(Space),,,,,,,,---- -- ----- -- ------ - ------- --- ----------<br>------------- ------ ------ ---- ---- ------- ----- -- ----<br>-------- ------- -- ---------- --- - --- ----- ----- ----<br>---- --- --- ----- --- ---- ---- ------- ----- ---- -------<br>--- --- -- ----- -- --- ---- -- --- ---- -- that's ------<br>--- ----- -- ----,197307.30000000005,197305.78000000003,196995.417,197002.65000000002,197012.027,197311.995,,50,that's
screen,html.Screen,2_1_0_1_51,2021-04-24T18:12:26.064Z,,,,,,,,,,,,,,,,,53,,,,,,,,,,,,,,325.29000000003725,,response,,,,99,,,,,,,Space,keypress(Space),,,,,,,,---- -- ----- -- ------ - ------- --- ----------<br>------------- ------ ------ ---- ---- ------- ----- -- ----<br>-------- ------- -- ---------- --- - --- ----- ----- ----<br>---- --- --- ----- --- ---- ---- ------- ----- ---- -------<br>--- --- -- ----- -- --- ---- -- --- ---- -- ------ really<br>--- ----- -- ----,197637.79499999998,197637.28500000003,197295.284,197307.62000000005,197311.995,197645.265,,51,really
screen,html.Screen,2_1_0_1_52,2021-04-24T18:12:26.492Z,,,,,,,,,,,,,,,,,53,,,,,,,,,,,,,,419.3499999999767,,response,,,,99,,,,,,,Space,keypress(Space),,,,,,,,---- -- ----- -- ------ - ------- --- ----------<br>------------- ------ ------ ---- ---- ------- ----- -- ----<br>-------- ------- -- ---------- --- - --- ----- ----- ----<br>---- --- --- ----- --- ---- ---- ------- ----- ---- -------<br>--- --- -- ----- -- --- ---- -- --- ---- -- ------ ------<br>not ----- -- ----,198065.4400000001,198064.615,197628.63,197637.91000000003,197645.265,198079.018,,52,not
screen,html.Screen,2_1_0_1_53,2021-04-24T18:12:26.903Z,,,,,,,,,,,,,,,,,53,,,,,,,,,,,,,,396.47200000003795,,response,,,,99,,,,,,,Space,keypress(Space),,,,,,,,---- -- ----- -- ------ - ------- --- ----------<br>------------- ------ ------ ---- ---- ------- ----- -- ----<br>-------- ------- -- ---------- --- - --- ----- ----- ----<br>---- --- --- ----- --- ---- ---- ------- ----- ---- -------<br>--- --- -- ----- -- --- ---- -- --- ---- -- ------ ------<br>--- close -- ----,198476.05,198475.49000000005,198061.846,198065.64500000002,198079.018,198478.367,,53,close
screen,html.Screen,2_1_0_1_54,2021-04-24T18:12:27.302Z,,,,,,,,,,,,,,,,,53,,,,,,,,,,,,,,397.0230000000447,,response,,,,99,,,,,,,Space,keypress(Space),,,,,,,,---- -- ----- -- ------ - ------- --- ----------<br>------------- ------ ------ ---- ---- ------- ----- -- ----<br>-------- ------- -- ---------- --- - --- ----- ----- ----<br>---- --- --- ----- --- ---- ---- ------- ----- ---- -------<br>--- --- -- ----- -- --- ---- -- --- ---- -- ------ ------<br>--- ----- at ----,198875.92000000007,198875.39000000004,198461.891,198476.185,198478.367,198878.286,,54,at
screen,html.Screen,2_1_0_1_55,2021-04-24T18:12:28.779Z,,,,,,,,,,,,,,,,,53,,,,,,,,,,,,,,1472.673999999999,,response,,,,99,,,,,,,Space,keypress(Space),,,,,,,,---- -- ----- -- ------ - ------- --- ----------<br>------------- ------ ------ ---- ---- ------- ----- -- ----<br>-------- ------- -- ---------- --- - --- ----- ----- ----<br>---- --- --- ----- --- ---- ---- ------- ----- ---- -------<br>--- --- -- ----- -- --- ---- -- --- ---- -- ------ ------<br>--- ----- -- all.,200352.92500000002,200350.96,198861.759,198876.03000000003,198878.286,200361.502,,55,all.
Item 99,flow.Loop,2_1_0_1,2021-04-24T18:12:28.780Z,,,,,,,,,,,,,,,,,,,,,,,,,,,,,,,31316.823000000004,,completion,,,,,E,,,,,,,,,,,silence,,,,,200353.87000000002,200350.96,169017.907,169020.19000000006,169034.137,200361.502,,,
Question 1,html.Screen,2_1_0_2,2021-04-24T18:12:32.412Z,,,,,,,,,,,,,,,,,,,,,,,,,,,,true,FALSE,,3623.168000000034,,response,,,,99,E,,,,,,FALSE,click #choice-2,,,,silence,,,,,203985.52000000008,203984.67000000004,200344.836,200354.38499999998,200361.502,203994.034,,,
Question 2,html.Screen,2_1_0_3,2021-04-24T18:12:36.324Z,,,,,,,,,,,,,,,,,,,,,,,,,,,,true,TRUE,,3902.270999999979,,response,,,,99,E,,,,,,TRUE,click #choice-1,,,,silence,,,,,207897.15000000002,207896.305,203977.921,203985.65500000006,203994.034,207909.914,,,
Item 99,flow.Sequence,2_1_0,2021-04-24T18:12:36.324Z,,,,,,,,,,,,,,,,,,,,,,,,,,,,,,,48859.614,,completion,,,,,,,,,,,,,,,,,,,,,207897.44000000006,207896.305,159019.936,159023.88000000006,159036.691,207909.914,,,
Holding screen,html.Screen,2_1_1_0,2021-04-24T18:12:46.320Z,,,,,,,,,,,,,,,,,,,,,,,,,,,,,,,9998.089000000007,,timeout,,,,,,,,,,,,,,,,,,,,,217892.99000000005,217891.404,207893.573,207897.67500000005,207909.914,217908.003,,,
screen,html.Screen,2_1_1_1_0,2021-04-24T18:12:47.262Z,,,,,,,,,,,,,,,,,54,,,,,,,,,,,,,,925.4570000000531,,response,,,,100,,,,,,,Space,keypress(Space),,,,,,,,At --- ---- --- ------ ----- ------- ---- -- --- ------- --<br>------- ---------- ------ -- ----- -- ----- -- ---- ------<br>--- ----- --- --- ------ -------- ----- --- ------ ----- --<br>----- ----- ---------- --- --- ------ ------ ---- -- ------<br>------- --- ------ ----- --- ---- ------- -- ---- --- --<br>------- ------,218835.31000000006,218833.46000000005,217891.404,217893.6550000001,217908.003,218841.202,,0,At
screen,html.Screen,2_1_1_1_1,2021-04-24T18:12:47.971Z,,,,,,,,,,,,,,,,,54,,,,,,,,,,,,,,702.0080000000598,,response,,,,100,,,,,,,Space,keypress(Space),,,,,,,,-- the ---- --- ------ ----- ------- ---- -- --- ------- --<br>------- ---------- ------ -- ----- -- ----- -- ---- ------<br>--- ----- --- --- ------ -------- ----- --- ------ ----- --<br>----- ----- ---------- --- --- ------ ------ ---- -- ------<br>------- --- ------ ----- --- ---- ------- -- ---- --- --<br>------- ------,219544.29500000004,219543.21000000005,218824.662,218835.80500000005,218841.202,219557.698,,1,the
screen,html.Screen,2_1_1_1_2,2021-04-24T18:12:48.551Z,,,,,,,,,,,,,,,,,54,,,,,,,,,,,,,,564.4520000000193,,response,,,,100,,,,,,,Space,keypress(Space),,,,,,,,-- --- time --- ------ ----- ------- ---- -- --- ------- --<br>------- ---------- ------ -- ----- -- ----- -- ---- ------<br>--- ----- --- --- ------ -------- ----- --- ------ ----- --<br>----- ----- ---------- --- --- ------ ------ ---- -- ------<br>------- --- ------ ----- --- ---- ------- -- ---- --- --<br>------- ------,220124.145,220122.15000000002,219541.604,219544.60000000006,219557.698,220140.99,,2,time
screen,html.Screen,2_1_1_1_3,2021-04-24T18:12:49.024Z,,,,,,,,,,,,,,,,,54,,,,,,,,,,,,,,455.0100000000093,,response,,,,100,,,,,,,Space,keypress(Space),,,,,,,,-- --- ---- the ------ ----- ------- ---- -- --- ------- --<br>------- ---------- ------ -- ----- -- ----- -- ---- ------<br>--- ----- --- --- ------ -------- ----- --- ------ ----- --<br>----- ----- ---------- --- --- ------ ------ ---- -- ------<br>------- --- ------ ----- --- ---- ------- -- ---- --- --<br>------- ------,220597.92500000005,220596,220124.383,220124.64,220140.99,220607.448,,3,the
screen,html.Screen,2_1_1_1_4,2021-04-24T18:12:49.555Z,,,,,,,,,,,,,,,,,54,,,,,,,,,,,,,,518.5120000000752,,response,,,,100,,,,,,,Space,keypress(Space),,,,,,,,-- --- ---- --- French ----- ------- ---- -- --- ------- --<br>------- ---------- ------ -- ----- -- ----- -- ---- ------<br>--- ----- --- --- ------ -------- ----- --- ------ ----- --<br>----- ----- ---------- --- --- ------ ------ ---- -- ------<br>------- --- ------ ----- --- ---- ------- -- ---- --- --<br>------- ------,221128.08000000007,221125.96000000008,220590.832,220598.435,220607.448,221140.83,,4,French
screen,html.Screen,2_1_1_1_5,2021-04-24T18:12:50.003Z,,,,,,,,,,,,,,,,,54,,,,,,,,,,,,,,433.80000000007567,,response,,,,100,,,,,,,Space,keypress(Space),,,,,,,,-- --- ---- --- ------ crown ------- ---- -- --- ------- --<br>------- ---------- ------ -- ----- -- ----- -- ---- ------<br>--- ----- --- --- ------ -------- ----- --- ------ ----- --<br>----- ----- ---------- --- --- ------ ------ ---- -- ------<br>------- --- ------ ----- --- ---- ------- -- ---- --- --<br>------- ------,221576.61500000005,221574.63000000006,221124.4,221128.31500000003,221140.83,221590.746,,5,crown
screen,html.Screen,2_1_1_1_6,2021-04-24T18:12:50.901Z,,,,,,,,,,,,,,,,,54,,,,,,,,,,,,,,882.8540000000212,,response,,,,100,,,,,,,Space,keypress(Space),,,,,,,,-- --- ---- --- ------ ----- secured ---- -- --- ------- --<br>------- ---------- ------ -- ----- -- ----- -- ---- ------<br>--- ----- --- --- ------ -------- ----- --- ------ ----- --<br>----- ----- ---------- --- --- ------ ------ ---- -- ------<br>------- --- ------ ----- --- ---- ------- -- ---- --- --<br>------- ------,222474.915,222473.60000000003,221574.4,221577.1000000001,221590.746,222490.671,,6,secured
screen,html.Screen,2_1_1_1_7,2021-04-24T18:12:52.129Z,,,,,,,,,,,,,,,,,54,,,,,,,,,,,,,,1211.3739999999816,,response,,,,100,,,,,,,Space,keypress(Space),,,,,,,,-- --- ---- --- ------ ----- ------- much -- --- ------- --<br>------- ---------- ------ -- ----- -- ----- -- ---- ------<br>--- ----- --- --- ------ -------- ----- --- ------ ----- --<br>----- ----- ---------- --- --- ------ ------ ---- -- ------<br>------- --- ------ ----- --- ---- ------- -- ---- --- --<br>------- ------,223702.59,223702.04499999998,222473.91,222475.23,222490.671,223706.796,,7,much
screen,html.Screen,2_1_1_1_8,2021-04-24T18:12:52.502Z,,,,,,,,,,,,,,,,,54,,,,,,,,,,,,,,366.88400000007823,,response,,,,100,,,,,,,Space,keypress(Space),,,,,,,,-- --- ---- --- ------ ----- ------- ---- of --- ------- --<br>------- ---------- ------ -- ----- -- ----- -- ---- ------<br>--- ----- --- --- ------ -------- ----- --- ------ ----- --<br>----- ----- ---------- --- --- ------ ------ ---- -- ------<br>------- --- ------ ----- --- ---- ------- -- ---- --- --<br>------- ------,224075.71500000005,224073.68000000008,223690.859,223702.71500000003,223706.796,224090.636,,8,of
screen,html.Screen,2_1_1_1_9,2021-04-24T18:12:52.876Z,,,,,,,,,,,,,,,,,54,,,,,,,,,,,,,,357.7639999999956,,response,,,,100,,,,,,,Space,keypress(Space),,,,,,,,-- --- ---- --- ------ ----- ------- ---- -- its ------- --<br>------- ---------- ------ -- ----- -- ----- -- ---- ------<br>--- ----- --- --- ------ -------- ----- --- ------ ----- --<br>----- ----- ---------- --- --- ------ ------ ---- -- ------<br>------- --- ------ ----- --- ---- ------- -- ---- --- --<br>------- ------,224449.04500000007,224448.4,224073.471,224076.34000000008,224090.636,224456.71,,9,its
screen,html.Screen,2_1_1_1_10,2021-04-24T18:12:53.545Z,,,,,,,,,,,,,,,,,54,,,,,,,,,,,,,,660.054999999993,,response,,,,100,,,,,,,Space,keypress(Space),,,,,,,,-- --- ---- --- ------ ----- ------- ---- -- --- revenue --<br>------- ---------- ------ -- ----- -- ----- -- ---- ------<br>--- ----- --- --- ------ -------- ----- --- ------ ----- --<br>----- ----- ---------- --- --- ------ ------ ---- -- ------<br>------- --- ------ ----- --- ---- ------- -- ---- --- --<br>------- ------,225118.69,225116.76499999998,224440.405,224449.26500000007,224456.71,225123.275,,10,revenue
screen,html.Screen,2_1_1_1_11,2021-04-24T18:12:53.978Z,,,,,,,,,,,,,,,,,54,,,,,,,,,,,,,,426.3549999999814,,response,,,,100,,,,,,,Space,keypress(Space),,,,,,,,-- --- ---- --- ------ ----- ------- ---- -- --- ------- by<br>------- ---------- ------ -- ----- -- ----- -- ---- ------<br>--- ----- --- --- ------ -------- ----- --- ------ ----- --<br>----- ----- ---------- --- --- ------ ------ ---- -- ------<br>------- --- ------ ----- --- ---- ------- -- ---- --- --<br>------- ------,225551.63000000003,225549.62999999998,225107.025,225119.19,225123.275,225556.561,,11,by
screen,html.Screen,2_1_1_1_12,2021-04-24T18:12:55.210Z,,,,,,,,,,,,,,,,,54,,,,,,,,,,,,,,1224.899000000063,,response,,,,100,,,,,,,Space,keypress(Space),,,,,,,,-- --- ---- --- ------ ----- ------- ---- -- --- ------- --<br>issuing ---------- ------ -- ----- -- ----- -- ---- ------<br>--- ----- --- --- ------ -------- ----- --- ------ ----- --<br>----- ----- ---------- --- --- ------ ------ ---- -- ------<br>------- --- ------ ----- --- ---- ------- -- ---- --- --<br>------- ------,226783.18000000002,226781.46000000005,225540.184,225552.17000000004,225556.561,226789.658,,12,issuing
screen,html.Screen,2_1_1_1_13,2021-04-24T18:12:55.789Z,,,,,,,,,,,,,,,,,54,,,,,,,,,,,,,,570.2870000000403,,response,,,,100,,,,,,,Space,keypress(Space),,,,,,,,-- --- ---- --- ------ ----- ------- ---- -- --- ------- --<br>------- government ------ -- ----- -- ----- -- ---- ------<br>--- ----- --- --- ------ -------- ----- --- ------ ----- --<br>----- ----- ---------- --- --- ------ ------ ---- -- ------<br>------- --- ------ ----- --- ---- ------- -- ---- --- --<br>------- ------,227361.98,227359.94500000004,226773.342,226783.68999999997,226789.658,227372.869,,13,government
screen,html.Screen,2_1_1_1_14,2021-04-24T18:12:57.510Z,,,,,,,,,,,,,,,,,54,,,,,,,,,,,,,,1708.5409999999974,,response,,,,100,,,,,,,Space,keypress(Space),,,,,,,,-- --- ---- --- ------ ----- ------- ---- -- --- ------- --<br>------- ---------- bonds. -- ----- -- ----- -- ---- ------<br>--- ----- --- --- ------ -------- ----- --- ------ ----- --<br>----- ----- ---------- --- --- ------ ------ ---- -- ------<br>------- --- ------ ----- --- ---- ------- -- ---- --- --<br>------- ------,229083.41000000006,229081.41,227356.414,227362.64500000005,227372.869,229089.233,,14,bonds.
screen,html.Screen,2_1_1_1_15,2021-04-24T18:12:57.948Z,,,,,,,,,,,,,,,,,54,,,,,,,,,,,,,,430.40199999997276,,response,,,,100,,,,,,,Space,keypress(Space),,,,,,,,-- --- ---- --- ------ ----- ------- ---- -- --- ------- --<br>------- ---------- ------ In ----- -- ----- -- ---- ------<br>--- ----- --- --- ------ -------- ----- --- ------ ----- --<br>----- ----- ---------- --- --- ------ ------ ---- -- ------<br>------- --- ------ ----- --- ---- ------- -- ---- --- --<br>------- ------,229521.4450000001,229519.63499999998,229073.183,229083.93000000002,229089.233,229539.453,,15,In
screen,html.Screen,2_1_1_1_16,2021-04-24T18:12:59.329Z,,,,,,,,,,,,,,,,,54,,,,,,,,,,,,,,1360.7820000000647,,response,,,,100,,,,,,,Space,keypress(Space),,,,,,,,"-- --- ---- --- ------ ----- ------- ---- -- --- ------- --<br>------- ---------- ------ -- 1727, -- ----- -- ---- ------<br>--- ----- --- --- ------ -------- ----- --- ------ ----- --<br>----- ----- ---------- --- --- ------ ------ ---- -- ------<br>------- --- ------ ----- --- ---- ------- -- ---- --- --<br>------- ------",230901.99000000008,230900.23500000007,229522.719,229521.97,229539.453,230905.561,,16,"1727,"
screen,html.Screen,2_1_1_1_17,2021-04-24T18:12:59.846Z,,,,,,,,,,,,,,,,,54,,,,,,,,,,,,,,512.5290000000095,,response,,,,100,,,,,,,Space,keypress(Space),,,,,,,,-- --- ---- --- ------ ----- ------- ---- -- --- ------- --<br>------- ---------- ------ -- ----- in ----- -- ---- ------<br>--- ----- --- --- ------ -------- ----- --- ------ ----- --<br>----- ----- ---------- --- --- ------ ------ ---- -- ------<br>------- --- ------ ----- --- ---- ------- -- ---- --- --<br>------- ------,231419.87000000005,231418.09,230889.32,230902.49000000005,230905.561,231441.557,,17,in
screen,html.Screen,2_1_1_1_18,2021-04-24T18:13:00.330Z,,,,,,,,,,,,,,,,,54,,,,,,,,,,,,,,461.11800000004587,,response,,,,100,,,,,,,Space,keypress(Space),,,,,,,,-- --- ---- --- ------ ----- ------- ---- -- --- ------- --<br>------- ---------- ------ -- ----- -- order -- ---- ------<br>--- ----- --- --- ------ -------- ----- --- ------ ----- --<br>----- ----- ---------- --- --- ------ ------ ---- -- ------<br>------- --- ------ ----- --- ---- ------- -- ---- --- --<br>------- ------,231903.19,231902.67500000005,231405.948,231420.38000000003,231441.557,231905.21,,18,order
screen,html.Screen,2_1_1_1_19,2021-04-24T18:13:00.745Z,,,,,,,,,,,,,,,,,54,,,,,,,,,,,,,,410.6150000000198,,response,,,,100,,,,,,,Space,keypress(Space),,,,,,,,-- --- ---- --- ------ ----- ------- ---- -- --- ------- --<br>------- ---------- ------ -- ----- -- ----- to ---- ------<br>--- ----- --- --- ------ -------- ----- --- ------ ----- --<br>----- ----- ---------- --- --- ------ ------ ---- -- ------<br>------- --- ------ ----- --- ---- ------- -- ---- --- --<br>------- ------,232318.18500000008,232315.825,231888.909,231903.31000000003,231905.21,232321.935,,19,to
screen,html.Screen,2_1_1_1_20,2021-04-24T18:13:01.127Z,,,,,,,,,,,,,,,,,54,,,,,,,,,,,,,,377.5250000000524,,response,,,,100,,,,,,,Space,keypress(Space),,,,,,,,-- --- ---- --- ------ ----- ------- ---- -- --- ------- --<br>------- ---------- ------ -- ----- -- ----- -- save ------<br>--- ----- --- --- ------ -------- ----- --- ------ ----- --<br>----- ----- ---------- --- --- ------ ------ ---- -- ------<br>------- --- ------ ----- --- ---- ------- -- ---- --- --<br>------- ------,232700.08000000007,232699.46000000005,232305.363,232318.96000000005,232321.935,232705.114,,20,save
screen,html.Screen,2_1_1_1_21,2021-04-24T18:13:01.748Z,,,,,,,,,,,,,,,,,54,,,,,,,,,,,,,,615.4010000000126,,response,,,,100,,,,,,,Space,keypress(Space),,,,,,,,"-- --- ---- --- ------ ----- ------- ---- -- --- ------- --<br>------- ---------- ------ -- ----- -- ----- -- ---- money,<br>--- ----- --- --- ------ -------- ----- --- ------ ----- --<br>----- ----- ---------- --- --- ------ ------ ---- -- ------<br>------- --- ------ ----- --- ---- ------- -- ---- --- --<br>------- ------",233321.29500000007,233320.515,232688.455,232700.23500000002,232705.114,233338.555,,21,"money,"
screen,html.Screen,2_1_1_1_22,2021-04-24T18:13:02.183Z,,,,,,,,,,,,,,,,,54,,,,,,,,,,,,,,416.21000000002095,,response,,,,100,,,,,,,Space,keypress(Space),,,,,,,,-- --- ---- --- ------ ----- ------- ---- -- --- ------- --<br>------- ---------- ------ -- ----- -- ----- -- ---- ------<br>the ----- --- --- ------ -------- ----- --- ------ ----- --<br>----- ----- ---------- --- --- ------ ------ ---- -- ------<br>------- --- ------ ----- --- ---- ------- -- ---- --- --<br>------- ------,233756.91500000004,233754.765,233305.497,233321.52500000005,233338.555,233771.655,,22,the
screen,html.Screen,2_1_1_1_23,2021-04-24T18:13:02.633Z,,,,,,,,,,,,,,,,,54,,,,,,,,,,,,,,432.5250000000524,,response,,,,100,,,,,,,Space,keypress(Space),,,,,,,,-- --- ---- --- ------ ----- ------- ---- -- --- ------- --<br>------- ---------- ------ -- ----- -- ----- -- ---- ------<br>--- state --- --- ------ -------- ----- --- ------ ----- --<br>----- ----- ---------- --- --- ------ ------ ---- -- ------<br>------- --- ------ ----- --- ---- ------- -- ---- --- --<br>------- ------,234206.05999999997,234204.18000000005,233755.059,233757.705,233771.655,234221.662,,23,state
screen,html.Screen,2_1_1_1_24,2021-04-24T18:13:03.079Z,,,,,,,,,,,,,,,,,54,,,,,,,,,,,,,,427.93800000005285,,response,,,,100,,,,,,,Space,keypress(Space),,,,,,,,-- --- ---- --- ------ ----- ------- ---- -- --- ------- --<br>------- ---------- ------ -- ----- -- ----- -- ---- ------<br>--- ----- cut --- ------ -------- ----- --- ------ ----- --<br>----- ----- ---------- --- --- ------ ------ ---- -- ------<br>------- --- ------ ----- --- ---- ------- -- ---- --- --<br>------- ------,234652.19000000003,234649.60000000006,234205.021,234206.62000000005,234221.662,234680.046,,24,cut
screen,html.Screen,2_1_1_1_25,2021-04-24T18:13:03.473Z,,,,,,,,,,,,,,,,,54,,,,,,,,,,,,,,365.5590000000084,,response,,,,100,,,,,,,Space,keypress(Space),,,,,,,,-- --- ---- --- ------ ----- ------- ---- -- --- ------- --<br>------- ---------- ------ -- ----- -- ----- -- ---- ------<br>--- ----- --- the ------ -------- ----- --- ------ ----- --<br>----- ----- ---------- --- --- ------ ------ ---- -- ------<br>------- --- ------ ----- --- ---- ------- -- ---- --- --<br>------- ------,235046.08000000007,235045.605,234638.612,234653.08000000005,234680.046,235055.159,,25,the
screen,html.Screen,2_1_1_1_26,2021-04-24T18:13:04.004Z,,,,,,,,,,,,,,,,,54,,,,,,,,,,,,,,522.0810000000638,,response,,,,100,,,,,,,Space,keypress(Space),,,,,,,,-- --- ---- --- ------ ----- ------- ---- -- --- ------- --<br>------- ---------- ------ -- ----- -- ----- -- ---- ------<br>--- ----- --- --- bonds' -------- ----- --- ------ ----- --<br>----- ----- ---------- --- --- ------ ------ ---- -- ------<br>------- --- ------ ----- --- ---- ------- -- ---- --- --<br>------- ------,235577.79000000004,235577.24000000008,235038.221,235046.195,235055.159,235588.394,,26,bonds'
screen,html.Screen,2_1_1_1_27,2021-04-24T18:13:05.076Z,,,,,,,,,,,,,,,,,54,,,,,,,,,,,,,,1058.5859999999811,,response,,,,100,,,,,,,Space,keypress(Space),,,,,,,,-- --- ---- --- ------ ----- ------- ---- -- --- ------- --<br>------- ---------- ------ -- ----- -- ----- -- ---- ------<br>--- ----- --- --- ------ interest ----- --- ------ ----- --<br>----- ----- ---------- --- --- ------ ------ ---- -- ------<br>------- --- ------ ----- --- ---- ------- -- ---- --- --<br>------- ------,236649.13999999998,236646.97999999998,235571.77,235577.94999999998,235588.394,236654.449,,27,interest
screen,html.Screen,2_1_1_1_28,2021-04-24T18:13:05.734Z,,,,,,,,,,,,,,,,,54,,,,,,,,,,,,,,652.8510000000533,,response,,,,100,,,,,,,Space,keypress(Space),,,,,,,,-- --- ---- --- ------ ----- ------- ---- -- --- ------- --<br>------- ---------- ------ -- ----- -- ----- -- ---- ------<br>--- ----- --- --- ------ -------- rate. --- ------ ----- --<br>----- ----- ---------- --- --- ------ ------ ---- -- ------<br>------- --- ------ ----- --- ---- ------- -- ---- --- --<br>------- ------,237307.79500000004,237307.30000000005,236637.893,236649.63,236654.449,237320.867,,28,rate.
screen,html.Screen,2_1_1_1_29,2021-04-24T18:13:06.214Z,,,,,,,,,,,,,,,,,54,,,,,,,,,,,,,,466.2280000000319,,response,,,,100,,,,,,,Space,keypress(Space),,,,,,,,-- --- ---- --- ------ ----- ------- ---- -- --- ------- --<br>------- ---------- ------ -- ----- -- ----- -- ---- ------<br>--- ----- --- --- ------ -------- ----- The ------ ----- --<br>----- ----- ---------- --- --- ------ ------ ---- -- ------<br>------- --- ------ ----- --- ---- ------- -- ---- --- --<br>------- ------,237787.60499999998,237787.09500000003,237304.785,237307.96500000008,237320.867,237804.09,,29,The
screen,html.Screen,2_1_1_1_30,2021-04-24T18:13:06.661Z,,,,,,,,,,,,,,,,,54,,,,,,,,,,,,,,429.8450000000885,,response,,,,100,,,,,,,Space,keypress(Space),,,,,,,,-- --- ---- --- ------ ----- ------- ---- -- --- ------- --<br>------- ---------- ------ -- ----- -- ----- -- ---- ------<br>--- ----- --- --- ------ -------- ----- --- market ----- --<br>----- ----- ---------- --- --- ------ ------ ---- -- ------<br>------- --- ------ ----- --- ---- ------- -- ---- --- --<br>------- ------,238234.425,238233.93500000008,237787.462,237787.78,237804.09,238237.305,,30,market
screen,html.Screen,2_1_1_1_31,2021-04-24T18:13:07.044Z,,,,,,,,,,,,,,,,,54,,,,,,,,,,,,,,379.8649999999907,,response,,,,100,,,,,,,Space,keypress(Space),,,,,,,,-- --- ---- --- ------ ----- ------- ---- -- --- ------- --<br>------- ---------- ------ -- ----- -- ----- -- ---- ------<br>--- ----- --- --- ------ -------- ----- --- ------ value --<br>----- ----- ---------- --- --- ------ ------ ---- -- ------<br>------- --- ------ ----- --- ---- ------- -- ---- --- --<br>------- ------,238617.6700000001,238617.16999999998,238220.707,238234.545,238237.305,238620.569,,31,value
screen,html.Screen,2_1_1_1_32,2021-04-24T18:13:07.421Z,,,,,,,,,,,,,,,,,54,,,,,,,,,,,,,,373.4910000000091,,response,,,,100,,,,,,,Space,keypress(Space),,,,,,,,-- --- ---- --- ------ ----- ------- ---- -- --- ------- --<br>------- ---------- ------ -- ----- -- ----- -- ---- ------<br>--- ----- --- --- ------ -------- ----- --- ------ ----- of<br>----- ----- ---------- --- --- ------ ------ ---- -- ------<br>------- --- ------ ----- --- ---- ------- -- ---- --- --<br>------- ------,238994.6050000001,238994.06,238603.963,238617.79,238620.569,239003.861,,32,of
screen,html.Screen,2_1_1_1_33,2021-04-24T18:13:07.809Z,,,,,,,,,,,,,,,,,54,,,,,,,,,,,,,,377.6590000000142,,response,,,,100,,,,,,,Space,keypress(Space),,,,,,,,-- --- ---- --- ------ ----- ------- ---- -- --- ------- --<br>------- ---------- ------ -- ----- -- ----- -- ---- ------<br>--- ----- --- --- ------ -------- ----- --- ------ ----- --<br>these ----- ---------- --- --- ------ ------ ---- -- ------<br>------- --- ------ ----- --- ---- ------- -- ---- --- --<br>------- ------,239382.02000000002,239381.52000000002,238987.223,238994.78,239003.861,239387.112,,33,these
screen,html.Screen,2_1_1_1_34,2021-04-24T18:13:08.173Z,,,,,,,,,,,,,,,,,54,,,,,,,,,,,,,,358.3630000000703,,response,,,,100,,,,,,,Space,keypress(Space),,,,,,,,-- --- ---- --- ------ ----- ------- ---- -- --- ------- --<br>------- ---------- ------ -- ----- -- ----- -- ---- ------<br>--- ----- --- --- ------ -------- ----- --- ------ ----- --<br>----- bonds ---------- --- --- ------ ------ ---- -- ------<br>------- --- ------ ----- --- ---- ------- -- ---- --- --<br>------- ------,239745.97500000003,239745.47500000006,239370.476,239382.19000000003,239387.112,239753.7,,34,bonds
screen,html.Screen,2_1_1_1_35,2021-04-24T18:13:08.884Z,,,,,,,,,,,,,,,,,54,,,,,,,,,,,,,,703.3399999999965,,response,,,,100,,,,,,,Space,keypress(Space),,,,,,,,"-- --- ---- --- ------ ----- ------- ---- -- --- ------- --<br>------- ---------- ------ -- ----- -- ----- -- ---- ------<br>--- ----- --- --- ------ -------- ----- --- ------ ----- --<br>----- ----- plummeted, --- --- ------ ------ ---- -- ------<br>------- --- ------ ----- --- ---- ------- -- ---- --- --<br>------- ------",240457.53000000003,240457.04,239737.076,239746.15500000006,239753.7,240470.273,,35,"plummeted,"
screen,html.Screen,2_1_1_1_36,2021-04-24T18:13:09.331Z,,,,,,,,,,,,,,,,,54,,,,,,,,,,,,,,433.51700000007986,,response,,,,100,,,,,,,Space,keypress(Space),,,,,,,,-- --- ---- --- ------ ----- ------- ---- -- --- ------- --<br>------- ---------- ------ -- ----- -- ----- -- ---- ------<br>--- ----- --- --- ------ -------- ----- --- ------ ----- --<br>----- ----- ---------- and --- ------ ------ ---- -- ------<br>------- --- ------ ----- --- ---- ------- -- ---- --- --<br>------- ------,240904.30000000005,240903.79000000007,240453.616,240457.64500000008,240470.273,240920.179,,36,and
screen,html.Screen,2_1_1_1_37,2021-04-24T18:13:09.700Z,,,,,,,,,,,,,,,,,54,,,,,,,,,,,,,,351.856000000058,,response,,,,100,,,,,,,Space,keypress(Space),,,,,,,,-- --- ---- --- ------ ----- ------- ---- -- --- ------- --<br>------- ---------- ------ -- ----- -- ----- -- ---- ------<br>--- ----- --- --- ------ -------- ----- --- ------ ----- --<br>----- ----- ---------- --- the ------ ------ ---- -- ------<br>------- --- ------ ----- --- ---- ------- -- ---- --- --<br>------- ------,241273.08500000005,241272.03500000006,240903.53,240904.47000000006,240920.179,241287.232,,37,the
screen,html.Screen,2_1_1_1_38,2021-04-24T18:13:10.100Z,,,,,,,,,,,,,,,,,54,,,,,,,,,,,,,,385.65300000007846,,response,,,,100,,,,,,,Space,keypress(Space),,,,,,,,-- --- ---- --- ------ ----- ------- ---- -- --- ------- --<br>------- ---------- ------ -- ----- -- ----- -- ---- ------<br>--- ----- --- --- ------ -------- ----- --- ------ ----- --<br>----- ----- ---------- --- --- market ------ ---- -- ------<br>------- --- ------ ----- --- ---- ------- -- ---- --- --<br>------- ------,241673.40000000002,241672.88500000007,241270.109,241273.41,241287.232,241687.207,,38,market
screen,html.Screen,2_1_1_1_39,2021-04-24T18:13:10.438Z,,,,,,,,,,,,,,,,,54,,,,,,,,,,,,,,323.30300000007264,,response,,,,100,,,,,,,Space,keypress(Space),,,,,,,,-- --- ---- --- ------ ----- ------- ---- -- --- ------- --<br>------- ---------- ------ -- ----- -- ----- -- ---- ------<br>--- ----- --- --- ------ -------- ----- --- ------ ----- --<br>----- ----- ---------- --- --- ------ became ---- -- ------<br>------- --- ------ ----- --- ---- ------- -- ---- --- --<br>------- ------,242011.36000000007,242010.51000000007,241670.62,241673.60500000007,241687.207,242020.308,,39,became
screen,html.Screen,2_1_1_1_40,2021-04-24T18:13:10.780Z,,,,,,,,,,,,,,,,,54,,,,,,,,,,,,,,332.1020000001008,,response,,,,100,,,,,,,Space,keypress(Space),,,,,,,,-- --- ---- --- ------ ----- ------- ---- -- --- ------- --<br>------- ---------- ------ -- ----- -- ----- -- ---- ------<br>--- ----- --- --- ------ -------- ----- --- ------ ----- --<br>----- ----- ---------- --- --- ------ ------ wary -- ------<br>------- --- ------ ----- --- ---- ------- -- ---- --- --<br>------- ------,242353.21500000008,242352.4100000001,242003.296,242011.58500000008,242020.308,242369.907,,40,wary
screen,html.Screen,2_1_1_1_41,2021-04-24T18:13:11.098Z,,,,,,,,,,,,,,,,,54,,,,,,,,,,,,,,301.2029999999795,,response,,,,100,,,,,,,Space,keypress(Space),,,,,,,,-- --- ---- --- ------ ----- ------- ---- -- --- ------- --<br>------- ---------- ------ -- ----- -- ----- -- ---- ------<br>--- ----- --- --- ------ -------- ----- --- ------ ----- --<br>----- ----- ---------- --- --- ------ ------ ---- of ------<br>------- --- ------ ----- --- ---- ------- -- ---- --- --<br>------- ------,242671.64,242671.11,242353.781,242353.475,242369.907,242687.04,,41,of
screen,html.Screen,2_1_1_1_42,2021-04-24T18:13:11.484Z,,,,,,,,,,,,,,,,,54,,,,,,,,,,,,,,369.0699999999779,,response,,,,100,,,,,,,Space,keypress(Space),,,,,,,,-- --- ---- --- ------ ----- ------- ---- -- --- ------- --<br>------- ---------- ------ -- ----- -- ----- -- ---- ------<br>--- ----- --- --- ------ -------- ----- --- ------ ----- --<br>----- ----- ---------- --- --- ------ ------ ---- -- French<br>------- --- ------ ----- --- ---- ------- -- ---- --- --<br>------- ------,243057.54,243056.11,242669.806,242671.76000000007,242687.04,243070.11,,42,French
screen,html.Screen,2_1_1_1_43,2021-04-24T18:13:12.505Z,,,,,,,,,,,,,,,,,54,,,,,,,,,,,,,,1006.625,,response,,,,100,,,,,,,Space,keypress(Space),,,,,,,,-- --- ---- --- ------ ----- ------- ---- -- --- ------- --<br>------- ---------- ------ -- ----- -- ----- -- ---- ------<br>--- ----- --- --- ------ -------- ----- --- ------ ----- --<br>----- ----- ---------- --- --- ------ ------ ---- -- ------<br>credit. --- ------ ----- --- ---- ------- -- ---- --- --<br>------- ------,244078.47000000003,244076.735,243053.135,243057.98000000004,243070.11,244086.78,,43,credit.
screen,html.Screen,2_1_1_1_44,2021-04-24T18:13:12.976Z,,,,,,,,,,,,,,,,,54,,,,,,,,,,,,,,461.30000000001746,,response,,,,100,,,,,,,Space,keypress(Space),,,,,,,,-- --- ---- --- ------ ----- ------- ---- -- --- ------- --<br>------- ---------- ------ -- ----- -- ----- -- ---- ------<br>--- ----- --- --- ------ -------- ----- --- ------ ----- --<br>----- ----- ---------- --- --- ------ ------ ---- -- ------<br>------- The ------ ----- --- ---- ------- -- ---- --- --<br>------- ------,244548.995,244548.08000000002,244069.72,244078.60000000006,244086.78,244552.766,,44,The
screen,html.Screen,2_1_1_1_45,2021-04-24T18:13:13.450Z,,,,,,,,,,,,,,,,,54,,,,,,,,,,,,,,470.58400000006077,,response,,,,100,,,,,,,Space,keypress(Space),,,,,,,,-- --- ---- --- ------ ----- ------- ---- -- --- ------- --<br>------- ---------- ------ -- ----- -- ----- -- ---- ------<br>--- ----- --- --- ------ -------- ----- --- ------ ----- --<br>----- ----- ---------- --- --- ------ ------ ---- -- ------<br>------- --- French ----- --- ---- ------- -- ---- --- --<br>------- ------,245023.93500000006,245023.35000000006,244536.69,244549.27500000008,244552.766,245036.549,,45,French
screen,html.Screen,2_1_1_1_46,2021-04-24T18:13:13.888Z,,,,,,,,,,,,,,,,,54,,,,,,,,,,,,,,424.2260000000242,,response,,,,100,,,,,,,Space,keypress(Space),,,,,,,,-- --- ---- --- ------ ----- ------- ---- -- --- ------- --<br>------- ---------- ------ -- ----- -- ----- -- ---- ------<br>--- ----- --- --- ------ -------- ----- --- ------ ----- --<br>----- ----- ---------- --- --- ------ ------ ---- -- ------<br>------- --- ------ state --- ---- ------- -- ---- --- --<br>------- ------,245461.32499999998,245460.77500000002,245019.868,245024.06500000006,245036.549,245469.3,,46,state
screen,html.Screen,2_1_1_1_47,2021-04-24T18:13:14.259Z,,,,,,,,,,,,,,,,,54,,,,,,,,,,,,,,360.8400000000256,,response,,,,100,,,,,,,Space,keypress(Space),,,,,,,,-- --- ---- --- ------ ----- ------- ---- -- --- ------- --<br>------- ---------- ------ -- ----- -- ----- -- ---- ------<br>--- ----- --- --- ------ -------- ----- --- ------ ----- --<br>----- ----- ---------- --- --- ------ ------ ---- -- ------<br>------- --- ------ ----- was ---- ------- -- ---- --- --<br>------- ------,245832.29000000007,245830.14,245453.202,245461.49000000002,245469.3,245835.961,,47,was
screen,html.Screen,2_1_1_1_48,2021-04-24T18:13:14.609Z,,,,,,,,,,,,,,,,,54,,,,,,,,,,,,,,344.02900000006775,,response,,,,100,,,,,,,Space,keypress(Space),,,,,,,,-- --- ---- --- ------ ----- ------- ---- -- --- ------- --<br>------- ---------- ------ -- ----- -- ----- -- ---- ------<br>--- ----- --- --- ------ -------- ----- --- ------ ----- --<br>----- ----- ---------- --- --- ------ ------ ---- -- ------<br>------- --- ------ ----- --- left ------- -- ---- --- --<br>------- ------,246182.30500000005,246179.99000000008,245819.268,245833.075,245835.961,246185.927,,48,left
screen,html.Screen,2_1_1_1_49,2021-04-24T18:13:14.967Z,,,,,,,,,,,,,,,,,54,,,,,,,,,,,,,,353.7029999999795,,response,,,,100,,,,,,,Space,keypress(Space),,,,,,,,-- --- ---- --- ------ ----- ------- ---- -- --- ------- --<br>------- ---------- ------ -- ----- -- ----- -- ---- ------<br>--- ----- --- --- ------ -------- ----- --- ------ ----- --<br>----- ----- ---------- --- --- ------ ------ ---- -- ------<br>------- --- ------ ----- --- ---- without -- ---- --- --<br>------- ------,246540.3550000001,246539.62999999998,246169.195,246183.20500000005,246185.927,246552.399,,49,without
screen,html.Screen,2_1_1_1_50,2021-04-24T18:13:15.363Z,,,,,,,,,,,,,,,,,54,,,,,,,,,,,,,,382.7260000000824,,response,,,,100,,,,,,,Space,keypress(Space),,,,,,,,-- --- ---- --- ------ ----- ------- ---- -- --- ------- --<br>------- ---------- ------ -- ----- -- ----- -- ---- ------<br>--- ----- --- --- ------ -------- ----- --- ------ ----- --<br>----- ----- ---------- --- --- ------ ------ ---- -- ------<br>------- --- ------ ----- --- ---- ------- an ---- --- --<br>------- ------,246936.84500000006,246935.1250000001,246536.065,246540.5800000001,246552.399,246952.636,,50,an
screen,html.Screen,2_1_1_1_51,2021-04-24T18:13:15.691Z,,,,,,,,,,,,,,,,,54,,,,,,,,,,,,,,309.7039999999979,,response,,,,100,,,,,,,Space,keypress(Space),,,,,,,,-- --- ---- --- ------ ----- ------- ---- -- --- ------- --<br>------- ---------- ------ -- ----- -- ----- -- ---- ------<br>--- ----- --- --- ------ -------- ----- --- ------ ----- --<br>----- ----- ---------- --- --- ------ ------ ---- -- ------<br>------- --- ------ ----- --- ---- ------- -- easy --- --<br>------- ------,247264.24500000008,247262.34,246935.701,246937.57000000007,246952.636,247269.14,,51,easy
screen,html.Screen,2_1_1_1_52,2021-04-24T18:13:16.021Z,,,,,,,,,,,,,,,,,54,,,,,,,,,,,,,,323.70999999999185,,response,,,,100,,,,,,,Space,keypress(Space),,,,,,,,-- --- ---- --- ------ ----- ------- ---- -- --- ------- --<br>------- ---------- ------ -- ----- -- ----- -- ---- ------<br>--- ----- --- --- ------ -------- ----- --- ------ ----- --<br>----- ----- ---------- --- --- ------ ------ ---- -- ------<br>------- --- ------ ----- --- ---- ------- -- ---- way --<br>------- ------,247594.73500000002,247592.85,247252.628,247264.855,247269.14,247602.275,,52,way
screen,html.Screen,2_1_1_1_53,2021-04-24T18:13:16.357Z,,,,,,,,,,,,,,,,,54,,,,,,,,,,,,,,326.420000000071,,response,,,,100,,,,,,,Space,keypress(Space),,,,,,,,-- --- ---- --- ------ ----- ------- ---- -- --- ------- --<br>------- ---------- ------ -- ----- -- ----- -- ---- ------<br>--- ----- --- --- ------ -------- ----- --- ------ ----- --<br>----- ----- ---------- --- --- ------ ------ ---- -- ------<br>------- --- ------ ----- --- ---- ------- -- ---- --- of<br>------- ------,247930.42,247928.69500000007,247585.803,247595.26000000007,247602.275,247935.548,,53,of
screen,html.Screen,2_1_1_1_54,2021-04-24T18:13:16.707Z,,,,,,,,,,,,,,,,,54,,,,,,,,,,,,,,343.207000000024,,response,,,,100,,,,,,,Space,keypress(Space),,,,,,,,-- --- ---- --- ------ ----- ------- ---- -- --- ------- --<br>------- ---------- ------ -- ----- -- ----- -- ---- ------<br>--- ----- --- --- ------ -------- ----- --- ------ ----- --<br>----- ----- ---------- --- --- ------ ------ ---- -- ------<br>------- --- ------ ----- --- ---- ------- -- ---- --- --<br>raising ------,248280.51500000004,248278.75500000003,247919.393,247931.03500000006,247935.548,248285.53,,54,raising
screen,html.Screen,2_1_1_1_55,2021-04-24T18:13:17.316Z,,,,,,,,,,,,,,,,,54,,,,,,,,,,,,,,601.8550000000105,,response,,,,100,,,,,,,Space,keypress(Space),,,,,,,,-- --- ---- --- ------ ----- ------- ---- -- --- ------- --<br>------- ---------- ------ -- ----- -- ----- -- ---- ------<br>--- ----- --- --- ------ -------- ----- --- ------ ----- --<br>----- ----- ---------- --- --- ------ ------ ---- -- ------<br>------- --- ------ ----- --- ---- ------- -- ---- --- --<br>------- money.,248889.13000000003,248887.385,248269.088,248281.00000000006,248285.53,248902.06,,55,money.
Item 100,flow.Loop,2_1_1_1,2021-04-24T18:13:17.317Z,,,,,,,,,,,,,,,,,,,,,,,,,,,,,,,30979.382000000012,,completion,,,,,E,,,,,,,,,,,silence,,,,,248889.955,248887.385,217891.404,217893.48500000004,217908.003,248902.06,,,
Question 1,html.Screen,2_1_1_2,2021-04-24T18:13:20.104Z,,,,,,,,,,,,,,,,,,,,,,,,,,,,true,TRUE,,2774.435000000056,,response,,,,100,E,,,,,,TRUE,click #choice-1,,,,silence,,,,,251677.30000000005,251676.49500000005,248885.676,248890.37000000008,248902.06,251685.148,,,
Question 2,html.Screen,2_1_1_3,2021-04-24T18:13:22.539Z,,,,,,,,,,,,,,,,,,,,,,,,,,,,true,FALSE,,2426.902000000089,,response,,,,100,E,,,,,,FALSE,click #choice-2,,,,silence,,,,,254112.87000000005,254112.05000000008,251668.252,251677.42500000008,251685.148,254117.584,,,
Item 100,flow.Sequence,2_1_1,2021-04-24T18:13:22.540Z,,,,,,,,,,,,,,,,,,,,,,,,,,,,,,,46202.136000000086,,completion,,,,,,,,,,,,,,,,,,,,,254113.04500000004,254112.05000000008,207893.573,207897.6,207909.914,254117.584,,,
End of Practice,html.Page,2_1_2,2021-04-24T18:13:28.250Z,,,,,,,,,,,,,,,,,,,,,,,,,,,,,,,5705.986000000004,,form submission,,,,,,,,,,,,,,,,,,,,,259823.77000000008,259823.57,254101.402,254113.13500000007,254117.584,259833.252,,,
Practice,flow.Sequence,2_1,2021-04-24T18:13:28.250Z,,,,,,,,,,,,,,,,,,,,,,,,,,,,,,,100786.87900000002,,completion,,,,,,,,,,,,,,,,,,,,,259823.9450000001,259823.57,159019.936,159023.83,159036.691,259833.252,,,
Trap_instruction,html.Page,2_2_0,2021-04-24T18:13:34.253Z,,,,,,,,,,,,,,,,,,,,,,,,,,,,,,,5993.423000000039,,form submission,,,,,,,,,,,,,,,,,,,,,265826.88500000007,265826.67500000005,259816.794,259824.07499999998,259833.252,265831.996,,,
trap_trial,html.Screen,2_2_1,2021-04-24T18:13:39.163Z,,,,,,,,,,,,,,,,,,,,,,,,,,,,true,1,,4903.564000000071,,response,,,,,,,,,,,1,click #choice-1,,,,,,,,,270736.42500000005,270735.56000000006,265815.555,265827.005,265831.996,270747.705,,,
end of trap trial,html.Page,2_2_2,2021-04-24T18:13:41.609Z,,,,,,,,,,,,,,,,,,,,,,,,,,,,,,,2434.4150000000373,,form submission,,,,,,,,,,,,,,,,,,,,,273182.38000000006,273182.12000000005,270731.052,270736.57,270747.705,273197.623,,,
Trap 1,flow.Sequence,2_2,2021-04-24T18:13:41.609Z,,,,,,,,,,,,,,,,,,,,,,,,,,,,,,,13348.868000000046,,completion,,,,,,,,,,,,,,,,,,,,,273182.61500000005,273182.12000000005,259816.794,259824.0350000001,259833.252,273197.623,,,
Standby,html.Page,2_3_0,2021-04-24T18:13:49.607Z,,,,,,,,,,,,,,,,,,,,,,,,,,,,,,,7998.023999999976,,timeout,,,,,,,,,,,,,,,,,,,,,281180.41000000003,281179.125,273180.871,273182.7850000001,273197.623,281195.647,,,
Holding screen,html.Screen,2_3_1_0_0,2021-04-24T18:13:56.605Z,,,,,,,,,,,,,,,,,,,,,,,,,,,,,,,6998.734999999986,,timeout,,,,,,,,,,,,,,,,,,,,,288178.94,288177.759,281179.125,281180.94000000006,281195.647,288194.382,,,
screen,html.Screen,2_3_1_0_1_0,2021-04-24T18:13:58.037Z,,,,,,,,,,,,,,,,,11,,,,,,,,,,,,,,1415.5030000000843,,response,,,,4,E,,,,,,Space,keypress(Space),,,,lyrical,,,,Known -- ---- --- -- --- -------- ------------ ---------- --<br>- ------- ------ --------- -- ------------ -- --- ---- -----<br>------ ---- ---- ------ ------ ------- --- ----- ---------<br>---- --- -------- -------- --- --- -- ------- --- --- -----<br>-- --- ------ ------- --- --- -------- ---- --------- --<br>---------- -- -------- ----------------,289610.66000000003,289609.88500000007,288177.759,288179.395,288194.382,289638.078,,0,Known
screen,html.Screen,2_3_1_0_1_1,2021-04-24T18:13:58.855Z,,,,,,,,,,,,,,,,,11,,,,,,,,,,,,,,789.7270000000717,,response,,,,4,E,,,,,,Space,keypress(Space),,,,lyrical,,,,----- as ---- --- -- --- -------- ------------ ---------- --<br>- ------- ------ --------- -- ------------ -- --- ---- -----<br>------ ---- ---- ------ ------ ------- --- ----- ---------<br>---- --- -------- -------- --- --- -- ------- --- --- -----<br>-- --- ------ ------- --- --- -------- ---- --------- --<br>---------- -- -------- ----------------,290428.92500000005,290427.80500000005,289594.222,289610.79500000004,289638.078,290443.956,,1,as
screen,html.Screen,2_3_1_0_1_2,2021-04-24T18:13:59.577Z,,,,,,,,,,,,,,,,,11,,,,,,,,,,,,,,705.2990000000573,,response,,,,4,E,,,,,,Space,keypress(Space),,,,lyrical,,,,----- -- Rapa --- -- --- -------- ------------ ---------- --<br>- ------- ------ --------- -- ------------ -- --- ---- -----<br>------ ---- ---- ------ ------ ------- --- ----- ---------<br>---- --- -------- -------- --- --- -- ------- --- --- -----<br>-- --- ------ ------- --- --- -------- ---- --------- --<br>---------- -- -------- ----------------,291150.9050000001,291149.25500000006,290427.811,290429.24000000005,290443.956,291160.473,,2,Rapa
screen,html.Screen,2_3_1_0_1_3,2021-04-24T18:14:00.957Z,,,,,,,,,,,,,,,,,11,,,,,,,,,,,,,,1369.0620000000345,,response,,,,4,E,,,,,,Space,keypress(Space),,,,lyrical,,,,----- -- ---- Nui -- --- -------- ------------ ---------- --<br>- ------- ------ --------- -- ------------ -- --- ---- -----<br>------ ---- ---- ------ ------ ------- --- ----- ---------<br>---- --- -------- -------- --- --- -- ------- --- --- -----<br>-- --- ------ ------- --- --- -------- ---- --------- --<br>---------- -- -------- ----------------,292530.35,292529.53500000003,291144.143,291151.3950000001,291160.473,292543.531,,3,Nui
screen,html.Screen,2_3_1_0_1_4,2021-04-24T18:14:01.516Z,,,,,,,,,,,,,,,,,11,,,,,,,,,,,,,,545.1339999999618,,response,,,,4,E,,,,,,Space,keypress(Space),,,,lyrical,,,,----- -- ---- --- to --- -------- ------------ ---------- --<br>- ------- ------ --------- -- ------------ -- --- ---- -----<br>------ ---- ---- ------ ------ ------- --- ----- ---------<br>---- --- -------- -------- --- --- -- ------- --- --- -----<br>-- --- ------ ------- --- --- -------- ---- --------- --<br>---------- -- -------- ----------------,293089.245,293088.665,292527.086,292530.6450000001,292543.531,293093.372,,4,to
screen,html.Screen,2_3_1_0_1_5,2021-04-24T18:14:01.876Z,,,,,,,,,,,,,,,,,11,,,,,,,,,,,,,,354.47300000005635,,response,,,,4,E,,,,,,Space,keypress(Space),,,,lyrical,,,,----- -- ---- --- -- the -------- ------------ ---------- --<br>- ------- ------ --------- -- ------------ -- --- ---- -----<br>------ ---- ---- ------ ------ ------- --- ----- ---------<br>---- --- -------- -------- --- --- -- ------- --- --- -----<br>-- --- ------ ------- --- --- -------- ---- --------- --<br>---------- -- -------- ----------------,293449.45000000007,293447.84500000003,293077.023,293089.3950000001,293093.372,293459.965,,5,the
screen,html.Screen,2_3_1_0_1_6,2021-04-24T18:14:02.383Z,,,,,,,,,,,,,,,,,11,,,,,,,,,,,,,,494.19999999995343,,response,,,,4,E,,,,,,Space,keypress(Space),,,,lyrical,,,,----- -- ---- --- -- --- island's ------------ ---------- --<br>- ------- ------ --------- -- ------------ -- --- ---- -----<br>------ ---- ---- ------ ------ ------- --- ----- ---------<br>---- --- -------- -------- --- --- -- ------- --- --- -----<br>-- --- ------ ------- --- --- -------- ---- --------- --<br>---------- -- -------- ----------------,293956.31000000006,293954.165,293443.862,293449.93,293459.965,293959.983,,6,island's
screen,html.Screen,2_3_1_0_1_7,2021-04-24T18:14:03.474Z,,,,,,,,,,,,,,,,,11,,,,,,,,,,,,,,1086.9070000000647,,response,,,,4,E,,,,,,Space,keypress(Space),,,,lyrical,,,,"----- -- ---- --- -- --- -------- inhabitants, ---------- --<br>- ------- ------ --------- -- ------------ -- --- ---- -----<br>------ ---- ---- ------ ------ ------- --- ----- ---------<br>---- --- -------- -------- --- --- -- ------- --- --- -----<br>-- --- ------ ------- --- --- -------- ---- --------- --<br>---------- -- -------- ----------------",295047.5,295046.8900000001,293943.573,293956.79500000004,293959.983,295060.082,,7,"inhabitants,"
screen,html.Screen,2_3_1_0_1_8,2021-04-24T18:14:04.393Z,,,,,,,,,,,,,,,,,11,,,,,,,,,,,,,,905.5630000000237,,response,,,,4,E,,,,,,Space,keypress(Space),,,,lyrical,,,,----- -- ---- --- -- --- -------- ------------ Rongorongo --<br>- ------- ------ --------- -- ------------ -- --- ---- -----<br>------ ---- ---- ------ ------ ------- --- ----- ---------<br>---- --- -------- -------- --- --- -- ------- --- --- -----<br>-- --- ------ ------- --- --- -------- ---- --------- --<br>---------- -- -------- ----------------,295966.53500000003,295965.645,295043.449,295047.62000000005,295060.082,295976.203,,8,Rongorongo
screen,html.Screen,2_3_1_0_1_9,2021-04-24T18:14:05.038Z,,,,,,,,,,,,,,,,,11,,,,,,,,,,,,,,634.2020000000484,,response,,,,4,E,,,,,,Space,keypress(Space),,,,lyrical,,,,----- -- ---- --- -- --- -------- ------------ ---------- is<br>- ------- ------ --------- -- ------------ -- --- ---- -----<br>------ ---- ---- ------ ------ ------- --- ----- ---------<br>---- --- -------- -------- --- --- -- ------- --- --- -----<br>-- --- ------ ------- --- --- -------- ---- --------- --<br>---------- -- -------- ----------------,296611.06500000006,296610.405,295959.865,295966.77,295976.203,296626.053,,9,is
screen,html.Screen,2_3_1_0_1_10,2021-04-24T18:14:05.436Z,,,,,,,,,,,,,,,,,11,,,,,,,,,,,,,,383.41700000007404,,response,,,,4,E,,,,,,Space,keypress(Space),,,,lyrical,,,,----- -- ---- --- -- --- -------- ------------ ---------- --<br>a ------- ------ --------- -- ------------ -- --- ---- -----<br>------ ---- ---- ------ ------ ------- --- ----- ---------<br>---- --- -------- -------- --- --- -- ------- --- --- -----<br>-- --- ------ ------- --- --- -------- ---- --------- --<br>---------- -- -------- ----------------,297009.99,297009.4700000001,296609.442,296611.24500000005,296626.053,297026.446,,10,a
screen,html.Screen,2_3_1_0_1_11,2021-04-24T18:14:05.935Z,,,,,,,,,,,,,,,,,11,,,,,,,,,,,,,,481.49400000006426,,response,,,,4,E,,,,,,Space,keypress(Space),,,,lyrical,,,,----- -- ---- --- -- --- -------- ------------ ---------- --<br>- writing ------ --------- -- ------------ -- --- ---- -----<br>------ ---- ---- ------ ------ ------- --- ----- ---------<br>---- --- -------- -------- --- --- -- ------- --- --- -----<br>-- --- ------ ------- --- --- -------- ---- --------- --<br>---------- -- -------- ----------------,297508.57000000007,297507.94000000006,297009.758,297010.11000000004,297026.446,297537.872,,11,writing
screen,html.Screen,2_3_1_0_1_12,2021-04-24T18:14:06.806Z,,,,,,,,,,,,,,,,,11,,,,,,,,,,,,,,841.3080000000191,,response,,,,4,E,,,,,,Space,keypress(Space),,,,lyrical,,,,----- -- ---- --- -- --- -------- ------------ ---------- --<br>- ------- system --------- -- ------------ -- --- ---- -----<br>------ ---- ---- ------ ------ ------- --- ----- ---------<br>---- --- -------- -------- --- --- -- ------- --- --- -----<br>-- --- ------ ------- --- --- -------- ---- --------- --<br>---------- -- -------- ----------------,298379.9700000001,298379.18,297493.404,297508.69,297537.872,298392.561,,12,system
screen,html.Screen,2_3_1_0_1_13,2021-04-24T18:14:07.977Z,,,,,,,,,,,,,,,,,11,,,,,,,,,,,,,,1156.7939999999944,,response,,,,4,E,,,,,,Space,keypress(Space),,,,lyrical,,,,----- -- ---- --- -- --- -------- ------------ ---------- --<br>- ------- ------ comprised -- ------------ -- --- ---- -----<br>------ ---- ---- ------ ------ ------- --- ----- ---------<br>---- --- -------- -------- --- --- -- ------- --- --- -----<br>-- --- ------ ------- --- --- -------- ---- --------- --<br>---------- -- -------- ----------------,299550.47000000003,299549.355,298375.746,298380.18,298392.561,299558.929,,13,comprised
screen,html.Screen,2_3_1_0_1_14,2021-04-24T18:14:08.382Z,,,,,,,,,,,,,,,,,11,,,,,,,,,,,,,,395.17600000003586,,response,,,,4,E,,,,,,Space,keypress(Space),,,,lyrical,,,,----- -- ---- --- -- --- -------- ------------ ---------- --<br>- ------- ------ --------- of ------------ -- --- ---- -----<br>------ ---- ---- ------ ------ ------- --- ----- ---------<br>---- --- -------- -------- --- --- -- ------- --- --- -----<br>-- --- ------ ------- --- --- -------- ---- --------- --<br>---------- -- -------- ----------------,299955.31500000006,299954.10500000004,299542.218,299550.8000000001,299558.929,299958.758,,14,of
screen,html.Screen,2_3_1_0_1_15,2021-04-24T18:14:09.617Z,,,,,,,,,,,,,,,,,11,,,,,,,,,,,,,,1231.417000000074,,response,,,,4,E,,,,,,Space,keypress(Space),,,,lyrical,,,,----- -- ---- --- -- --- -------- ------------ ---------- --<br>- ------- ------ --------- -- pictographs. -- --- ---- -----<br>------ ---- ---- ------ ------ ------- --- ----- ---------<br>---- --- -------- -------- --- --- -- ------- --- --- -----<br>-- --- ------ ------- --- --- -------- ---- --------- --<br>---------- -- -------- ----------------,301190.7950000001,301190.17500000005,299942.504,299955.62500000006,299958.758,301221.249,,15,pictographs.
screen,html.Screen,2_3_1_0_1_16,2021-04-24T18:14:10.027Z,,,,,,,,,,,,,,,,,11,,,,,,,,,,,,,,378.29100000002654,,response,,,,4,E,,,,,,Space,keypress(Space),,,,lyrical,,,,----- -- ---- --- -- --- -------- ------------ ---------- --<br>- ------- ------ --------- -- ------------ It --- ---- -----<br>------ ---- ---- ------ ------ ------- --- ----- ---------<br>---- --- -------- -------- --- --- -- ------- --- --- -----<br>-- --- ------ ------- --- --- -------- ---- --------- --<br>---------- -- -------- ----------------,301600.73,301599.54000000004,301175.687,301190.98500000004,301221.249,301608.494,,16,It
screen,html.Screen,2_3_1_0_1_17,2021-04-24T18:14:10.381Z,,,,,,,,,,,,,,,,,11,,,,,,,,,,,,,,343.70100000005914,,response,,,,4,E,,,,,,Space,keypress(Space),,,,lyrical,,,,----- -- ---- --- -- --- -------- ------------ ---------- --<br>- ------- ------ --------- -- ------------ -- has ---- -----<br>------ ---- ---- ------ ------ ------- --- ----- ---------<br>---- --- -------- -------- --- --- -- ------- --- --- -----<br>-- --- ------ ------- --- --- -------- ---- --------- --<br>---------- -- -------- ----------------,301954.165,301952.19500000007,301592.291,301600.99000000005,301608.494,301958.379,,17,has
screen,html.Screen,2_3_1_0_1_18,2021-04-24T18:14:10.743Z,,,,,,,,,,,,,,,,,11,,,,,,,,,,,,,,357.0210000000661,,response,,,,4,E,,,,,,Space,keypress(Space),,,,lyrical,,,,----- -- ---- --- -- --- -------- ------------ ---------- --<br>- ------- ------ --------- -- ------------ -- --- been -----<br>------ ---- ---- ------ ------ ------- --- ----- ---------<br>---- --- -------- -------- --- --- -- ------- --- --- -----<br>-- --- ------ ------- --- --- -------- ---- --------- --<br>---------- -- -------- ----------------,302316.46,302315.4000000001,301941.695,301954.86000000004,301958.379,302325.099,,18,been
screen,html.Screen,2_3_1_0_1_19,2021-04-24T18:14:11.443Z,,,,,,,,,,,,,,,,,11,,,,,,,,,,,,,,690.6209999999846,,response,,,,4,E,,,,,,Space,keypress(Space),,,,lyrical,,,,----- -- ---- --- -- --- -------- ------------ ---------- --<br>- ------- ------ --------- -- ------------ -- --- ---- found<br>------ ---- ---- ------ ------ ------- --- ----- ---------<br>---- --- -------- -------- --- --- -- ------- --- --- -----<br>-- --- ------ ------- --- --- -------- ---- --------- --<br>---------- -- -------- ----------------,303016.4550000001,303015.72,302308.241,302316.6950000001,302325.099,303024.942,,19,found
screen,html.Screen,2_3_1_0_1_20,2021-04-24T18:14:12.267Z,,,,,,,,,,,,,,,,,11,,,,,,,,,,,,,,815.5380000001169,,response,,,,4,E,,,,,,Space,keypress(Space),,,,lyrical,,,,----- -- ---- --- -- --- -------- ------------ ---------- --<br>- ------- ------ --------- -- ------------ -- --- ---- -----<br>carved ---- ---- ------ ------ ------- --- ----- ---------<br>---- --- -------- -------- --- --- -- ------- --- --- -----<br>-- --- ------ ------- --- --- -------- ---- --------- --<br>---------- -- -------- ----------------,303840.98500000004,303840.4800000001,303008.428,303016.63500000007,303024.942,303858.522,,20,carved
screen,html.Screen,2_3_1_0_1_21,2021-04-24T18:14:12.663Z,,,,,,,,,,,,,,,,,11,,,,,,,,,,,,,,376.4130000000587,,response,,,,4,E,,,,,,Space,keypress(Space),,,,lyrical,,,,----- -- ---- --- -- --- -------- ------------ ---------- --<br>- ------- ------ --------- -- ------------ -- --- ---- -----<br>------ into ---- ------ ------ ------- --- ----- ---------<br>---- --- -------- -------- --- --- -- ------- --- --- -----<br>-- --- ------ ------- --- --- -------- ---- --------- --<br>---------- -- -------- ----------------,304236.38500000007,304234.93500000006,303824.941,303841.11000000004,303858.522,304241.244,,21,into
screen,html.Screen,2_3_1_0_1_22,2021-04-24T18:14:13.112Z,,,,,,,,,,,,,,,,,11,,,,,,,,,,,,,,443.93600000004517,,response,,,,4,E,,,,,,Space,keypress(Space),,,,lyrical,,,,----- -- ---- --- -- --- -------- ------------ ---------- --<br>- ------- ------ --------- -- ------------ -- --- ---- -----<br>------ ---- many ------ ------ ------- --- ----- ---------<br>---- --- -------- -------- --- --- -- ------- --- --- -----<br>-- --- ------ ------- --- --- -------- ---- --------- --<br>---------- -- -------- ----------------,304685.8950000001,304685.18000000005,304225.131,304236.69500000007,304241.244,304691.289,,22,many
screen,html.Screen,2_3_1_0_1_23,2021-04-24T18:14:13.768Z,,,,,,,,,,,,,,,,,11,,,,,,,,,,,,,,648.0760000000591,,response,,,,4,E,,,,,,Space,keypress(Space),,,,lyrical,,,,----- -- ---- --- -- --- -------- ------------ ---------- --<br>- ------- ------ --------- -- ------------ -- --- ---- -----<br>------ ---- ---- oblong ------ ------- --- ----- ---------<br>---- --- -------- -------- --- --- -- ------- --- --- -----<br>-- --- ------ ------- --- --- -------- ---- --------- --<br>---------- -- -------- ----------------,305341.365,305339.36500000005,304674.514,304686.09,304691.289,305357.702,,23,oblong
screen,html.Screen,2_3_1_0_1_24,2021-04-24T18:14:14.307Z,,,,,,,,,,,,,,,,,11,,,,,,,,,,,,,,522.1180000000168,,response,,,,4,E,,,,,,Space,keypress(Space),,,,lyrical,,,,----- -- ---- --- -- --- -------- ------------ ---------- --<br>- ------- ------ --------- -- ------------ -- --- ---- -----<br>------ ---- ---- ------ wooden ------- --- ----- ---------<br>---- --- -------- -------- --- --- -- ------- --- --- -----<br>-- --- ------ ------- --- --- -------- ---- --------- --<br>---------- -- -------- ----------------,305880.395,305879.82,305341.22,305341.8650000001,305357.702,305891.35,,24,wooden
screen,html.Screen,2_3_1_0_1_25,2021-04-24T18:14:15.315Z,,,,,,,,,,,,,,,,,11,,,,,,,,,,,,,,994.1850000000559,,response,,,,4,E,,,,,,Space,keypress(Space),,,,lyrical,,,,----- -- ---- --- -- --- -------- ------------ ---------- --<br>- ------- ------ --------- -- ------------ -- --- ---- -----<br>------ ---- ---- ------ ------ tablets --- ----- ---------<br>---- --- -------- -------- --- --- -- ------- --- --- -----<br>-- --- ------ ------- --- --- -------- ---- --------- --<br>---------- -- -------- ----------------,306888.31500000006,306885.53500000003,305874.282,305880.5150000001,305891.35,306917.516,,25,tablets
screen,html.Screen,2_3_1_0_1_26,2021-04-24T18:14:15.701Z,,,,,,,,,,,,,,,,,11,,,,,,,,,,,,,,355.3390000000363,,response,,,,4,E,,,,,,Space,keypress(Space),,,,lyrical,,,,----- -- ---- --- -- --- -------- ------------ ---------- --<br>- ------- ------ --------- -- ------------ -- --- ---- -----<br>------ ---- ---- ------ ------ ------- and ----- ---------<br>---- --- -------- -------- --- --- -- ------- --- --- -----<br>-- --- ------ ------- --- --- -------- ---- --------- --<br>---------- -- -------- ----------------,307274.53,307272.85500000004,306874.122,306889.1100000001,306917.516,307290.892,,26,and
screen,html.Screen,2_3_1_0_1_27,2021-04-24T18:14:16.062Z,,,,,,,,,,,,,,,,,11,,,,,,,,,,,,,,343.1930000000284,,response,,,,4,E,,,,,,Space,keypress(Space),,,,lyrical,,,,----- -- ---- --- -- --- -------- ------------ ---------- --<br>- ------- ------ --------- -- ------------ -- --- ---- -----<br>------ ---- ---- ------ ------ ------- --- other ---------<br>---- --- -------- -------- --- --- -- ------- --- --- -----<br>-- --- ------ ------- --- --- -------- ---- --------- --<br>---------- -- -------- ----------------,307635.6000000001,307634.085,307274.319,307274.84500000003,307290.892,307640.565,,27,other
screen,html.Screen,2_3_1_0_1_28,2021-04-24T18:14:16.905Z,,,,,,,,,,,,,,,,,11,,,,,,,,,,,,,,837.6100000001024,,response,,,,4,E,,,,,,Space,keypress(Space),,,,lyrical,,,,----- -- ---- --- -- --- -------- ------------ ---------- --<br>- ------- ------ --------- -- ------------ -- --- ---- -----<br>------ ---- ---- ------ ------ ------- --- ----- artifacts<br>---- --- -------- -------- --- --- -- ------- --- --- -----<br>-- --- ------ ------- --- --- -------- ---- --------- --<br>---------- -- -------- ----------------,308478.975,308478.1750000001,307623.939,307635.92000000004,307640.565,308490.896,,28,artifacts
screen,html.Screen,2_3_1_0_1_29,2021-04-24T18:14:17.695Z,,,,,,,,,,,,,,,,,11,,,,,,,,,,,,,,776.5690000000177,,response,,,,4,E,,,,,,Space,keypress(Space),,,,lyrical,,,,----- -- ---- --- -- --- -------- ------------ ---------- --<br>- ------- ------ --------- -- ------------ -- --- ---- -----<br>------ ---- ---- ------ ------ ------- --- ----- ---------<br>from --- -------- -------- --- --- -- ------- --- --- -----<br>-- --- ------ ------- --- --- -------- ---- --------- --<br>---------- -- -------- ----------------,309268.6600000001,309267.465,308473.889,308479.17000000004,308490.896,309273.509,,29,from
screen,html.Screen,2_3_1_0_1_30,2021-04-24T18:14:18.117Z,,,,,,,,,,,,,,,,,11,,,,,,,,,,,,,,416.07600000005914,,response,,,,4,E,,,,,,Space,keypress(Space),,,,lyrical,,,,----- -- ---- --- -- --- -------- ------------ ---------- --<br>- ------- ------ --------- -- ------------ -- --- ---- -----<br>------ ---- ---- ------ ------ ------- --- ----- ---------<br>---- the -------- -------- --- --- -- ------- --- --- -----<br>-- --- ------ ------- --- --- -------- ---- --------- --<br>---------- -- -------- ----------------,309690.245,309689.5850000001,309256.967,309269.19500000007,309273.509,309723.509,,30,the
screen,html.Screen,2_3_1_0_1_31,2021-04-24T18:14:18.736Z,,,,,,,,,,,,,,,,,11,,,,,,,,,,,,,,583.9560000000638,,response,,,,4,E,,,,,,Space,keypress(Space),,,,lyrical,,,,----- -- ---- --- -- --- -------- ------------ ---------- --<br>- ------- ------ --------- -- ------------ -- --- ---- -----<br>------ ---- ---- ------ ------ ------- --- ----- ---------<br>---- --- island's -------- --- --- -- ------- --- --- -----<br>-- --- ------ ------- --- --- -------- ---- --------- --<br>---------- -- -------- ----------------,310309.07,310307.4650000001,309706.792,309690.4000000001,309723.509,310323.418,,31,island's
screen,html.Screen,2_3_1_0_1_32,2021-04-24T18:14:19.641Z,,,,,,,,,,,,,,,,,11,,,,,,,,,,,,,,890.8820000000997,,response,,,,4,E,,,,,,Space,keypress(Space),,,,lyrical,,,,----- -- ---- --- -- --- -------- ------------ ---------- --<br>- ------- ------ --------- -- ------------ -- --- ---- -----<br>------ ---- ---- ------ ------ ------- --- ----- ---------<br>---- --- -------- history. --- --- -- ------- --- --- -----<br>-- --- ------ ------- --- --- -------- ---- --------- --<br>---------- -- -------- ----------------,311214.98500000004,311214.3000000001,310307.293,310309.48,310323.418,311223.426,,32,history.
screen,html.Screen,2_3_1_0_1_33,2021-04-24T18:14:20.051Z,,,,,,,,,,,,,,,,,11,,,,,,,,,,,,,,400.3290000000852,,response,,,,4,E,,,,,,Space,keypress(Space),,,,lyrical,,,,----- -- ---- --- -- --- -------- ------------ ---------- --<br>- ------- ------ --------- -- ------------ -- --- ---- -----<br>------ ---- ---- ------ ------ ------- --- ----- ---------<br>---- --- -------- -------- The --- -- ------- --- --- -----<br>-- --- ------ ------- --- --- -------- ---- --------- --<br>---------- -- -------- ----------------,311624.3950000001,311623.75500000006,311207.13,311215.9250000001,311223.426,311639.823,,33,The
screen,html.Screen,2_3_1_0_1_34,2021-04-24T18:14:20.536Z,,,,,,,,,,,,,,,,,11,,,,,,,,,,,,,,468.5470000000787,,response,,,,4,E,,,,,,Space,keypress(Space),,,,lyrical,,,,----- -- ---- --- -- --- -------- ------------ ---------- --<br>- ------- ------ --------- -- ------------ -- --- ---- -----<br>------ ---- ---- ------ ------ ------- --- ----- ---------<br>---- --- -------- -------- --- art -- ------- --- --- -----<br>-- --- ------ ------- --- --- -------- ---- --------- --<br>---------- -- -------- ----------------,312109.15,312108.37000000005,311623.617,311624.53,311639.823,312123.072,,34,art
screen,html.Screen,2_3_1_0_1_35,2021-04-24T18:14:21.068Z,,,,,,,,,,,,,,,,,11,,,,,,,,,,,,,,517.7530000000843,,response,,,,4,E,,,,,,Space,keypress(Space),,,,lyrical,,,,----- -- ---- --- -- --- -------- ------------ ---------- --<br>- ------- ------ --------- -- ------------ -- --- ---- -----<br>------ ---- ---- ------ ------ ------- --- ----- ---------<br>---- --- -------- -------- --- --- of ------- --- --- -----<br>-- --- ------ ------- --- --- -------- ---- --------- --<br>---------- -- -------- ----------------,312641.3100000001,312640.82500000007,312106.358,312109.33,312123.072,312656.257,,35,of
screen,html.Screen,2_3_1_0_1_36,2021-04-24T18:14:21.658Z,,,,,,,,,,,,,,,,,11,,,,,,,,,,,,,,574.5330000001122,,response,,,,4,E,,,,,,Space,keypress(Space),,,,lyrical,,,,----- -- ---- --- -- --- -------- ------------ ---------- --<br>- ------- ------ --------- -- ------------ -- --- ---- -----<br>------ ---- ---- ------ ------ ------- --- ----- ---------<br>---- --- -------- -------- --- --- -- writing --- --- -----<br>-- --- ------ ------- --- --- -------- ---- --------- --<br>---------- -- -------- ----------------,313231.3650000001,313230.7900000001,312639.584,312641.4600000001,312656.257,313239.463,,36,writing
screen,html.Screen,2_3_1_0_1_37,2021-04-24T18:14:22.114Z,,,,,,,,,,,,,,,,,11,,,,,,,,,,,,,,447.2970000000787,,response,,,,4,E,,,,,,Space,keypress(Space),,,,lyrical,,,,----- -- ---- --- -- --- -------- ------------ ---------- --<br>- ------- ------ --------- -- ------------ -- --- ---- -----<br>------ ---- ---- ------ ------ ------- --- ----- ---------<br>---- --- -------- -------- --- --- -- ------- was --- -----<br>-- --- ------ ------- --- --- -------- ---- --------- --<br>---------- -- -------- ----------------,313687.27999999997,313686.76000000007,313223.157,313231.49,313239.463,313689.321,,37,was
screen,html.Screen,2_3_1_0_1_38,2021-04-24T18:14:22.455Z,,,,,,,,,,,,,,,,,11,,,,,,,,,,,,,,338.42900000006193,,response,,,,4,E,,,,,,Space,keypress(Space),,,,lyrical,,,,----- -- ---- --- -- --- -------- ------------ ---------- --<br>- ------- ------ --------- -- ------------ -- --- ---- -----<br>------ ---- ---- ------ ------ ------- --- ----- ---------<br>---- --- -------- -------- --- --- -- ------- --- not -----<br>-- --- ------ ------- --- --- -------- ---- --------- --<br>---------- -- -------- ----------------,314028.34500000003,314027.75000000006,313672.696,313687.395,313689.321,314039.861,,38,not
screen,html.Screen,2_3_1_0_1_39,2021-04-24T18:14:22.901Z,,,,,,,,,,,,,,,,,11,,,,,,,,,,,,,,434.08900000009453,,response,,,,4,E,,,,,,Space,keypress(Space),,,,lyrical,,,,----- -- ---- --- -- --- -------- ------------ ---------- --<br>- ------- ------ --------- -- ------------ -- --- ---- -----<br>------ ---- ---- ------ ------ ------- --- ----- ---------<br>---- --- -------- -------- --- --- -- ------- --- --- known<br>-- --- ------ ------- --- --- -------- ---- --------- --<br>---------- -- -------- ----------------,314474.425,314473.95000000007,314022.823,314028.46,314039.861,314489.487,,39,known
