sender,sender_type,sender_id,timestamp,meta,,Blues,Classical,Country,Dance,Electronic,Folk,Gospel,Hip-Hop,Jazz,Latin,Musical/Film,New-age,Pop,Prolific_id,Provo_ID,R&B,Rap,Reggae,Religious,Rock,Soul,Swing,Traditional,age,artist_name,correct,correctResponse,distraction,duration,education,ended_on,familiarity,gender,headphone_check_performance,item,list,music_frequency,offensiveness,pleasantness,position_correct,preference,response,response_action,snippet_file,song_name,song_rating,sound,stimulus_1,stimulus_2,stimulus_3,text,time_commit,time_end,time_render,time_run,time_show,time_switch,url,word,word_ID
Prolific ID,html.Form,0,2021-04-24T17:05:40.482Z,"{""labjs_version"":""20.2.2"",""labjs_build"":{""flavor"":""production"",""commit"":""a25486e0c714a0ae2ce03ff94b7bb6896854dcfa""},""location"":""https://run.pavlovia.org/mvasilev/prolific_music_f/"",""userAgent"":""Mozilla/5.0 (Windows NT 10.0; Win64; x64) AppleWebKit/537.36 (KHTML, like Gecko) Chrome/90.0.4430.85 Safari/537.36"",""platform"":""Win32"",""language"":""en-GB"",""locale"":""en-GB"",""timeZone"":""Europe/London"",""timezoneOffset"":-60,""screen_width"":1536,""screen_height"":864,""scroll_width"":1536,""scroll_height"":706,""window_innerWidth"":1536,""window_innerHeight"":754,""devicePixelRatio"":1.25}",,,,,,,,,,,,,,,5d341b57a48ae7000114152a,,,,,,,,,,,,,,,78050.63499994065,,form submission,,,,,,,,,,,,,,,,,,,,,100720.81500000786,100719.15499994066,22569.269,22579.180000000633,22668.52,100749.314,{},,
Introduction,html.Screen,1_0,2021-04-24T17:05:46.211Z,,,,,,,,,,,,,,,,,,,,,,,,,,,,,,,5697.235999993296,,response,,,,,,,,,,,continue,click button,,,,,,,,,106449.52000002377,106446.5499999933,100699.418,100722.74999995716,100749.314,106473.718,,,
Volume calibration,html.Screen,1_1,2021-04-24T17:06:11.009Z,,,,,,,,,,,,,,,,,,,,,,,,,,,,,,,24770.59199998004,,response,,,,,,,,,,,continue,click button,,,,,,,,,131248.1550000375,131244.30999998003,106431.389,106449.67999996152,106473.718,131258.537,,,
Task instructions,html.Screen,1_2,2021-04-24T17:06:32.445Z,,,,,,,,,,,,,,,,,,,,,,,,,,,,,,,21424.827999946196,,response,,,,,,,,,,,continue,click button,,,,,,,,,152684.29500004277,152683.3649999462,131241.951,131248.29999997746,131258.537,152686.571,,,
Sounds,html.Screen,1_3_0_0,2021-04-24T17:06:36.689Z,,,,,,,,,,,,,,,,,,,,,,,,,,,,,,,4249.057000000001,,timeout,,,,,,,,,1,,,,,,,,S,O,I,,156928.16999997012,156918.978,152670.006,152684.52999996953,152686.571,156935.628,,,
Judgement,html.Screen,1_3_0_1,2021-04-24T17:06:38.752Z,,,,,,,,,,,,,,,,,,,,,,,,,,,,true,1,,2054.557000002387,,response,,,,,,,,,1,,1,click #choice-1,,,,,S,O,I,,158991.3500000257,158990.18500000238,156918.978,156928.58499998692,156935.628,159001.716,,,
Trial,flow.Sequence,1_3_0,2021-04-24T17:06:38.752Z,,,,,,,,,,,,,,,,,,,,,,,,,,,,,,,6303.614000002388,,completion,,,,,,,,,1,,,,,,,,S,O,I,,158991.68500001542,158990.18500000238,152670.006,152684.47999993805,152686.571,159001.716,,,
Sounds,html.Screen,1_3_1_0,2021-04-24T17:06:42.996Z,,,,,,,,,,,,,,,,,,,,,,,,,,,,,,,4249.004000000015,,timeout,,,,,,,,,3,,,,,,,,I,O,S,,163235.57499994058,163234.26,158985.059,158991.84000003152,159001.716,163250.72,,,
Judgement,html.Screen,1_3_1_1,2021-04-24T17:06:44.530Z,,,,,,,,,,,,,,,,,,,,,,,,,,,,true,3,,1517.9399999433372,,response,,,,,,,,,3,,3,click #choice-3,,,,,I,O,S,,164769.57999996375,164768.65999994334,163234.26,163235.92000000644,163250.72,164783.742,,,
Trial,flow.Sequence,1_3_1,2021-04-24T17:06:44.530Z,,,,,,,,,,,,,,,,,,,,,,,,,,,,,,,5766.9439999433525,,completion,,,,,,,,,3,,,,,,,,I,O,S,,164769.80499993078,164768.65999994334,158985.059,158991.7950000381,159001.716,164783.742,,,
Sounds,html.Screen,1_3_2_0,2021-04-24T17:06:48.778Z,,,,,,,,,,,,,,,,,,,,,,,,,,,,,,,4249.255999999994,,timeout,,,,,,,,,2,,,,,,,,I,S,O,,169017.40000001155,169015.992,164767.035,164769.94000002742,164783.742,169032.998,,,
Judgement,html.Screen,1_3_2_1,2021-04-24T17:06:49.591Z,,,,,,,,,,,,,,,,,,,,,,,,,,,,true,2,,796.4669999588805,,response,,,,,,,,,2,,2,click #choice-2,,,,,I,S,O,,169830.4299999727,169829.46499995887,169015.992,169017.55500002764,169032.998,169832.376,,,
Trial,flow.Sequence,1_3_2,2021-04-24T17:06:49.591Z,,,,,,,,,,,,,,,,,,,,,,,,,,,,,,,5045.722999958874,,completion,,,,,,,,,2,,,,,,,,I,S,O,,169830.68499993533,169829.46499995887,164767.035,164769.89999995567,164783.742,169832.376,,,
Sounds,html.Screen,1_3_3_0,2021-04-24T17:06:53.827Z,,,,,,,,,,,,,,,,,,,,,,,,,,,,,,,4248.976000000024,,timeout,,,,,,,,,2,,,,,,,,O,S,I,,174066.35999993887,174064.944,169815.827,169830.8449999895,169832.376,174081.352,,,
Judgement,html.Screen,1_3_3_1,2021-04-24T17:06:54.558Z,,,,,,,,,,,,,,,,,,,,,,,,,,,,true,2,,714.7829999531968,,response,,,,,,,,,2,,2,click #choice-2,,,,,O,S,I,,174797.0600000117,174796.1349999532,174064.944,174066.61999993958,174081.352,174797.856,,,
Trial,flow.Sequence,1_3_3,2021-04-24T17:06:54.558Z,,,,,,,,,,,,,,,,,,,,,,,,,,,,,,,4963.758999953221,,completion,,,,,,,,,2,,,,,,,,O,S,I,,174797.26499994285,174796.1349999532,169815.827,169830.80500003416,169832.376,174797.856,,,
Sounds,html.Screen,1_3_4_0,2021-04-24T17:06:58.792Z,,,,,,,,,,,,,,,,,,,,,,,,,,,,,,,4249.146999999997,,timeout,,,,,,,,,1,,,,,,,,S,I,O,,179031.48999996483,179030.25,174781.318,174797.38999996334,174797.856,179047.003,,,
Judgement,html.Screen,1_3_4_1,2021-04-24T17:06:59.850Z,,,,,,,,,,,,,,,,,,,,,,,,,,,,true,1,,1041.7769999909506,,response,,,,,,,,,1,,1,click #choice-1,,,,,S,I,O,,180089.84000002965,180088.77999999095,179030.25,179031.85499995016,179047.003,180096.618,,,
Trial,flow.Sequence,1_3_4,2021-04-24T17:06:59.851Z,,,,,,,,,,,,,,,,,,,,,,,,,,,,,,,5290.923999990948,,completion,,,,,,,,,1,,,,,,,,S,I,O,,180090.029999963,180088.77999999095,174781.318,174797.350000008,174797.856,180096.618,,,
Sounds,html.Screen,1_3_5_0,2021-04-24T17:07:04.091Z,,,,,,,,,,,,,,,,,,,,,,,,,,,,,,,4248.902000000002,,timeout,,,,,,,,,3,,,,,,,,O,I,S,,184330.12499997858,184328.97,180079.958,180090.1549999835,180096.618,184345.52,,,
Judgement,html.Screen,1_3_5_1,2021-04-24T17:07:04.875Z,,,,,,,,,,,,,,,,,,,,,,,,,,,,true,3,,767.829999999638,,response,,,,,,,,,3,,3,click #choice-3,,,,,O,I,S,,185114.20499999076,185113.34999999963,184328.97,184330.39499993902,184345.52,185128.634,,,
Trial,flow.Sequence,1_3_5,2021-04-24T17:07:04.875Z,,,,,,,,,,,,,,,,,,,,,,,,,,,,,,,5016.73199999964,,completion,,,,,,,,,3,,,,,,,,O,I,S,,185114.39500004053,185113.34999999963,180079.958,180090.11999994982,180096.618,185128.634,,,
Task,flow.Loop,1_3,2021-04-24T17:07:04.880Z,,,,,,,,,,,,,,,,,,,,,,,,,,,,,,,32426.77899999963,,completion,,,1,,,,,,,,,,,,,,,,,,185119.59999997634,185113.34999999963,152670.006,152684.4249999849,152686.571,185128.634,,,
Trap,html.Screen,1_4,2021-04-24T17:07:04.886Z,,,,,,,,,,,,,,,,,,,,,,,,,,,,,,,NaN,,skipped,,,,,,,,,,,,,,,,,,,,,185125.25499996264,185113.34999999963,,185124.9850000022,,185128.634,,,
Thanks,html.Screen,1_5,2021-04-24T17:07:09.472Z,,,,,,,,,,,,,,,,,,,,,,,,,,,,,,,4581.965999991255,,response,,,,,,,,,,,continue,click button,,,,,,,,,189711.72000002116,189710.59999999125,185112.079,185125.38999994285,185128.634,195609.387,,,
Headphone screening,flow.Sequence,1,2021-04-24T17:07:09.472Z,,,,,,,,,,,,,,,,,,,,,,,,,,,,,,,88961.28599999125,,completion,,,,,,,,,,,,,,,,,,,,,189711.89000003505,189710.59999999125,100699.418,100722.27000002749,100749.314,195609.387,,,
Instructions,html.Page,2_0,2021-04-24T17:07:53.790Z,,,,,,,,,,,,,,,,,,,,,,,,,,,,,,,38419.54799995117,,form submission,,,,,,,,,,,,,,,,,,,,,234029.7599999467,234028.93499995116,195559.398,195601.51499998756,195609.387,234033.315,,,
Holding screen,html.Screen,2_1_0_0,2021-04-24T17:08:03.776Z,,,,,,,,,,,,,,,,,,,,,,,,,,,,,,,10014.222999999998,,timeout,,,,,,,,,,,,,,,,,,,,,244015.37000003736,244014.355,234016.672,234030.25499999058,234033.315,244047.538,,,
screen,html.Screen,2_1_0_1_0,2021-04-24T17:08:05.380Z,,,,,,,,,,,,,,,,,53,,,,,,,,,,,,,,1567.2520000214572,,response,,,,99,,,,,,,Space,keypress(Space),,,,,,,,When -- ----- -- ------ - ------- --- ----------<br>------------- ------ ------ ---- ---- ------- ----- -- ----<br>-------- ------- -- ---------- --- - --- ----- ----- ----<br>---- --- --- ----- --- ---- ---- ------- ----- ---- -------<br>--- --- -- ----- -- --- ---- -- --- ---- -- ------ ------<br>--- ----- -- ----,245619.31999993976,245614.79000002146,244014.355,244019.83000000473,244047.538,245630.572,,0,When
screen,html.Screen,2_1_0_1_1,2021-04-24T17:08:06.261Z,,,,,,,,,,,,,,,,,53,,,,,,,,,,,,,,868.7730000183801,,response,,,,99,,,,,,,Space,keypress(Space),,,,,,,,---- it ----- -- ------ - ------- --- ----------<br>------------- ------ ------ ---- ---- ------- ----- -- ----<br>-------- ------- -- ---------- --- - --- ----- ----- ----<br>---- --- --- ----- --- ---- ---- ------- ----- ---- -------<br>--- --- -- ----- -- --- ---- -- --- ---- -- ------ ------<br>--- ----- -- ----,246499.94499993045,246499.34500001837,245614.021,245619.45999995805,245630.572,246513.689,,1,it
screen,html.Screen,2_1_0_1_2,2021-04-24T17:08:07.081Z,,,,,,,,,,,,,,,,,53,,,,,,,,,,,,,,805.38099996862,,response,,,,99,,,,,,,Space,keypress(Space),,,,,,,,---- -- comes -- ------ - ------- --- ----------<br>------------- ------ ------ ---- ---- ------- ----- -- ----<br>-------- ------- -- ---------- --- - --- ----- ----- ----<br>---- --- --- ----- --- ---- ---- ------- ----- ---- -------<br>--- --- -- ----- -- --- ---- -- --- ---- -- ------ ------<br>--- ----- -- ----,247320.1049999334,247319.06999996863,246497.137,246500.09999994654,246513.689,247330.201,,2,comes
screen,html.Screen,2_1_0_1_3,2021-04-24T17:08:07.813Z,,,,,,,,,,,,,,,,,53,,,,,,,,,,,,,,721.2539999497822,,response,,,,99,,,,,,,Space,keypress(Space),,,,,,,,---- -- ----- to ------ - ------- --- ----------<br>------------- ------ ------ ---- ---- ------- ----- -- ----<br>-------- ------- -- ---------- --- - --- ----- ----- ----<br>---- --- --- ----- --- ---- ---- ------- ----- ---- -------<br>--- --- -- ----- -- --- ---- -- --- ---- -- ------ ------<br>--- ----- -- ----,248052.49000003096,248051.45499994978,247313.519,247320.3349999385,247330.201,248063.245,,3,to
screen,html.Screen,2_1_0_1_4,2021-04-24T17:08:08.610Z,,,,,,,,,,,,,,,,,53,,,,,,,,,,,,,,785.1649999768706,,response,,,,99,,,,,,,Space,keypress(Space),,,,,,,,---- -- ----- -- having - ------- --- ----------<br>------------- ------ ------ ---- ---- ------- ----- -- ----<br>-------- ------- -- ---------- --- - --- ----- ----- ----<br>---- --- --- ----- --- ---- ---- ------- ----- ---- -------<br>--- --- -- ----- -- --- ---- -- --- ---- -- ------ ------<br>--- ----- -- ----,248849.2799999658,248848.40999997687,248046.705,248052.7299999958,248063.245,248863.066,,4,having
screen,html.Screen,2_1_0_1_5,2021-04-24T17:08:09.463Z,,,,,,,,,,,,,,,,,53,,,,,,,,,,,,,,838.6240000162506,,response,,,,99,,,,,,,Space,keypress(Space),,,,,,,,---- -- ----- -- ------ a ------- --- ----------<br>------------- ------ ------ ---- ---- ------- ----- -- ----<br>-------- ------- -- ---------- --- - --- ----- ----- ----<br>---- --- --- ----- --- ---- ---- ------- ----- ---- -------<br>--- --- -- ----- -- --- ---- -- --- ---- -- ------ ------<br>--- ----- -- ----,249702.65999995172,249701.69000001624,248846.535,248849.53000000678,248863.066,249712.853,,5,a
screen,html.Screen,2_1_0_1_6,2021-04-24T17:08:10.283Z,,,,,,,,,,,,,,,,,53,,,,,,,,,,,,,,809.0169999386417,,response,,,,99,,,,,,,Space,keypress(Space),,,,,,,,---- -- ----- -- ------ - lasting --- ----------<br>------------- ------ ------ ---- ---- ------- ----- -- ----<br>-------- ------- -- ---------- --- - --- ----- ----- ----<br>---- --- --- ----- --- ---- ---- ------- ----- ---- -------<br>--- --- -- ----- -- --- ---- -- --- ---- -- ------ ------<br>--- ----- -- ----,250522.7850000374,250521.86999993864,249696.331,249702.91999995243,249712.853,250529.31,,6,lasting
screen,html.Screen,2_1_0_1_7,2021-04-24T17:08:10.886Z,,,,,,,,,,,,,,,,,53,,,,,,,,,,,,,,594.719999948109,,response,,,,99,,,,,,,Space,keypress(Space),,,,,,,,---- -- ----- -- ------ - ------- and ----------<br>------------- ------ ------ ---- ---- ------- ----- -- ----<br>-------- ------- -- ---------- --- - --- ----- ----- ----<br>---- --- --- ----- --- ---- ---- ------- ----- ---- -------<br>--- --- -- ----- -- --- ---- -- --- ---- -- ------ ------<br>--- ----- -- ----,251125.05000003148,251124.0299999481,250512.813,250523.04999995977,250529.31,251129.141,,7,and
screen,html.Screen,2_1_0_1_8,2021-04-24T17:08:11.507Z,,,,,,,,,,,,,,,,,53,,,,,,,,,,,,,,616.644000035536,,response,,,,99,,,,,,,Space,keypress(Space),,,,,,,,---- -- ----- -- ------ - ------- --- fulfilling<br>------------- ------ ------ ---- ---- ------- ----- -- ----<br>-------- ------- -- ---------- --- - --- ----- ----- ----<br>---- --- --- ----- --- ---- ---- ------- ----- ---- -------<br>--- --- -- ----- -- --- ---- -- --- ---- -- ------ ------<br>--- ----- -- ----,251746.74999993294,251745.78500003554,251112.698,251125.2899999963,251129.141,251762.415,,8,fulfilling
screen,html.Screen,2_1_0_1_9,2021-04-24T17:08:12.376Z,,,,,,,,,,,,,,,,,53,,,,,,,,,,,,,,851.4250000054308,,response,,,,99,,,,,,,Space,keypress(Space),,,,,,,,"---- -- ----- -- ------ - ------- --- ----------<br>relationship, ------ ------ ---- ---- ------- ----- -- ----<br>-------- ------- -- ---------- --- - --- ----- ----- ----<br>---- --- --- ----- --- ---- ---- ------- ----- ---- -------<br>--- --- -- ----- -- --- ---- -- --- ---- -- ------ ------<br>--- ----- -- ----",252614.80999994092,252613.84000000544,251745.828,251747.02999996953,251762.415,252628.893,,9,"relationship,"
screen,html.Screen,2_1_0_1_10,2021-04-24T17:08:12.995Z,,,,,,,,,,,,,,,,,53,,,,,,,,,,,,,,604.776999986876,,response,,,,99,,,,,,,Space,keypress(Space),,,,,,,,---- -- ----- -- ------ - ------- --- ----------<br>------------- common ------ ---- ---- ------- ----- -- ----<br>-------- ------- -- ---------- --- - --- ----- ----- ----<br>---- --- --- ----- --- ---- ---- ------- ----- ---- -------<br>--- --- -- ----- -- --- ---- -- --- ---- -- ------ ------<br>--- ----- -- ----,253234.61000004318,253233.6699999869,252612.305,252615.05499994382,252628.893,253245.322,,10,common
screen,html.Screen,2_1_0_1_11,2021-04-24T17:08:13.761Z,,,,,,,,,,,,,,,,,53,,,,,,,,,,,,,,753.9879999847035,,response,,,,99,,,,,,,Space,keypress(Space),,,,,,,,---- -- ----- -- ------ - ------- --- ----------<br>------------- ------ wisdom ---- ---- ------- ----- -- ----<br>-------- ------- -- ---------- --- - --- ----- ----- ----<br>---- --- --- ----- --- ---- ---- ------- ----- ---- -------<br>--- --- -- ----- -- --- ---- -- --- ---- -- ------ ------<br>--- ----- -- ----,254000.400000019,253999.3099999847,253228.785,253234.85999996774,253245.322,254011.807,,11,wisdom
screen,html.Screen,2_1_0_1_12,2021-04-24T17:08:14.550Z,,,,,,,,,,,,,,,,,53,,,,,,,,,,,,,,776.2930000052147,,response,,,,99,,,,,,,Space,keypress(Space),,,,,,,,---- -- ----- -- ------ - ------- --- ----------<br>------------- ------ ------ says ---- ------- ----- -- ----<br>-------- ------- -- ---------- --- - --- ----- ----- ----<br>---- --- --- ----- --- ---- ---- ------- ----- ---- -------<br>--- --- -- ----- -- --- ---- -- --- ---- -- ------ ------<br>--- ----- -- ----,254789.14999996778,254788.10000000522,253995.319,254000.65499998163,254011.807,254794.934,,12,says
screen,html.Screen,2_1_0_1_13,2021-04-24T17:08:15.094Z,,,,,,,,,,,,,,,,,53,,,,,,,,,,,,,,537.5309999849414,,response,,,,99,,,,,,,Space,keypress(Space),,,,,,,,---- -- ----- -- ------ - ------- --- ----------<br>------------- ------ ------ ---- that ------- ----- -- ----<br>-------- ------- -- ---------- --- - --- ----- ----- ----<br>---- --- --- ----- --- ---- ---- ------- ----- ---- -------<br>--- --- -- ----- -- --- ---- -- --- ---- -- ------ ------<br>--- ----- -- ----,255333.60499993432,255332.46499998495,254778.409,254789.37999997288,254794.934,255344.931,,13,that
screen,html.Screen,2_1_0_1_14,2021-04-24T17:08:15.983Z,,,,,,,,,,,,,,,,,53,,,,,,,,,,,,,,876.5440000275557,,response,,,,99,,,,,,,Space,keypress(Space),,,,,,,,---- -- ----- -- ------ - ------- --- ----------<br>------------- ------ ------ ---- ---- feeling ----- -- ----<br>-------- ------- -- ---------- --- - --- ----- ----- ----<br>---- --- --- ----- --- ---- ---- ------- ----- ---- -------<br>--- --- -- ----- -- --- ---- -- --- ---- -- ------ ------<br>--- ----- -- ----,256222.53499994986,256221.47500002757,255328.241,255333.8999999687,255344.931,256227.87,,14,feeling
screen,html.Screen,2_1_0_1_15,2021-04-24T17:08:16.401Z,,,,,,,,,,,,,,,,,53,,,,,,,,,,,,,,411.49000003014226,,response,,,,99,,,,,,,Space,keypress(Space),,,,,,,,---- -- ----- -- ------ - ------- --- ----------<br>------------- ------ ------ ---- ---- ------- close -- ----<br>-------- ------- -- ---------- --- - --- ----- ----- ----<br>---- --- --- ----- --- ---- ---- ------- ----- ---- -------<br>--- --- -- ----- -- --- ---- -- --- ---- -- ------ ------<br>--- ----- -- ----,256640.31000004616,256639.36000003014,256211.381,256222.7750000311,256227.87,256644.442,,15,close
screen,html.Screen,2_1_0_1_16,2021-04-24T17:08:16.817Z,,,,,,,,,,,,,,,,,53,,,,,,,,,,,,,,410.50299998166156,,response,,,,99,,,,,,,Space,keypress(Space),,,,,,,,---- -- ----- -- ------ - ------- --- ----------<br>------------- ------ ------ ---- ---- ------- ----- to ----<br>-------- ------- -- ---------- --- - --- ----- ----- ----<br>---- --- --- ----- --- ---- ---- ------- ----- ---- -------<br>--- --- -- ----- -- --- ---- -- --- ---- -- ------ ------<br>--- ----- -- ----,257055.97500002477,257054.94499998167,256627.914,256640.550000011,256644.442,257060.972,,16,to
screen,html.Screen,2_1_0_1_17,2021-04-24T17:08:17.293Z,,,,,,,,,,,,,,,,,53,,,,,,,,,,,,,,470.5230000028969,,response,,,,99,,,,,,,Space,keypress(Space),,,,,,,,---- -- ----- -- ------ - ------- --- ----------<br>------------- ------ ------ ---- ---- ------- ----- -- your<br>-------- ------- -- ---------- --- - --- ----- ----- ----<br>---- --- --- ----- --- ---- ---- ------- ----- ---- -------<br>--- --- -- ----- -- --- ---- -- --- ---- -- ------ ------<br>--- ----- -- ----,257532.60000003502,257531.4950000029,257044.475,257056.2299999874,257060.972,257544.312,,17,your
screen,html.Screen,2_1_0_1_18,2021-04-24T17:08:17.998Z,,,,,,,,,,,,,,,,,53,,,,,,,,,,,,,,692.0029999873659,,response,,,,99,,,,,,,Space,keypress(Space),,,,,,,,---- -- ----- -- ------ - ------- --- ----------<br>------------- ------ ------ ---- ---- ------- ----- -- ----<br>romantic ------- -- ---------- --- - --- ----- ----- ----<br>---- --- --- ----- --- ---- ---- ------- ----- ---- -------<br>--- --- -- ----- -- --- ---- -- --- ---- -- ------ ------<br>--- ----- -- ----,258237.36499994993,258236.31499998737,257527.687,257532.87999995518,257544.312,258244.078,,18,romantic
screen,html.Screen,2_1_0_1_19,2021-04-24T17:08:20.019Z,,,,,,,,,,,,,,,,,53,,,,,,,,,,,,,,2013.2519999348733,,response,,,,99,,,,,,,Space,keypress(Space),,,,,,,,---- -- ----- -- ------ - ------- --- ----------<br>------------- ------ ------ ---- ---- ------- ----- -- ----<br>-------- partner -- ---------- --- - --- ----- ----- ----<br>---- --- --- ----- --- ---- ---- ------- ----- ---- -------<br>--- --- -- ----- -- --- ---- -- --- ---- -- ------ ------<br>--- ----- -- ----,260258.44500004314,260257.32999993488,258227.434,258237.73499997333,258244.078,260260.256,,19,partner
screen,html.Screen,2_1_0_1_20,2021-04-24T17:08:20.381Z,,,,,,,,,,,,,,,,,53,,,,,,,,,,,,,,358.879000044486,,response,,,,99,,,,,,,Space,keypress(Space),,,,,,,,---- -- ----- -- ------ - ------- --- ----------<br>------------- ------ ------ ---- ---- ------- ----- -- ----<br>-------- ------- is ---------- --- - --- ----- ----- ----<br>---- --- --- ----- --- ---- ---- ------- ----- ---- -------<br>--- --- -- ----- -- --- ---- -- --- ---- -- ------ ------<br>--- ----- -- ----,260620.10499997996,260619.13500004448,260243.851,260258.68500000797,260260.256,260626.81,,20,is
screen,html.Screen,2_1_0_1_21,2021-04-24T17:08:21.042Z,,,,,,,,,,,,,,,,,53,,,,,,,,,,,,,,652.9799999422976,,response,,,,99,,,,,,,Space,keypress(Space),,,,,,,,---- -- ----- -- ------ - ------- --- ----------<br>------------- ------ ------ ---- ---- ------- ----- -- ----<br>-------- ------- -- paramount. --- - --- ----- ----- ----<br>---- --- --- ----- --- ---- ---- ------- ----- ---- -------<br>--- --- -- ----- -- --- ---- -- --- ---- -- ------ ------<br>--- ----- -- ----,261280.96500004176,261279.7899999423,260610.225,260620.37999997847,260626.81,261293.366,,21,paramount.
screen,html.Screen,2_1_0_1_22,2021-04-24T17:08:21.578Z,,,,,,,,,,,,,,,,,53,,,,,,,,,,,,,,522.6840000230877,,response,,,,99,,,,,,,Space,keypress(Space),,,,,,,,---- -- ----- -- ------ - ------- --- ----------<br>------------- ------ ------ ---- ---- ------- ----- -- ----<br>-------- ------- -- ---------- But - --- ----- ----- ----<br>---- --- --- ----- --- ---- ---- ------- ----- ---- -------<br>--- --- -- ----- -- --- ---- -- --- ---- -- ------ ------<br>--- ----- -- ----,261817.04500003252,261816.0500000231,261276.667,261281.21000004467,261293.366,261826.66,,22,But
screen,html.Screen,2_1_0_1_23,2021-04-24T17:08:22.019Z,,,,,,,,,,,,,,,,,53,,,,,,,,,,,,,,430.6399999392743,,response,,,,99,,,,,,,Space,keypress(Space),,,,,,,,---- -- ----- -- ------ - ------- --- ----------<br>------------- ------ ------ ---- ---- ------- ----- -- ----<br>-------- ------- -- ---------- --- a --- ----- ----- ----<br>---- --- --- ----- --- ---- ---- ------- ----- ---- -------<br>--- --- -- ----- -- --- ---- -- --- ---- -- ------ ------<br>--- ----- -- ----,262258.38000001386,262257.2999999393,261809.996,261817.27500003763,261826.66,262276.858,,23,a
screen,html.Screen,2_1_0_1_24,2021-04-24T17:08:22.728Z,,,,,,,,,,,,,,,,,53,,,,,,,,,,,,,,689.3769999416545,,response,,,,99,,,,,,,Space,keypress(Space),,,,,,,,---- -- ----- -- ------ - ------- --- ----------<br>------------- ------ ------ ---- ---- ------- ----- -- ----<br>-------- ------- -- ---------- --- - new ----- ----- ----<br>---- --- --- ----- --- ---- ---- ------- ----- ---- -------<br>--- --- -- ----- -- --- ---- -- --- ---- -- ------ ------<br>--- ----- -- ----,262967.22500002943,262966.23499994166,262243.198,262258.64000001457,262276.858,262976.349,,24,new
screen,html.Screen,2_1_0_1_25,2021-04-24T17:08:23.253Z,,,,,,,,,,,,,,,,,53,,,,,,,,,,,,,,515.2709999861545,,response,,,,99,,,,,,,Space,keypress(Space),,,,,,,,---- -- ----- -- ------ - ------- --- ----------<br>------------- ------ ------ ---- ---- ------- ----- -- ----<br>-------- ------- -- ---------- --- - --- study ----- ----<br>---- --- --- ----- --- ---- ---- ------- ----- ---- -------<br>--- --- -- ----- -- --- ---- -- --- ---- -- ------ ------<br>--- ----- -- ----,263492.66500002705,263491.61999998614,262959.724,262967.44999999646,262976.349,263509.486,,25,study
screen,html.Screen,2_1_0_1_26,2021-04-24T17:08:23.786Z,,,,,,,,,,,,,,,,,53,,,,,,,,,,,,,,514.6539999941015,,response,,,,99,,,,,,,Space,keypress(Space),,,,,,,,---- -- ----- -- ------ - ------- --- ----------<br>------------- ------ ------ ---- ---- ------- ----- -- ----<br>-------- ------- -- ---------- --- - --- ----- finds ----<br>---- --- --- ----- --- ---- ---- ------- ----- ---- -------<br>--- --- -- ----- -- --- ---- -- --- ---- -- ------ ------<br>--- ----- -- ----,264025.1700000372,264024.1399999941,263492.882,263492.9799999809,263509.486,264042.624,,26,finds
screen,html.Screen,2_1_0_1_27,2021-04-24T17:08:24.404Z,,,,,,,,,,,,,,,,,53,,,,,,,,,,,,,,599.2110000167158,,response,,,,99,,,,,,,Space,keypress(Space),,,,,,,,---- -- ----- -- ------ - ------- --- ----------<br>------------- ------ ------ ---- ---- ------- ----- -- ----<br>-------- ------- -- ---------- --- - --- ----- ----- that<br>---- --- --- ----- --- ---- ---- ------- ----- ---- -------<br>--- --- -- ----- -- --- ---- -- --- ---- -- ------ ------<br>--- ----- -- ----,264642.8499999456,264641.8350000167,264009.52,264025.3950000042,264042.624,264659.266,,27,that
screen,html.Screen,2_1_0_1_28,2021-04-24T17:08:25.035Z,,,,,,,,,,,,,,,,,53,,,,,,,,,,,,,,613.9539999736589,,response,,,,99,,,,,,,Space,keypress(Space),,,,,,,,---- -- ----- -- ------ - ------- --- ----------<br>------------- ------ ------ ---- ---- ------- ----- -- ----<br>-------- ------- -- ---------- --- - --- ----- ----- ----<br>it's --- --- ----- --- ---- ---- ------- ----- ---- -------<br>--- --- -- ----- -- --- ---- -- --- ---- -- ------ ------<br>--- ----- -- ----,265274.209999945,265273.21999997366,264642.649,264643.1149999844,264659.266,265292.496,,28,it's
screen,html.Screen,2_1_0_1_29,2021-04-24T17:08:25.532Z,,,,,,,,,,,,,,,,,53,,,,,,,,,,,,,,477.61400004132884,,response,,,,99,,,,,,,Space,keypress(Space),,,,,,,,---- -- ----- -- ------ - ------- --- ----------<br>------------- ------ ------ ---- ---- ------- ----- -- ----<br>-------- ------- -- ---------- --- - --- ----- ----- ----<br>---- not --- ----- --- ---- ---- ------- ----- ---- -------<br>--- --- -- ----- -- --- ---- -- --- ---- -- ------ ------<br>--- ----- -- ----,265771.10000001267,265770.1100000413,265275.786,265276.71000000555,265292.496,265775.522,,29,not
screen,html.Screen,2_1_0_1_30,2021-04-24T17:08:25.982Z,,,,,,,,,,,,,,,,,53,,,,,,,,,,,,,,444.7629999303026,,response,,,,99,,,,,,,Space,keypress(Space),,,,,,,,---- -- ----- -- ------ - ------- --- ----------<br>------------- ------ ------ ---- ---- ------- ----- -- ----<br>-------- ------- -- ---------- --- - --- ----- ----- ----<br>---- --- how ----- --- ---- ---- ------- ----- ---- -------<br>--- --- -- ----- -- --- ---- -- --- ---- -- ------ ------<br>--- ----- -- ----,266221.2949999375,266220.2849999303,265759.027,265771.3450000156,265775.522,266225.444,,30,how
screen,html.Screen,2_1_0_1_31,2021-04-24T17:08:26.476Z,,,,,,,,,,,,,,,,,53,,,,,,,,,,,,,,489.1759999842616,,response,,,,99,,,,,,,Space,keypress(Space),,,,,,,,---- -- ----- -- ------ - ------- --- ----------<br>------------- ------ ------ ---- ---- ------- ----- -- ----<br>-------- ------- -- ---------- --- - --- ----- ----- ----<br>---- --- --- close --- ---- ---- ------- ----- ---- -------<br>--- --- -- ----- -- --- ---- -- --- ---- -- ------ ------<br>--- ----- -- ----,266715.6200000318,266714.6199999843,266208.897,266221.5800000122,266225.444,266725.358,,31,close
screen,html.Screen,2_1_0_1_32,2021-04-24T17:08:26.938Z,,,,,,,,,,,,,,,,,53,,,,,,,,,,,,,,451.0669999541715,,response,,,,99,,,,,,,Space,keypress(Space),,,,,,,,---- -- ----- -- ------ - ------- --- ----------<br>------------- ------ ------ ---- ---- ------- ----- -- ----<br>-------- ------- -- ---------- --- - --- ----- ----- ----<br>---- --- --- ----- you ---- ---- ------- ----- ---- -------<br>--- --- -- ----- -- --- ---- -- --- ---- -- ------ ------<br>--- ----- -- ----,267177.46000003535,267176.4249999542,266708.831,266715.86999995634,266725.358,267191.958,,32,you
screen,html.Screen,2_1_0_1_33,2021-04-24T17:08:27.679Z,,,,,,,,,,,,,,,,,53,,,,,,,,,,,,,,725.8220000179717,,response,,,,99,,,,,,,Space,keypress(Space),,,,,,,,---- -- ----- -- ------ - ------- --- ----------<br>------------- ------ ------ ---- ---- ------- ----- -- ----<br>-------- ------- -- ---------- --- - --- ----- ----- ----<br>---- --- --- ----- --- feel ---- ------- ----- ---- -------<br>--- --- -- ----- -- --- ---- -- --- ---- -- ------ ------<br>--- ----- -- ----,267918.2899999432,267917.78000001796,267175.355,267177.70500003826,267191.958,267925.022,,33,feel
screen,html.Screen,2_1_0_1_34,2021-04-24T17:08:28.186Z,,,,,,,,,,,,,,,,,53,,,,,,,,,,,,,,498.5680000203429,,response,,,,99,,,,,,,Space,keypress(Space),,,,,,,,---- -- ----- -- ------ - ------- --- ----------<br>------------- ------ ------ ---- ---- ------- ----- -- ----<br>-------- ------- -- ---------- --- - --- ----- ----- ----<br>---- --- --- ----- --- ---- that ------- ----- ---- -------<br>--- --- -- ----- -- --- ---- -- --- ---- -- ------ ------<br>--- ----- -- ----,268425.01500004437,268423.59000002034,267908.513,267918.41000004206,267925.022,268441.674,,34,that
screen,html.Screen,2_1_0_1_35,2021-04-24T17:08:28.701Z,,,,,,,,,,,,,,,,,53,,,,,,,,,,,,,,497.6909999983618,,response,,,,99,,,,,,,Space,keypress(Space),,,,,,,,---- -- ----- -- ------ - ------- --- ----------<br>------------- ------ ------ ---- ---- ------- ----- -- ----<br>-------- ------- -- ---------- --- - --- ----- ----- ----<br>---- --- --- ----- --- ---- ---- matters ----- ---- -------<br>--- --- -- ----- -- --- ---- -- --- ---- -- ------ ------<br>--- ----- -- ----,268939.93500003126,268939.36499999836,268425.006,268425.25999993086,268441.674,268964.871,,35,matters
screen,html.Screen,2_1_0_1_36,2021-04-24T17:08:29.253Z,,,,,,,,,,,,,,,,,53,,,,,,,,,,,,,,526.6539999612723,,response,,,,99,,,,,,,Space,keypress(Space),,,,,,,,"---- -- ----- -- ------ - ------- --- ----------<br>------------- ------ ------ ---- ---- ------- ----- -- ----<br>-------- ------- -- ---------- --- - --- ----- ----- ----<br>---- --- --- ----- --- ---- ---- ------- most, ---- -------<br>--- --- -- ----- -- --- ---- -- --- ---- -- ------ ------<br>--- ----- -- ----",269492.54000000656,269491.52499996126,268924.89,268940.9000000451,268964.871,269507.969,,36,"most,"
screen,html.Screen,2_1_0_1_37,2021-04-24T17:08:29.765Z,,,,,,,,,,,,,,,,,53,,,,,,,,,,,,,,495.5510000275099,,response,,,,99,,,,,,,Space,keypress(Space),,,,,,,,---- -- ----- -- ------ - ------- --- ----------<br>------------- ------ ------ ---- ---- ------- ----- -- ----<br>-------- ------- -- ---------- --- - --- ----- ----- ----<br>---- --- --- ----- --- ---- ---- ------- ----- it's -------<br>--- --- -- ----- -- --- ---- -- --- ---- -- ------ ------<br>--- ----- -- ----,270004.05999994837,270003.5200000275,269491.43,269492.85000003874,269507.969,270007.786,,37,it's
screen,html.Screen,2_1_0_1_38,2021-04-24T17:08:30.245Z,,,,,,,,,,,,,,,,,53,,,,,,,,,,,,,,475.2839999583666,,response,,,,99,,,,,,,Space,keypress(Space),,,,,,,,---- -- ----- -- ------ - ------- --- ----------<br>------------- ------ ------ ---- ---- ------- ----- -- ----<br>-------- ------- -- ---------- --- - --- ----- ----- ----<br>---- --- --- ----- --- ---- ---- ------- ----- ---- whether<br>--- --- -- ----- -- --- ---- -- --- ---- -- ------ ------<br>--- ----- -- ----,270484.1149999993,270483.0699999584,269991.32,270004.2100000428,270007.786,270491.053,,38,whether
screen,html.Screen,2_1_0_1_39,2021-04-24T17:08:30.719Z,,,,,,,,,,,,,,,,,53,,,,,,,,,,,,,,466.2770000047167,,response,,,,99,,,,,,,Space,keypress(Space),,,,,,,,---- -- ----- -- ------ - ------- --- ----------<br>------------- ------ ------ ---- ---- ------- ----- -- ----<br>-------- ------- -- ---------- --- - --- ----- ----- ----<br>---- --- --- ----- --- ---- ---- ------- ----- ---- -------<br>you --- -- ----- -- --- ---- -- --- ---- -- ------ ------<br>--- ----- -- ----,270958.40500004124,270957.33000000473,270474.496,270484.38499995973,270491.053,270974.401,,39,you
screen,html.Screen,2_1_0_1_40,2021-04-24T17:08:31.296Z,,,,,,,,,,,,,,,,,53,,,,,,,,,,,,,,559.9439999345341,,response,,,,99,,,,,,,Space,keypress(Space),,,,,,,,---- -- ----- -- ------ - ------- --- ----------<br>------------- ------ ------ ---- ---- ------- ----- -- ----<br>-------- ------- -- ---------- --- - --- ----- ----- ----<br>---- --- --- ----- --- ---- ---- ------- ----- ---- -------<br>--- are -- ----- -- --- ---- -- --- ---- -- ------ ------<br>--- ----- -- ----,271535.43499996886,271534.34499993455,270957.738,270958.6450000061,270974.401,271540.822,,40,are
screen,html.Screen,2_1_0_1_41,2021-04-24T17:08:31.877Z,,,,,,,,,,,,,,,,,53,,,,,,,,,,,,,,574.9379999569501,,response,,,,99,,,,,,,Space,keypress(Space),,,,,,,,---- -- ----- -- ------ - ------- --- ----------<br>------------- ------ ------ ---- ---- ------- ----- -- ----<br>-------- ------- -- ---------- --- - --- ----- ----- ----<br>---- --- --- ----- --- ---- ---- ------- ----- ---- -------<br>--- --- as ----- -- --- ---- -- --- ---- -- ------ ------<br>--- ----- -- ----,272116.35499994736,272115.75999995694,271524.164,271535.66499997396,271540.822,272124.058,,41,as
screen,html.Screen,2_1_0_1_42,2021-04-24T17:08:32.436Z,,,,,,,,,,,,,,,,,53,,,,,,,,,,,,,,550.0220000261324,,response,,,,99,,,,,,,Space,keypress(Space),,,,,,,,---- -- ----- -- ------ - ------- --- ----------<br>------------- ------ ------ ---- ---- ------- ----- -- ----<br>-------- ------- -- ---------- --- - --- ----- ----- ----<br>---- --- --- ----- --- ---- ---- ------- ----- ---- -------<br>--- --- -- close -- --- ---- -- --- ---- -- ------ ------<br>--- ----- -- ----,272674.9950000085,272674.08000002615,272107.46,272116.4700000081,272124.058,272690.599,,42,close
screen,html.Screen,2_1_0_1_43,2021-04-24T17:08:32.879Z,,,,,,,,,,,,,,,,,53,,,,,,,,,,,,,,427.09600002266234,,response,,,,99,,,,,,,Space,keypress(Space),,,,,,,,---- -- ----- -- ------ - ------- --- ----------<br>------------- ------ ------ ---- ---- ------- ----- -- ----<br>-------- ------- -- ---------- --- - --- ----- ----- ----<br>---- --- --- ----- --- ---- ---- ------- ----- ---- -------<br>--- --- -- ----- as --- ---- -- --- ---- -- ------ ------<br>--- ----- -- ----,273118.3299999684,273117.69500002265,272673.955,272675.24499993306,272690.599,273123.747,,43,as
screen,html.Screen,2_1_0_1_44,2021-04-24T17:08:33.355Z,,,,,,,,,,,,,,,,,53,,,,,,,,,,,,,,469.74800003739074,,response,,,,99,,,,,,,Space,keypress(Space),,,,,,,,---- -- ----- -- ------ - ------- --- ----------<br>------------- ------ ------ ---- ---- ------- ----- -- ----<br>-------- ------- -- ---------- --- - --- ----- ----- ----<br>---- --- --- ----- --- ---- ---- ------- ----- ---- -------<br>--- --- -- ----- -- you ---- -- --- ---- -- ------ ------<br>--- ----- -- ----,273594.4749999326,273593.49500003736,273107.177,273118.4399999911,273123.747,273606.932,,44,you
screen,html.Screen,2_1_0_1_45,2021-04-24T17:08:33.858Z,,,,,,,,,,,,,,,,,53,,,,,,,,,,,,,,488.98299995443085,,response,,,,99,,,,,,,Space,keypress(Space),,,,,,,,---- -- ----- -- ------ - ------- --- ----------<br>------------- ------ ------ ---- ---- ------- ----- -- ----<br>-------- ------- -- ---------- --- - --- ----- ----- ----<br>---- --- --- ----- --- ---- ---- ------- ----- ---- -------<br>--- --- -- ----- -- --- want -- --- ---- -- ------ ------<br>--- ----- -- ----,274097.1650000429,274095.9149999544,273590.408,273597.8200000245,273606.932,274106.802,,45,want
screen,html.Screen,2_1_0_1_46,2021-04-24T17:08:34.340Z,,,,,,,,,,,,,,,,,53,,,,,,,,,,,,,,471.0180000058608,,response,,,,99,,,,,,,Space,keypress(Space),,,,,,,,---- -- ----- -- ------ - ------- --- ----------<br>------------- ------ ------ ---- ---- ------- ----- -- ----<br>-------- ------- -- ---------- --- - --- ----- ----- ----<br>---- --- --- ----- --- ---- ---- ------- ----- ---- -------<br>--- --- -- ----- -- --- ---- to --- ---- -- ------ ------<br>--- ----- -- ----,274578.82499997504,274577.8200000059,274090.313,274097.39499993157,274106.802,274590.149,,46,to
screen,html.Screen,2_1_0_1_47,2021-04-24T17:08:35.000Z,,,,,,,,,,,,,,,,,53,,,,,,,,,,,,,,647.6759999601636,,response,,,,99,,,,,,,Space,keypress(Space),,,,,,,,"---- -- ----- -- ------ - ------- --- ----------<br>------------- ------ ------ ---- ---- ------- ----- -- ----<br>-------- ------- -- ---------- --- - --- ----- ----- ----<br>---- --- --- ----- --- ---- ---- ------- ----- ---- -------<br>--- --- -- ----- -- --- ---- -- be, ---- -- ------ ------<br>--- ----- -- ----",275238.78999997396,275237.82499996014,274573.533,274579.0649999399,274590.149,275257.234,,47,"be,"
screen,html.Screen,2_1_0_1_48,2021-04-24T17:08:35.486Z,,,,,,,,,,,,,,,,,53,,,,,,,,,,,,,,466.3409999526921,,response,,,,99,,,,,,,Space,keypress(Space),,,,,,,,---- -- ----- -- ------ - ------- --- ----------<br>------------- ------ ------ ---- ---- ------- ----- -- ----<br>-------- ------- -- ---------- --- - --- ----- ----- ----<br>---- --- --- ----- --- ---- ---- ------- ----- ---- -------<br>--- --- -- ----- -- --- ---- -- --- even -- ------ ------<br>--- ----- -- ----,275724.93499994744,275723.5749999527,275223.261,275239.00499998126,275257.234,275739.865,,48,even
screen,html.Screen,2_1_0_1_49,2021-04-24T17:08:36.022Z,,,,,,,,,,,,,,,,,53,,,,,,,,,,,,,,520.4799999587703,,response,,,,99,,,,,,,Space,keypress(Space),,,,,,,,---- -- ----- -- ------ - ------- --- ----------<br>------------- ------ ------ ---- ---- ------- ----- -- ----<br>-------- ------- -- ---------- --- - --- ----- ----- ----<br>---- --- --- ----- --- ---- ---- ------- ----- ---- -------<br>--- --- -- ----- -- --- ---- -- --- ---- if ------ ------<br>--- ----- -- ----,276261.2599999411,276260.34499995876,275723.24,275725.1549999928,275739.865,276273.115,,49,if
screen,html.Screen,2_1_0_1_50,2021-04-24T17:08:37.108Z,,,,,,,,,,,,,,,,,53,,,,,,,,,,,,,,1073.2650000026915,,response,,,,99,,,,,,,Space,keypress(Space),,,,,,,,---- -- ----- -- ------ - ------- --- ----------<br>------------- ------ ------ ---- ---- ------- ----- -- ----<br>-------- ------- -- ---------- --- - --- ----- ----- ----<br>---- --- --- ----- --- ---- ---- ------- ----- ---- -------<br>--- --- -- ----- -- --- ---- -- --- ---- -- that's ------<br>--- ----- -- ----,277347.3150000209,277346.3800000027,276256.345,276261.44000003114,276273.115,277356.078,,50,that's
screen,html.Screen,2_1_0_1_51,2021-04-24T17:08:37.614Z,,,,,,,,,,,,,,,,,53,,,,,,,,,,,,,,496.47699999040924,,response,,,,99,,,,,,,Space,keypress(Space),,,,,,,,---- -- ----- -- ------ - ------- --- ----------<br>------------- ------ ------ ---- ---- ------- ----- -- ----<br>-------- ------- -- ---------- --- - --- ----- ----- ----<br>---- --- --- ----- --- ---- ---- ------- ----- ---- -------<br>--- --- -- ----- -- --- ---- -- --- ---- -- ------ really<br>--- ----- -- ----,277853.2399999676,277852.5549999904,277339.574,277347.51999995206,277356.078,277855.878,,51,really
screen,html.Screen,2_1_0_1_52,2021-04-24T17:08:38.156Z,,,,,,,,,,,,,,,,,53,,,,,,,,,,,,,,538.3619999359362,,response,,,,99,,,,,,,Space,keypress(Space),,,,,,,,---- -- ----- -- ------ - ------- --- ----------<br>------------- ------ ------ ---- ---- ------- ----- -- ----<br>-------- ------- -- ---------- --- - --- ----- ----- ----<br>---- --- --- ----- --- ---- ---- ------- ----- ---- -------<br>--- --- -- ----- -- --- ---- -- --- ---- -- ------ ------<br>not ----- -- ----,278395.27500001714,278394.23999993596,277839.388,277853.3550000284,277855.878,278405.921,,52,not
screen,html.Screen,2_1_0_1_53,2021-04-24T17:08:38.666Z,,,,,,,,,,,,,,,,,53,,,,,,,,,,,,,,497.91400000464637,,response,,,,99,,,,,,,Space,keypress(Space),,,,,,,,---- -- ----- -- ------ - ------- --- ----------<br>------------- ------ ------ ---- ---- ------- ----- -- ----<br>-------- ------- -- ---------- --- - --- ----- ----- ----<br>---- --- --- ----- --- ---- ---- ------- ----- ---- -------<br>--- --- -- ----- -- --- ---- -- --- ---- -- ------ ------<br>--- close -- ----,278904.87500000745,278903.8350000046,278389.297,278395.4799999483,278405.921,278922.438,,53,close
screen,html.Screen,2_1_0_1_54,2021-04-24T17:08:38.965Z,,,,,,,,,,,,,,,,,53,,,,,,,,,,,,,,281.07200002117315,,response,,,,99,,,,,,,Space,keypress(Space),,,,,,,,---- -- ----- -- ------ - ------- --- ----------<br>------------- ------ ------ ---- ---- ------- ----- -- ----<br>-------- ------- -- ---------- --- - --- ----- ----- ----<br>---- --- --- ----- --- ---- ---- ------- ----- ---- -------<br>--- --- -- ----- -- --- ---- -- --- ---- -- ------ ------<br>--- ----- at ----,279204.4949999545,279203.5100000212,278889.16,278905.10500001255,278922.438,279232.834,,54,at
screen,html.Screen,2_1_0_1_55,2021-04-24T17:08:39.587Z,,,,,,,,,,,,,,,,,53,,,,,,,,,,,,,,592.2510000186157,,response,,,,99,,,,,,,Space,keypress(Space),,,,,,,,---- -- ----- -- ------ - ------- --- ----------<br>------------- ------ ------ ---- ---- ------- ----- -- ----<br>-------- ------- -- ---------- --- - --- ----- ----- ----<br>---- --- --- ----- --- ---- ---- ------- ----- ---- -------<br>--- --- -- ----- -- --- ---- -- --- ---- -- ------ ------<br>--- ----- -- all.,279826.37999998406,279825.0850000186,279189.041,279204.7249999596,279232.834,279838.752,,55,all.
Item 99,flow.Loop,2_1_0_1,2021-04-24T17:08:39.588Z,,,,,,,,,,,,,,,,,,,,,,,,,,,,,,,35777.54700001859,,completion,,,,,F,,,,,,,,,,,silence,,,,,279827.0649999613,279825.0850000186,244014.355,244019.71999998204,244047.538,279838.752,,,
Question 1,html.Screen,2_1_0_2,2021-04-24T17:08:44.964Z,,,,,,,,,,,,,,,,,,,,,,,,,,,,true,FALSE,,5363.432999943732,,response,,,,99,F,,,,,,FALSE,click #choice-2,,,,silence,,,,,285203.1750000315,285202.1849999437,279822.335,279827.4199999869,279838.752,285204.094,,,
Question 2,html.Screen,2_1_0_3,2021-04-24T17:08:53.303Z,,,,,,,,,,,,,,,,,,,,,,,,,,,,true,TRUE,,8337.255999955873,,response,,,,99,F,,,,,,TRUE,click #choice-1,,,,silence,,,,,293542.1749999514,293541.34999995586,285187.61,285203.3400000073,285204.094,293552.037,,,
Item 99,flow.Sequence,2_1_0,2021-04-24T17:08:53.304Z,,,,,,,,,,,,,,,,,,,,,,,,,,,,,,,59508.03499995585,,completion,,,,,,,,,,,,,,,,,,,,,293542.36500000115,293541.34999995586,234016.672,234030.12000001036,234033.315,293552.037,,,
Holding screen,html.Screen,2_1_1_0,2021-04-24T17:09:03.295Z,,,,,,,,,,,,,,,,,,,,,,,,,,,,,,,9997.610999999975,,timeout,,,,,,,,,,,,,,,,,,,,,303534.1100000078,303533.15,293535.532,293542.4799999455,293552.037,303549.648,,,
screen,html.Screen,2_1_1_1_0,2021-04-24T17:09:03.845Z,,,,,,,,,,,,,,,,,54,,,,,,,,,,,,,,533.2020000061602,,response,,,,100,,,,,,,Space,keypress(Space),,,,,,,,At --- ---- --- ------ ----- ------- ---- -- --- ------- --<br>------- ---------- ------ -- ----- -- ----- -- ---- ------<br>--- ----- --- --- ------ -------- ----- --- ------ ----- --<br>----- ----- ---------- --- --- ------ ------ ---- -- ------<br>------- --- ------ ----- --- ---- ------- -- ---- --- --<br>------- ------,304083.5749999387,304082.85000000615,303533.15,303534.42000004,303549.648,304099.476,,0,At
screen,html.Screen,2_1_1_1_1,2021-04-24T17:09:04.244Z,,,,,,,,,,,,,,,,,54,,,,,,,,,,,,,,382.96899997233413,,response,,,,100,,,,,,,Space,keypress(Space),,,,,,,,-- the ---- --- ------ ----- ------- ---- -- --- ------- --<br>------- ---------- ------ -- ----- -- ----- -- ---- ------<br>--- ----- --- --- ------ -------- ----- --- ------ ----- --<br>----- ----- ---------- --- --- ------ ------ ---- -- ------<br>------- --- ------ ----- --- ---- ------- -- ---- --- --<br>------- ------,304483.35500003304,304482.44499997236,304082.847,304083.7199999951,304099.476,304499.441,,1,the
screen,html.Screen,2_1_1_1_2,2021-04-24T17:09:04.676Z,,,,,,,,,,,,,,,,,54,,,,,,,,,,,,,,414.93899997288827,,response,,,,100,,,,,,,Space,keypress(Space),,,,,,,,-- --- time --- ------ ----- ------- ---- -- --- ------- --<br>------- ---------- ------ -- ----- -- ----- -- ---- ------<br>--- ----- --- --- ------ -------- ----- --- ------ ----- --<br>----- ----- ---------- --- --- ------ ------ ---- -- ------<br>------- --- ------ ----- --- ---- ------- -- ---- --- --<br>------- ------,304915.309999953,304914.3799999729,304482.819,304483.5599999642,304499.441,304932.743,,2,time
screen,html.Screen,2_1_1_1_3,2021-04-24T17:09:05.111Z,,,,,,,,,,,,,,,,,54,,,,,,,,,,,,,,416.0519999980461,,response,,,,100,,,,,,,Space,keypress(Space),,,,,,,,-- --- ---- the ------ ----- ------- ---- -- --- ------- --<br>------- ---------- ------ -- ----- -- ----- -- ---- ------<br>--- ----- --- --- ------ -------- ----- --- ------ ----- --<br>----- ----- ---------- --- --- ------ ------ ---- -- ------<br>------- --- ------ ----- --- ---- ------- -- ---- --- --<br>------- ------,305349.7750000097,305348.79499999806,304915.964,304915.61499994714,304932.743,305366.021,,3,the
screen,html.Screen,2_1_1_1_4,2021-04-24T17:09:05.582Z,,,,,,,,,,,,,,,,,54,,,,,,,,,,,,,,453.97899994876934,,response,,,,100,,,,,,,Space,keypress(Space),,,,,,,,-- --- ---- --- French ----- ------- ---- -- --- ------- --<br>------- ---------- ------ -- ----- -- ----- -- ---- ------<br>--- ----- --- --- ------ -------- ----- --- ------ ----- --<br>----- ----- ---------- --- --- ------ ------ ---- -- ------<br>------- --- ------ ----- --- ---- ------- -- ---- --- --<br>------- ------,305821.00500003435,305819.9999999488,305349.377,305349.990000017,305366.021,305832.443,,4,French
screen,html.Screen,2_1_1_1_5,2021-04-24T17:09:06.253Z,,,,,,,,,,,,,,,,,54,,,,,,,,,,,,,,659.2069999817177,,response,,,,100,,,,,,,Space,keypress(Space),,,,,,,,-- --- ---- --- ------ crown ------- ---- -- --- ------- --<br>------- ---------- ------ -- ----- -- ----- -- ---- ------<br>--- ----- --- --- ------ -------- ----- --- ------ ----- --<br>----- ----- ---------- --- --- ------ ------ ---- -- ------<br>------- --- ------ ----- --- ---- ------- -- ---- --- --<br>------- ------,306492.3049999634,306491.64999998175,305815.888,305821.25000003725,305832.443,306498.917,,5,crown
screen,html.Screen,2_1_1_1_6,2021-04-24T17:09:06.800Z,,,,,,,,,,,,,,,,,54,,,,,,,,,,,,,,538.9580000381684,,response,,,,100,,,,,,,Space,keypress(Space),,,,,,,,-- --- ---- --- ------ ----- secured ---- -- --- ------- --<br>------- ---------- ------ -- ----- -- ----- -- ---- ------<br>--- ----- --- --- ------ -------- ----- --- ------ ----- --<br>----- ----- ---------- --- --- ------ ------ ---- -- ------<br>------- --- ------ ----- --- ---- ------- -- ---- --- --<br>------- ------,307038.81499997806,307037.8750000382,306482.394,306492.4749999773,306498.917,307048.773,,6,secured
screen,html.Screen,2_1_1_1_7,2021-04-24T17:09:07.281Z,,,,,,,,,,,,,,,,,54,,,,,,,,,,,,,,470.2920000004233,,response,,,,100,,,,,,,Space,keypress(Space),,,,,,,,-- --- ---- --- ------ ----- ------- much -- --- ------- --<br>------- ---------- ------ -- ----- -- ----- -- ---- ------<br>--- ----- --- --- ------ -------- ----- --- ------ ----- --<br>----- ----- ---------- --- --- ------ ------ ---- -- ------<br>------- --- ------ ----- --- ---- ------- -- ---- --- --<br>------- ------,307520.0649999315,307519.0650000004,307032.118,307039.05000002123,307048.773,307532.125,,7,much
screen,html.Screen,2_1_1_1_8,2021-04-24T17:09:07.713Z,,,,,,,,,,,,,,,,,54,,,,,,,,,,,,,,418.91000003460795,,response,,,,100,,,,,,,Space,keypress(Space),,,,,,,,-- --- ---- --- ------ ----- ------- ---- of --- ------- --<br>------- ---------- ------ -- ----- -- ----- -- ---- ------<br>--- ----- --- --- ------ -------- ----- --- ------ ----- --<br>----- ----- ---------- --- --- ------ ------ ---- -- ------<br>------- --- ------ ----- --- ---- ------- -- ---- --- --<br>------- ------,307951.96500001475,307951.0350000346,307515.447,307520.28499997687,307532.125,307965.309,,8,of
screen,html.Screen,2_1_1_1_9,2021-04-24T17:09:08.235Z,,,,,,,,,,,,,,,,,54,,,,,,,,,,,,,,507.9710000347113,,response,,,,100,,,,,,,Space,keypress(Space),,,,,,,,-- --- ---- --- ------ ----- ------- ---- -- its ------- --<br>------- ---------- ------ -- ----- -- ----- -- ---- ------<br>--- ----- --- --- ------ -------- ----- --- ------ ----- --<br>----- ----- ---------- --- --- ------ ------ ---- -- ------<br>------- --- ------ ----- --- ---- ------- -- ---- --- --<br>------- ------,308474.189999979,308473.2800000347,307948.681,307952.2049999796,307965.309,308481.728,,9,its
screen,html.Screen,2_1_1_1_10,2021-04-24T17:09:08.768Z,,,,,,,,,,,,,,,,,54,,,,,,,,,,,,,,524.4719999452354,,response,,,,100,,,,,,,Space,keypress(Space),,,,,,,,-- --- ---- --- ------ ----- ------- ---- -- --- revenue --<br>------- ---------- ------ -- ----- -- ----- -- ---- ------<br>--- ----- --- --- ------ -------- ----- --- ------ ----- --<br>----- ----- ---------- --- --- ------ ------ ---- -- ------<br>------- --- ------ ----- --- ---- ------- -- ---- --- --<br>------- ------,309007.23999994807,309006.19999994524,308465.425,308474.414999946,308481.728,309014.921,,10,revenue
screen,html.Screen,2_1_1_1_11,2021-04-24T17:09:09.238Z,,,,,,,,,,,,,,,,,54,,,,,,,,,,,,,,460.409000044805,,response,,,,100,,,,,,,Space,keypress(Space),,,,,,,,-- --- ---- --- ------ ----- ------- ---- -- --- ------- by<br>------- ---------- ------ -- ----- -- ----- -- ---- ------<br>--- ----- --- --- ------ -------- ----- --- ------ ----- --<br>----- ----- ---------- --- --- ------ ------ ---- -- ------<br>------- --- ------ ----- --- ---- ------- -- ---- --- --<br>------- ------,309476.42500000075,309475.3300000448,308998.419,309007.4699999532,309014.921,309481.489,,11,by
screen,html.Screen,2_1_1_1_12,2021-04-24T17:09:09.731Z,,,,,,,,,,,,,,,,,54,,,,,,,,,,,,,,487.60100002778927,,response,,,,100,,,,,,,Space,keypress(Space),,,,,,,,-- --- ---- --- ------ ----- ------- ---- -- --- ------- --<br>issuing ---------- ------ -- ----- -- ----- -- ---- ------<br>--- ----- --- --- ------ -------- ----- --- ------ ----- --<br>----- ----- ---------- --- --- ------ ------ ---- -- ------<br>------- --- ------ ----- --- ---- ------- -- ---- --- --<br>------- ------,309970.0550000416,309969.0900000278,309465,309476.65500000585,309481.489,309981.527,,12,issuing
screen,html.Screen,2_1_1_1_13,2021-04-24T17:09:10.274Z,,,,,,,,,,,,,,,,,54,,,,,,,,,,,,,,529.7179999432992,,response,,,,100,,,,,,,Space,keypress(Space),,,,,,,,-- --- ---- --- ------ ----- ------- ---- -- --- ------- --<br>------- government ------ -- ----- -- ----- -- ---- ------<br>--- ----- --- --- ------ -------- ----- --- ------ ----- --<br>----- ----- ---------- --- --- ------ ------ ---- -- ------<br>------- --- ------ ----- --- ---- ------- -- ---- --- --<br>------- ------,310512.3700000113,310511.2449999433,309964.863,309970.2899999684,309981.527,310514.604,,13,government
screen,html.Screen,2_1_1_1_14,2021-04-24T17:09:11.383Z,,,,,,,,,,,,,,,,,54,,,,,,,,,,,,,,1106.3409999732976,,response,,,,100,,,,,,,Space,keypress(Space),,,,,,,,-- --- ---- --- ------ ----- ------- ---- -- --- ------- --<br>------- ---------- bonds. -- ----- -- ----- -- ---- ------<br>--- ----- --- --- ------ -------- ----- --- ------ ----- --<br>----- ----- ---------- --- --- ------ ------ ---- -- ------<br>------- --- ------ ----- --- ---- ------- -- ---- --- --<br>------- ------,311622.05999996513,311620.9449999733,310498.1,310512.63499993365,310514.604,311630.969,,14,bonds.
screen,html.Screen,2_1_1_1_15,2021-04-24T17:09:12.187Z,,,,,,,,,,,,,,,,,54,,,,,,,,,,,,,,793.7459999719285,,response,,,,100,,,,,,,Space,keypress(Space),,,,,,,,-- --- ---- --- ------ ----- ------- ---- -- --- ------- --<br>------- ---------- ------ In ----- -- ----- -- ---- ------<br>--- ----- --- --- ------ -------- ----- --- ------ ----- --<br>----- ----- ---------- --- --- ------ ------ ---- -- ------<br>------- --- ------ ----- --- ---- ------- -- ---- --- --<br>------- ------,312425.9150000289,312424.7149999719,311614.531,311622.2800000105,311630.969,312430.842,,15,In
screen,html.Screen,2_1_1_1_16,2021-04-24T17:09:13.238Z,,,,,,,,,,,,,,,,,54,,,,,,,,,,,,,,1045.4979999355855,,response,,,,100,,,,,,,Space,keypress(Space),,,,,,,,"-- --- ---- --- ------ ----- ------- ---- -- --- ------- --<br>------- ---------- ------ -- 1727, -- ----- -- ---- ------<br>--- ----- --- --- ------ -------- ----- --- ------ ----- --<br>----- ----- ---------- --- --- ------ ------ ---- -- ------<br>------- --- ------ ----- --- ---- ------- -- ---- --- --<br>------- ------",313477.1699999692,313476.3399999356,312414.271,312426.145000034,312430.842,313480.505,,16,"1727,"
screen,html.Screen,2_1_1_1_17,2021-04-24T17:09:14.540Z,,,,,,,,,,,,,,,,,54,,,,,,,,,,,,,,1297.879999954137,,response,,,,100,,,,,,,Space,keypress(Space),,,,,,,,-- --- ---- --- ------ ----- ------- ---- -- --- ------- --<br>------- ---------- ------ -- ----- in ----- -- ---- ------<br>--- ----- --- --- ------ -------- ----- --- ------ ----- --<br>----- ----- ---------- --- --- ------ ------ ---- -- ------<br>------- --- ------ ----- --- ---- ------- -- ---- --- --<br>------- ------,314779.2950000148,314778.38499995414,313464.042,313477.40500001237,313480.505,314796.978,,17,in
screen,html.Screen,2_1_1_1_18,2021-04-24T17:09:15.124Z,,,,,,,,,,,,,,,,,54,,,,,,,,,,,,,,564.3769999427022,,response,,,,100,,,,,,,Space,keypress(Space),,,,,,,,-- --- ---- --- ------ ----- ------- ---- -- --- ------- --<br>------- ---------- ------ -- ----- -- order -- ---- ------<br>--- ----- --- --- ------ -------- ----- --- ------ ----- --<br>----- ----- ---------- --- --- ------ ------ ---- -- ------<br>------- --- ------ ----- --- ---- ------- -- ---- --- --<br>------- ------,315362.4200000195,315361.3549999427,314763.728,314779.499999946,314796.978,315380.158,,18,order
screen,html.Screen,2_1_1_1_19,2021-04-24T17:09:15.548Z,,,,,,,,,,,,,,,,,54,,,,,,,,,,,,,,405.8670000376296,,response,,,,100,,,,,,,Space,keypress(Space),,,,,,,,-- --- ---- --- ------ ----- ------- ---- -- --- ------- --<br>------- ---------- ------ -- ----- -- ----- to ---- ------<br>--- ----- --- --- ------ -------- ----- --- ------ ----- --<br>----- ----- ---------- --- --- ------ ------ ---- -- ------<br>------- --- ------ ----- --- ---- ------- -- ---- --- --<br>------- ------,315787.0699999621,315786.0250000376,315346.863,315362.69999993965,315380.158,315796.642,,19,to
screen,html.Screen,2_1_1_1_20,2021-04-24T17:09:16.122Z,,,,,,,,,,,,,,,,,54,,,,,,,,,,,,,,563.3780000219122,,response,,,,100,,,,,,,Space,keypress(Space),,,,,,,,-- --- ---- --- ------ ----- ------- ---- -- --- ------- --<br>------- ---------- ------ -- ----- -- ----- -- save ------<br>--- ----- --- --- ------ -------- ----- --- ------ ----- --<br>----- ----- ---------- --- --- ------ ------ ---- -- ------<br>------- --- ------ ----- --- ---- ------- -- ---- --- --<br>------- ------,316361.25499999616,316360.0200000219,315779.942,315787.2999999672,315796.642,316363.18,,20,save
screen,html.Screen,2_1_1_1_21,2021-04-24T17:09:16.733Z,,,,,,,,,,,,,,,,,54,,,,,,,,,,,,,,607.270000022545,,response,,,,100,,,,,,,Space,keypress(Space),,,,,,,,"-- --- ---- --- ------ ----- ------- ---- -- --- ------- --<br>------- ---------- ------ -- ----- -- ----- -- ---- money,<br>--- ----- --- --- ------ -------- ----- --- ------ ----- --<br>----- ----- ---------- --- --- ------ ------ ---- -- ------<br>------- --- ------ ----- --- ---- ------- -- ---- --- --<br>------- ------",316971.53999994043,316970.45000002254,316346.752,316361.47500004154,316363.18,316979.682,,21,"money,"
screen,html.Screen,2_1_1_1_22,2021-04-24T17:09:17.582Z,,,,,,,,,,,,,,,,,54,,,,,,,,,,,,,,840.6129999831901,,response,,,,100,,,,,,,Space,keypress(Space),,,,,,,,-- --- ---- --- ------ ----- ------- ---- -- --- ------- --<br>------- ---------- ------ -- ----- -- ----- -- ---- ------<br>the ----- --- --- ------ -------- ----- --- ------ ----- --<br>----- ----- ---------- --- --- ------ ------ ---- -- ------<br>------- --- ------ ----- --- ---- ------- -- ---- --- --<br>------- ------,317821.35500002187,317820.29499998316,316963.077,316971.7599999858,316979.682,317829.473,,22,the
screen,html.Screen,2_1_1_1_23,2021-04-24T17:09:18.056Z,,,,,,,,,,,,,,,,,54,,,,,,,,,,,,,,464.1069999395404,,response,,,,100,,,,,,,Space,keypress(Space),,,,,,,,-- --- ---- --- ------ ----- ------- ---- -- --- ------- --<br>------- ---------- ------ -- ----- -- ----- -- ---- ------<br>--- state --- --- ------ -------- ----- --- ------ ----- --<br>----- ----- ---------- --- --- ------ ------ ---- -- ------<br>------- --- ------ ----- --- ---- ------- -- ---- --- --<br>------- ------,318294.6300000185,318293.57999993954,317812.949,317821.5799999889,317829.473,318319.395,,23,state
screen,html.Screen,2_1_1_1_24,2021-04-24T17:09:18.483Z,,,,,,,,,,,,,,,,,54,,,,,,,,,,,,,,401.2499999939464,,response,,,,100,,,,,,,Space,keypress(Space),,,,,,,,-- --- ---- --- ------ ----- ------- ---- -- --- ------- --<br>------- ---------- ------ -- ----- -- ----- -- ---- ------<br>--- ----- cut --- ------ -------- ----- --- ------ ----- --<br>----- ----- ---------- --- --- ------ ------ ---- -- ------<br>------- --- ------ ----- --- ---- ------- -- ---- --- --<br>------- ------,318721.669999999,318720.64499999397,318279.37,318294.8499999475,318319.395,318729.215,,24,cut
screen,html.Screen,2_1_1_1_25,2021-04-24T17:09:18.900Z,,,,,,,,,,,,,,,,,54,,,,,,,,,,,,,,408.34000002295943,,response,,,,100,,,,,,,Space,keypress(Space),,,,,,,,-- --- ---- --- ------ ----- ------- ---- -- --- ------- --<br>------- ---------- ------ -- ----- -- ----- -- ---- ------<br>--- ----- --- the ------ -------- ----- --- ------ ----- --<br>----- ----- ---------- --- --- ------ ------ ---- -- ------<br>------- --- ------ ----- --- ---- ------- -- ---- --- --<br>------- ------,319138.64999997895,319137.555000023,318712.709,318721.8799999682,318729.215,319145.778,,25,the
screen,html.Screen,2_1_1_1_26,2021-04-24T17:09:19.355Z,,,,,,,,,,,,,,,,,54,,,,,,,,,,,,,,447.72199995903065,,response,,,,100,,,,,,,Space,keypress(Space),,,,,,,,-- --- ---- --- ------ ----- ------- ---- -- --- ------- --<br>------- ---------- ------ -- ----- -- ----- -- ---- ------<br>--- ----- --- --- bonds' -------- ----- --- ------ ----- --<br>----- ----- ---------- --- --- ------ ------ ---- -- ------<br>------- --- ------ ----- --- ---- ------- -- ---- --- --<br>------- ------,319594.1449999809,319593.499999959,319129.258,319138.8850000221,319145.778,319595.666,,26,bonds'
screen,html.Screen,2_1_1_1_27,2021-04-24T17:09:19.892Z,,,,,,,,,,,,,,,,,54,,,,,,,,,,,,,,534.3939999958384,,response,,,,100,,,,,,,Space,keypress(Space),,,,,,,,-- --- ---- --- ------ ----- ------- ---- -- --- ------- --<br>------- ---------- ------ -- ----- -- ----- -- ---- ------<br>--- ----- --- --- ------ interest ----- --- ------ ----- --<br>----- ----- ---------- --- --- ------ ------ ---- -- ------<br>------- --- ------ ----- --- ---- ------- -- ---- --- --<br>------- ------,320131.04500004556,320130.05999999586,319579.198,319594.24999996554,319595.666,320145.72,,27,interest
screen,html.Screen,2_1_1_1_28,2021-04-24T17:09:20.580Z,,,,,,,,,,,,,,,,,54,,,,,,,,,,,,,,671.9149999849033,,response,,,,100,,,,,,,Space,keypress(Space),,,,,,,,-- --- ---- --- ------ ----- ------- ---- -- --- ------- --<br>------- ---------- ------ -- ----- -- ----- -- ---- ------<br>--- ----- --- --- ------ -------- rate. --- ------ ----- --<br>----- ----- ---------- --- --- ------ ------ ---- -- ------<br>------- --- ------ ----- --- ---- ------- -- ---- --- --<br>------- ------,320818.56000004336,320817.6349999849,320129.004,320131.28999993205,320145.72,320828.845,,28,rate.
screen,html.Screen,2_1_1_1_29,2021-04-24T17:09:21.040Z,,,,,,,,,,,,,,,,,54,,,,,,,,,,,,,,448.95500003988855,,response,,,,100,,,,,,,Space,keypress(Space),,,,,,,,-- --- ---- --- ------ ----- ------- ---- -- --- ------- --<br>------- ---------- ------ -- ----- -- ----- -- ---- ------<br>--- ----- --- --- ------ -------- ----- The ------ ----- --<br>----- ----- ---------- --- --- ------ ------ ---- -- ------<br>------- --- ------ ----- --- ---- ------- -- ---- --- --<br>------- ------,321278.8949999958,321277.80000003986,320812.192,320818.71499994304,320828.845,321295.359,,29,The
screen,html.Screen,2_1_1_1_30,2021-04-24T17:09:21.931Z,,,,,,,,,,,,,,,,,54,,,,,,,,,,,,,,873.7960000105086,,response,,,,100,,,,,,,Space,keypress(Space),,,,,,,,-- --- ---- --- ------ ----- ------- ---- -- --- ------- --<br>------- ---------- ------ -- ----- -- ----- -- ---- ------<br>--- ----- --- --- ------ -------- ----- --- market ----- --<br>----- ----- ---------- --- --- ------ ------ ---- -- ------<br>------- --- ------ ----- --- ---- ------- -- ---- --- --<br>------- ------,322170.23499996867,322169.1550000105,321278.786,321279.12500000093,321295.359,322178.411,,30,market
screen,html.Screen,2_1_1_1_31,2021-04-24T17:09:22.569Z,,,,,,,,,,,,,,,,,54,,,,,,,,,,,,,,628.0439999544178,,response,,,,100,,,,,,,Space,keypress(Space),,,,,,,,-- --- ---- --- ------ ----- ------- ---- -- --- ------- --<br>------- ---------- ------ -- ----- -- ----- -- ---- ------<br>--- ----- --- --- ------ -------- ----- --- ------ value --<br>----- ----- ---------- --- --- ------ ------ ---- -- ------<br>------- --- ------ ----- --- ---- ------- -- ---- --- --<br>------- ------,322807.3849999346,322806.45499995444,322161.908,322170.4649999738,322178.411,322811.54,,31,value
screen,html.Screen,2_1_1_1_32,2021-04-24T17:09:23.151Z,,,,,,,,,,,,,,,,,54,,,,,,,,,,,,,,577.5699999891804,,response,,,,100,,,,,,,Space,keypress(Space),,,,,,,,-- --- ---- --- ------ ----- ------- ---- -- --- ------- --<br>------- ---------- ------ -- ----- -- ----- -- ---- ------<br>--- ----- --- --- ------ -------- ----- --- ------ ----- of<br>----- ----- ---------- --- --- ------ ------ ---- -- ------<br>------- --- ------ ----- --- ---- ------- -- ---- --- --<br>------- ------,323390.18500002567,323389.10999998916,322795.055,322807.6149999397,322811.54,323394.726,,32,of
screen,html.Screen,2_1_1_1_33,2021-04-24T17:09:23.785Z,,,,,,,,,,,,,,,,,54,,,,,,,,,,,,,,628.0890000329819,,response,,,,100,,,,,,,Space,keypress(Space),,,,,,,,-- --- ---- --- ------ ----- ------- ---- -- --- ------- --<br>------- ---------- ------ -- ----- -- ----- -- ---- ------<br>--- ----- --- --- ------ -------- ----- --- ------ ----- --<br>these ----- ---------- --- --- ------ ------ ---- -- ------<br>------- --- ------ ----- --- ---- ------- -- ---- --- --<br>------- ------,324023.85500003584,324022.815000033,323378.224,323390.4150000308,323394.726,324027.889,,33,these
screen,html.Screen,2_1_1_1_34,2021-04-24T17:09:24.487Z,,,,,,,,,,,,,,,,,54,,,,,,,,,,,,,,697.3010000264621,,response,,,,100,,,,,,,Space,keypress(Space),,,,,,,,-- --- ---- --- ------ ----- ------- ---- -- --- ------- --<br>------- ---------- ------ -- ----- -- ----- -- ---- ------<br>--- ----- --- --- ------ -------- ----- --- ------ ----- --<br>----- bonds ---------- --- --- ------ ------ ---- -- ------<br>------- --- ------ ----- --- ---- ------- -- ---- --- --<br>------- ------,324725.7850000169,324725.1900000265,324011.342,324024.1099999985,324027.889,324727.717,,34,bonds
screen,html.Screen,2_1_1_1_35,2021-04-24T17:09:24.980Z,,,,,,,,,,,,,,,,,54,,,,,,,,,,,,,,489.6529999693739,,response,,,,100,,,,,,,Space,keypress(Space),,,,,,,,"-- --- ---- --- ------ ----- ------- ---- -- --- ------- --<br>------- ---------- ------ -- ----- -- ----- -- ---- ------<br>--- ----- --- --- ------ -------- ----- --- ------ ----- --<br>----- ----- plummeted, --- --- ------ ------ ---- -- ------<br>------- --- ------ ----- --- ---- ------- -- ---- --- --<br>------- ------",325218.42499997,325217.3699999694,324711.277,324725.9250000352,324727.717,325227.674,,35,"plummeted,"
screen,html.Screen,2_1_1_1_36,2021-04-24T17:09:25.374Z,,,,,,,,,,,,,,,,,54,,,,,,,,,,,,,,383.88099995220546,,response,,,,100,,,,,,,Space,keypress(Space),,,,,,,,-- --- ---- --- ------ ----- ------- ---- -- --- ------- --<br>------- ---------- ------ -- ----- -- ----- -- ---- ------<br>--- ----- --- --- ------ -------- ----- --- ------ ----- --<br>----- ----- ---------- and --- ------ ------ ---- -- ------<br>------- --- ------ ----- --- ---- ------- -- ---- --- --<br>------- ------,325612.5900000334,325611.5549999522,325211.093,325218.6600000132,325227.674,325627.679,,36,and
screen,html.Screen,2_1_1_1_37,2021-04-24T17:09:25.746Z,,,,,,,,,,,,,,,,,54,,,,,,,,,,,,,,355.75100002205,,response,,,,100,,,,,,,Space,keypress(Space),,,,,,,,-- --- ---- --- ------ ----- ------- ---- -- --- ------- --<br>------- ---------- ------ -- ----- -- ----- -- ---- ------<br>--- ----- --- --- ------ -------- ----- --- ------ ----- --<br>----- ----- ---------- --- the ------ ------ ---- -- ------<br>------- --- ------ ----- --- ---- ------- -- ---- --- --<br>------- ------,325984.4100000337,325983.43000002205,325610.999,325612.80999996234,325627.679,325994.156,,37,the
screen,html.Screen,2_1_1_1_38,2021-04-24T17:09:26.112Z,,,,,,,,,,,,,,,,,54,,,,,,,,,,,,,,355.83899993862724,,response,,,,100,,,,,,,Space,keypress(Space),,,,,,,,-- --- ---- --- ------ ----- ------- ---- -- --- ------- --<br>------- ---------- ------ -- ----- -- ----- -- ---- ------<br>--- ----- --- --- ------ -------- ----- --- ------ ----- --<br>----- ----- ---------- --- --- market ------ ---- -- ------<br>------- --- ------ ----- --- ---- ------- -- ---- --- --<br>------- ------,326351.0349999415,326349.99499993864,325977.607,325984.6400000388,325994.156,326360.751,,38,market
screen,html.Screen,2_1_1_1_39,2021-04-24T17:09:26.592Z,,,,,,,,,,,,,,,,,54,,,,,,,,,,,,,,469.57900002616225,,response,,,,100,,,,,,,Space,keypress(Space),,,,,,,,-- --- ---- --- ------ ----- ------- ---- -- --- ------- --<br>------- ---------- ------ -- ----- -- ----- -- ---- ------<br>--- ----- --- --- ------ -------- ----- --- ------ ----- --<br>----- ----- ---------- --- --- ------ became ---- -- ------<br>------- --- ------ ----- --- ---- ------- -- ---- --- --<br>------- ------,326831.1049999902,326830.33000002615,326344.159,326351.2600000249,326360.751,326844.015,,39,became
screen,html.Screen,2_1_1_1_40,2021-04-24T17:09:26.928Z,,,,,,,,,,,,,,,,,54,,,,,,,,,,,,,,321.8449999500299,,response,,,,100,,,,,,,Space,keypress(Space),,,,,,,,-- --- ---- --- ------ ----- ------- ---- -- --- ------- --<br>------- ---------- ------ -- ----- -- ----- -- ---- ------<br>--- ----- --- --- ------ -------- ----- --- ------ ----- --<br>----- ----- ---------- --- --- ------ ------ wary -- ------<br>------- --- ------ ----- --- ---- ------- -- ---- --- --<br>------- ------,327166.90499999095,327165.85999995004,326827.402,326831.2549999682,326844.015,327177.215,,40,wary
screen,html.Screen,2_1_1_1_41,2021-04-24T17:09:27.383Z,,,,,,,,,,,,,,,,,54,,,,,,,,,,,,,,443.4750000106287,,response,,,,100,,,,,,,Space,keypress(Space),,,,,,,,-- --- ---- --- ------ ----- ------- ---- -- --- ------- --<br>------- ---------- ------ -- ----- -- ----- -- ---- ------<br>--- ----- --- --- ------ -------- ----- --- ------ ----- --<br>----- ----- ---------- --- --- ------ ------ ---- of ------<br>------- --- ------ ----- --- ---- ------- -- ---- --- --<br>------- ------,327621.8349999981,327620.69000001065,327160.551,327167.1400000341,327177.215,327627.055,,41,of
screen,html.Screen,2_1_1_1_42,2021-04-24T17:09:27.835Z,,,,,,,,,,,,,,,,,54,,,,,,,,,,,,,,443.51499998167856,,response,,,,100,,,,,,,Space,keypress(Space),,,,,,,,-- --- ---- --- ------ ----- ------- ---- -- --- ------- --<br>------- ---------- ------ -- ----- -- ----- -- ---- ------<br>--- ----- --- --- ------ -------- ----- --- ------ ----- --<br>----- ----- ---------- --- --- ------ ------ ---- -- French<br>------- --- ------ ----- --- ---- ------- -- ---- --- --<br>------- ------,328073.51000001654,328070.5699999817,327610.504,327622.0650000032,327627.055,328076.968,,42,French
screen,html.Screen,2_1_1_1_43,2021-04-24T17:09:28.513Z,,,,,,,,,,,,,,,,,54,,,,,,,,,,,,,,673.8120000021299,,response,,,,100,,,,,,,Space,keypress(Space),,,,,,,,-- --- ---- --- ------ ----- ------- ---- -- --- ------- --<br>------- ---------- ------ -- ----- -- ----- -- ---- ------<br>--- ----- --- --- ------ -------- ----- --- ------ ----- --<br>----- ----- ---------- --- --- ------ ------ ---- -- ------<br>credit. --- ------ ----- --- ---- ------- -- ---- --- --<br>------- ------,328751.9199999515,328750.7800000021,328060.431,328073.7299999455,328076.968,328760.129,,43,credit.
screen,html.Screen,2_1_1_1_44,2021-04-24T17:09:28.913Z,,,,,,,,,,,,,,,,,54,,,,,,,,,,,,,,390.6759999829228,,response,,,,100,,,,,,,Space,keypress(Space),,,,,,,,-- --- ---- --- ------ ----- ------- ---- -- --- ------- --<br>------- ---------- ------ -- ----- -- ----- -- ---- ------<br>--- ----- --- --- ------ -------- ----- --- ------ ----- --<br>----- ----- ---------- --- --- ------ ------ ---- -- ------<br>------- The ------ ----- --- ---- ------- -- ---- --- --<br>------- ------,329151.82000002824,329150.80499998294,328743.582,328752.17500003055,328760.129,329160.006,,44,The
screen,html.Screen,2_1_1_1_45,2021-04-24T17:09:29.570Z,,,,,,,,,,,,,,,,,54,,,,,,,,,,,,,,647.5089999931515,,response,,,,100,,,,,,,Space,keypress(Space),,,,,,,,-- --- ---- --- ------ ----- ------- ---- -- --- ------- --<br>------- ---------- ------ -- ----- -- ----- -- ---- ------<br>--- ----- --- --- ------ -------- ----- --- ------ ----- --<br>----- ----- ---------- --- --- ------ ------ ---- -- ------<br>------- --- French ----- --- ---- ------- -- ---- --- --<br>------- ------,329808.5699999938,329807.51499999315,329143.445,329152.03500003554,329160.006,329837.935,,45,French
screen,html.Screen,2_1_1_1_46,2021-04-24T17:09:30.156Z,,,,,,,,,,,,,,,,,54,,,,,,,,,,,,,,555.7099999455386,,response,,,,100,,,,,,,Space,keypress(Space),,,,,,,,-- --- ---- --- ------ ----- ------- ---- -- --- ------- --<br>------- ---------- ------ -- ----- -- ----- -- ---- ------<br>--- ----- --- --- ------ -------- ----- --- ------ ----- --<br>----- ----- ---------- --- --- ------ ------ ---- -- ------<br>------- --- ------ state --- ---- ------- -- ---- --- --<br>------- ------,330394.7850000113,330393.64499994554,329793.262,329808.7999999989,329837.935,330409.799,,46,state
screen,html.Screen,2_1_1_1_47,2021-04-24T17:09:30.704Z,,,,,,,,,,,,,,,,,54,,,,,,,,,,,,,,532.4709999995539,,response,,,,100,,,,,,,Space,keypress(Space),,,,,,,,-- --- ---- --- ------ ----- ------- ---- -- --- ------- --<br>------- ---------- ------ -- ----- -- ----- -- ---- ------<br>--- ----- --- --- ------ -------- ----- --- ------ ----- --<br>----- ----- ---------- --- --- ------ ------ ---- -- ------<br>------- --- ------ ----- was ---- ------- -- ---- --- --<br>------- ------,330942.90000002366,330942.26999999955,330393.058,330395.03000001423,330409.799,330959.618,,47,was
screen,html.Screen,2_1_1_1_48,2021-04-24T17:09:31.191Z,,,,,,,,,,,,,,,,,54,,,,,,,,,,,,,,468.93199995323084,,response,,,,100,,,,,,,Space,keypress(Space),,,,,,,,-- --- ---- --- ------ ----- ------- ---- -- --- ------- --<br>------- ---------- ------ -- ----- -- ----- -- ---- ------<br>--- ----- --- --- ------ -------- ----- --- ------ ----- --<br>----- ----- ---------- --- --- ------ ------ ---- -- ------<br>------- --- ------ ----- --- left ------- -- ---- --- --<br>------- ------,331429.51499996707,331428.54999995325,330942.971,330943.00500000827,330959.618,331442.834,,48,left
screen,html.Screen,2_1_1_1_49,2021-04-24T17:09:31.688Z,,,,,,,,,,,,,,,,,54,,,,,,,,,,,,,,482.8810000194353,,response,,,,100,,,,,,,Space,keypress(Space),,,,,,,,-- --- ---- --- ------ ----- ------- ---- -- --- ------- --<br>------- ---------- ------ -- ----- -- ----- -- ---- ------<br>--- ----- --- --- ------ -------- ----- --- ------ ----- --<br>----- ----- ---------- --- --- ------ ------ ---- -- ------<br>------- --- ------ ----- --- ---- without -- ---- --- --<br>------- ------,331926.76499998197,331925.7150000194,331426.222,331429.7449999722,331442.834,331942.653,,49,without
screen,html.Screen,2_1_1_1_50,2021-04-24T17:09:32.152Z,,,,,,,,,,,,,,,,,54,,,,,,,,,,,,,,447.4969999919995,,response,,,,100,,,,,,,Space,keypress(Space),,,,,,,,-- --- ---- --- ------ ----- ------- ---- -- --- ------- --<br>------- ---------- ------ -- ----- -- ----- -- ---- ------<br>--- ----- --- --- ------ -------- ----- --- ------ ----- --<br>----- ----- ---------- --- --- ------ ------ ---- -- ------<br>------- --- ------ ----- --- ---- ------- an ---- --- --<br>------- ------,332391.2250000285,332390.149999992,331926.15,331927.00000002515,331942.653,332424.745,,50,an
screen,html.Screen,2_1_1_1_51,2021-04-24T17:09:32.639Z,,,,,,,,,,,,,,,,,54,,,,,,,,,,,,,,451.56000004161615,,response,,,,100,,,,,,,Space,keypress(Space),,,,,,,,-- --- ---- --- ------ ----- ------- ---- -- --- ------- --<br>------- ---------- ------ -- ----- -- ----- -- ---- ------<br>--- ----- --- --- ------ -------- ----- --- ------ ----- --<br>----- ----- ---------- --- --- ------ ------ ---- -- ------<br>------- --- ------ ----- --- ---- ------- -- easy --- --<br>------- ------,332877.4299999932,332876.3050000416,332375.939,332391.4550000336,332424.745,332892.445,,51,easy
screen,html.Screen,2_1_1_1_52,2021-04-24T17:09:33.113Z,,,,,,,,,,,,,,,,,54,,,,,,,,,,,,,,458.6300000132178,,response,,,,100,,,,,,,Space,keypress(Space),,,,,,,,-- --- ---- --- ------ ----- ------- ---- -- --- ------- --<br>------- ---------- ------ -- ----- -- ----- -- ---- ------<br>--- ----- --- --- ------ -------- ----- --- ------ ----- --<br>----- ----- ---------- --- --- ------ ------ ---- -- ------<br>------- --- ------ ----- --- ---- ------- -- ---- way --<br>------- ------,333352.0499999868,333351.0750000132,332875.907,332877.6849999558,332892.445,333358.955,,52,way
screen,html.Screen,2_1_1_1_53,2021-04-24T17:09:33.549Z,,,,,,,,,,,,,,,,,54,,,,,,,,,,,,,,427.7550000148476,,response,,,,100,,,,,,,Space,keypress(Space),,,,,,,,-- --- ---- --- ------ ----- ------- ---- -- --- ------- --<br>------- ---------- ------ -- ----- -- ----- -- ---- ------<br>--- ----- --- --- ------ -------- ----- --- ------ ----- --<br>----- ----- ---------- --- --- ------ ------ ---- -- ------<br>------- --- ------ ----- --- ---- ------- -- ---- --- of<br>------- ------,333787.7599999774,333786.71000001486,333342.335,333352.2899999516,333358.955,333792.22,,53,of
screen,html.Screen,2_1_1_1_54,2021-04-24T17:09:33.999Z,,,,,,,,,,,,,,,,,54,,,,,,,,,,,,,,444.4699999324512,,response,,,,100,,,,,,,Space,keypress(Space),,,,,,,,-- --- ---- --- ------ ----- ------- ---- -- --- ------- --<br>------- ---------- ------ -- ----- -- ----- -- ---- ------<br>--- ----- --- --- ------ -------- ----- --- ------ ----- --<br>----- ----- ---------- --- --- ------ ------ ---- -- ------<br>------- --- ------ ----- --- ---- ------- -- ---- --- --<br>raising ------,334237.72999993525,334236.6899999324,333775.643,333787.9899999825,333792.22,334242.086,,54,raising
screen,html.Screen,2_1_1_1_55,2021-04-24T17:09:34.988Z,,,,,,,,,,,,,,,,,54,,,,,,,,,,,,,,984.2340000161203,,response,,,,100,,,,,,,Space,keypress(Space),,,,,,,,-- --- ---- --- ------ ----- ------- ---- -- --- ------- --<br>------- ---------- ------ -- ----- -- ----- -- ---- ------<br>--- ----- --- --- ------ -------- ----- --- ------ ----- --<br>----- ----- ---------- --- --- ------ ------ ---- -- ------<br>------- --- ------ ----- --- ---- ------- -- ---- --- --<br>------- money.,335227.2949999897,335226.32000001613,334225.542,334237.94499994256,334242.086,335241.858,,55,money.
Item 100,flow.Loop,2_1_1_1,2021-04-24T17:09:34.989Z,,,,,,,,,,,,,,,,,,,,,,,,,,,,,,,31676.672000016144,,completion,,,,,F,,,,,,,,,,,silence,,,,,335227.7649999596,335226.32000001613,303533.15,303534.3400000129,303549.648,335241.858,,,
Question 1,html.Screen,2_1_1_2,2021-04-24T17:09:38.517Z,,,,,,,,,,,,,,,,,,,,,,,,,,,,true,TRUE,,3512.781999940984,,response,,,,100,F,,,,,,TRUE,click #choice-1,,,,silence,,,,,338755.5599999614,338754.639999941,335225.373,335227.9400000116,335241.858,338757.623,,,
Question 2,html.Screen,2_1_1_3,2021-04-24T17:09:42.281Z,,,,,,,,,,,,,,,,,,,,,,,,,,,,true,FALSE,,3761.176999961608,,response,,,,100,F,,,,,,FALSE,click #choice-2,,,,silence,,,,,342519.7850000113,342518.79999996163,338741.869,338755.7249999372,338757.623,342523.381,,,
Item 100,flow.Sequence,2_1_1,2021-04-24T17:09:42.281Z,,,,,,,,,,,,,,,,,,,,,,,,,,,,,,,48966.76299996162,,completion,,,,,,,,,,,,,,,,,,,,,342519.9749999447,342518.79999996163,293535.532,293542.44500002824,293552.037,342523.381,,,
End of Practice,html.Page,2_1_2,2021-04-24T17:09:46.083Z,,,,,,,,,,,,,,,,,,,,,,,,,,,,,,,3797.388999991177,,form submission,,,,,,,,,,,,,,,,,,,,,346321.5199999977,346320.7699999912,342506.777,342520.0649999315,342523.381,346322.438,,,
Practice,flow.Sequence,2_1,2021-04-24T17:09:46.083Z,,,,,,,,,,,,,,,,,,,,,,,,,,,,,,,112287.45499999117,,completion,,,,,,,,,,,,,,,,,,,,,346321.8900000211,346320.7699999912,234016.672,234030.03000002354,234033.315,346322.438,,,
Trap_instruction,html.Page,2_2_0,2021-04-24T17:09:50.210Z,,,,,,,,,,,,,,,,,,,,,,,,,,,,,,,4125.311999933852,,form submission,,,,,,,,,,,,,,,,,,,,,350448.46500002313,350447.7499999339,346305.959,346322.13999994565,346322.438,350488.086,,,
trap_trial,html.Screen,2_2_1,2021-04-24T17:09:58.881Z,,,,,,,,,,,,,,,,,,,,,,,,,,,,true,1,,8630.864000032772,,response,,,,,,,,,,,1,click #choice-1,,,,,,,,,359120.04499998875,359118.9500000328,350438.259,350448.6699999543,350488.086,359136.411,,,
end of trap trial,html.Page,2_2_2,2021-04-24T17:10:03.197Z,,,,,,,,,,,,,,,,,,,,,,,,,,,,,,,4299.6690000140225,,form submission,,,,,,,,,,,,,,,,,,,,,363436.63000001106,363436.08000001404,359119.42,359120.30499998946,359136.411,363451.643,,,
Trap 1,flow.Sequence,2_2,2021-04-24T17:10:03.198Z,,,,,,,,,,,,,,,,,,,,,,,,,,,,,,,17113.64200001402,,completion,,,,,,,,,,,,,,,,,,,,,363437.0199999539,363436.08000001404,346305.959,346322.060000035,346322.438,363451.643,,,
Standby,html.Page,2_3_0,2021-04-24T17:10:11.195Z,,,,,,,,,,,,,,,,,,,,,,,,,,,,,,,7998.010000000009,,timeout,,,,,,,,,,,,,,,,,,,,,371434.06500003766,371433.085,363418.42,363437.3749999795,363451.643,371449.653,,,
Holding screen,html.Screen,2_3_1_0_0,2021-04-24T17:10:18.193Z,,,,,,,,,,,,,,,,,,,,,,,,,,,,,,,6998.264000000025,,timeout,,,,,,,,,,,,,,,,,,,,,378432.3999999324,378431.393,371433.085,371434.4450000208,371449.653,378447.917,,,
screen,html.Screen,2_3_1_0_1_0,2021-04-24T17:10:19.615Z,,,,,,,,,,,,,,,,,48,,,,,,,,,,,,,,1405.3029999317368,,response,,,,10,F,,,,,,Space,keypress(Space),,,,instrumental,,,,As -- --- ------ ------- --------- ----------- --------<br>--------- -------- --- ------- -- ------- ---- -- ------<br>-- --- -------- -------- ---------- ---- ---- ---- ------<br>-- --------- -- ---- -- --- -- --- ------- -- - -----<br>---------- -- -- -- ---- ----- -- ------ -- --- ------<br>-------,379854.2250000173,379853.21999993175,378431.393,378432.7650000341,378447.917,379864.434,,0,As
screen,html.Screen,2_3_1_0_1_1,2021-04-24T17:10:20.102Z,,,,,,,,,,,,,,,,,48,,,,,,,,,,,,,,475.7159999454161,,response,,,,10,F,,,,,,Space,keypress(Space),,,,instrumental,,,,-- in --- ------ ------- --------- ----------- --------<br>--------- -------- --- ------- -- ------- ---- -- ------<br>-- --- -------- -------- ---------- ---- ---- ---- ------<br>-- --------- -- ---- -- --- -- --- ------- -- - -----<br>---------- -- -- -- ---- ----- -- ------ -- --- ------<br>-------,380341.2150000222,380340.1499999454,379847.808,379854.47999997996,379864.434,380347.445,,1,in
screen,html.Screen,2_3_1_0_1_2,2021-04-24T17:10:20.533Z,,,,,,,,,,,,,,,,,48,,,,,,,,,,,,,,424.22000000748085,,response,,,,10,F,,,,,,Space,keypress(Space),,,,instrumental,,,,-- -- the ------ ------- --------- ----------- --------<br>--------- -------- --- ------- -- ------- ---- -- ------<br>-- --- -------- -------- ---------- ---- ---- ---- ------<br>-- --------- -- ---- -- --- -- --- ------- -- - -----<br>---------- -- -- -- ---- ----- -- ------ -- --- ------<br>-------,380772.740000044,380771.6650000075,380330.949,380341.46499994677,380347.445,380780.702,,2,the
screen,html.Screen,2_3_1_0_1_3,2021-04-24T17:10:21.045Z,,,,,,,,,,,,,,,,,48,,,,,,,,,,,,,,502.94799999758834,,response,,,,10,F,,,,,,Space,keypress(Space),,,,instrumental,,,,-- -- --- United ------- --------- ----------- --------<br>--------- -------- --- ------- -- ------- ---- -- ------<br>-- --- -------- -------- ---------- ---- ---- ---- ------<br>-- --------- -- ---- -- --- -- --- ------- -- - -----<br>---------- -- -- -- ---- ----- -- ------ -- --- ------<br>-------,381284.7799999872,381283.6499999976,380764.1,380772.9849999305,380780.702,381297.315,,3,United
screen,html.Screen,2_3_1_0_1_4,2021-04-24T17:10:21.469Z,,,,,,,,,,,,,,,,,48,,,,,,,,,,,,,,409.8749999864376,,response,,,,10,F,,,,,,Space,keypress(Space),,,,instrumental,,,,"-- -- --- ------ States, --------- ----------- --------<br>--------- -------- --- ------- -- ------- ---- -- ------<br>-- --- -------- -------- ---------- ---- ---- ---- ------<br>-- --------- -- ---- -- --- -- --- ------- -- - -----<br>---------- -- -- -- ---- ----- -- ------ -- --- ------<br>-------",381708.2849999424,381707.18999998644,381280.721,381285.0300000282,381297.315,381713.766,,4,"States,"
screen,html.Screen,2_3_1_0_1_5,2021-04-24T17:10:22.266Z,,,,,,,,,,,,,,,,,48,,,,,,,,,,,,,,790.8139999497798,,response,,,,10,F,,,,,,Space,keypress(Space),,,,instrumental,,,,-- -- --- ------ ------- Colombian ----------- --------<br>--------- -------- --- ------- -- ------- ---- -- ------<br>-- --- -------- -------- ---------- ---- ---- ---- ------<br>-- --------- -- ---- -- --- -- --- ------- -- - -----<br>---------- -- -- -- ---- ----- -- ------ -- --- ------<br>-------,382505.8199999621,382504.5799999498,381697.232,381708.5599999409,381713.766,382513.608,,5,Colombian
screen,html.Screen,2_3_1_0_1_6,2021-04-24T17:10:22.793Z,,,,,,,,,,,,,,,,,48,,,,,,,,,,,,,,518.2720000240952,,response,,,,10,F,,,,,,Space,keypress(Space),,,,instrumental,,,,-- -- --- ------ ------- --------- legislation --------<br>--------- -------- --- ------- -- ------- ---- -- ------<br>-- --- -------- -------- ---------- ---- ---- ---- ------<br>-- --------- -- ---- -- --- -- --- ------- -- - -----<br>---------- -- -- -- ---- ----- -- ------ -- --- ------<br>-------,383032.8499999596,383031.8800000241,382497.063,382506.1599999899,382513.608,383046.88,,6,legislation
screen,html.Screen,2_3_1_0_1_7,2021-04-24T17:10:23.324Z,,,,,,,,,,,,,,,,,48,,,,,,,,,,,,,,515.0900000388501,,response,,,,10,F,,,,,,Space,keypress(Space),,,,instrumental,,,,-- -- --- ------ ------- --------- ----------- requires<br>--------- -------- --- ------- -- ------- ---- -- ------<br>-- --- -------- -------- ---------- ---- ---- ---- ------<br>-- --------- -- ---- -- --- -- --- ------- -- - -----<br>---------- -- -- -- ---- ----- -- ------ -- --- ------<br>-------,383563.0050000036,383561.97000003885,383030.227,383033.09000004083,383046.88,383580.06,,7,requires
screen,html.Screen,2_3_1_0_1_8,2021-04-24T17:10:24.130Z,,,,,,,,,,,,,,,,,48,,,,,,,,,,,,,,789.004999977129,,response,,,,10,F,,,,,,Space,keypress(Space),,,,instrumental,,,,-- -- --- ------ ------- --------- ----------- --------<br>travelers -------- --- ------- -- ------- ---- -- ------<br>-- --- -------- -------- ---------- ---- ---- ---- ------<br>-- --------- -- ---- -- --- -- --- ------- -- - -----<br>---------- -- -- -- ---- ----- -- ------ -- --- ------<br>-------,384369.9149999302,384369.0649999771,383563.453,383563.22999997064,383580.06,384379.831,,8,travelers
screen,html.Screen,2_3_1_0_1_9,2021-04-24T17:10:24.646Z,,,,,,,,,,,,,,,,,48,,,,,,,,,,,,,,504.0439999413211,,response,,,,10,F,,,,,,Space,keypress(Space),,,,instrumental,,,,-- -- --- ------ ------- --------- ----------- --------<br>--------- entering --- ------- -- ------- ---- -- ------<br>-- --- -------- -------- ---------- ---- ---- ---- ------<br>-- --------- -- ---- -- --- -- --- ------- -- - -----<br>---------- -- -- -- ---- ----- -- ------ -- --- ------<br>-------,384885.035000043,384883.8749999413,384363.291,384370.14000001363,384379.831,384896.428,,9,entering
screen,html.Screen,2_3_1_0_1_10,2021-04-24T17:10:25.124Z,,,,,,,,,,,,,,,,,48,,,,,,,,,,,,,,465.5970000385423,,response,,,,10,F,,,,,,Space,keypress(Space),,,,instrumental,,,,-- -- --- ------ ------- --------- ----------- --------<br>--------- -------- the ------- -- ------- ---- -- ------<br>-- --- -------- -------- ---------- ---- ---- ---- ------<br>-- --------- -- ---- -- --- -- --- ------- -- - -----<br>---------- -- -- -- ---- ----- -- ------ -- --- ------<br>-------,385363.18999994546,385362.02500003856,384879.821,384885.28499996755,384896.428,385379.717,,10,the
screen,html.Screen,2_3_1_0_1_11,2021-04-24T17:10:25.835Z,,,,,,,,,,,,,,,,,48,,,,,,,,,,,,,,693.5180000180262,,response,,,,10,F,,,,,,Space,keypress(Space),,,,instrumental,,,,-- -- --- ------ ------- --------- ----------- --------<br>--------- -------- --- country -- ------- ---- -- ------<br>-- --- -------- -------- ---------- ---- ---- ---- ------<br>-- --------- -- ---- -- --- -- --- ------- -- - -----<br>---------- -- -- -- ---- ----- -- ------ -- --- ------<br>-------,386074.4249999989,386073.23500001803,385362.909,385363.38999995496,385379.717,386079.359,,11,country
screen,html.Screen,2_3_1_0_1_12,2021-04-24T17:10:26.297Z,,,,,,,,,,,,,,,,,48,,,,,,,,,,,,,,455.6110000369954,,response,,,,10,F,,,,,,Space,keypress(Space),,,,instrumental,,,,-- -- --- ------ ------- --------- ----------- --------<br>--------- -------- --- ------- to ------- ---- -- ------<br>-- --- -------- -------- ---------- ---- ---- ---- ------<br>-- --------- -- ---- -- --- -- --- ------- -- - -----<br>---------- -- -- -- ---- ----- -- ------ -- --- ------<br>-------,386536.17500001565,386534.970000037,386062.925,386074.6700000018,386079.359,386545.972,,12,to
screen,html.Screen,2_3_1_0_1_13,2021-04-24T17:10:26.900Z,,,,,,,,,,,,,,,,,48,,,,,,,,,,,,,,592.4880000455887,,response,,,,10,F,,,,,,Space,keypress(Space),,,,instrumental,,,,-- -- --- ------ ------- --------- ----------- --------<br>--------- -------- --- ------- -- declare ---- -- ------<br>-- --- -------- -------- ---------- ---- ---- ---- ------<br>-- --------- -- ---- -- --- -- --- ------- -- - -----<br>---------- -- -- -- ---- ----- -- ------ -- --- ------<br>-------,387139.5499999635,387138.4600000456,386529.398,386536.4849999314,386545.972,387145.806,,13,declare
screen,html.Screen,2_3_1_0_1_14,2021-04-24T17:10:27.535Z,,,,,,,,,,,,,,,,,48,,,,,,,,,,,,,,627.4190000117524,,response,,,,10,F,,,,,,Space,keypress(Space),,,,instrumental,,,,-- -- --- ------ ------- --------- ----------- --------<br>--------- -------- --- ------- -- ------- cash -- ------<br>-- --- -------- -------- ---------- ---- ---- ---- ------<br>-- --------- -- ---- -- --- -- --- ------- -- - -----<br>---------- -- -- -- ---- ----- -- ------ -- --- ------<br>-------,387774.19000002556,387773.22500001173,387129.293,387139.7799999686,387145.806,387778.985,,14,cash
screen,html.Screen,2_3_1_0_1_15,2021-04-24T17:10:28.073Z,,,,,,,,,,,,,,,,,48,,,,,,,,,,,,,,532.03500002285,,response,,,,10,F,,,,,,Space,keypress(Space),,,,instrumental,,,,-- -- --- ------ ------- --------- ----------- --------<br>--------- -------- --- ------- -- ------- ---- in ------<br>-- --- -------- -------- ---------- ---- ---- ---- ------<br>-- --------- -- ---- -- --- -- --- ------- -- - -----<br>---------- -- -- -- ---- ----- -- ------ -- --- ------<br>-------,388312.1599999722,388311.02000002284,387762.458,387774.42000003066,387778.985,388328.95,,15,in
screen,html.Screen,2_3_1_0_1_16,2021-04-24T17:10:28.656Z,,,,,,,,,,,,,,,,,48,,,,,,,,,,,,,,565.5150000193971,,response,,,,10,F,,,,,,Space,keypress(Space),,,,instrumental,,,,-- -- --- ------ ------- --------- ----------- --------<br>--------- -------- --- ------- -- ------- ---- -- excess<br>-- --- -------- -------- ---------- ---- ---- ---- ------<br>-- --------- -- ---- -- --- -- --- ------- -- - -----<br>---------- -- -- -- ---- ----- -- ------ -- --- ------<br>-------,388895.66499996,388894.4650000194,388312.302,388312.4049999751,388328.95,388912.182,,16,excess
screen,html.Screen,2_3_1_0_1_17,2021-04-24T17:10:29.183Z,,,,,,,,,,,,,,,,,48,,,,,,,,,,,,,,509.3829999678419,,response,,,,10,F,,,,,,Space,keypress(Space),,,,instrumental,,,,-- -- --- ------ ------- --------- ----------- --------<br>--------- -------- --- ------- -- ------- ---- -- ------<br>of --- -------- -------- ---------- ---- ---- ---- ------<br>-- --------- -- ---- -- --- -- --- ------- -- - -----<br>---------- -- -- -- ---- ----- -- ------ -- --- ------<br>-------,389422.1400000388,389421.5649999678,388895.522,388895.91500000097,388912.182,389428.571,,17,of
screen,html.Screen,2_3_1_0_1_18,2021-04-24T17:10:29.786Z,,,,,,,,,,,,,,,,,48,,,,,,,,,,,,,,595.9739999347366,,response,,,,10,F,,,,,,Space,keypress(Space),,,,instrumental,,,,-- -- --- ------ ------- --------- ----------- --------<br>--------- -------- --- ------- -- ------- ---- -- ------<br>-- ten -------- -------- ---------- ---- ---- ---- ------<br>-- --------- -- ---- -- --- -- --- ------- -- - -----<br>---------- -- -- -- ---- ----- -- ------ -- --- ------<br>-------,390025.6850000005,390024.54499993473,389411.98,389422.27999994066,389428.571,390028.455,,18,ten
screen,html.Screen,2_3_1_0_1_19,2021-04-24T17:10:30.483Z,,,,,,,,,,,,,,,,,48,,,,,,,,,,,,,,693.329999943322,,response,,,,10,F,,,,,,Space,keypress(Space),,,,instrumental,,,,-- -- --- ------ ------- --------- ----------- --------<br>--------- -------- --- ------- -- ------- ---- -- ------<br>-- --- thousand -------- ---------- ---- ---- ---- ------<br>-- --------- -- ---- -- --- -- --- ------- -- - -----<br>---------- -- -- -- ---- ----- -- ------ -- --- ------<br>-------,390722.8950000135,390721.78499994334,390011.859,390025.95499996096,390028.455,390728.273,,19,thousand
screen,html.Screen,2_3_1_0_1_20,2021-04-24T17:10:31.057Z,,,,,,,,,,,,,,,,,48,,,,,,,,,,,,,,567.2420000052662,,response,,,,10,F,,,,,,Space,keypress(Space),,,,instrumental,,,,-- -- --- ------ ------- --------- ----------- --------<br>--------- -------- --- ------- -- ------- ---- -- ------<br>-- --- -------- dollars. ---------- ---- ---- ---- ------<br>-- --------- -- ---- -- --- -- --- ------- -- - -----<br>---------- -- -- -- ---- ----- -- ------ -- --- ------<br>-------,391296.88499995973,391295.51500000525,390711.705,390723.1100000208,390728.273,391311.601,,20,dollars.
screen,html.Screen,2_3_1_0_1_21,2021-04-24T17:10:31.682Z,,,,,,,,,,,,,,,,,48,,,,,,,,,,,,,,608.8889999312814,,response,,,,10,F,,,,,,Space,keypress(Space),,,,instrumental,,,,-- -- --- ------ ------- --------- ----------- --------<br>--------- -------- --- ------- -- ------- ---- -- ------<br>-- --- -------- -------- Concealing ---- ---- ---- ------<br>-- --------- -- ---- -- --- -- --- ------- -- - -----<br>---------- -- -- -- ---- ----- -- ------ -- --- ------<br>-------,391921.6749999905,391920.4899999313,391294.941,391297.12999996264,391311.601,391927.914,,21,Concealing
screen,html.Screen,2_3_1_0_1_22,2021-04-24T17:10:32.167Z,,,,,,,,,,,,,,,,,48,,,,,,,,,,,,,,477.09599998767953,,response,,,,10,F,,,,,,Space,keypress(Space),,,,instrumental,,,,-- -- --- ------ ------- --------- ----------- --------<br>--------- -------- --- ------- -- ------- ---- -- ------<br>-- --- -------- -------- ---------- more ---- ---- ------<br>-- --------- -- ---- -- --- -- --- ------- -- - -----<br>---------- -- -- -- ---- ----- -- ------ -- --- ------<br>-------,392406.17999993265,392405.00999998767,391911.511,391922.0300000161,391927.914,392411.132,,22,more
screen,html.Screen,2_3_1_0_1_23,2021-04-24T17:10:32.512Z,,,,,,,,,,,,,,,,,48,,,,,,,,,,,,,,339.7329999508802,,response,,,,10,F,,,,,,Space,keypress(Space),,,,instrumental,,,,-- -- --- ------ ------- --------- ----------- --------<br>--------- -------- --- ------- -- ------- ---- -- ------<br>-- --- -------- -------- ---------- ---- than ---- ------<br>-- --------- -- ---- -- --- -- --- ------- -- - -----<br>---------- -- -- -- ---- ----- -- ------ -- --- ------<br>-------,392751.89499999397,392750.86499995086,392394.593,392408.1249999581,392411.132,392761.107,,23,than
screen,html.Screen,2_3_1_0_1_24,2021-04-24T17:10:32.850Z,,,,,,,,,,,,,,,,,48,,,,,,,,,,,,,,327.73800002021017,,response,,,,10,F,,,,,,Space,keypress(Space),,,,instrumental,,,,-- -- --- ------ ------- --------- ----------- --------<br>--------- -------- --- ------- -- ------- ---- -- ------<br>-- --- -------- -------- ---------- ---- ---- that ------<br>-- --------- -- ---- -- --- -- --- ------- -- - -----<br>---------- -- -- -- ---- ----- -- ------ -- --- ------<br>-------,393089.90000002086,393088.8450000202,392744.489,392752.119999961,392761.107,393094.33,,24,that
screen,html.Screen,2_3_1_0_1_25,2021-04-24T17:10:33.281Z,,,,,,,,,,,,,,,,,48,,,,,,,,,,,,,,424.6549999733106,,response,,,,10,F,,,,,,Space,keypress(Space),,,,instrumental,,,,-- -- --- ------ ------- --------- ----------- --------<br>--------- -------- --- ------- -- ------- ---- -- ------<br>-- --- -------- -------- ---------- ---- ---- ---- amount<br>-- --------- -- ---- -- --- -- --- ------- -- - -----<br>---------- -- -- -- ---- ----- -- ------ -- --- ------<br>-------,393520.05499997176,393518.9849999733,393077.692,393090.1249999879,393094.33,393527.574,,25,amount
screen,html.Screen,2_3_1_0_1_26,2021-04-24T17:10:33.691Z,,,,,,,,,,,,,,,,,48,,,,,,,,,,,,,,402.18099993187934,,response,,,,10,F,,,,,,Space,keypress(Space),,,,instrumental,,,,-- -- --- ------ ------- --------- ----------- --------<br>--------- -------- --- ------- -- ------- ---- -- ------<br>-- --- -------- -------- ---------- ---- ---- ---- ------<br>to --------- -- ---- -- --- -- --- ------- -- - -----<br>---------- -- -- -- ---- ----- -- ------ -- --- ------<br>-------,393930.79499993473,393929.7549999319,393510.968,393520.30500001274,393527.574,393944.296,,26,to
screen,html.Screen,2_3_1_0_1_27,2021-04-24T17:10:34.233Z,,,,,,,,,,,,,,,,,48,,,,,,,,,,,,,,527.3490000414895,,response,,,,10,F,,,,,,Space,keypress(Space),,,,instrumental,,,,-- -- --- ------ ------- --------- ----------- --------<br>--------- -------- --- ------- -- ------- ---- -- ------<br>-- --- -------- -------- ---------- ---- ---- ---- ------<br>-- transport -- ---- -- --- -- --- ------- -- - -----<br>---------- -- -- -- ---- ----- -- ------ -- --- ------<br>-------,394472.8200000245,394471.64500004146,393927.606,393931.0149999801,393944.296,394477.347,,27,transport
screen,html.Screen,2_3_1_0_1_28,2021-04-24T17:10:34.649Z,,,,,,,,,,,,,,,,,48,,,,,,,,,,,,,,410.12299995782087,,response,,,,10,F,,,,,,Space,keypress(Space),,,,instrumental,,,,-- -- --- ------ ------- --------- ----------- --------<br>--------- -------- --- ------- -- ------- ---- -- ------<br>-- --- -------- -------- ---------- ---- ---- ---- ------<br>-- --------- it ---- -- --- -- --- ------- -- - -----<br>---------- -- -- -- ---- ----- -- ------ -- --- ------<br>-------,394888.1350000156,394887.46999995783,394460.824,394473.0399999535,394477.347,394893.902,,28,it
screen,html.Screen,2_3_1_0_1_29,2021-04-24T17:10:35.228Z,,,,,,,,,,,,,,,,,48,,,,,,,,,,,,,,572.7329999606591,,response,,,,10,F,,,,,,Space,keypress(Space),,,,instrumental,,,,-- -- --- ------ ------- --------- ----------- --------<br>--------- -------- --- ------- -- ------- ---- -- ------<br>-- --- -------- -------- ---------- ---- ---- ---- ------<br>-- --------- -- into -- --- -- --- ------- -- - -----<br>---------- -- -- -- ---- ----- -- ------ -- --- ------<br>-------,395467.7849999862,395466.63499996066,394877.343,394888.23499996215,394893.902,395477.104,,29,into
screen,html.Screen,2_3_1_0_1_30,2021-04-24T17:10:35.581Z,,,,,,,,,,,,,,,,,48,,,,,,,,,,,,,,342.0660000315984,,response,,,,10,F,,,,,,Space,keypress(Space),,,,instrumental,,,,-- -- --- ------ ------- --------- ----------- --------<br>--------- -------- --- ------- -- ------- ---- -- ------<br>-- --- -------- -------- ---------- ---- ---- ---- ------<br>-- --------- -- ---- or --- -- --- ------- -- - -----<br>---------- -- -- -- ---- ----- -- ------ -- --- ------<br>-------,395820.23499999195,395819.1700000316,395460.475,395468.0149999913,395477.104,395826.982,,30,or
screen,html.Screen,2_3_1_0_1_31,2021-04-24T17:10:36.001Z,,,,,,,,,,,,,,,,,48,,,,,,,,,,,,,,412.0029999453691,,response,,,,10,F,,,,,,Space,keypress(Space),,,,instrumental,,,,-- -- --- ------ ------- --------- ----------- --------<br>--------- -------- --- ------- -- ------- ---- -- ------<br>-- --- -------- -------- ---------- ---- ---- ---- ------<br>-- --------- -- ---- -- out -- --- ------- -- - -----<br>---------- -- -- -- ---- ----- -- ------ -- --- ------<br>-------,396240.11499993503,396238.9849999454,395810.456,395820.459999959,395826.982,396243.593,,31,out
screen,html.Screen,2_3_1_0_1_32,2021-04-24T17:10:36.314Z,,,,,,,,,,,,,,,,,48,,,,,,,,,,,,,,308.9669999819016,,response,,,,10,F,,,,,,Space,keypress(Space),,,,instrumental,,,,-- -- --- ------ ------- --------- ----------- --------<br>--------- -------- --- ------- -- ------- ---- -- ------<br>-- --- -------- -------- ---------- ---- ---- ---- ------<br>-- --------- -- ---- -- --- of --- ------- -- - -----<br>---------- -- -- -- ---- ----- -- ------ -- --- ------<br>-------,396553.740000003,396552.5599999819,396226.928,396240.3700000141,396243.593,396560.221,,32,of
screen,html.Screen,2_3_1_0_1_33,2021-04-24T17:10:36.671Z,,,,,,,,,,,,,,,,,48,,,,,,,,,,,,,,349.3589999777032,,response,,,,10,F,,,,,,Space,keypress(Space),,,,instrumental,,,,-- -- --- ------ ------- --------- ----------- --------<br>--------- -------- --- ------- -- ------- ---- -- ------<br>-- --- -------- -------- ---------- ---- ---- ---- ------<br>-- --------- -- ---- -- --- -- the ------- -- - -----<br>---------- -- -- -- ---- ----- -- ------ -- --- ------<br>-------,396910.5800000252,396909.5799999777,396543.599,396553.96499997005,396560.221,396926.859,,33,the
screen,html.Screen,2_3_1_0_1_34,2021-04-24T17:10:37.122Z,,,,,,,,,,,,,,,,,48,,,,,,,,,,,,,,433.1709999816376,,response,,,,10,F,,,,,,Space,keypress(Space),,,,instrumental,,,,-- -- --- ------ ------- --------- ----------- --------<br>--------- -------- --- ------- -- ------- ---- -- ------<br>-- --- -------- -------- ---------- ---- ---- ---- ------<br>-- --------- -- ---- -- --- -- --- country -- - -----<br>---------- -- -- -- ---- ----- -- ------ -- --- ------<br>-------,397361.18000000715,397360.02999998163,396910.164,396910.78999999445,396926.859,397376.714,,34,country
screen,html.Screen,2_3_1_0_1_35,2021-04-24T17:10:37.501Z,,,,,,,,,,,,,,,,,48,,,,,,,,,,,,,,362.90099996951176,,response,,,,10,F,,,,,,Space,keypress(Space),,,,instrumental,,,,-- -- --- ------ ------- --------- ----------- --------<br>--------- -------- --- ------- -- ------- ---- -- ------<br>-- --- -------- -------- ---------- ---- ---- ---- ------<br>-- --------- -- ---- -- --- -- --- ------- is - -----<br>---------- -- -- -- ---- ----- -- ------ -- --- ------<br>-------,397740.6000000192,397739.6149999695,397360.084,397361.42500001006,397376.714,397743.245,,35,is
screen,html.Screen,2_3_1_0_1_36,2021-04-24T17:10:37.906Z,,,,,,,,,,,,,,,,,48,,,,,,,,,,,,,,401.3600000377046,,response,,,,10,F,,,,,,Space,keypress(Space),,,,instrumental,,,,-- -- --- ------ ------- --------- ----------- --------<br>--------- -------- --- ------- -- ------- ---- -- ------<br>-- --- -------- -------- ---------- ---- ---- ---- ------<br>-- --------- -- ---- -- --- -- --- ------- -- a -----<br>---------- -- -- -- ---- ----- -- ------ -- --- ------<br>-------,398145.7599999849,398144.6050000377,397726.673,397740.8249999862,397743.245,398159.891,,36,a
screen,html.Screen,2_3_1_0_1_37,2021-04-24T17:10:38.372Z,,,,,,,,,,,,,,,,,48,,,,,,,,,,,,,,450.3089999955264,,response,,,,10,F,,,,,,Space,keypress(Space),,,,instrumental,,,,-- -- --- ------ ------- --------- ----------- --------<br>--------- -------- --- ------- -- ------- ---- -- ------<br>-- --- -------- -------- ---------- ---- ---- ---- ------<br>-- --------- -- ---- -- --- -- --- ------- -- - crime<br>---------- -- -- -- ---- ----- -- ------ -- --- ------<br>-------,398611.3749999786,398610.19999999553,398143.116,398145.9849999519,398159.891,398626.423,,37,crime
screen,html.Screen,2_3_1_0_1_38,2021-04-24T17:10:38.867Z,,,,,,,,,,,,,,,,,48,,,,,,,,,,,,,,478.46699995867675,,response,,,,10,F,,,,,,Space,keypress(Space),,,,instrumental,,,,-- -- --- ------ ------- --------- ----------- --------<br>--------- -------- --- ------- -- ------- ---- -- ------<br>-- --- -------- -------- ---------- ---- ---- ---- ------<br>-- --------- -- ---- -- --- -- --- ------- -- - -----<br>punishable -- -- -- ---- ----- -- ------ -- --- ------<br>-------,399106.1350000091,399104.8899999587,398609.808,398611.6349999793,398626.423,399109.516,,38,punishable
screen,html.Screen,2_3_1_0_1_39,2021-04-24T17:10:39.190Z,,,,,,,,,,,,,,,,,48,,,,,,,,,,,,,,319.5589999927324,,response,,,,10,F,,,,,,Space,keypress(Space),,,,instrumental,,,,-- -- --- ------ ------- --------- ----------- --------<br>--------- -------- --- ------- -- ------- ---- -- ------<br>-- --- -------- -------- ---------- ---- ---- ---- ------<br>-- --------- -- ---- -- --- -- --- ------- -- - -----<br>---------- by -- -- ---- ----- -- ------ -- --- ------<br>-------,399429.8049999634,399429.07499999274,399092.915,399106.41999996733,399109.516,399442.826,,39,by
screen,html.Screen,2_3_1_0_1_40,2021-04-24T17:10:39.608Z,,,,,,,,,,,,,,,,,48,,,,,,,,,,,,,,403.70399998070206,,response,,,,10,F,,,,,,Space,keypress(Space),,,,instrumental,,,,-- -- --- ------ ------- --------- ----------- --------<br>--------- -------- --- ------- -- ------- ---- -- ------<br>-- --- -------- -------- ---------- ---- ---- ---- ------<br>-- --------- -- ---- -- --- -- --- ------- -- - -----<br>---------- -- up -- ---- ----- -- ------ -- --- ------<br>-------,399847.6399999345,399846.5299999807,399426.227,399429.9399999436,399442.826,399859.325,,40,up
