sender,sender_type,sender_id,timestamp,meta,,Blues,Classical,Country,Dance,Electronic,Folk,Gospel,Hip-Hop,Jazz,Latin,Musical/Film,New-age,Pop,Prolific_id,Provo_ID,R&B,Rap,Reggae,Religious,Rock,Soul,Swing,Traditional,age,artist_name,correct,correctResponse,distraction,duration,education,ended_on,familiarity,gender,headphone_check_performance,item,list,music_frequency,offensiveness,pleasantness,position_correct,preference,response,response_action,snippet_file,song_name,song_rating,sound,stimulus_1,stimulus_2,stimulus_3,text,time_commit,time_end,time_render,time_run,time_show,time_switch,url,word,word_ID
Prolific ID,html.Form,0,2021-04-24T18:51:28.045Z,"{""labjs_version"":""20.2.2"",""labjs_build"":{""flavor"":""production"",""commit"":""a25486e0c714a0ae2ce03ff94b7bb6896854dcfa""},""location"":""https://run.pavlovia.org/mvasilev/prolific_music_e/"",""userAgent"":""Mozilla/5.0 (Windows NT 10.0; Win64; x64; rv:88.0) Gecko/20100101 Firefox/88.0"",""platform"":""Win32"",""language"":""en-GB"",""locale"":""en-GB"",""timeZone"":""Europe/London"",""timezoneOffset"":-60,""screen_width"":1600,""screen_height"":900,""scroll_width"":1600,""scroll_height"":738,""window_innerWidth"":1600,""window_innerHeight"":786,""devicePixelRatio"":1}",,,,,,,,,,,,,,,6082a94178849f80f38612fe,,,,,,,,,,,,,,,13222.239999999998,,form submission,,,,,,,,,,,,,,,,,,,,,49038,49036,35801.04,35801,35813.76,49045.42,{},,
Introduction,html.Screen,1_0,2021-04-24T18:51:38.828Z,,,,,,,,,,,,,,,,,,,,,,,,,,,,,,,10757.580000000002,,response,,,,,,,,,,,continue,click button,,,,,,,,,59821,59803,49028.76,49039,49045.42,59844.14,,,
Volume calibration,html.Screen,1_1,2021-04-24T18:52:14.660Z,,,,,,,,,,,,,,,,,,,,,,,,,,,,,,,35786.86,,response,,,,,,,,,,,continue,click button,,,,,,,,,95652,95631,59827.46,59822,59844.14,95673.1,,,
Task instructions,html.Screen,1_2,2021-04-24T18:52:26.169Z,,,,,,,,,,,,,,,,,,,,,,,,,,,,,,,11472.899999999994,,response,,,,,,,,,,,continue,click button,,,,,,,,,107161,107146,95656.5,95659,95673.1,107188.48,,,
Sounds,html.Screen,1_3_0_0,2021-04-24T18:52:30.433Z,,,,,,,,,,,,,,,,,,,,,,,,,,,,,,,4249.400000000009,,timeout,,,,,,,,,1,,,,,,,,S,O,I,,111426,111421.2,107171.8,107164,107188.48,111437.88,,,
Judgement,html.Screen,1_3_0_1,2021-04-24T18:52:31.943Z,,,,,,,,,,,,,,,,,,,,,,,,,,,,false,1,,1474.1199999999953,,response,,,,,,,,,1,,2,click #choice-2,,,,,S,O,I,,112936,112912,111421.2,111428,111437.88,112954.3,,,
Trial,flow.Sequence,1_3_0,2021-04-24T18:52:31.947Z,,,,,,,,,,,,,,,,,,,,,,,,,,,,,,,5723.520000000004,,completion,,,,,,,,,1,,,,,,,,S,O,I,,112940,112912,107171.8,107164,107188.48,112954.3,,,
Sounds,html.Screen,1_3_1_0,2021-04-24T18:52:36.197Z,,,,,,,,,,,,,,,,,,,,,,,,,,,,,,,4249.520000000004,,timeout,,,,,,,,,3,,,,,,,,O,I,S,,117189,117187.16,112937.64,112943,112954.3,117203.82,,,
Judgement,html.Screen,1_3_1_1,2021-04-24T18:52:39.605Z,,,,,,,,,,,,,,,,,,,,,,,,,,,,true,3,,3380.179999999993,,response,,,,,,,,,3,,3,click #choice-3,,,,,O,I,S,,120598,120584,117187.16,117191,117203.82,120620.02,,,
Trial,flow.Sequence,1_3_1,2021-04-24T18:52:39.608Z,,,,,,,,,,,,,,,,,,,,,,,,,,,,,,,7629.699999999997,,completion,,,,,,,,,3,,,,,,,,O,I,S,,120601,120584,112937.64,112942,112954.3,120620.02,,,
Sounds,html.Screen,1_3_2_0,2021-04-24T18:52:43.863Z,,,,,,,,,,,,,,,,,,,,,,,,,,,,,,,4249.5,,timeout,,,,,,,,,1,,,,,,,,S,I,O,,124857,124853.02,120603.36,120603,120620.02,124869.52,,,
Judgement,html.Screen,1_3_2_1,2021-04-24T18:52:45.689Z,,,,,,,,,,,,,,,,,,,,,,,,,,,,true,1,,1793.479999999996,,response,,,,,,,,,1,,1,click #choice-1,,,,,S,I,O,,126682,126663,124853.02,124858,124869.52,126702.62,,,
Trial,flow.Sequence,1_3_2,2021-04-24T18:52:45.691Z,,,,,,,,,,,,,,,,,,,,,,,,,,,,,,,6042.979999999996,,completion,,,,,,,,,1,,,,,,,,S,I,O,,126683,126663,120603.36,120602,120620.02,126702.62,,,
Sounds,html.Screen,1_3_3_0,2021-04-24T18:52:49.944Z,,,,,,,,,,,,,,,,,,,,,,,,,,,,,,,4249.520000000004,,timeout,,,,,,,,,3,,,,,,,,I,O,S,,130938,130935.48,126685.94,126685,126702.62,130952.14,,,
Judgement,html.Screen,1_3_3_1,2021-04-24T18:52:51.553Z,,,,,,,,,,,,,,,,,,,,,,,,,,,,true,3,,1585.8600000000006,,response,,,,,,,,,3,,3,click #choice-3,,,,,I,O,S,,132545,132538,130935.48,130939,130952.14,132568.52,,,
Trial,flow.Sequence,1_3_3,2021-04-24T18:52:51.555Z,,,,,,,,,,,,,,,,,,,,,,,,,,,,,,,5835.380000000005,,completion,,,,,,,,,3,,,,,,,,I,O,S,,132548,132538,126685.94,126684,126702.62,132568.52,,,
Sounds,html.Screen,1_3_4_0,2021-04-24T18:52:55.811Z,,,,,,,,,,,,,,,,,,,,,,,,,,,,,,,4249.540000000008,,timeout,,,,,,,,,2,,,,,,,,I,S,O,,136804,136801.44,132551.86,132549,132568.52,136818.06,,,
Judgement,html.Screen,1_3_4_1,2021-04-24T18:52:57.321Z,,,,,,,,,,,,,,,,,,,,,,,,,,,,true,2,,1484.9400000000023,,response,,,,,,,,,2,,2,click #choice-2,,,,,I,S,O,,138313,138303,136801.44,136804,136818.06,138334.48,,,
Trial,flow.Sequence,1_3_4,2021-04-24T18:52:57.321Z,,,,,,,,,,,,,,,,,,,,,,,,,,,,,,,5734.4800000000105,,completion,,,,,,,,,2,,,,,,,,I,S,O,,138315,138303,132551.86,132549,132568.52,138334.48,,,
Sounds,html.Screen,1_3_5_0,2021-04-24T18:53:01.577Z,,,,,,,,,,,,,,,,,,,,,,,,,,,,,,,4249.559999999998,,timeout,,,,,,,,,2,,,,,,,,O,S,I,,142569,142567.44,138317.8,138315,138334.48,142584.04,,,
Judgement,html.Screen,1_3_5_1,2021-04-24T18:53:02.815Z,,,,,,,,,,,,,,,,,,,,,,,,,,,,true,2,,1202.9599999999919,,response,,,,,,,,,2,,2,click #choice-2,,,,,O,S,I,,143808,143787,142567.44,142570,142584.04,143917.12,,,
Trial,flow.Sequence,1_3_5,2021-04-24T18:53:02.817Z,,,,,,,,,,,,,,,,,,,,,,,,,,,,,,,5452.5199999999895,,completion,,,,,,,,,2,,,,,,,,O,S,I,,143810,143787,138317.8,138315,138334.48,143917.12,,,
Task,flow.Loop,1_3,2021-04-24T18:53:02.821Z,,,,,,,,,,,,,,,,,,,,,,,,,,,,,,,36598.520000000004,,completion,,,0.8333333333333334,,,,,,,,,,,,,,,,,,143813,143787,107171.8,107163,107188.48,143917.12,,,
Trap,html.Screen,1_4,2021-04-24T18:53:02.901Z,,,,,,,,,,,,,,,,,,,,,,,,,,,,,,,NaN,,skipped,,,,,,,,,,,,,,,,,,,,,143894,143787,,143893,,143917.12,,,
Thanks,html.Screen,1_5,2021-04-24T18:53:07.227Z,,,,,,,,,,,,,,,,,,,,,,,,,,,,,,,4276.880000000005,,response,,,,,,,,,,,continue,click button,,,,,,,,,148219,148194,143883.78,143895,143917.12,151871.88,,,
Headphone screening,flow.Sequence,1,2021-04-24T18:53:07.228Z,,,,,,,,,,,,,,,,,,,,,,,,,,,,,,,99148.58,,completion,,,,,,,,,,,,,,,,,,,,,148221,148194,49028.76,49039,49045.42,151871.88,,,
Instructions,html.Page,2_0,2021-04-24T18:53:30.278Z,,,,,,,,,,,,,,,,,,,,,,,,,,,,,,,19395.119999999995,,form submission,,,,,,,,,,,,,,,,,,,,,171270,171267,151853,151846,151871.88,171280.48,,,
Holding screen,html.Screen,2_1_0_0,2021-04-24T18:53:40.271Z,,,,,,,,,,,,,,,,,,,,,,,,,,,,,,,10032.179999999993,,timeout,,,,,,,,,,,,,,,,,,,,,181264,181262.66,171263.9,171272,171280.48,181312.66,,,
screen,html.Screen,2_1_0_1_0,2021-04-24T18:53:43.698Z,,,,,,,,,,,,,,,,,53,,,,,,,,,,,,,,3364.3399999999965,,response,,,,99,,,,,,,Space,keypress(Space),,,,,,,,When -- ----- -- ------ - ------- --- ----------<br>------------- ------ ------ ---- ---- ------- ----- -- ----<br>-------- ------- -- ---------- --- - --- ----- ----- ----<br>---- --- --- ----- --- ---- ---- ------- ----- ---- -------<br>--- --- -- ----- -- --- ---- -- --- ---- -- ------ ------<br>--- ----- -- ----,184690,184677,181262.66,181265,181312.66,184695.58,,0,When
screen,html.Screen,2_1_0_1_1,2021-04-24T18:53:45.185Z,,,,,,,,,,,,,,,,,53,,,,,,,,,,,,,,1467.4200000000128,,response,,,,99,,,,,,,Space,keypress(Space),,,,,,,,---- it ----- -- ------ - ------- --- ----------<br>------------- ------ ------ ---- ---- ------- ----- -- ----<br>-------- ------- -- ---------- --- - --- ----- ----- ----<br>---- --- --- ----- --- ---- ---- ------- ----- ---- -------<br>--- --- -- ----- -- --- ---- -- --- ---- -- ------ ------<br>--- ----- -- ----,186176,186163,184691.78,184691,184695.58,186195.38,,1,it
screen,html.Screen,2_1_0_1_2,2021-04-24T18:53:45.959Z,,,,,,,,,,,,,,,,,53,,,,,,,,,,,,,,748.6199999999953,,response,,,,99,,,,,,,Space,keypress(Space),,,,,,,,---- -- comes -- ------ - ------- --- ----------<br>------------- ------ ------ ---- ---- ------- ----- -- ----<br>-------- ------- -- ---------- --- - --- ----- ----- ----<br>---- --- --- ----- --- ---- ---- ------- ----- ---- -------<br>--- --- -- ----- -- --- ---- -- --- ---- -- ------ ------<br>--- ----- -- ----,186952,186944,186178.58,186178,186195.38,186961.98,,2,comes
screen,html.Screen,2_1_0_1_3,2021-04-24T18:53:46.510Z,,,,,,,,,,,,,,,,,53,,,,,,,,,,,,,,529.0199999999895,,response,,,,99,,,,,,,Space,keypress(Space),,,,,,,,---- -- ----- to ------ - ------- --- ----------<br>------------- ------ ------ ---- ---- ------- ----- -- ----<br>-------- ------- -- ---------- --- - --- ----- ----- ----<br>---- --- --- ----- --- ---- ---- ------- ----- ---- -------<br>--- --- -- ----- -- --- ---- -- --- ---- -- ------ ------<br>--- ----- -- ----,187502,187491,186953.52,186953,186961.98,187511.92,,3,to
screen,html.Screen,2_1_0_1_4,2021-04-24T18:53:47.168Z,,,,,,,,,,,,,,,,,53,,,,,,,,,,,,,,635.0799999999872,,response,,,,99,,,,,,,Space,keypress(Space),,,,,,,,---- -- ----- -- having - ------- --- ----------<br>------------- ------ ------ ---- ---- ------- ----- -- ----<br>-------- ------- -- ---------- --- - --- ----- ----- ----<br>---- --- --- ----- --- ---- ---- ------- ----- ---- -------<br>--- --- -- ----- -- --- ---- -- --- ---- -- ------ ------<br>--- ----- -- ----,188161,188147,187503.66,187503,187511.92,188178.44,,4,having
screen,html.Screen,2_1_0_1_5,2021-04-24T18:53:47.676Z,,,,,,,,,,,,,,,,,53,,,,,,,,,,,,,,467.5599999999977,,response,,,,99,,,,,,,Space,keypress(Space),,,,,,,,---- -- ----- -- ------ a ------- --- ----------<br>------------- ------ ------ ---- ---- ------- ----- -- ----<br>-------- ------- -- ---------- --- - --- ----- ----- ----<br>---- --- --- ----- --- ---- ---- ------- ----- ---- -------<br>--- --- -- ----- -- --- ---- -- --- ---- -- ------ ------<br>--- ----- -- ----,188668,188646,188162.3,188161,188178.44,188678.4,,5,a
screen,html.Screen,2_1_0_1_6,2021-04-24T18:53:48.249Z,,,,,,,,,,,,,,,,,53,,,,,,,,,,,,,,546.6000000000058,,response,,,,99,,,,,,,Space,keypress(Space),,,,,,,,---- -- ----- -- ------ - lasting --- ----------<br>------------- ------ ------ ---- ---- ------- ----- -- ----<br>-------- ------- -- ---------- --- - --- ----- ----- ----<br>---- --- --- ----- --- ---- ---- ------- ----- ---- -------<br>--- --- -- ----- -- --- ---- -- --- ---- -- ------ ------<br>--- ----- -- ----,189241,189225,188669.74,188669,188678.4,189245.02,,6,lasting
screen,html.Screen,2_1_0_1_7,2021-04-24T18:53:48.768Z,,,,,,,,,,,,,,,,,53,,,,,,,,,,,,,,495.9800000000105,,response,,,,99,,,,,,,Space,keypress(Space),,,,,,,,---- -- ----- -- ------ - ------- and ----------<br>------------- ------ ------ ---- ---- ------- ----- -- ----<br>-------- ------- -- ---------- --- - --- ----- ----- ----<br>---- --- --- ----- --- ---- ---- ------- ----- ---- -------<br>--- --- -- ----- -- --- ---- -- --- ---- -- ------ ------<br>--- ----- -- ----,189760,189741,189242.74,189242,189245.02,189778.18,,7,and
screen,html.Screen,2_1_0_1_8,2021-04-24T18:53:49.436Z,,,,,,,,,,,,,,,,,53,,,,,,,,,,,,,,634.820000000007,,response,,,,99,,,,,,,Space,keypress(Space),,,,,,,,---- -- ----- -- ------ - ------- --- fulfilling<br>------------- ------ ------ ---- ---- ------- ----- -- ----<br>-------- ------- -- ---------- --- - --- ----- ----- ----<br>---- --- --- ----- --- ---- ---- ------- ----- ---- -------<br>--- --- -- ----- -- --- ---- -- --- ---- -- ------ ------<br>--- ----- -- ----,190428,190413,189761.04,189760,189778.18,190444.94,,8,fulfilling
screen,html.Screen,2_1_0_1_9,2021-04-24T18:53:50.670Z,,,,,,,,,,,,,,,,,53,,,,,,,,,,,,,,1201.0599999999977,,response,,,,99,,,,,,,Space,keypress(Space),,,,,,,,"---- -- ----- -- ------ - ------- --- ----------<br>relationship, ------ ------ ---- ---- ------- ----- -- ----<br>-------- ------- -- ---------- --- - --- ----- ----- ----<br>---- --- --- ----- --- ---- ---- ------- ----- ---- -------<br>--- --- -- ----- -- --- ---- -- --- ---- -- ------ ------<br>--- ----- -- ----",191663,191646,190429.7,190429,190444.94,191677.98,,9,"relationship,"
screen,html.Screen,2_1_0_1_10,2021-04-24T18:53:51.254Z,,,,,,,,,,,,,,,,,53,,,,,,,,,,,,,,547.0199999999895,,response,,,,99,,,,,,,Space,keypress(Space),,,,,,,,---- -- ----- -- ------ - ------- --- ----------<br>------------- common ------ ---- ---- ------- ----- -- ----<br>-------- ------- -- ---------- --- - --- ----- ----- ----<br>---- --- --- ----- --- ---- ---- ------- ----- ---- -------<br>--- --- -- ----- -- --- ---- -- --- ---- -- ------ ------<br>--- ----- -- ----,192246,192225,191663.86,191664,191677.98,192261.32,,10,common
screen,html.Screen,2_1_0_1_11,2021-04-24T18:53:51.796Z,,,,,,,,,,,,,,,,,53,,,,,,,,,,,,,,510.679999999993,,response,,,,99,,,,,,,Space,keypress(Space),,,,,,,,---- -- ----- -- ------ - ------- --- ----------<br>------------- ------ wisdom ---- ---- ------- ----- -- ----<br>-------- ------- -- ---------- --- - --- ----- ----- ----<br>---- --- --- ----- --- ---- ---- ------- ----- ---- -------<br>--- --- -- ----- -- --- ---- -- --- ---- -- ------ ------<br>--- ----- -- ----,192788,192772,192247.2,192246,192261.32,192794.6,,11,wisdom
screen,html.Screen,2_1_0_1_12,2021-04-24T18:53:52.347Z,,,,,,,,,,,,,,,,,53,,,,,,,,,,,,,,540.3999999999942,,response,,,,99,,,,,,,Space,keypress(Space),,,,,,,,---- -- ----- -- ------ - ------- --- ----------<br>------------- ------ ------ says ---- ------- ----- -- ----<br>-------- ------- -- ---------- --- - --- ----- ----- ----<br>---- --- --- ----- --- ---- ---- ------- ----- ---- -------<br>--- --- -- ----- -- --- ---- -- --- ---- -- ------ ------<br>--- ----- -- ----,193340,193335,192789.72,192790,192794.6,193344.5,,12,says
screen,html.Screen,2_1_0_1_13,2021-04-24T18:53:52.820Z,,,,,,,,,,,,,,,,,53,,,,,,,,,,,,,,457.5,,response,,,,99,,,,,,,Space,keypress(Space),,,,,,,,---- -- ----- -- ------ - ------- --- ----------<br>------------- ------ ------ ---- that ------- ----- -- ----<br>-------- ------- -- ---------- --- - --- ----- ----- ----<br>---- --- --- ----- --- ---- ---- ------- ----- ---- -------<br>--- --- -- ----- -- --- ---- -- --- ---- -- ------ ------<br>--- ----- -- ----,193812,193802,193340.44,193340,193344.5,193827.84,,13,that
screen,html.Screen,2_1_0_1_14,2021-04-24T18:53:53.391Z,,,,,,,,,,,,,,,,,53,,,,,,,,,,,,,,538.1600000000035,,response,,,,99,,,,,,,Space,keypress(Space),,,,,,,,---- -- ----- -- ------ - ------- --- ----------<br>------------- ------ ------ ---- ---- feeling ----- -- ----<br>-------- ------- -- ---------- --- - --- ----- ----- ----<br>---- --- --- ----- --- ---- ---- ------- ----- ---- -------<br>--- --- -- ----- -- --- ---- -- --- ---- -- ------ ------<br>--- ----- -- ----,194383,194366,193813.2,193813,193827.84,194394.38,,14,feeling
screen,html.Screen,2_1_0_1_15,2021-04-24T18:53:54.128Z,,,,,,,,,,,,,,,,,53,,,,,,,,,,,,,,721.6199999999953,,response,,,,99,,,,,,,Space,keypress(Space),,,,,,,,---- -- ----- -- ------ - ------- --- ----------<br>------------- ------ ------ ---- ---- ------- close -- ----<br>-------- ------- -- ---------- --- - --- ----- ----- ----<br>---- --- --- ----- --- ---- ---- ------- ----- ---- -------<br>--- --- -- ----- -- --- ---- -- --- ---- -- ------ ------<br>--- ----- -- ----,195121,195116,194384.9,194384,194394.38,195127.94,,15,close
screen,html.Screen,2_1_0_1_16,2021-04-24T18:53:54.701Z,,,,,,,,,,,,,,,,,53,,,,,,,,,,,,,,550.0599999999977,,response,,,,99,,,,,,,Space,keypress(Space),,,,,,,,---- -- ----- -- ------ - ------- --- ----------<br>------------- ------ ------ ---- ---- ------- ----- to ----<br>-------- ------- -- ---------- --- - --- ----- ----- ----<br>---- --- --- ----- --- ---- ---- ------- ----- ---- -------<br>--- --- -- ----- -- --- ---- -- --- ---- -- ------ ------<br>--- ----- -- ----,195694,195678,195122.04,195121,195127.94,195711.14,,16,to
screen,html.Screen,2_1_0_1_17,2021-04-24T18:53:55.260Z,,,,,,,,,,,,,,,,,53,,,,,,,,,,,,,,529.859999999986,,response,,,,99,,,,,,,Space,keypress(Space),,,,,,,,---- -- ----- -- ------ - ------- --- ----------<br>------------- ------ ------ ---- ---- ------- ----- -- your<br>-------- ------- -- ---------- --- - --- ----- ----- ----<br>---- --- --- ----- --- ---- ---- ------- ----- ---- -------<br>--- --- -- ----- -- --- ---- -- --- ---- -- ------ ------<br>--- ----- -- ----,196252,196241,195694.48,195694,195711.14,196260.84,,17,your
screen,html.Screen,2_1_0_1_18,2021-04-24T18:53:55.918Z,,,,,,,,,,,,,,,,,53,,,,,,,,,,,,,,636.1600000000035,,response,,,,99,,,,,,,Space,keypress(Space),,,,,,,,---- -- ----- -- ------ - ------- --- ----------<br>------------- ------ ------ ---- ---- ------- ----- -- ----<br>romantic ------- -- ---------- --- - --- ----- ----- ----<br>---- --- --- ----- --- ---- ---- ------- ----- ---- -------<br>--- --- -- ----- -- --- ---- -- --- ---- -- ------ ------<br>--- ----- -- ----,196910,196897,196253.34,196252,196260.84,196927.44,,18,romantic
screen,html.Screen,2_1_0_1_19,2021-04-24T18:53:56.452Z,,,,,,,,,,,,,,,,,53,,,,,,,,,,,,,,500.5599999999977,,response,,,,99,,,,,,,Space,keypress(Space),,,,,,,,---- -- ----- -- ------ - ------- --- ----------<br>------------- ------ ------ ---- ---- ------- ----- -- ----<br>-------- partner -- ---------- --- - --- ----- ----- ----<br>---- --- --- ----- --- ---- ---- ------- ----- ---- -------<br>--- --- -- ----- -- --- ---- -- --- ---- -- ------ ------<br>--- ----- -- ----,197444,197428,196911.56,196911,196927.44,197460.94,,19,partner
screen,html.Screen,2_1_0_1_20,2021-04-24T18:53:57.084Z,,,,,,,,,,,,,,,,,53,,,,,,,,,,,,,,592.0599999999977,,response,,,,99,,,,,,,Space,keypress(Space),,,,,,,,---- -- ----- -- ------ - ------- --- ----------<br>------------- ------ ------ ---- ---- ------- ----- -- ----<br>-------- ------- is ---------- --- - --- ----- ----- ----<br>---- --- --- ----- --- ---- ---- ------- ----- ---- -------<br>--- --- -- ----- -- --- ---- -- --- ---- -- ------ ------<br>--- ----- -- ----,198077,198053,197445.94,197445,197460.94,198094.18,,20,is
screen,html.Screen,2_1_0_1_21,2021-04-24T18:53:58.056Z,,,,,,,,,,,,,,,,,53,,,,,,,,,,,,,,943.820000000007,,response,,,,99,,,,,,,Space,keypress(Space),,,,,,,,---- -- ----- -- ------ - ------- --- ----------<br>------------- ------ ------ ---- ---- ------- ----- -- ----<br>-------- ------- -- paramount. --- - --- ----- ----- ----<br>---- --- --- ----- --- ---- ---- ------- ----- ---- -------<br>--- --- -- ----- -- --- ---- -- --- ---- -- ------ ------<br>--- ----- -- ----,199048,199038,198077.68,198078,198094.18,199060.5,,21,paramount.
screen,html.Screen,2_1_0_1_22,2021-04-24T18:53:58.598Z,,,,,,,,,,,,,,,,,53,,,,,,,,,,,,,,523.5,,response,,,,99,,,,,,,Space,keypress(Space),,,,,,,,---- -- ----- -- ------ - ------- --- ----------<br>------------- ------ ------ ---- ---- ------- ----- -- ----<br>-------- ------- -- ---------- But - --- ----- ----- ----<br>---- --- --- ----- --- ---- ---- ------- ----- ---- -------<br>--- --- -- ----- -- --- ---- -- --- ---- -- ------ ------<br>--- ----- -- ----,199590,199584,199050.24,199049,199060.5,199593.74,,22,But
screen,html.Screen,2_1_0_1_23,2021-04-24T18:53:59.037Z,,,,,,,,,,,,,,,,,53,,,,,,,,,,,,,,412.2600000000093,,response,,,,99,,,,,,,Space,keypress(Space),,,,,,,,---- -- ----- -- ------ - ------- --- ----------<br>------------- ------ ------ ---- ---- ------- ----- -- ----<br>-------- ------- -- ---------- --- a --- ----- ----- ----<br>---- --- --- ----- --- ---- ---- ------- ----- ---- -------<br>--- --- -- ----- -- --- ---- -- --- ---- -- ------ ------<br>--- ----- -- ----,200030,200006,199591.92,199591,199593.74,200043.94,,23,a
screen,html.Screen,2_1_0_1_24,2021-04-24T18:53:59.478Z,,,,,,,,,,,,,,,,,53,,,,,,,,,,,,,,399.0599999999977,,response,,,,99,,,,,,,Space,keypress(Space),,,,,,,,---- -- ----- -- ------ - ------- --- ----------<br>------------- ------ ------ ---- ---- ------- ----- -- ----<br>-------- ------- -- ---------- --- - new ----- ----- ----<br>---- --- --- ----- --- ---- ---- ------- ----- ---- -------<br>--- --- -- ----- -- --- ---- -- --- ---- -- ------ ------<br>--- ----- -- ----,200470,200443,200031,200030,200043.94,200476.96,,24,new
screen,html.Screen,2_1_0_1_25,2021-04-24T18:54:00.099Z,,,,,,,,,,,,,,,,,53,,,,,,,,,,,,,,608.0400000000081,,response,,,,99,,,,,,,Space,keypress(Space),,,,,,,,---- -- ----- -- ------ - ------- --- ----------<br>------------- ------ ------ ---- ---- ------- ----- -- ----<br>-------- ------- -- ---------- --- - --- study ----- ----<br>---- --- --- ----- --- ---- ---- ------- ----- ---- -------<br>--- --- -- ----- -- --- ---- -- --- ---- -- ------ ------<br>--- ----- -- ----,201091,201085,200470.9,200471,200476.96,201093.5,,25,study
screen,html.Screen,2_1_0_1_26,2021-04-24T18:54:00.845Z,,,,,,,,,,,,,,,,,53,,,,,,,,,,,,,,725.5,,response,,,,99,,,,,,,Space,keypress(Space),,,,,,,,---- -- ----- -- ------ - ------- --- ----------<br>------------- ------ ------ ---- ---- ------- ----- -- ----<br>-------- ------- -- ---------- --- - --- ----- finds ----<br>---- --- --- ----- --- ---- ---- ------- ----- ---- -------<br>--- --- -- ----- -- --- ---- -- --- ---- -- ------ ------<br>--- ----- -- ----,201838,201819,201091.8,201091,201093.5,201843.46,,26,finds
screen,html.Screen,2_1_0_1_27,2021-04-24T18:54:01.457Z,,,,,,,,,,,,,,,,,53,,,,,,,,,,,,,,584.5400000000081,,response,,,,99,,,,,,,Space,keypress(Space),,,,,,,,---- -- ----- -- ------ - ------- --- ----------<br>------------- ------ ------ ---- ---- ------- ----- -- ----<br>-------- ------- -- ---------- --- - --- ----- ----- that<br>---- --- --- ----- --- ---- ---- ------- ----- ---- -------<br>--- --- -- ----- -- --- ---- -- --- ---- -- ------ ------<br>--- ----- -- ----,202450,202428,201838.38,201838,201843.46,202460.08,,27,that
screen,html.Screen,2_1_0_1_28,2021-04-24T18:54:02.015Z,,,,,,,,,,,,,,,,,53,,,,,,,,,,,,,,530.9200000000128,,response,,,,99,,,,,,,Space,keypress(Space),,,,,,,,---- -- ----- -- ------ - ------- --- ----------<br>------------- ------ ------ ---- ---- ------- ----- -- ----<br>-------- ------- -- ---------- --- - --- ----- ----- ----<br>it's --- --- ----- --- ---- ---- ------- ----- ---- -------<br>--- --- -- ----- -- --- ---- -- --- ---- -- ------ ------<br>--- ----- -- ----,203008,202991,202451.06,202450,202460.08,203026.66,,28,it's
screen,html.Screen,2_1_0_1_29,2021-04-24T18:54:02.582Z,,,,,,,,,,,,,,,,,53,,,,,,,,,,,,,,525.3399999999965,,response,,,,99,,,,,,,Space,keypress(Space),,,,,,,,---- -- ----- -- ------ - ------- --- ----------<br>------------- ------ ------ ---- ---- ------- ----- -- ----<br>-------- ------- -- ---------- --- - --- ----- ----- ----<br>---- not --- ----- --- ---- ---- ------- ----- ---- -------<br>--- --- -- ----- -- --- ---- -- --- ---- -- ------ ------<br>--- ----- -- ----,203575,203552,203010,203009,203026.66,203593.18,,29,not
screen,html.Screen,2_1_0_1_30,2021-04-24T18:54:03.048Z,,,,,,,,,,,,,,,,,53,,,,,,,,,,,,,,428.820000000007,,response,,,,99,,,,,,,Space,keypress(Space),,,,,,,,---- -- ----- -- ------ - ------- --- ----------<br>------------- ------ ------ ---- ---- ------- ----- -- ----<br>-------- ------- -- ---------- --- - --- ----- ----- ----<br>---- --- how ----- --- ---- ---- ------- ----- ---- -------<br>--- --- -- ----- -- --- ---- -- --- ---- -- ------ ------<br>--- ----- -- ----,204041,204022,203575.86,203576,203593.18,204043.18,,30,how
screen,html.Screen,2_1_0_1_31,2021-04-24T18:54:04.079Z,,,,,,,,,,,,,,,,,53,,,,,,,,,,,,,,1008.820000000007,,response,,,,99,,,,,,,Space,keypress(Space),,,,,,,,---- -- ----- -- ------ - ------- --- ----------<br>------------- ------ ------ ---- ---- ------- ----- -- ----<br>-------- ------- -- ---------- --- - --- ----- ----- ----<br>---- --- --- close --- ---- ---- ------- ----- ---- -------<br>--- --- -- ----- -- --- ---- -- --- ---- -- ------ ------<br>--- ----- -- ----,205072,205052,204041.66,204041,204043.18,205076.42,,31,close
screen,html.Screen,2_1_0_1_32,2021-04-24T18:54:04.579Z,,,,,,,,,,,,,,,,,53,,,,,,,,,,,,,,475.5799999999872,,response,,,,99,,,,,,,Space,keypress(Space),,,,,,,,---- -- ----- -- ------ - ------- --- ----------<br>------------- ------ ------ ---- ---- ------- ----- -- ----<br>-------- ------- -- ---------- --- - --- ----- ----- ----<br>---- --- --- ----- you ---- ---- ------- ----- ---- -------<br>--- --- -- ----- -- --- ---- -- --- ---- -- ------ ------<br>--- ----- -- ----,205572,205552,205072.42,205072,205076.42,205576.36,,32,you
screen,html.Screen,2_1_0_1_33,2021-04-24T18:54:05.098Z,,,,,,,,,,,,,,,,,53,,,,,,,,,,,,,,491.64000000001397,,response,,,,99,,,,,,,Space,keypress(Space),,,,,,,,---- -- ----- -- ------ - ------- --- ----------<br>------------- ------ ------ ---- ---- ------- ----- -- ----<br>-------- ------- -- ---------- --- - --- ----- ----- ----<br>---- --- --- ----- --- feel ---- ------- ----- ---- -------<br>--- --- -- ----- -- --- ---- -- --- ---- -- ------ ------<br>--- ----- -- ----,206090,206068,205572.96,205573,205576.36,206092.96,,33,feel
screen,html.Screen,2_1_0_1_34,2021-04-24T18:54:05.584Z,,,,,,,,,,,,,,,,,53,,,,,,,,,,,,,,459.04000000000815,,response,,,,99,,,,,,,Space,keypress(Space),,,,,,,,---- -- ----- -- ------ - ------- --- ----------<br>------------- ------ ------ ---- ---- ------- ----- -- ----<br>-------- ------- -- ---------- --- - --- ----- ----- ----<br>---- --- --- ----- --- ---- that ------- ----- ---- -------<br>--- --- -- ----- -- --- ---- -- --- ---- -- ------ ------<br>--- ----- -- ----,206576,206552,206091.18,206090,206092.96,206592.88,,34,that
screen,html.Screen,2_1_0_1_35,2021-04-24T18:54:06.051Z,,,,,,,,,,,,,,,,,53,,,,,,,,,,,,,,444.11999999999534,,response,,,,99,,,,,,,Space,keypress(Space),,,,,,,,---- -- ----- -- ------ - ------- --- ----------<br>------------- ------ ------ ---- ---- ------- ----- -- ----<br>-------- ------- -- ---------- --- - --- ----- ----- ----<br>---- --- --- ----- --- ---- ---- matters ----- ---- -------<br>--- --- -- ----- -- --- ---- -- --- ---- -- ------ ------<br>--- ----- -- ----,207044,207037,206578.02,206578,206592.88,207059.5,,35,matters
screen,html.Screen,2_1_0_1_36,2021-04-24T18:54:06.998Z,,,,,,,,,,,,,,,,,53,,,,,,,,,,,,,,914.5,,response,,,,99,,,,,,,Space,keypress(Space),,,,,,,,"---- -- ----- -- ------ - ------- --- ----------<br>------------- ------ ------ ---- ---- ------- ----- -- ----<br>-------- ------- -- ---------- --- - --- ----- ----- ----<br>---- --- --- ----- --- ---- ---- ------- most, ---- -------<br>--- --- -- ----- -- --- ---- -- --- ---- -- ------ ------<br>--- ----- -- ----",207990,207974,207044.58,207044,207059.5,207992.7,,36,"most,"
screen,html.Screen,2_1_0_1_37,2021-04-24T18:54:07.430Z,,,,,,,,,,,,,,,,,53,,,,,,,,,,,,,,420.29999999998836,,response,,,,99,,,,,,,Space,keypress(Space),,,,,,,,---- -- ----- -- ------ - ------- --- ----------<br>------------- ------ ------ ---- ---- ------- ----- -- ----<br>-------- ------- -- ---------- --- - --- ----- ----- ----<br>---- --- --- ----- --- ---- ---- ------- ----- it's -------<br>--- --- -- ----- -- --- ---- -- --- ---- -- ------ ------<br>--- ----- -- ----,208423,208413,207991.32,207991,207992.7,208425.98,,37,it's
screen,html.Screen,2_1_0_1_38,2021-04-24T18:54:07.959Z,,,,,,,,,,,,,,,,,53,,,,,,,,,,,,,,518.0199999999895,,response,,,,99,,,,,,,Space,keypress(Space),,,,,,,,---- -- ----- -- ------ - ------- --- ----------<br>------------- ------ ------ ---- ---- ------- ----- -- ----<br>-------- ------- -- ---------- --- - --- ----- ----- ----<br>---- --- --- ----- --- ---- ---- ------- ----- ---- whether<br>--- --- -- ----- -- --- ---- -- --- ---- -- ------ ------<br>--- ----- -- ----,208952,208944,208424.08,208423,208425.98,208959.26,,38,whether
screen,html.Screen,2_1_0_1_39,2021-04-24T18:54:08.433Z,,,,,,,,,,,,,,,,,53,,,,,,,,,,,,,,453.7399999999907,,response,,,,99,,,,,,,Space,keypress(Space),,,,,,,,---- -- ----- -- ------ - ------- --- ----------<br>------------- ------ ------ ---- ---- ------- ----- -- ----<br>-------- ------- -- ---------- --- - --- ----- ----- ----<br>---- --- --- ----- --- ---- ---- ------- ----- ---- -------<br>you --- -- ----- -- --- ---- -- --- ---- -- ------ ------<br>--- ----- -- ----,209425,209413,208952.98,208953,208959.26,209442.6,,39,you
screen,html.Screen,2_1_0_1_40,2021-04-24T18:54:08.904Z,,,,,,,,,,,,,,,,,53,,,,,,,,,,,,,,438.3999999999942,,response,,,,99,,,,,,,Space,keypress(Space),,,,,,,,---- -- ----- -- ------ - ------- --- ----------<br>------------- ------ ------ ---- ---- ------- ----- -- ----<br>-------- ------- -- ---------- --- - --- ----- ----- ----<br>---- --- --- ----- --- ---- ---- ------- ----- ---- -------<br>--- are -- ----- -- --- ---- -- --- ---- -- ------ ------<br>--- ----- -- ----,209896,209881,209426.44,209426,209442.6,209909.16,,40,are
screen,html.Screen,2_1_0_1_41,2021-04-24T18:54:09.535Z,,,,,,,,,,,,,,,,,53,,,,,,,,,,,,,,596.8399999999965,,response,,,,99,,,,,,,Space,keypress(Space),,,,,,,,---- -- ----- -- ------ - ------- --- ----------<br>------------- ------ ------ ---- ---- ------- ----- -- ----<br>-------- ------- -- ---------- --- - --- ----- ----- ----<br>---- --- --- ----- --- ---- ---- ------- ----- ---- -------<br>--- --- as ----- -- --- ---- -- --- ---- -- ------ ------<br>--- ----- -- ----,210527,210506,209897.68,209897,209909.16,210542.3,,41,as
screen,html.Screen,2_1_0_1_42,2021-04-24T18:54:10.088Z,,,,,,,,,,,,,,,,,53,,,,,,,,,,,,,,510.70000000001164,,response,,,,99,,,,,,,Space,keypress(Space),,,,,,,,---- -- ----- -- ------ - ------- --- ----------<br>------------- ------ ------ ---- ---- ------- ----- -- ----<br>-------- ------- -- ---------- --- - --- ----- ----- ----<br>---- --- --- ----- --- ---- ---- ------- ----- ---- -------<br>--- --- -- close -- --- ---- -- --- ---- -- ------ ------<br>--- ----- -- ----,211080,211053,210528.26,210528,210542.3,211092.34,,42,close
screen,html.Screen,2_1_0_1_43,2021-04-24T18:54:10.564Z,,,,,,,,,,,,,,,,,53,,,,,,,,,,,,,,445.6600000000035,,response,,,,99,,,,,,,Space,keypress(Space),,,,,,,,---- -- ----- -- ------ - ------- --- ----------<br>------------- ------ ------ ---- ---- ------- ----- -- ----<br>-------- ------- -- ---------- --- - --- ----- ----- ----<br>---- --- --- ----- --- ---- ---- ------- ----- ---- -------<br>--- --- -- ----- as --- ---- -- --- ---- -- ------ ------<br>--- ----- -- ----,211555,211538,211081.04,211080,211092.34,211558.92,,43,as
screen,html.Screen,2_1_0_1_44,2021-04-24T18:54:11.099Z,,,,,,,,,,,,,,,,,53,,,,,,,,,,,,,,526.0799999999872,,response,,,,99,,,,,,,Space,keypress(Space),,,,,,,,---- -- ----- -- ------ - ------- --- ----------<br>------------- ------ ------ ---- ---- ------- ----- -- ----<br>-------- ------- -- ---------- --- - --- ----- ----- ----<br>---- --- --- ----- --- ---- ---- ------- ----- ---- -------<br>--- --- -- ----- -- you ---- -- --- ---- -- ------ ------<br>--- ----- -- ----,212093,212085,211557,211556,211558.92,212108.82,,44,you
screen,html.Screen,2_1_0_1_45,2021-04-24T18:54:11.569Z,,,,,,,,,,,,,,,,,53,,,,,,,,,,,,,,444.179999999993,,response,,,,99,,,,,,,Space,keypress(Space),,,,,,,,---- -- ----- -- ------ - ------- --- ----------<br>------------- ------ ------ ---- ---- ------- ----- -- ----<br>-------- ------- -- ---------- --- - --- ----- ----- ----<br>---- --- --- ----- --- ---- ---- ------- ----- ---- -------<br>--- --- -- ----- -- --- want -- --- ---- -- ------ ------<br>--- ----- -- ----,212561,212553,212093.46,212093,212108.82,212575.56,,45,want
screen,html.Screen,2_1_0_1_46,2021-04-24T18:54:12.025Z,,,,,,,,,,,,,,,,,53,,,,,,,,,,,,,,430.4400000000023,,response,,,,99,,,,,,,Space,keypress(Space),,,,,,,,---- -- ----- -- ------ - ------- --- ----------<br>------------- ------ ------ ---- ---- ------- ----- -- ----<br>-------- ------- -- ---------- --- - --- ----- ----- ----<br>---- --- --- ----- --- ---- ---- ------- ----- ---- -------<br>--- --- -- ----- -- --- ---- to --- ---- -- ------ ------<br>--- ----- -- ----,213017,213006,212562.62,212562,212575.56,213025.46,,46,to
screen,html.Screen,2_1_0_1_47,2021-04-24T18:54:13.090Z,,,,,,,,,,,,,,,,,53,,,,,,,,,,,,,,1043.5400000000081,,response,,,,99,,,,,,,Space,keypress(Space),,,,,,,,"---- -- ----- -- ------ - ------- --- ----------<br>------------- ------ ------ ---- ---- ------- ----- -- ----<br>-------- ------- -- ---------- --- - --- ----- ----- ----<br>---- --- --- ----- --- ---- ---- ------- ----- ---- -------<br>--- --- -- ----- -- --- ---- -- be, ---- -- ------ ------<br>--- ----- -- ----",214084,214069,213018.64,213018,213025.46,214092,,47,"be,"
screen,html.Screen,2_1_0_1_48,2021-04-24T18:54:13.520Z,,,,,,,,,,,,,,,,,53,,,,,,,,,,,,,,414,,response,,,,99,,,,,,,Space,keypress(Space),,,,,,,,---- -- ----- -- ------ - ------- --- ----------<br>------------- ------ ------ ---- ---- ------- ----- -- ----<br>-------- ------- -- ---------- --- - --- ----- ----- ----<br>---- --- --- ----- --- ---- ---- ------- ----- ---- -------<br>--- --- -- ----- -- --- ---- -- --- even -- ------ ------<br>--- ----- -- ----,214512,214506,214084.18,214084,214092,214525.24,,48,even
screen,html.Screen,2_1_0_1_49,2021-04-24T18:54:14.086Z,,,,,,,,,,,,,,,,,53,,,,,,,,,,,,,,527.7600000000093,,response,,,,99,,,,,,,Space,keypress(Space),,,,,,,,---- -- ----- -- ------ - ------- --- ----------<br>------------- ------ ------ ---- ---- ------- ----- -- ----<br>-------- ------- -- ---------- --- - --- ----- ----- ----<br>---- --- --- ----- --- ---- ---- ------- ----- ---- -------<br>--- --- -- ----- -- --- ---- -- --- ---- if ------ ------<br>--- ----- -- ----,215078,215053,214513.24,214513,214525.24,215091.86,,49,if
screen,html.Screen,2_1_0_1_50,2021-04-24T18:54:14.545Z,,,,,,,,,,,,,,,,,53,,,,,,,,,,,,,,429.14000000001397,,response,,,,99,,,,,,,Space,keypress(Space),,,,,,,,---- -- ----- -- ------ - ------- --- ----------<br>------------- ------ ------ ---- ---- ------- ----- -- ----<br>-------- ------- -- ---------- --- - --- ----- ----- ----<br>---- --- --- ----- --- ---- ---- ------- ----- ---- -------<br>--- --- -- ----- -- --- ---- -- --- ---- -- that's ------<br>--- ----- -- ----,215538,215521,215080.02,215079,215091.86,215541.8,,50,that's
screen,html.Screen,2_1_0_1_51,2021-04-24T18:54:14.998Z,,,,,,,,,,,,,,,,,53,,,,,,,,,,,,,,433.20000000001164,,response,,,,99,,,,,,,Space,keypress(Space),,,,,,,,---- -- ----- -- ------ - ------- --- ----------<br>------------- ------ ------ ---- ---- ------- ----- -- ----<br>-------- ------- -- ---------- --- - --- ----- ----- ----<br>---- --- --- ----- --- ---- ---- ------- ----- ---- -------<br>--- --- -- ----- -- --- ---- -- --- ---- -- ------ really<br>--- ----- -- ----,215991,215975,215539.7,215539,215541.8,216008.3,,51,really
screen,html.Screen,2_1_0_1_52,2021-04-24T18:54:15.461Z,,,,,,,,,,,,,,,,,53,,,,,,,,,,,,,,435.70000000001164,,response,,,,99,,,,,,,Space,keypress(Space),,,,,,,,---- -- ----- -- ------ - ------- --- ----------<br>------------- ------ ------ ---- ---- ------- ----- -- ----<br>-------- ------- -- ---------- --- - --- ----- ----- ----<br>---- --- --- ----- --- ---- ---- ------- ----- ---- -------<br>--- --- -- ----- -- --- ---- -- --- ---- -- ------ ------<br>not ----- -- ----,216454,216444,215991.48,215991,216008.3,216458.3,,52,not
screen,html.Screen,2_1_0_1_53,2021-04-24T18:54:15.867Z,,,,,,,,,,,,,,,,,53,,,,,,,,,,,,,,391.70000000001164,,response,,,,99,,,,,,,Space,keypress(Space),,,,,,,,---- -- ----- -- ------ - ------- --- ----------<br>------------- ------ ------ ---- ---- ------- ----- -- ----<br>-------- ------- -- ---------- --- - --- ----- ----- ----<br>---- --- --- ----- --- ---- ---- ------- ----- ---- -------<br>--- --- -- ----- -- --- ---- -- --- ---- -- ------ ------<br>--- close -- ----,216860,216850,216455.28,216454,216458.3,216875.22,,53,close
screen,html.Screen,2_1_0_1_54,2021-04-24T18:54:16.301Z,,,,,,,,,,,,,,,,,53,,,,,,,,,,,,,,412.77999999999884,,response,,,,99,,,,,,,Space,keypress(Space),,,,,,,,---- -- ----- -- ------ - ------- --- ----------<br>------------- ------ ------ ---- ---- ------- ----- -- ----<br>-------- ------- -- ---------- --- - --- ----- ----- ----<br>---- --- --- ----- --- ---- ---- ------- ----- ---- -------<br>--- --- -- ----- -- --- ---- -- --- ---- -- ------ ------<br>--- ----- at ----,217294,217288,216860.54,216861,216875.22,217308.18,,54,at
screen,html.Screen,2_1_0_1_55,2021-04-24T18:54:18.410Z,,,,,,,,,,,,,,,,,53,,,,,,,,,,,,,,2087.820000000007,,response,,,,99,,,,,,,Space,keypress(Space),,,,,,,,---- -- ----- -- ------ - ------- --- ----------<br>------------- ------ ------ ---- ---- ------- ----- -- ----<br>-------- ------- -- ---------- --- - --- ----- ----- ----<br>---- --- --- ----- --- ---- ---- ------- ----- ---- -------<br>--- --- -- ----- -- --- ---- -- --- ---- -- ------ ------<br>--- ----- -- all.,219402,219396,217295.44,217294,217308.18,219424.9,,55,all.
Item 99,flow.Loop,2_1_0_1,2021-04-24T18:54:18.411Z,,,,,,,,,,,,,,,,,,,,,,,,,,,,,,,38083.34,,completion,,,,,E,,,,,,,,,,,silence,,,,,219403,219396,181262.66,181265,181312.66,219424.9,,,
Question 1,html.Screen,2_1_0_2,2021-04-24T18:54:25.794Z,,,,,,,,,,,,,,,,,,,,,,,,,,,,true,FALSE,,7347.100000000006,,response,,,,99,E,,,,,,FALSE,click #choice-2,,,,silence,,,,,226786,226772,219408.4,219404,219424.9,226807.12,,,
Question 2,html.Screen,2_1_0_3,2021-04-24T18:54:34.448Z,,,,,,,,,,,,,,,,,,,,,,,,,,,,true,TRUE,,8619.880000000005,,response,,,,99,E,,,,,,TRUE,click #choice-1,,,,silence,,,,,235441,235427,226790.46,226787,226807.12,235456.04,,,
Item 99,flow.Sequence,2_1_0,2021-04-24T18:54:34.450Z,,,,,,,,,,,,,,,,,,,,,,,,,,,,,,,64146.51999999999,,completion,,,,,,,,,,,,,,,,,,,,,235442,235427,171263.9,171272,171280.48,235456.04,,,
Holding screen,html.Screen,2_1_1_0,2021-04-24T18:54:44.447Z,,,,,,,,,,,,,,,,,,,,,,,,,,,,,,,9998.73999999999,,timeout,,,,,,,,,,,,,,,,,,,,,245440,245438.1,235439.38,235443,235456.04,245454.78,,,
screen,html.Screen,2_1_1_1_0,2021-04-24T18:54:47.561Z,,,,,,,,,,,,,,,,,54,,,,,,,,,,,,,,3082.220000000001,,response,,,,100,,,,,,,Space,keypress(Space),,,,,,,,At --- ---- --- ------ ----- ------- ---- -- --- ------- --<br>------- ---------- ------ -- ----- -- ----- -- ---- ------<br>--- ----- --- --- ------ -------- ----- --- ------ ----- --<br>----- ----- ---------- --- --- ------ ------ ---- -- ------<br>------- --- ------ ----- --- ---- ------- -- ---- --- --<br>------- ------,248554,248537,245438.1,245440,245454.78,248571.34,,0,At
screen,html.Screen,2_1_1_1_1,2021-04-24T18:54:48.075Z,,,,,,,,,,,,,,,,,54,,,,,,,,,,,,,,480.6600000000035,,response,,,,100,,,,,,,Space,keypress(Space),,,,,,,,-- the ---- --- ------ ----- ------- ---- -- --- ------- --<br>------- ---------- ------ -- ----- -- ----- -- ---- ------<br>--- ----- --- --- ------ -------- ----- --- ------ ----- --<br>----- ----- ---------- --- --- ------ ------ ---- -- ------<br>------- --- ------ ----- --- ---- ------- -- ---- --- --<br>------- ------,249068,249052,248555.2,248555,248571.34,249071,,1,the
screen,html.Screen,2_1_1_1_2,2021-04-24T18:54:48.758Z,,,,,,,,,,,,,,,,,54,,,,,,,,,,,,,,670,,response,,,,100,,,,,,,Space,keypress(Space),,,,,,,,-- --- time --- ------ ----- ------- ---- -- --- ------- --<br>------- ---------- ------ -- ----- -- ----- -- ---- ------<br>--- ----- --- --- ------ -------- ----- --- ------ ----- --<br>----- ----- ---------- --- --- ------ ------ ---- -- ------<br>------- --- ------ ----- --- ---- ------- -- ---- --- --<br>------- ------,249751,249741,249069.42,249069,249071,249754.28,,2,time
screen,html.Screen,2_1_1_1_3,2021-04-24T18:54:49.336Z,,,,,,,,,,,,,,,,,54,,,,,,,,,,,,,,548.7200000000012,,response,,,,100,,,,,,,Space,keypress(Space),,,,,,,,-- --- ---- the ------ ----- ------- ---- -- --- ------- --<br>------- ---------- ------ -- ----- -- ----- -- ---- ------<br>--- ----- --- --- ------ -------- ----- --- ------ ----- --<br>----- ----- ---------- --- --- ------ ------ ---- -- ------<br>------- --- ------ ----- --- ---- ------- -- ---- --- --<br>------- ------,250329,250303,249751.56,249751,249754.28,250337.52,,3,the
screen,html.Screen,2_1_1_1_4,2021-04-24T18:54:50.038Z,,,,,,,,,,,,,,,,,54,,,,,,,,,,,,,,683.4800000000105,,response,,,,100,,,,,,,Space,keypress(Space),,,,,,,,-- --- ---- --- French ----- ------- ---- -- --- ------- --<br>------- ---------- ------ -- ----- -- ----- -- ---- ------<br>--- ----- --- --- ------ -------- ----- --- ------ ----- --<br>----- ----- ---------- --- --- ------ ------ ---- -- ------<br>------- --- ------ ----- --- ---- ------- -- ---- --- --<br>------- ------,251031,251021,250329.22,250329,250337.52,251037.5,,4,French
screen,html.Screen,2_1_1_1_5,2021-04-24T18:54:50.578Z,,,,,,,,,,,,,,,,,54,,,,,,,,,,,,,,515.5,,response,,,,100,,,,,,,Space,keypress(Space),,,,,,,,-- --- ---- --- ------ crown ------- ---- -- --- ------- --<br>------- ---------- ------ -- ----- -- ----- -- ---- ------<br>--- ----- --- --- ------ -------- ----- --- ------ ----- --<br>----- ----- ---------- --- --- ------ ------ ---- -- ------<br>------- --- ------ ----- --- ---- ------- -- ---- --- --<br>------- ------,251570,251553,251032.44,251032,251037.5,251587.34,,5,crown
screen,html.Screen,2_1_1_1_6,2021-04-24T18:54:51.234Z,,,,,,,,,,,,,,,,,54,,,,,,,,,,,,,,622.6600000000035,,response,,,,100,,,,,,,Space,keypress(Space),,,,,,,,-- --- ---- --- ------ ----- secured ---- -- --- ------- --<br>------- ---------- ------ -- ----- -- ----- -- ---- ------<br>--- ----- --- --- ------ -------- ----- --- ------ ----- --<br>----- ----- ---------- --- --- ------ ------ ---- -- ------<br>------- --- ------ ----- --- ---- ------- -- ---- --- --<br>------- ------,252226,252210,251571.56,251571,251587.34,252237.3,,6,secured
screen,html.Screen,2_1_1_1_7,2021-04-24T18:54:51.724Z,,,,,,,,,,,,,,,,,54,,,,,,,,,,,,,,456.70000000001164,,response,,,,100,,,,,,,Space,keypress(Space),,,,,,,,-- --- ---- --- ------ ----- ------- much -- --- ------- --<br>------- ---------- ------ -- ----- -- ----- -- ---- ------<br>--- ----- --- --- ------ -------- ----- --- ------ ----- --<br>----- ----- ---------- --- --- ------ ------ ---- -- ------<br>------- --- ------ ----- --- ---- ------- -- ---- --- --<br>------- ------,252716,252694,252227.56,252227,252237.3,252720.58,,7,much
screen,html.Screen,2_1_1_1_8,2021-04-24T18:54:52.148Z,,,,,,,,,,,,,,,,,54,,,,,,,,,,,,,,395.4200000000128,,response,,,,100,,,,,,,Space,keypress(Space),,,,,,,,-- --- ---- --- ------ ----- ------- ---- of --- ------- --<br>------- ---------- ------ -- ----- -- ----- -- ---- ------<br>--- ----- --- --- ------ -------- ----- --- ------ ----- --<br>----- ----- ---------- --- --- ------ ------ ---- -- ------<br>------- --- ------ ----- --- ---- ------- -- ---- --- --<br>------- ------,253140,253116,252718.1,252718,252720.58,253154.12,,8,of
screen,html.Screen,2_1_1_1_9,2021-04-24T18:54:52.544Z,,,,,,,,,,,,,,,,,54,,,,,,,,,,,,,,367.88000000000466,,response,,,,100,,,,,,,Space,keypress(Space),,,,,,,,-- --- ---- --- ------ ----- ------- ---- -- its ------- --<br>------- ---------- ------ -- ----- -- ----- -- ---- ------<br>--- ----- --- --- ------ -------- ----- --- ------ ----- --<br>----- ----- ---------- --- --- ------ ------ ---- -- ------<br>------- --- ------ ----- --- ---- ------- -- ---- --- --<br>------- ------,253536,253522,253141.32,253141,253154.12,253554.06,,9,its
screen,html.Screen,2_1_1_1_10,2021-04-24T18:54:52.976Z,,,,,,,,,,,,,,,,,54,,,,,,,,,,,,,,388.9400000000023,,response,,,,100,,,,,,,Space,keypress(Space),,,,,,,,-- --- ---- --- ------ ----- ------- ---- -- --- revenue --<br>------- ---------- ------ -- ----- -- ----- -- ---- ------<br>--- ----- --- --- ------ -------- ----- --- ------ ----- --<br>----- ----- ---------- --- --- ------ ------ ---- -- ------<br>------- --- ------ ----- --- ---- ------- -- ---- --- --<br>------- ------,253970,253943,253536.92,253536,253554.06,253987.14,,10,revenue
screen,html.Screen,2_1_1_1_11,2021-04-24T18:54:53.511Z,,,,,,,,,,,,,,,,,54,,,,,,,,,,,,,,503.85999999998603,,response,,,,100,,,,,,,Space,keypress(Space),,,,,,,,-- --- ---- --- ------ ----- ------- ---- -- --- ------- by<br>------- ---------- ------ -- ----- -- ----- -- ---- ------<br>--- ----- --- --- ------ -------- ----- --- ------ ----- --<br>----- ----- ---------- --- --- ------ ------ ---- -- ------<br>------- --- ------ ----- --- ---- ------- -- ---- --- --<br>------- ------,254504,254491,253970.34,253970,253987.14,254520.62,,11,by
screen,html.Screen,2_1_1_1_12,2021-04-24T18:54:54.089Z,,,,,,,,,,,,,,,,,54,,,,,,,,,,,,,,547.3800000000047,,response,,,,100,,,,,,,Space,keypress(Space),,,,,,,,-- --- ---- --- ------ ----- ------- ---- -- --- ------- --<br>issuing ---------- ------ -- ----- -- ----- -- ---- ------<br>--- ----- --- --- ------ -------- ----- --- ------ ----- --<br>----- ----- ---------- --- --- ------ ------ ---- -- ------<br>------- --- ------ ----- --- ---- ------- -- ---- --- --<br>------- ------,255081,255068,254504.4,254504,254520.62,255086.94,,12,issuing
screen,html.Screen,2_1_1_1_13,2021-04-24T18:54:54.874Z,,,,,,,,,,,,,,,,,54,,,,,,,,,,,,,,763.0599999999977,,response,,,,100,,,,,,,Space,keypress(Space),,,,,,,,-- --- ---- --- ------ ----- ------- ---- -- --- ------- --<br>------- government ------ -- ----- -- ----- -- ---- ------<br>--- ----- --- --- ------ -------- ----- --- ------ ----- --<br>----- ----- ---------- --- --- ------ ------ ---- -- ------<br>------- --- ------ ----- --- ---- ------- -- ---- --- --<br>------- ------,255867,255850,255082.44,255082,255086.94,255870.22,,13,government
screen,html.Screen,2_1_1_1_14,2021-04-24T18:54:55.368Z,,,,,,,,,,,,,,,,,54,,,,,,,,,,,,,,478.77999999999884,,response,,,,100,,,,,,,Space,keypress(Space),,,,,,,,-- --- ---- --- ------ ----- ------- ---- -- --- ------- --<br>------- ---------- bonds. -- ----- -- ----- -- ---- ------<br>--- ----- --- --- ------ -------- ----- --- ------ ----- --<br>----- ----- ---------- --- --- ------ ------ ---- -- ------<br>------- --- ------ ----- --- ---- ------- -- ---- --- --<br>------- ------,256361,256349,255868.64,255868,255870.22,256370.16,,14,bonds.
screen,html.Screen,2_1_1_1_15,2021-04-24T18:54:57.292Z,,,,,,,,,,,,,,,,,54,,,,,,,,,,,,,,1901.8399999999965,,response,,,,100,,,,,,,Space,keypress(Space),,,,,,,,-- --- ---- --- ------ ----- ------- ---- -- --- ------- --<br>------- ---------- ------ In ----- -- ----- -- ---- ------<br>--- ----- --- --- ------ -------- ----- --- ------ ----- --<br>----- ----- ---------- --- --- ------ ------ ---- -- ------<br>------- --- ------ ----- --- ---- ------- -- ---- --- --<br>------- ------,258285,258272,256361.68,256362,256370.16,258287.04,,15,In
screen,html.Screen,2_1_1_1_16,2021-04-24T18:54:58.256Z,,,,,,,,,,,,,,,,,54,,,,,,,,,,,,,,937.9599999999919,,response,,,,100,,,,,,,Space,keypress(Space),,,,,,,,"-- --- ---- --- ------ ----- ------- ---- -- --- ------- --<br>------- ---------- ------ -- 1727, -- ----- -- ---- ------<br>--- ----- --- --- ------ -------- ----- --- ------ ----- --<br>----- ----- ---------- --- --- ------ ------ ---- -- ------<br>------- --- ------ ----- --- ---- ------- -- ---- --- --<br>------- ------",259248,259225,258285.66,258285,258287.04,259253.14,,16,"1727,"
screen,html.Screen,2_1_1_1_17,2021-04-24T18:54:58.841Z,,,,,,,,,,,,,,,,,54,,,,,,,,,,,,,,565.859999999986,,response,,,,100,,,,,,,Space,keypress(Space),,,,,,,,-- --- ---- --- ------ ----- ------- ---- -- --- ------- --<br>------- ---------- ------ -- ----- in ----- -- ---- ------<br>--- ----- --- --- ------ -------- ----- --- ------ ----- --<br>----- ----- ---------- --- --- ------ ------ ---- -- ------<br>------- --- ------ ----- --- ---- ------- -- ---- --- --<br>------- ------,259833,259819,259249.04,259248,259253.14,259836.4,,17,in
screen,html.Screen,2_1_1_1_18,2021-04-24T18:54:59.561Z,,,,,,,,,,,,,,,,,54,,,,,,,,,,,,,,700.6000000000058,,response,,,,100,,,,,,,Space,keypress(Space),,,,,,,,-- --- ---- --- ------ ----- ------- ---- -- --- ------- --<br>------- ---------- ------ -- ----- -- order -- ---- ------<br>--- ----- --- --- ------ -------- ----- --- ------ ----- --<br>----- ----- ---------- --- --- ------ ------ ---- -- ------<br>------- --- ------ ----- --- ---- ------- -- ---- --- --<br>------- ------,260553,260537,259834.04,259833,259836.4,260569.64,,18,order
screen,html.Screen,2_1_1_1_19,2021-04-24T18:55:00.098Z,,,,,,,,,,,,,,,,,54,,,,,,,,,,,,,,515.359999999986,,response,,,,100,,,,,,,Space,keypress(Space),,,,,,,,-- --- ---- --- ------ ----- ------- ---- -- --- ------- --<br>------- ---------- ------ -- ----- -- ----- to ---- ------<br>--- ----- --- --- ------ -------- ----- --- ------ ----- --<br>----- ----- ---------- --- --- ------ ------ ---- -- ------<br>------- --- ------ ----- --- ---- ------- -- ---- --- --<br>------- ------,261091,261085,260554.72,260554,260569.64,261102.84,,19,to
screen,html.Screen,2_1_1_1_20,2021-04-24T18:55:00.526Z,,,,,,,,,,,,,,,,,54,,,,,,,,,,,,,,402.1600000000035,,response,,,,100,,,,,,,Space,keypress(Space),,,,,,,,-- --- ---- --- ------ ----- ------- ---- -- --- ------- --<br>------- ---------- ------ -- ----- -- ----- -- save ------<br>--- ----- --- --- ------ -------- ----- --- ------ ----- --<br>----- ----- ---------- --- --- ------ ------ ---- -- ------<br>------- --- ------ ----- --- ---- ------- -- ---- --- --<br>------- ------,261519,261505,261091.22,261091,261102.84,261536.42,,20,save
screen,html.Screen,2_1_1_1_21,2021-04-24T18:55:01.248Z,,,,,,,,,,,,,,,,,54,,,,,,,,,,,,,,687.5799999999872,,response,,,,100,,,,,,,Space,keypress(Space),,,,,,,,"-- --- ---- --- ------ ----- ------- ---- -- --- ------- --<br>------- ---------- ------ -- ----- -- ----- -- ---- money,<br>--- ----- --- --- ------ -------- ----- --- ------ ----- --<br>----- ----- ---------- --- --- ------ ------ ---- -- ------<br>------- --- ------ ----- --- ---- ------- -- ---- --- --<br>------- ------",262241,262224,261519.86,261519,261536.42,262252.66,,21,"money,"
screen,html.Screen,2_1_1_1_22,2021-04-24T18:55:01.733Z,,,,,,,,,,,,,,,,,54,,,,,,,,,,,,,,456.3400000000256,,response,,,,100,,,,,,,Space,keypress(Space),,,,,,,,-- --- ---- --- ------ ----- ------- ---- -- --- ------- --<br>------- ---------- ------ -- ----- -- ----- -- ---- ------<br>the ----- --- --- ------ -------- ----- --- ------ ----- --<br>----- ----- ---------- --- --- ------ ------ ---- -- ------<br>------- --- ------ ----- --- ---- ------- -- ---- --- --<br>------- ------,262725,262709,262241.7,262241,262252.66,262736.02,,22,the
screen,html.Screen,2_1_1_1_23,2021-04-24T18:55:02.141Z,,,,,,,,,,,,,,,,,54,,,,,,,,,,,,,,378.9799999999814,,response,,,,100,,,,,,,Space,keypress(Space),,,,,,,,-- --- ---- --- ------ ----- ------- ---- -- --- ------- --<br>------- ---------- ------ -- ----- -- ----- -- ---- ------<br>--- state --- --- ------ -------- ----- --- ------ ----- --<br>----- ----- ---------- --- --- ------ ------ ---- -- ------<br>------- --- ------ ----- --- ---- ------- -- ---- --- --<br>------- ------,263133,263115,262726.4,262726,262736.02,263135.96,,23,state
screen,html.Screen,2_1_1_1_24,2021-04-24T18:55:02.555Z,,,,,,,,,,,,,,,,,54,,,,,,,,,,,,,,401.03999999997905,,response,,,,100,,,,,,,Space,keypress(Space),,,,,,,,-- --- ---- --- ------ ----- ------- ---- -- --- ------- --<br>------- ---------- ------ -- ----- -- ----- -- ---- ------<br>--- ----- cut --- ------ -------- ----- --- ------ ----- --<br>----- ----- ---------- --- --- ------ ------ ---- -- ------<br>------- --- ------ ----- --- ---- ------- -- ---- --- --<br>------- ------,263548,263537,263134.6,263134,263135.96,263552.6,,24,cut
screen,html.Screen,2_1_1_1_25,2021-04-24T18:55:02.978Z,,,,,,,,,,,,,,,,,54,,,,,,,,,,,,,,391.4000000000233,,response,,,,100,,,,,,,Space,keypress(Space),,,,,,,,-- --- ---- --- ------ ----- ------- ---- -- --- ------- --<br>------- ---------- ------ -- ----- -- ----- -- ---- ------<br>--- ----- --- the ------ -------- ----- --- ------ ----- --<br>----- ----- ---------- --- --- ------ ------ ---- -- ------<br>------- --- ------ ----- --- ---- ------- -- ---- --- --<br>------- ------,263971,263944,263548.54,263548,263552.6,263986.12,,25,the
screen,html.Screen,2_1_1_1_26,2021-04-24T18:55:03.362Z,,,,,,,,,,,,,,,,,54,,,,,,,,,,,,,,347.88000000000466,,response,,,,100,,,,,,,Space,keypress(Space),,,,,,,,-- --- ---- --- ------ ----- ------- ---- -- --- ------- --<br>------- ---------- ------ -- ----- -- ----- -- ---- ------<br>--- ----- --- --- bonds' -------- ----- --- ------ ----- --<br>----- ----- ---------- --- --- ------ ------ ---- -- ------<br>------- --- ------ ----- --- ---- ------- -- ---- --- --<br>------- ------,264354,264334,263971.66,263971,263986.12,264369.42,,26,bonds'
screen,html.Screen,2_1_1_1_27,2021-04-24T18:55:03.792Z,,,,,,,,,,,,,,,,,54,,,,,,,,,,,,,,402.5800000000163,,response,,,,100,,,,,,,Space,keypress(Space),,,,,,,,-- --- ---- --- ------ ----- ------- ---- -- --- ------- --<br>------- ---------- ------ -- ----- -- ----- -- ---- ------<br>--- ----- --- --- ------ interest ----- --- ------ ----- --<br>----- ----- ---------- --- --- ------ ------ ---- -- ------<br>------- --- ------ ----- --- ---- ------- -- ---- --- --<br>------- ------,264786,264772,264354.82,264354,264369.42,264802.68,,27,interest
screen,html.Screen,2_1_1_1_28,2021-04-24T18:55:04.287Z,,,,,,,,,,,,,,,,,54,,,,,,,,,,,,,,469.320000000007,,response,,,,100,,,,,,,Space,keypress(Space),,,,,,,,-- --- ---- --- ------ ----- ------- ---- -- --- ------- --<br>------- ---------- ------ -- ----- -- ----- -- ---- ------<br>--- ----- --- --- ------ -------- rate. --- ------ ----- --<br>----- ----- ---------- --- --- ------ ------ ---- -- ------<br>------- --- ------ ----- --- ---- ------- -- ---- --- --<br>------- ------,265279,265272,264786.08,264786,264802.68,265285.64,,28,rate.
screen,html.Screen,2_1_1_1_29,2021-04-24T18:55:05.052Z,,,,,,,,,,,,,,,,,54,,,,,,,,,,,,,,751.359999999986,,response,,,,100,,,,,,,Space,keypress(Space),,,,,,,,-- --- ---- --- ------ ----- ------- ---- -- --- ------- --<br>------- ---------- ------ -- ----- -- ----- -- ---- ------<br>--- ----- --- --- ------ -------- ----- The ------ ----- --<br>----- ----- ---------- --- --- ------ ------ ---- -- ------<br>------- --- ------ ----- --- ---- ------- -- ---- --- --<br>------- ------,266045,266037,265280.08,265279,265285.64,266052.28,,29,The
screen,html.Screen,2_1_1_1_30,2021-04-24T18:55:05.496Z,,,,,,,,,,,,,,,,,54,,,,,,,,,,,,,,422.71999999997206,,response,,,,100,,,,,,,Space,keypress(Space),,,,,,,,-- --- ---- --- ------ ----- ------- ---- -- --- ------- --<br>------- ---------- ------ -- ----- -- ----- -- ---- ------<br>--- ----- --- --- ------ -------- ----- --- market ----- --<br>----- ----- ---------- --- --- ------ ------ ---- -- ------<br>------- --- ------ ----- --- ---- ------- -- ---- --- --<br>------- ------,266488,266475,266046.1,266045,266052.28,266502.2,,30,market
screen,html.Screen,2_1_1_1_31,2021-04-24T18:55:05.829Z,,,,,,,,,,,,,,,,,54,,,,,,,,,,,,,,300.79999999998836,,response,,,,100,,,,,,,Space,keypress(Space),,,,,,,,-- --- ---- --- ------ ----- ------- ---- -- --- ------- --<br>------- ---------- ------ -- ----- -- ----- -- ---- ------<br>--- ----- --- --- ------ -------- ----- --- ------ value --<br>----- ----- ---------- --- --- ------ ------ ---- -- ------<br>------- --- ------ ----- --- ---- ------- -- ---- --- --<br>------- ------,266821,266803,266489.6,266489,266502.2,266835.78,,31,value
screen,html.Screen,2_1_1_1_32,2021-04-24T18:55:06.244Z,,,,,,,,,,,,,,,,,54,,,,,,,,,,,,,,389.21999999997206,,response,,,,100,,,,,,,Space,keypress(Space),,,,,,,,-- --- ---- --- ------ ----- ------- ---- -- --- ------- --<br>------- ---------- ------ -- ----- -- ----- -- ---- ------<br>--- ----- --- --- ------ -------- ----- --- ------ ----- of<br>----- ----- ---------- --- --- ------ ------ ---- -- ------<br>------- --- ------ ----- --- ---- ------- -- ---- --- --<br>------- ------,267236,267225,266821.92,266822,266835.78,267252.5,,32,of
screen,html.Screen,2_1_1_1_33,2021-04-24T18:55:06.695Z,,,,,,,,,,,,,,,,,54,,,,,,,,,,,,,,409.5,,response,,,,100,,,,,,,Space,keypress(Space),,,,,,,,-- --- ---- --- ------ ----- ------- ---- -- --- ------- --<br>------- ---------- ------ -- ----- -- ----- -- ---- ------<br>--- ----- --- --- ------ -------- ----- --- ------ ----- --<br>these ----- ---------- --- --- ------ ------ ---- -- ------<br>------- --- ------ ----- --- ---- ------- -- ---- --- --<br>------- ------,267688,267662,267237.32,267237,267252.5,267702.08,,33,these
screen,html.Screen,2_1_1_1_34,2021-04-24T18:55:07.158Z,,,,,,,,,,,,,,,,,54,,,,,,,,,,,,,,427.9199999999837,,response,,,,100,,,,,,,Space,keypress(Space),,,,,,,,-- --- ---- --- ------ ----- ------- ---- -- --- ------- --<br>------- ---------- ------ -- ----- -- ----- -- ---- ------<br>--- ----- --- --- ------ -------- ----- --- ------ ----- --<br>----- bonds ---------- --- --- ------ ------ ---- -- ------<br>------- --- ------ ----- --- ---- ------- -- ---- --- --<br>------- ------,268151,268130,267689.44,267689,267702.08,268168.62,,34,bonds
screen,html.Screen,2_1_1_1_35,2021-04-24T18:55:07.846Z,,,,,,,,,,,,,,,,,54,,,,,,,,,,,,,,649.3800000000047,,response,,,,100,,,,,,,Space,keypress(Space),,,,,,,,"-- --- ---- --- ------ ----- ------- ---- -- --- ------- --<br>------- ---------- ------ -- ----- -- ----- -- ---- ------<br>--- ----- --- --- ------ -------- ----- --- ------ ----- --<br>----- ----- plummeted, --- --- ------ ------ ---- -- ------<br>------- --- ------ ----- --- ---- ------- -- ---- --- --<br>------- ------",268838,268818,268151.12,268151,268168.62,268851.92,,35,"plummeted,"
screen,html.Screen,2_1_1_1_36,2021-04-24T18:55:08.263Z,,,,,,,,,,,,,,,,,54,,,,,,,,,,,,,,389.0800000000163,,response,,,,100,,,,,,,Space,keypress(Space),,,,,,,,-- --- ---- --- ------ ----- ------- ---- -- --- ------- --<br>------- ---------- ------ -- ----- -- ----- -- ---- ------<br>--- ----- --- --- ------ -------- ----- --- ------ ----- --<br>----- ----- ---------- and --- ------ ------ ---- -- ------<br>------- --- ------ ----- --- ---- ------- -- ---- --- --<br>------- ------,269256,269241,268839.54,268839,268851.92,269268.6,,36,and
screen,html.Screen,2_1_1_1_37,2021-04-24T18:55:08.656Z,,,,,,,,,,,,,,,,,54,,,,,,,,,,,,,,362.4000000000233,,response,,,,100,,,,,,,Space,keypress(Space),,,,,,,,-- --- ---- --- ------ ----- ------- ---- -- --- ------- --<br>------- ---------- ------ -- ----- -- ----- -- ---- ------<br>--- ----- --- --- ------ -------- ----- --- ------ ----- --<br>----- ----- ---------- --- the ------ ------ ---- -- ------<br>------- --- ------ ----- --- ---- ------- -- ---- --- --<br>------- ------,269649,269631,269256.38,269256,269268.6,269651.86,,37,the
screen,html.Screen,2_1_1_1_38,2021-04-24T18:55:09.188Z,,,,,,,,,,,,,,,,,54,,,,,,,,,,,,,,511.14000000001397,,response,,,,100,,,,,,,Space,keypress(Space),,,,,,,,-- --- ---- --- ------ ----- ------- ---- -- --- ------- --<br>------- ---------- ------ -- ----- -- ----- -- ---- ------<br>--- ----- --- --- ------ -------- ----- --- ------ ----- --<br>----- ----- ---------- --- --- market ------ ---- -- ------<br>------- --- ------ ----- --- ---- ------- -- ---- --- --<br>------- ------,270180,270163,269649.88,269649,269651.86,270185.14,,38,market
screen,html.Screen,2_1_1_1_39,2021-04-24T18:55:09.566Z,,,,,,,,,,,,,,,,,54,,,,,,,,,,,,,,351.85999999998603,,response,,,,100,,,,,,,Space,keypress(Space),,,,,,,,-- --- ---- --- ------ ----- ------- ---- -- --- ------- --<br>------- ---------- ------ -- ----- -- ----- -- ---- ------<br>--- ----- --- --- ------ -------- ----- --- ------ ----- --<br>----- ----- ---------- --- --- ------ became ---- -- ------<br>------- --- ------ ----- --- ---- ------- -- ---- --- --<br>------- ------,270559,270537,270181.22,270181,270185.14,270568.36,,39,became
screen,html.Screen,2_1_1_1_40,2021-04-24T18:55:09.958Z,,,,,,,,,,,,,,,,,54,,,,,,,,,,,,,,359.64000000001397,,response,,,,100,,,,,,,Space,keypress(Space),,,,,,,,-- --- ---- --- ------ ----- ------- ---- -- --- ------- --<br>------- ---------- ------ -- ----- -- ----- -- ---- ------<br>--- ----- --- --- ------ -------- ----- --- ------ ----- --<br>----- ----- ---------- --- --- ------ ------ wary -- ------<br>------- --- ------ ----- --- ---- ------- -- ---- --- --<br>------- ------,270950,270928,270559.78,270559,270568.36,270968.24,,40,wary
screen,html.Screen,2_1_1_1_41,2021-04-24T18:55:10.349Z,,,,,,,,,,,,,,,,,54,,,,,,,,,,,,,,365.7600000000093,,response,,,,100,,,,,,,Space,keypress(Space),,,,,,,,-- --- ---- --- ------ ----- ------- ---- -- --- ------- --<br>------- ---------- ------ -- ----- -- ----- -- ---- ------<br>--- ----- --- --- ------ -------- ----- --- ------ ----- --<br>----- ----- ---------- --- --- ------ ------ ---- of ------<br>------- --- ------ ----- --- ---- ------- -- ---- --- --<br>------- ------,271342,271334,270951.02,270950,270968.24,271351.66,,41,of
screen,html.Screen,2_1_1_1_42,2021-04-24T18:55:10.841Z,,,,,,,,,,,,,,,,,54,,,,,,,,,,,,,,467.3400000000256,,response,,,,100,,,,,,,Space,keypress(Space),,,,,,,,-- --- ---- --- ------ ----- ------- ---- -- --- ------- --<br>------- ---------- ------ -- ----- -- ----- -- ---- ------<br>--- ----- --- --- ------ -------- ----- --- ------ ----- --<br>----- ----- ---------- --- --- ------ ------ ---- -- French<br>------- --- ------ ----- --- ---- ------- -- ---- --- --<br>------- ------,271834,271819,271342.4,271342,271351.66,271851.82,,42,French
screen,html.Screen,2_1_1_1_43,2021-04-24T18:55:11.585Z,,,,,,,,,,,,,,,,,54,,,,,,,,,,,,,,716.179999999993,,response,,,,100,,,,,,,Space,keypress(Space),,,,,,,,-- --- ---- --- ------ ----- ------- ---- -- --- ------- --<br>------- ---------- ------ -- ----- -- ----- -- ---- ------<br>--- ----- --- --- ------ -------- ----- --- ------ ----- --<br>----- ----- ---------- --- --- ------ ------ ---- -- ------<br>credit. --- ------ ----- --- ---- ------- -- ---- --- --<br>------- ------,272578,272568,271834.66,271834,271851.82,272584.84,,43,credit.
screen,html.Screen,2_1_1_1_44,2021-04-24T18:55:12.004Z,,,,,,,,,,,,,,,,,54,,,,,,,,,,,,,,389.1599999999744,,response,,,,100,,,,,,,Space,keypress(Space),,,,,,,,-- --- ---- --- ------ ----- ------- ---- -- --- ------- --<br>------- ---------- ------ -- ----- -- ----- -- ---- ------<br>--- ----- --- --- ------ -------- ----- --- ------ ----- --<br>----- ----- ---------- --- --- ------ ------ ---- -- ------<br>------- The ------ ----- --- ---- ------- -- ---- --- --<br>------- ------,272997,272974,272579.12,272579,272584.84,273001.46,,44,The
screen,html.Screen,2_1_1_1_45,2021-04-24T18:55:12.399Z,,,,,,,,,,,,,,,,,54,,,,,,,,,,,,,,378.53999999997905,,response,,,,100,,,,,,,Space,keypress(Space),,,,,,,,-- --- ---- --- ------ ----- ------- ---- -- --- ------- --<br>------- ---------- ------ -- ----- -- ----- -- ---- ------<br>--- ----- --- --- ------ -------- ----- --- ------ ----- --<br>----- ----- ---------- --- --- ------ ------ ---- -- ------<br>------- --- French ----- --- ---- ------- -- ---- --- --<br>------- ------,273392,273380,272997.54,272997,273001.46,273401.38,,45,French
screen,html.Screen,2_1_1_1_46,2021-04-24T18:55:12.820Z,,,,,,,,,,,,,,,,,54,,,,,,,,,,,,,,401.61999999999534,,response,,,,100,,,,,,,Space,keypress(Space),,,,,,,,-- --- ---- --- ------ ----- ------- ---- -- --- ------- --<br>------- ---------- ------ -- ----- -- ----- -- ---- ------<br>--- ----- --- --- ------ -------- ----- --- ------ ----- --<br>----- ----- ---------- --- --- ------ ------ ---- -- ------<br>------- --- ------ state --- ---- ------- -- ---- --- --<br>------- ------,273813,273803,273393.08,273393,273401.38,273817.98,,46,state
screen,html.Screen,2_1_1_1_47,2021-04-24T18:55:13.249Z,,,,,,,,,,,,,,,,,54,,,,,,,,,,,,,,407.0200000000186,,response,,,,100,,,,,,,Space,keypress(Space),,,,,,,,-- --- ---- --- ------ ----- ------- ---- -- --- ------- --<br>------- ---------- ------ -- ----- -- ----- -- ---- ------<br>--- ----- --- --- ------ -------- ----- --- ------ ----- --<br>----- ----- ---------- --- --- ------ ------ ---- -- ------<br>------- --- ------ ----- was ---- ------- -- ---- --- --<br>------- ------,274241,274225,273814.42,273814,273817.98,274251.28,,47,was
screen,html.Screen,2_1_1_1_48,2021-04-24T18:55:13.612Z,,,,,,,,,,,,,,,,,54,,,,,,,,,,,,,,333.71999999997206,,response,,,,100,,,,,,,Space,keypress(Space),,,,,,,,-- --- ---- --- ------ ----- ------- ---- -- --- ------- --<br>------- ---------- ------ -- ----- -- ----- -- ---- ------<br>--- ----- --- --- ------ -------- ----- --- ------ ----- --<br>----- ----- ---------- --- --- ------ ------ ---- -- ------<br>------- --- ------ ----- --- left ------- -- ---- --- --<br>------- ------,274604,274585,274242.58,274242,274251.28,274617.88,,48,left
screen,html.Screen,2_1_1_1_49,2021-04-24T18:55:13.964Z,,,,,,,,,,,,,,,,,54,,,,,,,,,,,,,,325.11999999999534,,response,,,,100,,,,,,,Space,keypress(Space),,,,,,,,-- --- ---- --- ------ ----- ------- ---- -- --- ------- --<br>------- ---------- ------ -- ----- -- ----- -- ---- ------<br>--- ----- --- --- ------ -------- ----- --- ------ ----- --<br>----- ----- ---------- --- --- ------ ------ ---- -- ------<br>------- --- ------ ----- --- ---- without -- ---- --- --<br>------- ------,274956,274943,274605.58,274605,274617.88,274967.82,,49,without
screen,html.Screen,2_1_1_1_50,2021-04-24T18:55:14.334Z,,,,,,,,,,,,,,,,,54,,,,,,,,,,,,,,335.179999999993,,response,,,,100,,,,,,,Space,keypress(Space),,,,,,,,-- --- ---- --- ------ ----- ------- ---- -- --- ------- --<br>------- ---------- ------ -- ----- -- ----- -- ---- ------<br>--- ----- --- --- ------ -------- ----- --- ------ ----- --<br>----- ----- ---------- --- --- ------ ------ ---- -- ------<br>------- --- ------ ----- --- ---- ------- an ---- --- --<br>------- ------,275326,275303,274957.2,274957,274967.82,275334.74,,50,an
screen,html.Screen,2_1_1_1_51,2021-04-24T18:55:14.703Z,,,,,,,,,,,,,,,,,54,,,,,,,,,,,,,,342.2600000000093,,response,,,,100,,,,,,,Space,keypress(Space),,,,,,,,-- --- ---- --- ------ ----- ------- ---- -- --- ------- --<br>------- ---------- ------ -- ----- -- ----- -- ---- ------<br>--- ----- --- --- ------ -------- ----- --- ------ ----- --<br>----- ----- ---------- --- --- ------ ------ ---- -- ------<br>------- --- ------ ----- --- ---- ------- -- easy --- --<br>------- ------,275696,275677,275326.48,275326,275334.74,275701.14,,51,easy
screen,html.Screen,2_1_1_1_52,2021-04-24T18:55:15.080Z,,,,,,,,,,,,,,,,,54,,,,,,,,,,,,,,351.85999999998603,,response,,,,100,,,,,,,Space,keypress(Space),,,,,,,,-- --- ---- --- ------ ----- ------- ---- -- --- ------- --<br>------- ---------- ------ -- ----- -- ----- -- ---- ------<br>--- ----- --- --- ------ -------- ----- --- ------ ----- --<br>----- ----- ---------- --- --- ------ ------ ---- -- ------<br>------- --- ------ ----- --- ---- ------- -- ---- way --<br>------- ------,276072,276053,275696.3,275696,275701.14,276084.32,,52,way
screen,html.Screen,2_1_1_1_53,2021-04-24T18:55:15.507Z,,,,,,,,,,,,,,,,,54,,,,,,,,,,,,,,405.679999999993,,response,,,,100,,,,,,,Space,keypress(Space),,,,,,,,-- --- ---- --- ------ ----- ------- ---- -- --- ------- --<br>------- ---------- ------ -- ----- -- ----- -- ---- ------<br>--- ----- --- --- ------ -------- ----- --- ------ ----- --<br>----- ----- ---------- --- --- ------ ------ ---- -- ------<br>------- --- ------ ----- --- ---- ------- -- ---- --- of<br>------- ------,276499,276490,276072.82,276072,276084.32,276517.64,,53,of
screen,html.Screen,2_1_1_1_54,2021-04-24T18:55:15.942Z,,,,,,,,,,,,,,,,,54,,,,,,,,,,,,,,395.35999999998603,,response,,,,100,,,,,,,Space,keypress(Space),,,,,,,,-- --- ---- --- ------ ----- ------- ---- -- --- ------- --<br>------- ---------- ------ -- ----- -- ----- -- ---- ------<br>--- ----- --- --- ------ -------- ----- --- ------ ----- --<br>----- ----- ---------- --- --- ------ ------ ---- -- ------<br>------- --- ------ ----- --- ---- ------- -- ---- --- --<br>raising ------,276934,276913,276500.06,276499,276517.64,276950.9,,54,raising
screen,html.Screen,2_1_1_1_55,2021-04-24T18:55:16.450Z,,,,,,,,,,,,,,,,,54,,,,,,,,,,,,,,477.0999999999767,,response,,,,100,,,,,,,Space,keypress(Space),,,,,,,,-- --- ---- --- ------ ----- ------- ---- -- --- ------- --<br>------- ---------- ------ -- ----- -- ----- -- ---- ------<br>--- ----- --- --- ------ -------- ----- --- ------ ----- --<br>----- ----- ---------- --- --- ------ ------ ---- -- ------<br>------- --- ------ ----- --- ---- ------- -- ---- --- --<br>------- money.,277444,277428,276935.02,276935,276950.9,277450.82,,55,money.
Item 100,flow.Loop,2_1_1_1,2021-04-24T18:55:16.452Z,,,,,,,,,,,,,,,,,,,,,,,,,,,,,,,31973.22,,completion,,,,,E,,,,,,,,,,,silence,,,,,277444,277428,245438.1,245440,245454.78,277450.82,,,
Question 1,html.Screen,2_1_1_2,2021-04-24T18:55:19.787Z,,,,,,,,,,,,,,,,,,,,,,,,,,,,true,TRUE,,3321.179999999993,,response,,,,100,E,,,,,,TRUE,click #choice-1,,,,silence,,,,,280779,280772,277444.18,277444,277450.82,280800.46,,,
Question 2,html.Screen,2_1_1_3,2021-04-24T18:55:22.031Z,,,,,,,,,,,,,,,,,,,,,,,,,,,,true,FALSE,,2205.539999999979,,response,,,,100,E,,,,,,FALSE,click #choice-2,,,,silence,,,,,283024,283006,280783.84,280780,280800.46,283050.26,,,
Item 100,flow.Sequence,2_1_1,2021-04-24T18:55:22.032Z,,,,,,,,,,,,,,,,,,,,,,,,,,,,,,,47549.95999999999,,completion,,,,,,,,,,,,,,,,,,,,,283025,283006,235439.38,235443,235456.04,283050.26,,,
End of Practice,html.Page,2_1_2,2021-04-24T18:55:28.027Z,,,,,,,,,,,,,,,,,,,,,,,,,,,,,,,5968.739999999991,,form submission,,,,,,,,,,,,,,,,,,,,,289019,289019,283033.66,283025,283050.26,289032.74,,,
Practice,flow.Sequence,2_1,2021-04-24T18:55:28.027Z,,,,,,,,,,,,,,,,,,,,,,,,,,,,,,,117738.51999999999,,completion,,,,,,,,,,,,,,,,,,,,,289020,289019,171263.9,171272,171280.48,289032.74,,,
Trap_instruction,html.Page,2_2_0,2021-04-24T18:55:35.720Z,,,,,,,,,,,,,,,,,,,,,,,,,,,,,,,7678.260000000009,,form submission,,,,,,,,,,,,,,,,,,,,,296713,296711,289016.08,289020,289032.74,296765.14,,,
trap_trial,html.Screen,2_2_1,2021-04-24T18:55:40.184Z,,,,,,,,,,,,,,,,,,,,,,,,,,,,true,1,,4396.859999999986,,response,,,,,,,,,,,1,click #choice-1,,,,,,,,,301177,301162,296748.48,296713,296765.14,301197.92,,,
end of trap trial,html.Page,2_2_2,2021-04-24T18:55:42.151Z,,,,,,,,,,,,,,,,,,,,,,,,,,,,,,,1945.0800000000163,,form submission,,,,,,,,,,,,,,,,,,,,,303144,303143,301181.28,301177,301197.92,303164.34,,,
Trap 1,flow.Sequence,2_2,2021-04-24T18:55:42.152Z,,,,,,,,,,,,,,,,,,,,,,,,,,,,,,,14110.26000000001,,completion,,,,,,,,,,,,,,,,,,,,,303145,303143,289016.08,289020,289032.74,303164.34,,,
Standby,html.Page,2_3_0,2021-04-24T18:55:50.157Z,,,,,,,,,,,,,,,,,,,,,,,,,,,,,,,7999.219999999972,,timeout,,,,,,,,,,,,,,,,,,,,,311149,311146.9,303147.68,303147,303164.34,311163.56,,,
Holding screen,html.Screen,2_3_1_0_0,2021-04-24T18:55:57.155Z,,,,,,,,,,,,,,,,,,,,,,,,,,,,,,,6999,,timeout,,,,,,,,,,,,,,,,,,,,,318148,318145.94,311146.9,311150,311163.56,318162.56,,,
screen,html.Screen,2_3_1_0_1_0,2021-04-24T18:56:00.698Z,,,,,,,,,,,,,,,,,15,,,,,,,,,,,,,,3500.4400000000023,,response,,,,7,E,,,,,,Space,keypress(Space),,,,lyrical,,,,Greg --------- ---------- - --- ------- -- --- ------------<br>----- -- -------- ------- ---- ------ - -------- ---- -----<br>--- ------- ---- -- --- -------- --- - ----- ------ ---- --<br>-------- --- -------- -------- --- -------- ---- -- ----- -<br>-------- ---- --- ---------- --------- -- ------- ------ -<br>--------- ----- -----,321690,321663,318145.94,318149,318162.56,321695.54,,0,Greg
screen,html.Screen,2_3_1_0_1_1,2021-04-24T18:56:01.400Z,,,,,,,,,,,,,,,,,15,,,,,,,,,,,,,,684.460000000021,,response,,,,7,E,,,,,,Space,keypress(Space),,,,lyrical,,,,"---- Anderson, ---------- - --- ------- -- --- ------------<br>----- -- -------- ------- ---- ------ - -------- ---- -----<br>--- ------- ---- -- --- -------- --- - ----- ------ ---- --<br>-------- --- -------- -------- --- -------- ---- -- ----- -<br>-------- ---- --- ---------- --------- -- ------- ------ -<br>--------- ----- -----",322393,322380,321691.26,321691,321695.54,322395.36,,1,"Anderson,"
screen,html.Screen,2_3_1_0_1_2,2021-04-24T18:56:02.100Z,,,,,,,,,,,,,,,,,15,,,,,,,,,,,,,,689.640000000014,,response,,,,7,E,,,,,,Space,keypress(Space),,,,lyrical,,,,---- --------- considered - --- ------- -- --- ------------<br>----- -- -------- ------- ---- ------ - -------- ---- -----<br>--- ------- ---- -- --- -------- --- - ----- ------ ---- --<br>-------- --- -------- -------- --- -------- ---- -- ----- -<br>-------- ---- --- ---------- --------- -- ------- ------ -<br>--------- ----- -----,323092,323085,322393.88,322394,322395.36,323095.32,,2,considered
screen,html.Screen,2_3_1_0_1_3,2021-04-24T18:56:02.719Z,,,,,,,,,,,,,,,,,15,,,,,,,,,,,,,,598.679999999993,,response,,,,7,E,,,,,,Space,keypress(Space),,,,lyrical,,,,---- --------- ---------- a --- ------- -- --- ------------<br>----- -- -------- ------- ---- ------ - -------- ---- -----<br>--- ------- ---- -- --- -------- --- - ----- ------ ---- --<br>-------- --- -------- -------- --- -------- ---- -- ----- -<br>-------- ---- --- ---------- --------- -- ------- ------ -<br>--------- ----- -----,323712,323694,323092.94,323093,323095.32,323728.58,,3,a
screen,html.Screen,2_3_1_0_1_4,2021-04-24T18:56:03.281Z,,,,,,,,,,,,,,,,,15,,,,,,,,,,,,,,526.4199999999837,,response,,,,7,E,,,,,,Space,keypress(Space),,,,lyrical,,,,---- --------- ---------- - key ------- -- --- ------------<br>----- -- -------- ------- ---- ------ - -------- ---- -----<br>--- ------- ---- -- --- -------- --- - ----- ------ ---- --<br>-------- --- -------- -------- --- -------- ---- -- ----- -<br>-------- ---- --- ---------- --------- -- ------- ------ -<br>--------- ----- -----,324274,324255,323713.02,323712,323728.58,324278.52,,4,key
screen,html.Screen,2_3_1_0_1_5,2021-04-24T18:56:03.965Z,,,,,,,,,,,,,,,,,15,,,,,,,,,,,,,,665.4799999999814,,response,,,,7,E,,,,,,Space,keypress(Space),,,,lyrical,,,,---- --------- ---------- - --- witness -- --- ------------<br>----- -- -------- ------- ---- ------ - -------- ---- -----<br>--- ------- ---- -- --- -------- --- - ----- ------ ---- --<br>-------- --- -------- -------- --- -------- ---- -- ----- -<br>-------- ---- --- ---------- --------- -- ------- ------ -<br>--------- ----- -----,324957,324944,324274.54,324274,324278.52,324961.76,,5,witness
screen,html.Screen,2_3_1_0_1_6,2021-04-24T18:56:04.358Z,,,,,,,,,,,,,,,,,15,,,,,,,,,,,,,,372.2399999999907,,response,,,,7,E,,,,,,Space,keypress(Space),,,,lyrical,,,,---- --------- ---------- - --- ------- by --- ------------<br>----- -- -------- ------- ---- ------ - -------- ---- -----<br>--- ------- ---- -- --- -------- --- - ----- ------ ---- --<br>-------- --- -------- -------- --- -------- ---- -- ----- -<br>-------- ---- --- ---------- --------- -- ------- ------ -<br>--------- ----- -----,325351,325334,324958.64,324958,324961.76,325361.7,,6,by
screen,html.Screen,2_3_1_0_1_7,2021-04-24T18:56:04.902Z,,,,,,,,,,,,,,,,,15,,,,,,,,,,,,,,519.2999999999884,,response,,,,7,E,,,,,,Space,keypress(Space),,,,lyrical,,,,---- --------- ---------- - --- ------- -- the ------------<br>----- -- -------- ------- ---- ------ - -------- ---- -----<br>--- ------- ---- -- --- -------- --- - ----- ------ ---- --<br>-------- --- -------- -------- --- -------- ---- -- ----- -<br>-------- ---- --- ---------- --------- -- ------- ------ -<br>--------- ----- -----,325895,325881,325351.78,325352,325361.7,325911.88,,7,the
screen,html.Screen,2_3_1_0_1_8,2021-04-24T18:56:06.312Z,,,,,,,,,,,,,,,,,15,,,,,,,,,,,,,,1375.1199999999953,,response,,,,7,E,,,,,,Space,keypress(Space),,,,lyrical,,,,"---- --------- ---------- - --- ------- -- --- prosecution,<br>----- -- -------- ------- ---- ------ - -------- ---- -----<br>--- ------- ---- -- --- -------- --- - ----- ------ ---- --<br>-------- --- -------- -------- --- -------- ---- -- ----- -<br>-------- ---- --- ---------- --------- -- ------- ------ -<br>--------- ----- -----",327305,327287,325896.02,325895,325911.88,327311.4,,8,"prosecution,"
screen,html.Screen,2_3_1_0_1_9,2021-04-24T18:56:06.735Z,,,,,,,,,,,,,,,,,15,,,,,,,,,,,,,,398.5999999999767,,response,,,,7,E,,,,,,Space,keypress(Space),,,,lyrical,,,,---- --------- ---------- - --- ------- -- --- ------------<br>vowed -- -------- ------- ---- ------ - -------- ---- -----<br>--- ------- ---- -- --- -------- --- - ----- ------ ---- --<br>-------- --- -------- -------- --- -------- ---- -- ----- -<br>-------- ---- --- ---------- --------- -- ------- ------ -<br>--------- ----- -----,327727,327710,327305.96,327305,327311.4,327744.98,,9,vowed
screen,html.Screen,2_3_1_0_1_10,2021-04-24T18:56:07.990Z,,,,,,,,,,,,,,,,,15,,,,,,,,,,,,,,1230.0200000000186,,response,,,,7,E,,,,,,Space,keypress(Space),,,,lyrical,,,,---- --------- ---------- - --- ------- -- --- ------------<br>----- he -------- ------- ---- ------ - -------- ---- -----<br>--- ------- ---- -- --- -------- --- - ----- ------ ---- --<br>-------- --- -------- -------- --- -------- ---- -- ----- -<br>-------- ---- --- ---------- --------- -- ------- ------ -<br>--------- ----- -----,328983,328975,327728.82,327728,327744.98,328994.58,,10,he
screen,html.Screen,2_3_1_0_1_11,2021-04-24T18:56:08.759Z,,,,,,,,,,,,,,,,,15,,,,,,,,,,,,,,746.4199999999837,,response,,,,7,E,,,,,,Space,keypress(Space),,,,lyrical,,,,---- --------- ---------- - --- ------- -- --- ------------<br>----- -- wouldn't ------- ---- ------ - -------- ---- -----<br>--- ------- ---- -- --- -------- --- - ----- ------ ---- --<br>-------- --- -------- -------- --- -------- ---- -- ----- -<br>-------- ---- --- ---------- --------- -- ------- ------ -<br>--------- ----- -----,329752,329741,328983.66,328983,328994.58,329761.18,,11,wouldn't
screen,html.Screen,2_3_1_0_1_12,2021-04-24T18:56:09.259Z,,,,,,,,,,,,,,,,,15,,,,,,,,,,,,,,479.820000000007,,response,,,,7,E,,,,,,Space,keypress(Space),,,,lyrical,,,,---- --------- ---------- - --- ------- -- --- ------------<br>----- -- -------- testify ---- ------ - -------- ---- -----<br>--- ------- ---- -- --- -------- --- - ----- ------ ---- --<br>-------- --- -------- -------- --- -------- ---- -- ----- -<br>-------- ---- --- ---------- --------- -- ------- ------ -<br>--------- ----- -----,330251,330241,329752.96,329752,329761.18,330261.12,,12,testify
screen,html.Screen,2_3_1_0_1_13,2021-04-24T18:56:09.995Z,,,,,,,,,,,,,,,,,15,,,,,,,,,,,,,,712.8800000000047,,response,,,,7,E,,,,,,Space,keypress(Space),,,,lyrical,,,,---- --------- ---------- - --- ------- -- --- ------------<br>----- -- -------- ------- when ------ - -------- ---- -----<br>--- ------- ---- -- --- -------- --- - ----- ------ ---- --<br>-------- --- -------- -------- --- -------- ---- -- ----- -<br>-------- ---- --- ---------- --------- -- ------- ------ -<br>--------- ----- -----,330987,330974,330251.98,330251,330261.12,330994.34,,13,when
screen,html.Screen,2_3_1_0_1_14,2021-04-24T18:56:10.635Z,,,,,,,,,,,,,,,,,15,,,,,,,,,,,,,,620.6599999999744,,response,,,,7,E,,,,,,Space,keypress(Space),,,,lyrical,,,,---- --------- ---------- - --- ------- -- --- ------------<br>----- -- -------- ------- ---- served - -------- ---- -----<br>--- ------- ---- -- --- -------- --- - ----- ------ ---- --<br>-------- --- -------- -------- --- -------- ---- -- ----- -<br>-------- ---- --- ---------- --------- -- ------- ------ -<br>--------- ----- -----,331628,331615,330989.42,330989,330994.34,331644.5,,14,served
screen,html.Screen,2_3_1_0_1_15,2021-04-24T18:56:11.022Z,,,,,,,,,,,,,,,,,15,,,,,,,,,,,,,,360.5,,response,,,,7,E,,,,,,Space,keypress(Space),,,,lyrical,,,,---- --------- ---------- - --- ------- -- --- ------------<br>----- -- -------- ------- ---- ------ a -------- ---- -----<br>--- ------- ---- -- --- -------- --- - ----- ------ ---- --<br>-------- --- -------- -------- --- -------- ---- -- ----- -<br>-------- ---- --- ---------- --------- -- ------- ------ -<br>--------- ----- -----,332014,332005,331629.04,331629,331644.5,332027.54,,15,a
screen,html.Screen,2_3_1_0_1_16,2021-04-24T18:56:12.017Z,,,,,,,,,,,,,,,,,15,,,,,,,,,,,,,,963.460000000021,,response,,,,7,E,,,,,,Space,keypress(Space),,,,lyrical,,,,---- --------- ---------- - --- ------- -- --- ------------<br>----- -- -------- ------- ---- ------ - subpoena ---- -----<br>--- ------- ---- -- --- -------- --- - ----- ------ ---- --<br>-------- --- -------- -------- --- -------- ---- -- ----- -<br>-------- ---- --- ---------- --------- -- ------- ------ -<br>--------- ----- -----,333009,332991,332015.08,332014,332027.54,333027.5,,16,subpoena
screen,html.Screen,2_3_1_0_1_17,2021-04-24T18:56:12.532Z,,,,,,,,,,,,,,,,,15,,,,,,,,,,,,,,477.5,,response,,,,7,E,,,,,,Space,keypress(Space),,,,lyrical,,,,---- --------- ---------- - --- ------- -- --- ------------<br>----- -- -------- ------- ---- ------ - -------- last -----<br>--- ------- ---- -- --- -------- --- - ----- ------ ---- --<br>-------- --- -------- -------- --- -------- ---- -- ----- -<br>-------- ---- --- ---------- --------- -- ------- ------ -<br>--------- ----- -----,333525,333505,333010.48,333010,333027.5,333544,,17,last
screen,html.Screen,2_3_1_0_1_18,2021-04-24T18:56:13.010Z,,,,,,,,,,,,,,,,,15,,,,,,,,,,,,,,446,,response,,,,7,E,,,,,,Space,keypress(Space),,,,lyrical,,,,---- --------- ---------- - --- ------- -- --- ------------<br>----- -- -------- ------- ---- ------ - -------- ---- week.<br>--- ------- ---- -- --- -------- --- - ----- ------ ---- --<br>-------- --- -------- -------- --- -------- ---- -- ----- -<br>-------- ---- --- ---------- --------- -- ------- ------ -<br>--------- ----- -----,334004,333990,333527.34,333525,333544,334010.62,,18,week.
screen,html.Screen,2_3_1_0_1_19,2021-04-24T18:56:14.739Z,,,,,,,,,,,,,,,,,15,,,,,,,,,,,,,,1714.3800000000047,,response,,,,7,E,,,,,,Space,keypress(Space),,,,lyrical,,,,---- --------- ---------- - --- ------- -- --- ------------<br>----- -- -------- ------- ---- ------ - -------- ---- -----<br>His ------- ---- -- --- -------- --- - ----- ------ ---- --<br>-------- --- -------- -------- --- -------- ---- -- ----- -<br>-------- ---- --- ---------- --------- -- ------- ------ -<br>--------- ----- -----,335732,335725,334004.28,334004,334010.62,335743.78,,19,His
screen,html.Screen,2_3_1_0_1_20,2021-04-24T18:56:15.317Z,,,,,,,,,,,,,,,,,15,,,,,,,,,,,,,,543.2199999999721,,response,,,,7,E,,,,,,Space,keypress(Space),,,,lyrical,,,,---- --------- ---------- - --- ------- -- --- ------------<br>----- -- -------- ------- ---- ------ - -------- ---- -----<br>--- lawyers ---- -- --- -------- --- - ----- ------ ---- --<br>-------- --- -------- -------- --- -------- ---- -- ----- -<br>-------- ---- --- ---------- --------- -- ------- ------ -<br>--------- ----- -----,336310,336287,335733.22,335733,335743.78,336327.14,,20,lawyers
screen,html.Screen,2_3_1_0_1_21,2021-04-24T18:56:15.755Z,,,,,,,,,,,,,,,,,15,,,,,,,,,,,,,,397.85999999998603,,response,,,,7,E,,,,,,Space,keypress(Space),,,,lyrical,,,,---- --------- ---------- - --- ------- -- --- ------------<br>----- -- -------- ------- ---- ------ - -------- ---- -----<br>--- ------- said -- --- -------- --- - ----- ------ ---- --<br>-------- --- -------- -------- --- -------- ---- -- ----- -<br>-------- ---- --- ---------- --------- -- ------- ------ -<br>--------- ----- -----,336748,336725,336309.96,336310,336327.14,336760.32,,21,said
screen,html.Screen,2_3_1_0_1_22,2021-04-24T18:56:16.092Z,,,,,,,,,,,,,,,,,15,,,,,,,,,,,,,,308.679999999993,,response,,,,7,E,,,,,,Space,keypress(Space),,,,lyrical,,,,---- --------- ---------- - --- ------- -- --- ------------<br>----- -- -------- ------- ---- ------ - -------- ---- -----<br>--- ------- ---- he --- -------- --- - ----- ------ ---- --<br>-------- --- -------- -------- --- -------- ---- -- ----- -<br>-------- ---- --- ---------- --------- -- ------- ------ -<br>--------- ----- -----,337086,337069,336749.6,336749,336760.32,337093.62,,22,he
screen,html.Screen,2_3_1_0_1_23,2021-04-24T18:56:16.485Z,,,,,,,,,,,,,,,,,15,,,,,,,,,,,,,,366.38000000000466,,response,,,,7,E,,,,,,Space,keypress(Space),,,,lyrical,,,,---- --------- ---------- - --- ------- -- --- ------------<br>----- -- -------- ------- ---- ------ - -------- ---- -----<br>--- ------- ---- -- was -------- --- - ----- ------ ---- --<br>-------- --- -------- -------- --- -------- ---- -- ----- -<br>-------- ---- --- ---------- --------- -- ------- ------ -<br>--------- ----- -----,337478,337460,337086.24,337086,337093.62,337493.8,,23,was
screen,html.Screen,2_3_1_0_1_24,2021-04-24T18:56:16.898Z,,,,,,,,,,,,,,,,,15,,,,,,,,,,,,,,387.20000000001164,,response,,,,7,E,,,,,,Space,keypress(Space),,,,lyrical,,,,---- --------- ---------- - --- ------- -- --- ------------<br>----- -- -------- ------- ---- ------ - -------- ---- -----<br>--- ------- ---- -- --- prepared --- - ----- ------ ---- --<br>-------- --- -------- -------- --- -------- ---- -- ----- -<br>-------- ---- --- ---------- --------- -- ------- ------ -<br>--------- ----- -----,337890,337881,337478.58,337478,337493.8,337893.48,,24,prepared
screen,html.Screen,2_3_1_0_1_25,2021-04-24T18:56:17.290Z,,,,,,,,,,,,,,,,,15,,,,,,,,,,,,,,378.5200000000186,,response,,,,7,E,,,,,,Space,keypress(Space),,,,lyrical,,,,---- --------- ---------- - --- ------- -- --- ------------<br>----- -- -------- ------- ---- ------ - -------- ---- -----<br>--- ------- ---- -- --- -------- for - ----- ------ ---- --<br>-------- --- -------- -------- --- -------- ---- -- ----- -<br>-------- ---- --- ---------- --------- -- ------- ------ -<br>--------- ----- -----,338282,338272,337891.86,337891,337893.48,338293.48,,25,for
screen,html.Screen,2_3_1_0_1_26,2021-04-24T18:56:17.700Z,,,,,,,,,,,,,,,,,15,,,,,,,,,,,,,,383.5200000000186,,response,,,,7,E,,,,,,Space,keypress(Space),,,,lyrical,,,,---- --------- ---------- - --- ------- -- --- ------------<br>----- -- -------- ------- ---- ------ - -------- ---- -----<br>--- ------- ---- -- --- -------- --- a ----- ------ ---- --<br>-------- --- -------- -------- --- -------- ---- -- ----- -<br>-------- ---- --- ---------- --------- -- ------- ------ -<br>--------- ----- -----,338693,338677,338282.94,338282,338293.48,338710.08,,26,a
screen,html.Screen,2_3_1_0_1_27,2021-04-24T18:56:18.233Z,,,,,,,,,,,,,,,,,15,,,,,,,,,,,,,,498.9199999999837,,response,,,,7,E,,,,,,Space,keypress(Space),,,,lyrical,,,,---- --------- ---------- - --- ------- -- --- ------------<br>----- -- -------- ------- ---- ------ - -------- ---- -----<br>--- ------- ---- -- --- -------- --- - third ------ ---- --<br>-------- --- -------- -------- --- -------- ---- -- ----- -<br>-------- ---- --- ---------- --------- -- ------- ------ -<br>--------- ----- -----,339226,339209,338694.18,338693,338710.08,339259.94,,27,third
screen,html.Screen,2_3_1_0_1_28,2021-04-24T18:56:18.749Z,,,,,,,,,,,,,,,,,15,,,,,,,,,,,,,,465.0599999999977,,response,,,,7,E,,,,,,Space,keypress(Space),,,,lyrical,,,,---- --------- ---------- - --- ------- -- --- ------------<br>----- -- -------- ------- ---- ------ - -------- ---- -----<br>--- ------- ---- -- --- -------- --- - ----- prison ---- --<br>-------- --- -------- -------- --- -------- ---- -- ----- -<br>-------- ---- --- ---------- --------- -- ------- ------ -<br>--------- ----- -----,339742,339725,339244.6,339226,339259.94,339760.2,,28,prison
screen,html.Screen,2_3_1_0_1_29,2021-04-24T18:56:19.944Z,,,,,,,,,,,,,,,,,15,,,,,,,,,,,,,,1166.7999999999884,,response,,,,7,E,,,,,,Space,keypress(Space),,,,lyrical,,,,---- --------- ---------- - --- ------- -- --- ------------<br>----- -- -------- ------- ---- ------ - -------- ---- -----<br>--- ------- ---- -- --- -------- --- - ----- ------ stay --<br>-------- --- -------- -------- --- -------- ---- -- ----- -<br>-------- ---- --- ---------- --------- -- ------- ------ -<br>--------- ----- -----,340936,340927,339743.02,339743,339760.2,340943.14,,29,stay
screen,html.Screen,2_3_1_0_1_30,2021-04-24T18:56:20.358Z,,,,,,,,,,,,,,,,,15,,,,,,,,,,,,,,390.85999999998603,,response,,,,7,E,,,,,,Space,keypress(Space),,,,lyrical,,,,---- --------- ---------- - --- ------- -- --- ------------<br>----- -- -------- ------- ---- ------ - -------- ---- -----<br>--- ------- ---- -- --- -------- --- - ----- ------ ---- to<br>-------- --- -------- -------- --- -------- ---- -- ----- -<br>-------- ---- --- ---------- --------- -- ------- ------ -<br>--------- ----- -----,341350,341334,340937.42,340937,340943.14,341359.76,,30,to
screen,html.Screen,2_3_1_0_1_31,2021-04-24T18:56:20.857Z,,,,,,,,,,,,,,,,,15,,,,,,,,,,,,,,475.2399999999907,,response,,,,7,E,,,,,,Space,keypress(Space),,,,lyrical,,,,---- --------- ---------- - --- ------- -- --- ------------<br>----- -- -------- ------- ---- ------ - -------- ---- -----<br>--- ------- ---- -- --- -------- --- - ----- ------ ---- --<br>maintain --- -------- -------- --- -------- ---- -- ----- -<br>-------- ---- --- ---------- --------- -- ------- ------ -<br>--------- ----- -----,341850,341835,341351.32,341351,341359.76,341859.68,,31,maintain
screen,html.Screen,2_3_1_0_1_32,2021-04-24T18:56:21.170Z,,,,,,,,,,,,,,,,,15,,,,,,,,,,,,,,287.320000000007,,response,,,,7,E,,,,,,Space,keypress(Space),,,,lyrical,,,,---- --------- ---------- - --- ------- -- --- ------------<br>----- -- -------- ------- ---- ------ - -------- ---- -----<br>--- ------- ---- -- --- -------- --- - ----- ------ ---- --<br>-------- his -------- -------- --- -------- ---- -- ----- -<br>-------- ---- --- ---------- --------- -- ------- ------ -<br>--------- ----- -----,342162,342147,341850.84,341850,341859.68,342176.3,,32,his
screen,html.Screen,2_3_1_0_1_33,2021-04-24T18:56:21.601Z,,,,,,,,,,,,,,,,,15,,,,,,,,,,,,,,408.70000000001164,,response,,,,7,E,,,,,,Space,keypress(Space),,,,lyrical,,,,---- --------- ---------- - --- ------- -- --- ------------<br>----- -- -------- ------- ---- ------ - -------- ---- -----<br>--- ------- ---- -- --- -------- --- - ----- ------ ---- --<br>-------- --- silence. -------- --- -------- ---- -- ----- -<br>-------- ---- --- ---------- --------- -- ------- ------ -<br>--------- ----- -----,342594,342585,342163.68,342163,342176.3,342609.72,,33,silence.
screen,html.Screen,2_3_1_0_1_34,2021-04-24T18:56:22.909Z,,,,,,,,,,,,,,,,,15,,,,,,,,,,,,,,1287.280000000028,,response,,,,7,E,,,,,,Space,keypress(Space),,,,lyrical,,,,---- --------- ---------- - --- ------- -- --- ------------<br>----- -- -------- ------- ---- ------ - -------- ---- -----<br>--- ------- ---- -- --- -------- --- - ----- ------ ---- --<br>-------- --- -------- Anderson --- -------- ---- -- ----- -<br>-------- ---- --- ---------- --------- -- ------- ------ -<br>--------- ----- -----,343901,343897,342594.84,342595,342609.72,343909.42,,34,Anderson
screen,html.Screen,2_3_1_0_1_35,2021-04-24T18:56:23.441Z,,,,,,,,,,,,,,,,,15,,,,,,,,,,,,,,502.5800000000163,,response,,,,7,E,,,,,,Space,keypress(Space),,,,lyrical,,,,---- --------- ---------- - --- ------- -- --- ------------<br>----- -- -------- ------- ---- ------ - -------- ---- -----<br>--- ------- ---- -- --- -------- --- - ----- ------ ---- --<br>-------- --- -------- -------- was -------- ---- -- ----- -<br>-------- ---- --- ---------- --------- -- ------- ------ -<br>--------- ----- -----,344434,344412,343902.66,343902,343909.42,344442.68,,35,was
screen,html.Screen,2_3_1_0_1_36,2021-04-24T18:56:24.201Z,,,,,,,,,,,,,,,,,15,,,,,,,,,,,,,,735.320000000007,,response,,,,7,E,,,,,,Space,keypress(Space),,,,lyrical,,,,---- --------- ---------- - --- ------- -- --- ------------<br>----- -- -------- ------- ---- ------ - -------- ---- -----<br>--- ------- ---- -- --- -------- --- - ----- ------ ---- --<br>-------- --- -------- -------- --- released ---- -- ----- -<br>-------- ---- --- ---------- --------- -- ------- ------ -<br>--------- ----- -----,345194,345178,344434.44,344434,344442.68,345209.24,,36,released
screen,html.Screen,2_3_1_0_1_37,2021-04-24T18:56:24.610Z,,,,,,,,,,,,,,,,,15,,,,,,,,,,,,,,374.7600000000093,,response,,,,7,E,,,,,,Space,keypress(Space),,,,lyrical,,,,---- --------- ---------- - --- ------- -- --- ------------<br>----- -- -------- ------- ---- ------ - -------- ---- -----<br>--- ------- ---- -- --- -------- --- - ----- ------ ---- --<br>-------- --- -------- -------- --- -------- July -- ----- -<br>-------- ---- --- ---------- --------- -- ------- ------ -<br>--------- ----- -----,345603,345584,345194.7,345194,345209.24,345609.2,,37,July
screen,html.Screen,2_3_1_0_1_38,2021-04-24T18:56:25.070Z,,,,,,,,,,,,,,,,,15,,,,,,,,,,,,,,442.79999999998836,,response,,,,7,E,,,,,,Space,keypress(Space),,,,lyrical,,,,---- --------- ---------- - --- ------- -- --- ------------<br>----- -- -------- ------- ---- ------ - -------- ---- -----<br>--- ------- ---- -- --- -------- --- - ----- ------ ---- --<br>-------- --- -------- -------- --- -------- ---- 20 ----- -<br>-------- ---- --- ---------- --------- -- ------- ------ -<br>--------- ----- -----,346063,346052,345604.02,345603,345609.2,346075.82,,38,20
screen,html.Screen,2_3_1_0_1_39,2021-04-24T18:56:25.466Z,,,,,,,,,,,,,,,,,15,,,,,,,,,,,,,,367.179999999993,,response,,,,7,E,,,,,,Space,keypress(Space),,,,lyrical,,,,---- --------- ---------- - --- ------- -- --- ------------<br>----- -- -------- ------- ---- ------ - -------- ---- -----<br>--- ------- ---- -- --- -------- --- - ----- ------ ---- --<br>-------- --- -------- -------- --- -------- ---- -- after -<br>-------- ---- --- ---------- --------- -- ------- ------ -<br>--------- ----- -----,346459,346443,346063.8,346063,346075.82,346476.04,,39,after
screen,html.Screen,2_3_1_0_1_40,2021-04-24T18:56:25.888Z,,,,,,,,,,,,,,,,,15,,,,,,,,,,,,,,388.96000000002095,,response,,,,7,E,,,,,,Space,keypress(Space),,,,lyrical,,,,---- --------- ---------- - --- ------- -- --- ------------<br>----- -- -------- ------- ---- ------ - -------- ---- -----<br>--- ------- ---- -- --- -------- --- - ----- ------ ---- --<br>-------- --- -------- -------- --- -------- ---- -- ----- a<br>-------- ---- --- ---------- --------- -- ------- ------ -<br>--------- ----- -----,346881,346865,346459.84,346459,346476.04,346892.4,,40,a
screen,html.Screen,2_3_1_0_1_41,2021-04-24T18:56:26.664Z,,,,,,,,,,,,,,,,,15,,,,,,,,,,,,,,753.5999999999767,,response,,,,7,E,,,,,,Space,keypress(Space),,,,lyrical,,,,---- --------- ---------- - --- ------- -- --- ------------<br>----- -- -------- ------- ---- ------ - -------- ---- -----<br>--- ------- ---- -- --- -------- --- - ----- ------ ---- --<br>-------- --- -------- -------- --- -------- ---- -- ----- -<br>two-week ---- --- ---------- --------- -- ------- ------ -<br>--------- ----- -----,347657,347646,346881.58,346881,346892.4,347675.8,,41,two-week
screen,html.Screen,2_3_1_0_1_42,2021-04-24T18:56:27.338Z,,,,,,,,,,,,,,,,,15,,,,,,,,,,,,,,643.2000000000116,,response,,,,7,E,,,,,,Space,keypress(Space),,,,lyrical,,,,---- --------- ---------- - --- ------- -- --- ------------<br>----- -- -------- ------- ---- ------ - -------- ---- -----<br>--- ------- ---- -- --- -------- --- - ----- ------ ---- --<br>-------- --- -------- -------- --- -------- ---- -- ----- -<br>-------- stay --- ---------- --------- -- ------- ------ -<br>--------- ----- -----,348330,348319,347658.28,347657,347675.8,348342.48,,42,stay
screen,html.Screen,2_3_1_0_1_43,2021-04-24T18:56:27.890Z,,,,,,,,,,,,,,,,,15,,,,,,,,,,,,,,523.5200000000186,,response,,,,7,E,,,,,,Space,keypress(Space),,,,lyrical,,,,---- --------- ---------- - --- ------- -- --- ------------<br>----- -- -------- ------- ---- ------ - -------- ---- -----<br>--- ------- ---- -- --- -------- --- - ----- ------ ---- --<br>-------- --- -------- -------- --- -------- ---- -- ----- -<br>-------- ---- for ---------- --------- -- ------- ------ -<br>--------- ----- -----,348883,348866,348330.88,348330,348342.48,348892.16,,43,for
screen,html.Screen,2_3_1_0_1_44,2021-04-24T18:56:28.401Z,,,,,,,,,,,,,,,,,15,,,,,,,,,,,,,,488.8400000000256,,response,,,,7,E,,,,,,Space,keypress(Space),,,,lyrical,,,,---- --------- ---------- - --- ------- -- --- ------------<br>----- -- -------- ------- ---- ------ - -------- ---- -----<br>--- ------- ---- -- --- -------- --- - ----- ------ ---- --<br>-------- --- -------- -------- --- -------- ---- -- ----- -<br>-------- ---- --- previously --------- -- ------- ------ -<br>--------- ----- -----,349394,349381,348883.5,348883,348892.16,349408.74,,44,previously
screen,html.Screen,2_3_1_0_1_45,2021-04-24T18:56:29.065Z,,,,,,,,,,,,,,,,,15,,,,,,,,,,,,,,628.2600000000093,,response,,,,7,E,,,,,,Space,keypress(Space),,,,lyrical,,,,---- --------- ---------- - --- ------- -- --- ------------<br>----- -- -------- ------- ---- ------ - -------- ---- -----<br>--- ------- ---- -- --- -------- --- - ----- ------ ---- --<br>-------- --- -------- -------- --- -------- ---- -- ----- -<br>-------- ---- --- ---------- declining -- ------- ------ -<br>--------- ----- -----,350056,350037,349394.66,349394,349408.74,350075.52,,45,declining
screen,html.Screen,2_3_1_0_1_46,2021-04-24T18:56:29.398Z,,,,,,,,,,,,,,,,,15,,,,,,,,,,,,,,290.4799999999814,,response,,,,7,E,,,,,,Space,keypress(Space),,,,lyrical,,,,---- --------- ---------- - --- ------- -- --- ------------<br>----- -- -------- ------- ---- ------ - -------- ---- -----<br>--- ------- ---- -- --- -------- --- - ----- ------ ---- --<br>-------- --- -------- -------- --- -------- ---- -- ----- -<br>-------- ---- --- ---------- --------- to ------- ------ -<br>--------- ----- -----,350391,350366,350057.8,350058,350075.52,350408.62,,46,to
screen,html.Screen,2_3_1_0_1_47,2021-04-24T18:56:29.744Z,,,,,,,,,,,,,,,,,15,,,,,,,,,,,,,,316.38000000000466,,response,,,,7,E,,,,,,Space,keypress(Space),,,,lyrical,,,,---- --------- ---------- - --- ------- -- --- ------------<br>----- -- -------- ------- ---- ------ - -------- ---- -----<br>--- ------- ---- -- --- -------- --- - ----- ------ ---- --<br>-------- --- -------- -------- --- -------- ---- -- ----- -<br>-------- ---- --- ---------- --------- -- testify ------ -<br>--------- ----- -----,350736,350725,350391.46,350391,350408.62,350741.94,,47,testify
screen,html.Screen,2_3_1_0_1_48,2021-04-24T18:56:30.093Z,,,,,,,,,,,,,,,,,15,,,,,,,,,,,,,,327.0599999999977,,response,,,,7,E,,,,,,Space,keypress(Space),,,,lyrical,,,,---- --------- ---------- - --- ------- -- --- ------------<br>----- -- -------- ------- ---- ------ - -------- ---- -----<br>--- ------- ---- -- --- -------- --- - ----- ------ ---- --<br>-------- --- -------- -------- --- -------- ---- -- ----- -<br>-------- ---- --- ---------- --------- -- ------- before -<br>--------- ----- -----,351084,351069,350737.12,350737,350741.94,351091.86,,48,before
screen,html.Screen,2_3_1_0_1_49,2021-04-24T18:56:30.501Z,,,,,,,,,,,,,,,,,15,,,,,,,,,,,,,,382.14000000001397,,response,,,,7,E,,,,,,Space,keypress(Space),,,,lyrical,,,,---- --------- ---------- - --- ------- -- --- ------------<br>----- -- -------- ------- ---- ------ - -------- ---- -----<br>--- ------- ---- -- --- -------- --- - ----- ------ ---- --<br>-------- --- -------- -------- --- -------- ---- -- ----- -<br>-------- ---- --- ---------- --------- -- ------- ------ a<br>--------- ----- -----,351494,351474,351085.72,351085,351091.86,351508.48,,49,a
screen,html.Screen,2_3_1_0_1_50,2021-04-24T18:56:30.977Z,,,,,,,,,,,,,,,,,15,,,,,,,,,,,,,,434.5200000000186,,response,,,,7,E,,,,,,Space,keypress(Space),,,,lyrical,,,,---- --------- ---------- - --- ------- -- --- ------------<br>----- -- -------- ------- ---- ------ - -------- ---- -----<br>--- ------- ---- -- --- -------- --- - ----- ------ ---- --<br>-------- --- -------- -------- --- -------- ---- -- ----- -<br>-------- ---- --- ---------- --------- -- ------- ------ -<br>different ----- -----,351969,351943,351494.98,351494,351508.48,351975.12,,50,different
screen,html.Screen,2_3_1_0_1_51,2021-04-24T18:56:31.473Z,,,,,,,,,,,,,,,,,15,,,,,,,,,,,,,,467.88000000000466,,response,,,,7,E,,,,,,Space,keypress(Space),,,,lyrical,,,,---- --------- ---------- - --- ------- -- --- ------------<br>----- -- -------- ------- ---- ------ - -------- ---- -----<br>--- ------- ---- -- --- -------- --- - ----- ------ ---- --<br>-------- --- -------- -------- --- -------- ---- -- ----- -<br>-------- ---- --- ---------- --------- -- ------- ------ -<br>--------- grand -----,352466,352443,351970.06,351969,351975.12,352475.08,,51,grand
screen,html.Screen,2_3_1_0_1_52,2021-04-24T18:56:32.034Z,,,,,,,,,,,,,,,,,15,,,,,,,,,,,,,,529.9199999999837,,response,,,,7,E,,,,,,Space,keypress(Space),,,,lyrical,,,,---- --------- ---------- - --- ------- -- --- ------------<br>----- -- -------- ------- ---- ------ - -------- ---- -----<br>--- ------- ---- -- --- -------- --- - ----- ------ ---- --<br>-------- --- -------- -------- --- -------- ---- -- ----- -<br>-------- ---- --- ---------- --------- -- ------- ------ -<br>--------- ----- jury.,353027,353005,352467.1,352467,352475.08,353041.64,,52,jury.
