sender,sender_type,sender_id,timestamp,meta,,Blues,Classical,Country,Dance,Electronic,Folk,Gospel,Hip-Hop,Jazz,Latin,Musical/Film,New-age,Pop,Provo_ID,R&B,Rap,Reggae,Religious,Rock,Soul,Swing,Traditional,age,artist_name,correct,correctResponse,distraction,duration,education,ended_on,familiarity,gender,headphone_check_performance,item,list,music_frequency,offensiveness,pleasantness,position_correct,preference,response,response_action,snippet_file,song_name,song_rating,sound,stimulus_1,stimulus_2,stimulus_3,text,time_commit,time_end,time_render,time_run,time_show,time_switch,url,word,word_ID
Introduction,html.Screen,0_0,2021-04-12T08:44:01.695Z,"{""labjs_version"":""20.2.2"",""labjs_build"":{""flavor"":""production"",""commit"":""a25486e0c714a0ae2ce03ff94b7bb6896854dcfa""},""location"":""https://run.pavlovia.org/mvasilev/music_a/"",""userAgent"":""Mozilla/5.0 (Macintosh; Intel Mac OS X 10_12_6) AppleWebKit/537.36 (KHTML, like Gecko) Chrome/89.0.4389.114 Safari/537.36"",""platform"":""MacIntel"",""language"":""en-GB"",""locale"":""en-GB"",""timeZone"":""Europe/London"",""timezoneOffset"":-60,""screen_width"":1280,""screen_height"":800,""scroll_width"":1204,""scroll_height"":584,""window_innerWidth"":1204,""window_innerHeight"":584,""devicePixelRatio"":2}",,,,,,,,,,,,,,,,,,,,,,,,,,,,,6944.861999999983,,response,,,,,,,,,,,continue,click button,,,,,,,,,15704.354999999963,15699.484999999982,8704.604,8720.14999999999,8754.623,15710.132,{},,
Volume calibration,html.Screen,0_1,2021-04-12T08:44:28.056Z,,,,,,,,,,,,,,,,,,,,,,,,,,,,,,26345.373000000043,,response,,,,,,,,,,,continue,click button,,,,,,,,,42064.790000000015,42055.50500000004,15693.459,15704.884999999991,15710.132,42062.788,,,
Task instructions,html.Screen,0_2,2021-04-12T08:44:32.756Z,,,,,,,,,,,,,,,,,,,,,,,,,,,,,,4698.68200000003,,response,,,,,,,,,,,continue,click button,,,,,,,,,46765.224999999984,46761.47000000003,42046.115,42065.02999999998,42062.788,46781.247,,,
Sounds,html.Screen,0_3_0_0,2021-04-12T08:44:37.014Z,,,,,,,,,,,,,,,,,,,,,,,,,,,,,,4251.614999999998,,timeout,,,,,,,,,3,,,,,,,,I,O,S,,51022.88999999996,51016.189,46764.574,46765.63499999997,46781.247,51032.862,,,
Judgement,html.Screen,0_3_0_1,2021-04-12T08:44:37.990Z,,,,,,,,,,,,,,,,,,,,,,,,,,,true,3,,963.3729999999559,,response,,,,,,,,,3,,3,click #choice-3,,,,,I,O,S,,51999.36500000001,51996.23499999996,51016.189,51023.18000000002,51032.862,52005.812,,,
Trial,flow.Sequence,0_3_0,2021-04-12T08:44:37.991Z,,,,,,,,,,,,,,,,,,,,,,,,,,,,,,5214.987999999954,,completion,,,,,,,,,3,,,,,,,,I,O,S,,51999.969999999965,51996.23499999996,46764.574,46765.535,46781.247,52005.812,,,
Sounds,html.Screen,0_3_1_0,2021-04-12T08:44:42.234Z,,,,,,,,,,,,,,,,,,,,,,,,,,,,,,4251.615000000005,,timeout,,,,,,,,,2,,,,,,,,O,S,I,,56242.965000000026,56240.754,51989.139,52000.25000000005,52005.812,56257.427,,,
Judgement,html.Screen,0_3_1_1,2021-04-12T08:44:42.883Z,,,,,,,,,,,,,,,,,,,,,,,,,,,true,2,,631.418000000056,,response,,,,,,,,,2,,2,click #choice-2,,,,,O,S,I,,56892.00500000004,56888.84500000006,56240.754,56243.20499999999,56257.427,56907.674,,,
Trial,flow.Sequence,0_3_1,2021-04-12T08:44:42.883Z,,,,,,,,,,,,,,,,,,,,,,,,,,,,,,4883.033000000061,,completion,,,,,,,,,2,,,,,,,,O,S,I,,56892.370000000024,56888.84500000006,51989.139,52000.16500000004,52005.812,56907.674,,,
Sounds,html.Screen,0_3_2_0,2021-04-12T08:44:47.136Z,,,,,,,,,,,,,,,,,,,,,,,,,,,,,,4251.614999999998,,timeout,,,,,,,,,1,,,,,,,,S,O,I,,61144.705000000045,61142.616,56891.001,56892.619999999966,56907.674,61159.289,,,
Judgement,html.Screen,0_3_2_1,2021-04-12T08:44:47.648Z,,,,,,,,,,,,,,,,,,,,,,,,,,,true,1,,494.9310000000114,,response,,,,,,,,,1,,1,click #choice-1,,,,,S,O,I,,61657.32500000001,61654.22000000001,61142.616,61145.08499999999,61159.289,61660.743,,,
Trial,flow.Sequence,0_3_2,2021-04-12T08:44:47.649Z,,,,,,,,,,,,,,,,,,,,,,,,,,,,,,4746.546000000009,,completion,,,,,,,,,1,,,,,,,,S,O,I,,61657.645000000004,61654.22000000001,56891.001,56892.54500000004,56907.674,61660.743,,,
Sounds,html.Screen,0_3_3_0,2021-04-12T08:44:51.889Z,,,,,,,,,,,,,,,,,,,,,,,,,,,,,,4251.614999999991,,timeout,,,,,,,,,2,,,,,,,,I,S,O,,65898.41000000002,65895.685,61644.07,61657.879999999976,61660.743,65912.358,,,
Judgement,html.Screen,0_3_3_1,2021-04-12T08:44:53.145Z,,,,,,,,,,,,,,,,,,,,,,,,,,,true,2,,1238.712000000014,,response,,,,,,,,,2,,2,click #choice-2,,,,,I,S,O,,67154.09999999998,67151.07,65895.685,65898.62500000004,65912.358,67162.833,,,
Trial,flow.Sequence,0_3_3,2021-04-12T08:44:53.145Z,,,,,,,,,,,,,,,,,,,,,,,,,,,,,,5490.327000000005,,completion,,,,,,,,,2,,,,,,,,I,S,O,,67154.43000000005,67151.07,61644.07,61657.78499999999,61660.743,67162.833,,,
Sounds,html.Screen,0_3_4_0,2021-04-12T08:44:57.391Z,,,,,,,,,,,,,,,,,,,,,,,,,,,,,,4251.615000000005,,timeout,,,,,,,,,1,,,,,,,,S,I,O,,71400.44999999998,71397.775,67146.16,67154.63499999998,67162.833,71414.448,,,
Judgement,html.Screen,0_3_4_1,2021-04-12T08:44:58.031Z,,,,,,,,,,,,,,,,,,,,,,,,,,,true,1,,622.7119999999704,,response,,,,,,,,,1,,1,click #choice-1,,,,,S,I,O,,72040.19500000004,72037.15999999997,71397.775,71400.66000000002,71414.448,72049.396,,,
Trial,flow.Sequence,0_3_4,2021-04-12T08:44:58.031Z,,,,,,,,,,,,,,,,,,,,,,,,,,,,,,4874.326999999976,,completion,,,,,,,,,1,,,,,,,,S,I,O,,72040.50500000005,72037.15999999997,67146.16,67154.57500000003,67162.833,72049.396,,,
Sounds,html.Screen,0_3_5_0,2021-04-12T08:45:02.277Z,,,,,,,,,,,,,,,,,,,,,,,,,,,,,,4251.615000000005,,timeout,,,,,,,,,3,,,,,,,,O,I,S,,76286.54500000004,76284.338,72032.723,72040.70000000001,72049.396,76301.011,,,
Judgement,html.Screen,0_3_5_1,2021-04-12T08:45:02.710Z,,,,,,,,,,,,,,,,,,,,,,,,,,,true,3,,415.52900000000955,,response,,,,,,,,,3,,3,click #choice-3,,,,,O,I,S,,76719.59000000004,76716.54000000001,76284.338,76286.745,76301.011,76734.509,,,
Trial,flow.Sequence,0_3_5,2021-04-12T08:45:02.711Z,,,,,,,,,,,,,,,,,,,,,,,,,,,,,,4667.144000000015,,completion,,,,,,,,,3,,,,,,,,O,I,S,,76719.87999999999,76716.54000000001,72032.723,72040.64500000005,72049.396,76734.509,,,
Task,flow.Loop,0_3,2021-04-12T08:45:02.719Z,,,,,,,,,,,,,,,,,,,,,,,,,,,,,,29935.293000000005,,completion,,,1,,,,,,,,,,,,,,,,,,76727.845,76716.54000000001,46764.574,46765.44999999999,46781.247,76734.509,,,
Trap,html.Screen,0_4,2021-04-12T08:45:02.720Z,,,,,,,,,,,,,,,,,,,,,,,,,,,,,,NaN,,skipped,,,,,,,,,,,,,,,,,,,,,76729.30500000007,76716.54000000001,,76729.13000000005,,76734.509,,,
Thanks,html.Screen,0_5,2021-04-12T08:45:06.097Z,,,,,,,,,,,,,,,,,,,,,,,,,,,,,,3367.9560000000492,,response,,,,,,,,,,,continue,click button,,,,,,,,,80106.26000000002,80102.46500000005,76717.836,76729.43499999997,76734.509,82853.5,,,
Headphone screening,flow.Sequence,0,2021-04-12T08:45:06.097Z,,,,,,,,,,,,,,,,,,,,,,,,,,,,,,71347.84200000006,,completion,,,,,,,,,,,,,,,,,,,,,80106.54999999997,80102.46500000005,8704.604,8720.104999999989,8754.623,82853.5,,,
Instructions,html.Page,1_0,2021-04-12T08:45:26.041Z,,,,,,,,,,,,,,,,,,,,,,,,,,,,,,17196.35499999998,,form submission,,,,,,,,,,,,,,,,,,,,,100050.29999999999,100049.85499999998,82836.827,82863.51500000001,82853.5,100047.262,,,
Holding screen,html.Screen,1_1_0_0,2021-04-12T08:45:36.027Z,,,,,,,,,,,,,,,,,,,,,,,,,,,,,,10003.800000000003,,timeout,,,,,,,,,,,,,,,,,,,,,110035.84000000001,110034.389,100030.589,100050.63500000005,100047.262,110051.062,,,
screen,html.Screen,1_1_0_1_0,2021-04-12T08:45:37.032Z,,,,,,,,,,,,,,,,53,,,,,,,,,,,,,,984.0430000000342,,response,,,,99,,,,,,,Space,keypress(Space),,,,,,,,When -- ----- -- ------ - ------- --- ----------<br>------------- ------ ------ ---- ---- ------- ----- -- ----<br>-------- ------- -- ---------- --- - --- ----- ----- ----<br>---- --- --- ----- --- ---- ---- ------- ----- ---- -------<br>--- --- -- ----- -- --- ---- -- --- ---- -- ------ ------<br>--- ----- -- ----,111040.87500000003,111035.10500000004,110034.389,110036.22000000007,110051.062,111051.442,,0,When
screen,html.Screen,1_1_0_1_1,2021-04-12T08:45:37.458Z,,,,,,,,,,,,,,,,53,,,,,,,,,,,,,,413.4180000000488,,response,,,,99,,,,,,,Space,keypress(Space),,,,,,,,---- it ----- -- ------ - ------- --- ----------<br>------------- ------ ------ ---- ---- ------- ----- -- ----<br>-------- ------- -- ---------- --- - --- ----- ----- ----<br>---- --- --- ----- --- ---- ---- ------- ----- ---- -------<br>--- --- -- ----- -- --- ---- -- --- ---- -- ------ ------<br>--- ----- -- ----,111467.58499999999,111464.86000000004,111034.769,111041.11999999998,111051.442,111475.628,,1,it
screen,html.Screen,1_1_0_1_2,2021-04-12T08:45:37.850Z,,,,,,,,,,,,,,,,53,,,,,,,,,,,,,,380.78199999999197,,response,,,,99,,,,,,,Space,keypress(Space),,,,,,,,---- -- comes -- ------ - ------- --- ----------<br>------------- ------ ------ ---- ---- ------- ----- -- ----<br>-------- ------- -- ---------- --- - --- ----- ----- ----<br>---- --- --- ----- --- ---- ---- ------- ----- ---- -------<br>--- --- -- ----- -- --- ---- -- --- ---- -- ------ ------<br>--- ----- -- ----,111859.23000000003,111856.40999999999,111458.955,111467.78000000006,111475.628,111875.78,,2,comes
screen,html.Screen,1_1_0_1_3,2021-04-12T08:45:38.190Z,,,,,,,,,,,,,,,,53,,,,,,,,,,,,,,320.82499999998254,,response,,,,99,,,,,,,Space,keypress(Space),,,,,,,,---- -- ----- to ------ - ------- --- ----------<br>------------- ------ ------ ---- ---- ------- ----- -- ----<br>-------- ------- -- ---------- --- - --- ----- ----- ----<br>---- --- --- ----- --- ---- ---- ------- ----- ---- -------<br>--- --- -- ----- -- --- ---- -- --- ---- -- ------ ------<br>--- ----- -- ----,112199.38500000001,112196.60499999998,111859.107,111859.42999999998,111875.78,112209.24,,3,to
screen,html.Screen,1_1_0_1_4,2021-04-12T08:45:38.597Z,,,,,,,,,,,,,,,,53,,,,,,,,,,,,,,393.70999999996275,,response,,,,99,,,,,,,Space,keypress(Space),,,,,,,,---- -- ----- -- having - ------- --- ----------<br>------------- ------ ------ ---- ---- ------- ----- -- ----<br>-------- ------- -- ---------- --- - --- ----- ----- ----<br>---- --- --- ----- --- ---- ---- ------- ----- ---- -------<br>--- --- -- ----- -- --- ---- -- --- ---- -- ------ ------<br>--- ----- -- ----,112605.70500000006,112602.94999999997,112192.567,112199.57499999998,112209.24,112609.392,,4,having
screen,html.Screen,1_1_0_1_5,2021-04-12T08:45:38.957Z,,,,,,,,,,,,,,,,53,,,,,,,,,,,,,,354.68299999997544,,response,,,,99,,,,,,,Space,keypress(Space),,,,,,,,---- -- ----- -- ------ a ------- --- ----------<br>------------- ------ ------ ---- ---- ------- ----- -- ----<br>-------- ------- -- ---------- --- - --- ----- ----- ----<br>---- --- --- ----- --- ---- ---- ------- ----- ---- -------<br>--- --- -- ----- -- --- ---- -- --- ---- -- ------ ------<br>--- ----- -- ----,112965.75000000007,112964.07499999998,112592.719,112606.90499999998,112609.392,112976.198,,5,a
screen,html.Screen,1_1_0_1_6,2021-04-12T08:45:39.305Z,,,,,,,,,,,,,,,,53,,,,,,,,,,,,,,334.96199999997043,,response,,,,99,,,,,,,Space,keypress(Space),,,,,,,,---- -- ----- -- ------ - lasting --- ----------<br>------------- ------ ------ ---- ---- ------- ----- -- ----<br>-------- ------- -- ---------- --- - --- ----- ----- ----<br>---- --- --- ----- --- ---- ---- ------- ----- ---- -------<br>--- --- -- ----- -- --- ---- -- --- ---- -- ------ ------<br>--- ----- -- ----,113313.87000000007,113311.15999999997,112959.525,112965.87,112976.198,113326.331,,6,lasting
screen,html.Screen,1_1_0_1_7,2021-04-12T08:45:39.680Z,,,,,,,,,,,,,,,,53,,,,,,,,,,,,,,360.47900000003574,,response,,,,99,,,,,,,Space,keypress(Space),,,,,,,,---- -- ----- -- ------ - ------- and ----------<br>------------- ------ ------ ---- ---- ------- ----- -- ----<br>-------- ------- -- ---------- --- - --- ----- ----- ----<br>---- --- --- ----- --- ---- ---- ------- ----- ---- -------<br>--- --- -- ----- -- --- ---- -- --- ---- -- ------ ------<br>--- ----- -- ----,113689.48499999999,113686.81000000004,113309.658,113314.05500000005,113326.331,113693.137,,7,and
screen,html.Screen,1_1_0_1_8,2021-04-12T08:45:40.138Z,,,,,,,,,,,,,,,,53,,,,,,,,,,,,,,451.6730000000098,,response,,,,99,,,,,,,Space,keypress(Space),,,,,,,,---- -- ----- -- ------ - ------- --- fulfilling<br>------------- ------ ------ ---- ---- ------- ----- -- ----<br>-------- ------- -- ---------- --- - --- ----- ----- ----<br>---- --- --- ----- --- ---- ---- ------- ----- ---- -------<br>--- --- -- ----- -- --- ---- -- --- ---- -- ------ ------<br>--- ----- -- ----,114147.62500000006,114144.81000000001,113676.464,113689.68000000007,113693.137,114159.981,,8,fulfilling
screen,html.Screen,1_1_0_1_9,2021-04-12T08:45:40.932Z,,,,,,,,,,,,,,,,53,,,,,,,,,,,,,,778.8190000000177,,response,,,,99,,,,,,,Space,keypress(Space),,,,,,,,"---- -- ----- -- ------ - ------- --- ----------<br>relationship, ------ ------ ---- ---- ------- ----- -- ----<br>-------- ------- -- ---------- --- - --- ----- ----- ----<br>---- --- --- ----- --- ---- ---- ------- ----- ---- -------<br>--- --- -- ----- -- --- ---- -- --- ---- -- ------ ------<br>--- ----- -- ----",114941.53000000006,114938.80000000002,114143.308,114147.83999999997,114159.981,114943.612,,9,"relationship,"
screen,html.Screen,1_1_0_1_10,2021-04-12T08:45:41.360Z,,,,,,,,,,,,,,,,53,,,,,,,,,,,,,,422.5279999999766,,response,,,,99,,,,,,,Space,keypress(Space),,,,,,,,---- -- ----- -- ------ - ------- --- ----------<br>------------- common ------ ---- ---- ------- ----- -- ----<br>-------- ------- -- ---------- --- - --- ----- ----- ----<br>---- --- --- ----- --- ---- ---- ------- ----- ---- -------<br>--- --- -- ----- -- --- ---- -- --- ---- -- ------ ------<br>--- ----- -- ----,115368.88999999997,115366.13999999997,114926.939,114941.72000000003,114943.612,115377.11,,10,common
screen,html.Screen,1_1_0_1_11,2021-04-12T08:45:41.726Z,,,,,,,,,,,,,,,,53,,,,,,,,,,,,,,355.0050000000192,,response,,,,99,,,,,,,Space,keypress(Space),,,,,,,,---- -- ----- -- ------ - ------- --- ----------<br>------------- ------ wisdom ---- ---- ------- ----- -- ----<br>-------- ------- -- ---------- --- - --- ----- ----- ----<br>---- --- --- ----- --- ---- ---- ------- ----- ---- -------<br>--- --- -- ----- -- --- ---- -- --- ---- -- ------ ------<br>--- ----- -- ----,115734.80500000005,115732.11500000002,115360.437,115369.08000000006,115377.11,115743.916,,11,wisdom
screen,html.Screen,1_1_0_1_12,2021-04-12T08:45:42.103Z,,,,,,,,,,,,,,,,53,,,,,,,,,,,,,,365.23899999998685,,response,,,,99,,,,,,,Space,keypress(Space),,,,,,,,---- -- ----- -- ------ - ------- --- ----------<br>------------- ------ ------ says ---- ------- ----- -- ----<br>-------- ------- -- ---------- --- - --- ----- ----- ----<br>---- --- --- ----- --- ---- ---- ------- ----- ---- -------<br>--- --- -- ----- -- --- ---- -- --- ---- -- ------ ------<br>--- ----- -- ----,116111.83000000006,116109.15499999998,115727.243,115734.99500000002,115743.916,116127.395,,12,says
screen,html.Screen,1_1_0_1_13,2021-04-12T08:45:42.451Z,,,,,,,,,,,,,,,,53,,,,,,,,,,,,,,329.90500000002794,,response,,,,99,,,,,,,Space,keypress(Space),,,,,,,,---- -- ----- -- ------ - ------- --- ----------<br>------------- ------ ------ ---- that ------- ----- -- ----<br>-------- ------- -- ---------- --- - --- ----- ----- ----<br>---- --- --- ----- --- ---- ---- ------- ----- ---- -------<br>--- --- -- ----- -- --- ---- -- --- ---- -- ------ ------<br>--- ----- -- ----,116460.11499999998,116457.30000000003,116110.722,116112.02500000002,116127.395,116477.528,,13,that
screen,html.Screen,1_1_0_1_14,2021-04-12T08:45:42.858Z,,,,,,,,,,,,,,,,53,,,,,,,,,,,,,,386.49699999995937,,response,,,,99,,,,,,,Space,keypress(Space),,,,,,,,---- -- ----- -- ------ - ------- --- ----------<br>------------- ------ ------ ---- ---- feeling ----- -- ----<br>-------- ------- -- ---------- --- - --- ----- ----- ----<br>---- --- --- ----- --- ---- ---- ------- ----- ---- -------<br>--- --- -- ----- -- --- ---- -- --- ---- -- ------ ------<br>--- ----- -- ----,116866.72499999998,116864.02499999997,116460.855,116460.30500000007,116477.528,116877.68,,14,feeling
screen,html.Screen,1_1_0_1_15,2021-04-12T08:45:43.238Z,,,,,,,,,,,,,,,,53,,,,,,,,,,,,,,366.49000000006345,,response,,,,99,,,,,,,Space,keypress(Space),,,,,,,,---- -- ----- -- ------ - ------- --- ----------<br>------------- ------ ------ ---- ---- ------- close -- ----<br>-------- ------- -- ---------- --- - --- ----- ----- ----<br>---- --- --- ----- --- ---- ---- ------- ----- ---- -------<br>--- --- -- ----- -- --- ---- -- --- ---- -- ------ ------<br>--- ----- -- ----,117246.93500000001,117244.17000000006,116861.007,116866.91500000007,116877.68,117261.159,,15,close
screen,html.Screen,1_1_0_1_16,2021-04-12T08:45:43.607Z,,,,,,,,,,,,,,,,53,,,,,,,,,,,,,,352.1210000000283,,response,,,,99,,,,,,,Space,keypress(Space),,,,,,,,---- -- ----- -- ------ - ------- --- ----------<br>------------- ------ ------ ---- ---- ------- ----- to ----<br>-------- ------- -- ---------- --- - --- ----- ----- ----<br>---- --- --- ----- --- ---- ---- ------- ----- ---- -------<br>--- --- -- ----- -- --- ---- -- --- ---- -- ------ ------<br>--- ----- -- ----,117616.01000000007,117613.28000000003,117244.486,117247.12499999999,117261.159,117627.965,,16,to
screen,html.Screen,1_1_0_1_17,2021-04-12T08:45:44.030Z,,,,,,,,,,,,,,,,53,,,,,,,,,,,,,,408.45000000004075,,response,,,,99,,,,,,,Space,keypress(Space),,,,,,,,---- -- ----- -- ------ - ------- --- ----------<br>------------- ------ ------ ---- ---- ------- ----- -- your<br>-------- ------- -- ---------- --- - --- ----- ----- ----<br>---- --- --- ----- --- ---- ---- ------- ----- ---- -------<br>--- --- -- ----- -- --- ---- -- --- ---- -- ------ ------<br>--- ----- -- ----,118039.12500000001,118036.41500000004,117611.292,117616.19500000007,117627.965,118044.79,,17,your
screen,html.Screen,1_1_0_1_18,2021-04-12T08:45:44.412Z,,,,,,,,,,,,,,,,53,,,,,,,,,,,,,,373.87500000004366,,response,,,,99,,,,,,,Space,keypress(Space),,,,,,,,---- -- ----- -- ------ - ------- --- ----------<br>------------- ------ ------ ---- ---- ------- ----- -- ----<br>romantic ------- -- ---------- --- - --- ----- ----- ----<br>---- --- --- ----- --- ---- ---- ------- ----- ---- -------<br>--- --- -- ----- -- --- ---- -- --- ---- -- ------ ------<br>--- ----- -- ----,118421.46000000002,118418.66500000004,118028.117,118039.31999999998,118044.79,118428.269,,18,romantic
screen,html.Screen,1_1_0_1_19,2021-04-12T08:45:44.759Z,,,,,,,,,,,,,,,,53,,,,,,,,,,,,,,337.46600000005856,,response,,,,99,,,,,,,Space,keypress(Space),,,,,,,,---- -- ----- -- ------ - ------- --- ----------<br>------------- ------ ------ ---- ---- ------- ----- -- ----<br>-------- partner -- ---------- --- - --- ----- ----- ----<br>---- --- --- ----- --- ---- ---- ------- ----- ---- -------<br>--- --- -- ----- -- --- ---- -- --- ---- -- ------ ------<br>--- ----- -- ----,118768.45000000003,118765.73500000006,118411.596,118421.65,118428.269,118778.402,,19,partner
screen,html.Screen,1_1_0_1_20,2021-04-12T08:45:45.112Z,,,,,,,,,,,,,,,,53,,,,,,,,,,,,,,340.3079999999609,,response,,,,99,,,,,,,Space,keypress(Space),,,,,,,,---- -- ----- -- ------ - ------- --- ----------<br>------------- ------ ------ ---- ---- ------- ----- -- ----<br>-------- ------- is ---------- --- - --- ----- ----- ----<br>---- --- --- ----- --- ---- ---- ------- ----- ---- -------<br>--- --- -- ----- -- --- ---- -- --- ---- -- ------ ------<br>--- ----- -- ----,119121.43000000004,119118.70999999996,118761.729,118768.63500000002,118778.402,119128.535,,20,is
screen,html.Screen,1_1_0_1_21,2021-04-12T08:45:45.540Z,,,,,,,,,,,,,,,,53,,,,,,,,,,,,,,417.52999999999884,,response,,,,99,,,,,,,Space,keypress(Space),,,,,,,,---- -- ----- -- ------ - ------- --- ----------<br>------------- ------ ------ ---- ---- ------- ----- -- ----<br>-------- ------- -- paramount. --- - --- ----- ----- ----<br>---- --- --- ----- --- ---- ---- ------- ----- ---- -------<br>--- --- -- ----- -- --- ---- -- --- ---- -- ------ ------<br>--- ----- -- ----,119548.79500000004,119546.065,119111.862,119121.61500000002,119128.535,119562.033,,21,paramount.
screen,html.Screen,1_1_0_1_22,2021-04-12T08:45:46.061Z,,,,,,,,,,,,,,,,53,,,,,,,,,,,,,,505.69199999999546,,response,,,,99,,,,,,,Space,keypress(Space),,,,,,,,---- -- ----- -- ------ - ------- --- ----------<br>------------- ------ ------ ---- ---- ------- ----- -- ----<br>-------- ------- -- ---------- But - --- ----- ----- ----<br>---- --- --- ----- --- ---- ---- ------- ----- ---- -------<br>--- --- -- ----- -- --- ---- -- --- ---- -- ------ ------<br>--- ----- -- ----,120070.44500000007,120067.72499999999,119545.36,119548.98000000003,119562.033,120078.896,,22,But
screen,html.Screen,1_1_0_1_23,2021-04-12T08:45:46.408Z,,,,,,,,,,,,,,,,53,,,,,,,,,,,,,,335.8040000000474,,response,,,,99,,,,,,,Space,keypress(Space),,,,,,,,---- -- ----- -- ------ - ------- --- ----------<br>------------- ------ ------ ---- ---- ------- ----- -- ----<br>-------- ------- -- ---------- --- a --- ----- ----- ----<br>---- --- --- ----- --- ---- ---- ------- ----- ---- -------<br>--- --- -- ----- -- --- ---- -- --- ---- -- ------ ------<br>--- ----- -- ----,120417.37999999998,120414.70000000004,120062.223,120070.63500000004,120078.896,120429.029,,23,a
screen,html.Screen,1_1_0_1_24,2021-04-12T08:45:46.706Z,,,,,,,,,,,,,,,,53,,,,,,,,,,,,,,283.4810000000725,,response,,,,99,,,,,,,Space,keypress(Space),,,,,,,,---- -- ----- -- ------ - ------- --- ----------<br>------------- ------ ------ ---- ---- ------- ----- -- ----<br>-------- ------- -- ---------- --- - new ----- ----- ----<br>---- --- --- ----- --- ---- ---- ------- ----- ---- -------<br>--- --- -- ----- -- --- ---- -- --- ---- -- ------ ------<br>--- ----- -- ----,120715.31000000004,120712.51000000007,120412.356,120417.57500000006,120429.029,120729.143,,24,new
screen,html.Screen,1_1_0_1_25,2021-04-12T08:45:46.956Z,,,,,,,,,,,,,,,,53,,,,,,,,,,,,,,232.99199999999837,,response,,,,99,,,,,,,Space,keypress(Space),,,,,,,,---- -- ----- -- ------ - ------- --- ----------<br>------------- ------ ------ ---- ---- ------- ----- -- ----<br>-------- ------- -- ---------- --- - --- study ----- ----<br>---- --- --- ----- --- ---- ---- ------- ----- ---- -------<br>--- --- -- ----- -- --- ---- -- --- ---- -- ------ ------<br>--- ----- -- ----,120964.86500000003,120962.135,120712.47,120715.505,120729.143,120980.48,,25,study
screen,html.Screen,1_1_0_1_26,2021-04-12T08:45:47.268Z,,,,,,,,,,,,,,,,53,,,,,,,,,,,,,,293.6750000000611,,response,,,,99,,,,,,,Space,keypress(Space),,,,,,,,---- -- ----- -- ------ - ------- --- ----------<br>------------- ------ ------ ---- ---- ------- ----- -- ----<br>-------- ------- -- ---------- --- - --- ----- finds ----<br>---- --- --- ----- --- ---- ---- ------- ----- ---- -------<br>--- --- -- ----- -- --- ---- -- --- ---- -- ------ ------<br>--- ----- -- ----,121277.22500000005,121274.15500000006,120963.807,120965.05500000001,120980.48,121280.594,,26,finds
screen,html.Screen,1_1_0_1_27,2021-04-12T08:45:47.542Z,,,,,,,,,,,,,,,,53,,,,,,,,,,,,,,267.42600000006496,,response,,,,99,,,,,,,Space,keypress(Space),,,,,,,,---- -- ----- -- ------ - ------- --- ----------<br>------------- ------ ------ ---- ---- ------- ----- -- ----<br>-------- ------- -- ---------- --- - --- ----- ----- that<br>---- --- --- ----- --- ---- ---- ------- ----- ---- -------<br>--- --- -- ----- -- --- ---- -- --- ---- -- ------ ------<br>--- ----- -- ----,121550.72000000007,121548.02000000006,121263.921,121277.42000000001,121280.594,121564.035,,27,that
screen,html.Screen,1_1_0_1_28,2021-04-12T08:45:47.855Z,,,,,,,,,,,,,,,,53,,,,,,,,,,,,,,297.8649999999907,,response,,,,99,,,,,,,Space,keypress(Space),,,,,,,,---- -- ----- -- ------ - ------- --- ----------<br>------------- ------ ------ ---- ---- ------- ----- -- ----<br>-------- ------- -- ---------- --- - --- ----- ----- ----<br>it's --- --- ----- --- ---- ---- ------- ----- ---- -------<br>--- --- -- ----- -- --- ---- -- --- ---- -- ------ ------<br>--- ----- -- ----,121864.69499999998,121861.9,121547.362,121550.90500000006,121564.035,121880.822,,28,it's
screen,html.Screen,1_1_0_1_29,2021-04-12T08:45:48.131Z,,,,,,,,,,,,,,,,53,,,,,,,,,,,,,,256.20799999998417,,response,,,,99,,,,,,,Space,keypress(Space),,,,,,,,---- -- ----- -- ------ - ------- --- ----------<br>------------- ------ ------ ---- ---- ------- ----- -- ----<br>-------- ------- -- ---------- --- - --- ----- ----- ----<br>---- not --- ----- --- ---- ---- ------- ----- ---- -------<br>--- --- -- ----- -- --- ---- -- --- ---- -- ------ ------<br>--- ----- -- ----,122140.08499999999,122137.02999999998,121864.149,121864.87999999998,121880.822,122147.59,,29,not
screen,html.Screen,1_1_0_1_30,2021-04-12T08:45:48.450Z,,,,,,,,,,,,,,,,53,,,,,,,,,,,,,,308.554999999993,,response,,,,99,,,,,,,Space,keypress(Space),,,,,,,,---- -- ----- -- ------ - ------- --- ----------<br>------------- ------ ------ ---- ---- ------- ----- -- ----<br>-------- ------- -- ---------- --- - --- ----- ----- ----<br>---- --- how ----- --- ---- ---- ------- ----- ---- -------<br>--- --- -- ----- -- --- ---- -- --- ---- -- ------ ------<br>--- ----- -- ----,122459.30499999998,122456.14499999999,122130.917,122140.27499999998,122147.59,122464.377,,30,how
screen,html.Screen,1_1_0_1_31,2021-04-12T08:45:48.732Z,,,,,,,,,,,,,,,,53,,,,,,,,,,,,,,274.07800000005227,,response,,,,99,,,,,,,Space,keypress(Space),,,,,,,,---- -- ----- -- ------ - ------- --- ----------<br>------------- ------ ------ ---- ---- ------- ----- -- ----<br>-------- ------- -- ---------- --- - --- ----- ----- ----<br>---- --- --- close --- ---- ---- ------- ----- ---- -------<br>--- --- -- ----- -- --- ---- -- --- ---- -- ------ ------<br>--- ----- -- ----,122741.28000000007,122738.45500000005,122447.704,122461.34500000004,122464.377,122747.818,,31,close
screen,html.Screen,1_1_0_1_32,2021-04-12T08:45:49.029Z,,,,,,,,,,,,,,,,53,,,,,,,,,,,,,,288.0970000000525,,response,,,,99,,,,,,,Space,keypress(Space),,,,,,,,---- -- ----- -- ------ - ------- --- ----------<br>------------- ------ ------ ---- ---- ------- ----- -- ----<br>-------- ------- -- ---------- --- - --- ----- ----- ----<br>---- --- --- ----- you ---- ---- ------- ----- ---- -------<br>--- --- -- ----- -- --- ---- -- --- ---- -- ------ ------<br>--- ----- -- ----,123037.79500000007,123035.91500000005,122731.145,122741.45999999996,122747.818,123047.932,,32,you
screen,html.Screen,1_1_0_1_33,2021-04-12T08:45:49.327Z,,,,,,,,,,,,,,,,53,,,,,,,,,,,,,,285.71800000003714,,response,,,,99,,,,,,,Space,keypress(Space),,,,,,,,---- -- ----- -- ------ - ------- --- ----------<br>------------- ------ ------ ---- ---- ------- ----- -- ----<br>-------- ------- -- ---------- --- - --- ----- ----- ----<br>---- --- --- ----- --- feel ---- ------- ----- ---- -------<br>--- --- -- ----- -- --- ---- -- --- ---- -- ------ ------<br>--- ----- -- ----,123336.38500000007,123333.65000000004,123031.259,123037.96999999997,123047.932,123348.046,,33,feel
screen,html.Screen,1_1_0_1_34,2021-04-12T08:45:49.598Z,,,,,,,,,,,,,,,,53,,,,,,,,,,,,,,256.0890000000363,,response,,,,99,,,,,,,Space,keypress(Space),,,,,,,,---- -- ----- -- ------ - ------- --- ----------<br>------------- ------ ------ ---- ---- ------- ----- -- ----<br>-------- ------- -- ---------- --- - --- ----- ----- ----<br>---- --- --- ----- --- ---- that ------- ----- ---- -------<br>--- --- -- ----- -- --- ---- -- --- ---- -- ------ ------<br>--- ----- -- ----,123606.85999999999,123604.13500000004,123331.373,123336.57000000005,123348.046,123614.814,,34,that
screen,html.Screen,1_1_0_1_35,2021-04-12T08:45:49.899Z,,,,,,,,,,,,,,,,53,,,,,,,,,,,,,,290.4459999999963,,response,,,,99,,,,,,,Space,keypress(Space),,,,,,,,---- -- ----- -- ------ - ------- --- ----------<br>------------- ------ ------ ---- ---- ------- ----- -- ----<br>-------- ------- -- ---------- --- - --- ----- ----- ----<br>---- --- --- ----- --- ---- ---- matters ----- ---- -------<br>--- --- -- ----- -- --- ---- -- --- ---- -- ------ ------<br>--- ----- -- ----,123907.93500000007,123905.26,123598.141,123607.03000000001,123614.814,123914.928,,35,matters
screen,html.Screen,1_1_0_1_36,2021-04-12T08:45:50.187Z,,,,,,,,,,,,,,,,53,,,,,,,,,,,,,,278.7170000000624,,response,,,,99,,,,,,,Space,keypress(Space),,,,,,,,"---- -- ----- -- ------ - ------- --- ----------<br>------------- ------ ------ ---- ---- ------- ----- -- ----<br>-------- ------- -- ---------- --- - --- ----- ----- ----<br>---- --- --- ----- --- ---- ---- ------- most, ---- -------<br>--- --- -- ----- -- --- ---- -- --- ---- -- ------ ------<br>--- ----- -- ----",124196.35000000005,124193.64500000006,123898.255,123908.10999999997,123914.928,124198.369,,36,"most,"
screen,html.Screen,1_1_0_1_37,2021-04-12T08:45:50.486Z,,,,,,,,,,,,,,,,53,,,,,,,,,,,,,,293.74600000001374,,response,,,,99,,,,,,,Space,keypress(Space),,,,,,,,---- -- ----- -- ------ - ------- --- ----------<br>------------- ------ ------ ---- ---- ------- ----- -- ----<br>-------- ------- -- ---------- --- - --- ----- ----- ----<br>---- --- --- ----- --- ---- ---- ------- ----- it's -------<br>--- --- -- ----- -- --- ---- -- --- ---- -- ------ ------<br>--- ----- -- ----,124494.98000000005,124492.11500000002,124181.696,124196.52500000007,124198.369,124498.483,,37,it's
screen,html.Screen,1_1_0_1_38,2021-04-12T08:45:50.781Z,,,,,,,,,,,,,,,,53,,,,,,,,,,,,,,288.48200000001816,,response,,,,99,,,,,,,Space,keypress(Space),,,,,,,,---- -- ----- -- ------ - ------- --- ----------<br>------------- ------ ------ ---- ---- ------- ----- -- ----<br>-------- ------- -- ---------- --- - --- ----- ----- ----<br>---- --- --- ----- --- ---- ---- ------- ----- ---- whether<br>--- --- -- ----- -- --- ---- -- --- ---- -- ------ ------<br>--- ----- -- ----,124789.72999999997,124786.96500000001,124481.81,124496.26999999997,124498.483,124798.597,,38,whether
screen,html.Screen,1_1_0_1_39,2021-04-12T08:45:51.129Z,,,,,,,,,,,,,,,,53,,,,,,,,,,,,,,336.46800000006624,,response,,,,99,,,,,,,Space,keypress(Space),,,,,,,,---- -- ----- -- ------ - ------- --- ----------<br>------------- ------ ------ ---- ---- ------- ----- -- ----<br>-------- ------- -- ---------- --- - --- ----- ----- ----<br>---- --- --- ----- --- ---- ---- ------- ----- ---- -------<br>you --- -- ----- -- --- ---- -- --- ---- -- ------ ------<br>--- ----- -- ----,125137.79,125135.06500000006,124781.924,124789.90999999996,124798.597,125148.73,,39,you
screen,html.Screen,1_1_0_1_40,2021-04-12T08:45:51.405Z,,,,,,,,,,,,,,,,53,,,,,,,,,,,,,,262.8899999999703,,response,,,,99,,,,,,,Space,keypress(Space),,,,,,,,---- -- ----- -- ------ - ------- --- ----------<br>------------- ------ ------ ---- ---- ------- ----- -- ----<br>-------- ------- -- ---------- --- - --- ----- ----- ----<br>---- --- --- ----- --- ---- ---- ------- ----- ---- -------<br>--- are -- ----- -- --- ---- -- --- ---- -- ------ ------<br>--- ----- -- ----,125414.36999999997,125411.61999999997,125132.057,125137.96500000001,125148.73,125415.498,,40,are
screen,html.Screen,1_1_0_1_41,2021-04-12T08:45:51.702Z,,,,,,,,,,,,,,,,53,,,,,,,,,,,,,,293.11699999999837,,response,,,,99,,,,,,,Space,keypress(Space),,,,,,,,---- -- ----- -- ------ - ------- --- ----------<br>------------- ------ ------ ---- ---- ------- ----- -- ----<br>-------- ------- -- ---------- --- - --- ----- ----- ----<br>---- --- --- ----- --- ---- ---- ------- ----- ---- -------<br>--- --- as ----- -- --- ---- -- --- ---- -- ------ ------<br>--- ----- -- ----,125711.39000000006,125708.615,125398.825,125414.54999999996,125415.498,125715.612,,41,as
screen,html.Screen,1_1_0_1_42,2021-04-12T08:45:52.016Z,,,,,,,,,,,,,,,,53,,,,,,,,,,,,,,307.0130000000645,,response,,,,99,,,,,,,Space,keypress(Space),,,,,,,,---- -- ----- -- ------ - ------- --- ----------<br>------------- ------ ------ ---- ---- ------- ----- -- ----<br>-------- ------- -- ---------- --- - --- ----- ----- ----<br>---- --- --- ----- --- ---- ---- ------- ----- ---- -------<br>--- --- -- close -- --- ---- -- --- ---- -- ------ ------<br>--- ----- -- ----,126025.485,126022.62500000006,125698.939,125711.57000000005,125715.612,126032.399,,42,close
screen,html.Screen,1_1_0_1_43,2021-04-12T08:45:52.312Z,,,,,,,,,,,,,,,,53,,,,,,,,,,,,,,286.20100000005914,,response,,,,99,,,,,,,Space,keypress(Space),,,,,,,,---- -- ----- -- ------ - ------- --- ----------<br>------------- ------ ------ ---- ---- ------- ----- -- ----<br>-------- ------- -- ---------- --- - --- ----- ----- ----<br>---- --- --- ----- --- ---- ---- ------- ----- ---- -------<br>--- --- -- ----- as --- ---- -- --- ---- -- ------ ------<br>--- ----- -- ----,126321.33499999998,126318.60000000006,126015.726,126025.65500000003,126032.399,126332.513,,43,as
screen,html.Screen,1_1_0_1_44,2021-04-12T08:45:52.612Z,,,,,,,,,,,,,,,,53,,,,,,,,,,,,,,286.082000000024,,response,,,,99,,,,,,,Space,keypress(Space),,,,,,,,---- -- ----- -- ------ - ------- --- ----------<br>------------- ------ ------ ---- ---- ------- ----- -- ----<br>-------- ------- -- ---------- --- - --- ----- ----- ----<br>---- --- --- ----- --- ---- ---- ------- ----- ---- -------<br>--- --- -- ----- -- you ---- -- --- ---- -- ------ ------<br>--- ----- -- ----,126621.28500000006,126618.59500000003,126315.84,126321.51,126332.513,126632.627,,44,you
screen,html.Screen,1_1_0_1_45,2021-04-12T08:45:52.915Z,,,,,,,,,,,,,,,,53,,,,,,,,,,,,,,288.5430000000779,,response,,,,99,,,,,,,Space,keypress(Space),,,,,,,,---- -- ----- -- ------ - ------- --- ----------<br>------------- ------ ------ ---- ---- ------- ----- -- ----<br>-------- ------- -- ---------- --- - --- ----- ----- ----<br>---- --- --- ----- --- ---- ---- ------- ----- ---- -------<br>--- --- -- ----- -- --- want -- --- ---- -- ------ ------<br>--- ----- -- ----,126923.85000000002,126921.17000000007,126615.954,126621.44999999998,126632.627,126932.741,,45,want
screen,html.Screen,1_1_0_1_46,2021-04-12T08:45:53.230Z,,,,,,,,,,,,,,,,53,,,,,,,,,,,,,,303.8740000000398,,response,,,,99,,,,,,,Space,keypress(Space),,,,,,,,---- -- ----- -- ------ - ------- --- ----------<br>------------- ------ ------ ---- ---- ------- ----- -- ----<br>-------- ------- -- ---------- --- - --- ----- ----- ----<br>---- --- --- ----- --- ---- ---- ------- ----- ---- -------<br>--- --- -- ----- -- --- ---- to --- ---- -- ------ ------<br>--- ----- -- ----,127239.30500000005,127236.61500000003,126916.068,126924.02000000005,126932.741,127249.528,,46,to
screen,html.Screen,1_1_0_1_47,2021-04-12T08:45:53.526Z,,,,,,,,,,,,,,,,53,,,,,,,,,,,,,,283.35699999995995,,response,,,,99,,,,,,,Space,keypress(Space),,,,,,,,"---- -- ----- -- ------ - ------- --- ----------<br>------------- ------ ------ ---- ---- ------- ----- -- ----<br>-------- ------- -- ---------- --- - --- ----- ----- ----<br>---- --- --- ----- --- ---- ---- ------- ----- ---- -------<br>--- --- -- ----- -- --- ---- -- be, ---- -- ------ ------<br>--- ----- -- ----",127535.60000000005,127532.88499999997,127232.855,127239.47499999998,127249.528,127549.642,,47,"be,"
screen,html.Screen,1_1_0_1_48,2021-04-12T08:45:53.817Z,,,,,,,,,,,,,,,,53,,,,,,,,,,,,,,273.9630000000325,,response,,,,99,,,,,,,Space,keypress(Space),,,,,,,,---- -- ----- -- ------ - ------- --- ----------<br>------------- ------ ------ ---- ---- ------- ----- -- ----<br>-------- ------- -- ---------- --- - --- ----- ----- ----<br>---- --- --- ----- --- ---- ---- ------- ----- ---- -------<br>--- --- -- ----- -- --- ---- -- --- even -- ------ ------<br>--- ----- -- ----,127826.31500000002,127823.60500000004,127532.969,127535.77000000008,127549.642,127833.083,,48,even
screen,html.Screen,1_1_0_1_49,2021-04-12T08:45:54.087Z,,,,,,,,,,,,,,,,53,,,,,,,,,,,,,,259.9969999999885,,response,,,,99,,,,,,,Space,keypress(Space),,,,,,,,---- -- ----- -- ------ - ------- --- ----------<br>------------- ------ ------ ---- ---- ------- ----- -- ----<br>-------- ------- -- ---------- --- - --- ----- ----- ----<br>---- --- --- ----- --- ---- ---- ------- ----- ---- -------<br>--- --- -- ----- -- --- ---- -- --- ---- if ------ ------<br>--- ----- -- ----,128095.79500000007,128093.07999999999,127816.41,127826.48000000005,127833.083,128099.851,,49,if
screen,html.Screen,1_1_0_1_50,2021-04-12T08:45:54.328Z,,,,,,,,,,,,,,,,53,,,,,,,,,,,,,,235.0740000000078,,response,,,,99,,,,,,,Space,keypress(Space),,,,,,,,---- -- ----- -- ------ - ------- --- ----------<br>------------- ------ ------ ---- ---- ------- ----- -- ----<br>-------- ------- -- ---------- --- - --- ----- ----- ----<br>---- --- --- ----- --- ---- ---- ------- ----- ---- -------<br>--- --- -- ----- -- --- ---- -- --- ---- -- that's ------<br>--- ----- -- ----,128337.61500000003,128334.925,128083.178,128095.98000000005,128099.851,128349.946,,50,that's
screen,html.Screen,1_1_0_1_51,2021-04-12T08:45:54.598Z,,,,,,,,,,,,,,,,53,,,,,,,,,,,,,,254.62399999996705,,response,,,,99,,,,,,,Space,keypress(Space),,,,,,,,---- -- ----- -- ------ - ------- --- ----------<br>------------- ------ ------ ---- ---- ------- ----- -- ----<br>-------- ------- -- ---------- --- - --- ----- ----- ----<br>---- --- --- ----- --- ---- ---- ------- ----- ---- -------<br>--- --- -- ----- -- --- ---- -- --- ---- -- ------ really<br>--- ----- -- ----,128607.35999999997,128604.56999999996,128333.273,128337.78500000005,128349.946,128616.714,,51,really
screen,html.Screen,1_1_0_1_52,2021-04-12T08:45:54.949Z,,,,,,,,,,,,,,,,53,,,,,,,,,,,,,,338.911000000051,,response,,,,99,,,,,,,Space,keypress(Space),,,,,,,,---- -- ----- -- ------ - ------- --- ----------<br>------------- ------ ------ ---- ---- ------- ----- -- ----<br>-------- ------- -- ---------- --- - --- ----- ----- ----<br>---- --- --- ----- --- ---- ---- ------- ----- ---- -------<br>--- --- -- ----- -- --- ---- -- --- ---- -- ------ ------<br>not ----- -- ----,128958.34000000003,128955.62500000006,128600.041,128607.53499999999,128616.714,128966.847,,52,not
screen,html.Screen,1_1_0_1_53,2021-04-12T08:45:55.231Z,,,,,,,,,,,,,,,,53,,,,,,,,,,,,,,270.7180000000226,,response,,,,99,,,,,,,Space,keypress(Space),,,,,,,,---- -- ----- -- ------ - ------- --- ----------<br>------------- ------ ------ ---- ---- ------- ----- -- ----<br>-------- ------- -- ---------- --- - --- ----- ----- ----<br>---- --- --- ----- --- ---- ---- ------- ----- ---- -------<br>--- --- -- ----- -- --- ---- -- --- ---- -- ------ ------<br>--- close -- ----,129240.25000000006,129237.56500000002,128950.174,128958.50500000006,128966.847,129250.288,,53,close
screen,html.Screen,1_1_0_1_54,2021-04-12T08:45:55.498Z,,,,,,,,,,,,,,,,53,,,,,,,,,,,,,,254.2619999999879,,response,,,,99,,,,,,,Space,keypress(Space),,,,,,,,---- -- ----- -- ------ - ------- --- ----------<br>------------- ------ ------ ---- ---- ------- ----- -- ----<br>-------- ------- -- ---------- --- - --- ----- ----- ----<br>---- --- --- ----- --- ---- ---- ------- ----- ---- -------<br>--- --- -- ----- -- --- ---- -- --- ---- -- ------ ------<br>--- ----- at ----,129507.19500000002,129504.54999999999,129233.615,129240.42500000008,129250.288,129517.056,,54,at
screen,html.Screen,1_1_0_1_55,2021-04-12T08:45:55.828Z,,,,,,,,,,,,,,,,53,,,,,,,,,,,,,,317.4840000000695,,response,,,,99,,,,,,,Space,keypress(Space),,,,,,,,---- -- ----- -- ------ - ------- --- ----------<br>------------- ------ ------ ---- ---- ------- ----- -- ----<br>-------- ------- -- ---------- --- - --- ----- ----- ----<br>---- --- --- ----- --- ---- ---- ------- ----- ---- -------<br>--- --- -- ----- -- --- ---- -- --- ---- -- ------ ------<br>--- ----- -- all.,129837.33000000006,129834.54000000007,129500.383,129507.36000000006,129517.056,129850.516,,55,all.
Item 99,flow.Loop,1_1_0_1,2021-04-12T08:45:55.828Z,,,,,,,,,,,,,,,,,,,,,,,,,,,,,,19783.47800000006,,completion,,,,,A,,,,,,,,,,,silence,,,,,129837.70000000004,129834.54000000007,110034.389,110036.11999999998,110051.062,129850.516,,,
Question 1,html.Screen,1_1_0_2,2021-04-12T08:45:59.033Z,,,,,,,,,,,,,,,,,,,,,,,,,,,true,FALSE,,3189.4590000000317,,response,,,,99,A,,,,,,FALSE,click #choice-2,,,,silence,,,,,133042.19,133039.97500000003,129833.843,129837.86499999996,129850.516,133053.834,,,
Question 2,html.Screen,1_1_0_3,2021-04-12T08:46:04.105Z,,,,,,,,,,,,,,,,,,,,,,,,,,,true,TRUE,,5057.800999999978,,response,,,,99,A,,,,,,TRUE,click #choice-1,,,,silence,,,,,138114.64,138111.63499999998,133037.161,133042.31500000003,133053.834,138122.426,,,
Item 99,flow.Sequence,1_1_0,2021-04-12T08:46:04.106Z,,,,,,,,,,,,,,,,,,,,,,,,,,,,,,38064.37299999998,,completion,,,,,,,,,,,,,,,,,,,,,138114.915,138111.63499999998,100030.589,100050.57999999997,100047.262,138122.426,,,
Holding screen,html.Screen,1_1_1_0,2021-04-12T08:46:14.103Z,,,,,,,,,,,,,,,,,,,,,,,,,,,,,,10005.222999999998,,timeout,,,,,,,,,,,,,,,,,,,,,148112.25999999998,148110.976,138105.753,138115.095,138122.426,148127.649,,,
screen,html.Screen,1_1_1_1_0,2021-04-12T08:46:14.803Z,,,,,,,,,,,,,,,,54,,,,,,,,,,,,,,681.0010000000475,,response,,,,100,,,,,,,Space,keypress(Space),,,,,,,,At --- ---- --- ------ ----- ------- ---- -- --- ------- --<br>------- ---------- ------ -- ----- -- ----- -- ---- ------<br>--- ----- --- --- ------ -------- ----- --- ------ ----- --<br>----- ----- ---------- --- --- ------ ------ ---- -- ------<br>------- --- ------ ----- --- ---- ------- -- ---- --- --<br>------- ------,148811.87999999998,148808.65000000005,148110.976,148112.50500000006,148127.649,148827.915,,0,At
screen,html.Screen,1_1_1_1_1,2021-04-12T08:46:15.109Z,,,,,,,,,,,,,,,,54,,,,,,,,,,,,,,288.2149999999965,,response,,,,100,,,,,,,Space,keypress(Space),,,,,,,,-- the ---- --- ------ ----- ------- ---- -- --- ------- --<br>------- ---------- ------ -- ----- -- ----- -- ---- ------<br>--- ----- --- --- ------ -------- ----- --- ------ ----- --<br>----- ----- ---------- --- --- ------ ------ ---- -- ------<br>------- --- ------ ----- --- ---- ------- -- ---- --- --<br>------- ------,149118.66499999998,149116.13,148811.242,148812.055,148827.915,149128.029,,1,the
screen,html.Screen,1_1_1_1_2,2021-04-12T08:46:15.336Z,,,,,,,,,,,,,,,,54,,,,,,,,,,,,,,214.82599999997183,,response,,,,100,,,,,,,Space,keypress(Space),,,,,,,,-- --- time --- ------ ----- ------- ---- -- --- ------- --<br>------- ---------- ------ -- ----- -- ----- -- ---- ------<br>--- ----- --- --- ------ -------- ----- --- ------ ----- --<br>----- ----- ---------- --- --- ------ ------ ---- -- ------<br>------- --- ------ ----- --- ---- ------- -- ---- --- --<br>------- ------,149345.415,149342.85499999998,149111.356,149118.83000000002,149128.029,149361.451,,2,time
screen,html.Screen,1_1_1_1_3,2021-04-12T08:46:15.596Z,,,,,,,,,,,,,,,,54,,,,,,,,,,,,,,241.68900000004214,,response,,,,100,,,,,,,Space,keypress(Space),,,,,,,,-- --- ---- the ------ ----- ------- ---- -- --- ------- --<br>------- ---------- ------ -- ----- -- ----- -- ---- ------<br>--- ----- --- --- ------ -------- ----- --- ------ ----- --<br>----- ----- ---------- --- --- ------ ------ ---- -- ------<br>------- --- ------ ----- --- ---- ------- -- ---- --- --<br>------- ------,149605.76000000004,149603.14000000004,149344.778,149345.58500000002,149361.451,149611.546,,3,the
screen,html.Screen,1_1_1_1_4,2021-04-12T08:46:15.896Z,,,,,,,,,,,,,,,,54,,,,,,,,,,,,,,291.0340000000433,,response,,,,100,,,,,,,Space,keypress(Space),,,,,,,,-- --- ---- --- French ----- ------- ---- -- --- ------- --<br>------- ---------- ------ -- ----- -- ----- -- ---- ------<br>--- ----- --- --- ------ -------- ----- --- ------ ----- --<br>----- ----- ---------- --- --- ------ ------ ---- -- ------<br>------- --- ------ ----- --- ---- ------- -- ---- --- --<br>------- ------,149905.23500000007,149902.58000000005,149594.873,149605.92500000008,149611.546,149911.66,,4,French
screen,html.Screen,1_1_1_1_5,2021-04-12T08:46:16.250Z,,,,,,,,,,,,,,,,54,,,,,,,,,,,,,,344.9199999999837,,response,,,,100,,,,,,,Space,keypress(Space),,,,,,,,-- --- ---- --- ------ crown ------- ---- -- --- ------- --<br>------- ---------- ------ -- ----- -- ----- -- ---- ------<br>--- ----- --- --- ------ -------- ----- --- ------ ----- --<br>----- ----- ---------- --- --- ------ ------ ---- -- ------<br>------- --- ------ ----- --- ---- ------- -- ---- --- --<br>------- ------,150259.44000000003,150256.58,149894.987,149905.40499999997,149911.66,150261.793,,5,crown
screen,html.Screen,1_1_1_1_6,2021-04-12T08:46:16.987Z,,,,,,,,,,,,,,,,54,,,,,,,,,,,,,,731.7669999999925,,response,,,,100,,,,,,,Space,keypress(Space),,,,,,,,-- --- ---- --- ------ ----- secured ---- -- --- ------- --<br>------- ---------- ------ -- ----- -- ----- -- ---- ------<br>--- ----- --- --- ------ -------- ----- --- ------ ----- --<br>----- ----- ---------- --- --- ------ ------ ---- -- ------<br>------- --- ------ ----- --- ---- ------- -- ---- --- --<br>------- ------,150996.20500000005,150993.56,150245.12,150259.61500000005,150261.793,151012.078,,6,secured
screen,html.Screen,1_1_1_1_7,2021-04-12T08:46:17.362Z,,,,,,,,,,,,,,,,54,,,,,,,,,,,,,,356.4869999999937,,response,,,,100,,,,,,,Space,keypress(Space),,,,,,,,-- --- ---- --- ------ ----- ------- much -- --- ------- --<br>------- ---------- ------ -- ----- -- ----- -- ---- ------<br>--- ----- --- --- ------ -------- ----- --- ------ ----- --<br>----- ----- ---------- --- --- ------ ------ ---- -- ------<br>------- --- ------ ----- --- ---- ------- -- ---- --- --<br>------- ------,151371.28500000006,151368.565,150995.405,150996.37500000006,151012.078,151378.884,,7,much
screen,html.Screen,1_1_1_1_8,2021-04-12T08:46:17.765Z,,,,,,,,,,,,,,,,54,,,,,,,,,,,,,,392.6710000000312,,response,,,,100,,,,,,,Space,keypress(Space),,,,,,,,-- --- ---- --- ------ ----- ------- ---- of --- ------- --<br>------- ---------- ------ -- ----- -- ----- -- ---- ------<br>--- ----- --- --- ------ -------- ----- --- ------ ----- --<br>----- ----- ---------- --- --- ------ ------ ---- -- ------<br>------- --- ------ ----- --- ---- ------- -- ---- --- --<br>------- ------,151774.27,151771.55500000002,151362.211,151371.44999999998,151378.884,151779.036,,8,of
screen,html.Screen,1_1_1_1_9,2021-04-12T08:46:18.082Z,,,,,,,,,,,,,,,,54,,,,,,,,,,,,,,309.4240000000573,,response,,,,100,,,,,,,Space,keypress(Space),,,,,,,,-- --- ---- --- ------ ----- ------- ---- -- its ------- --<br>------- ---------- ------ -- ----- -- ----- -- ---- ------<br>--- ----- --- --- ------ -------- ----- --- ------ ----- --<br>----- ----- ---------- --- --- ------ ------ ---- -- ------<br>------- --- ------ ----- --- ---- ------- -- ---- --- --<br>------- ------,152091.135,152088.46000000005,151762.363,151774.48000000004,151779.036,152100.39,,9,its
screen,html.Screen,1_1_1_1_10,2021-04-12T08:46:18.424Z,,,,,,,,,,,,,,,,54,,,,,,,,,,,,,,330.58499999996275,,response,,,,100,,,,,,,Space,keypress(Space),,,,,,,,-- --- ---- --- ------ ----- ------- ---- -- --- revenue --<br>------- ---------- ------ -- ----- -- ----- -- ---- ------<br>--- ----- --- --- ------ -------- ----- --- ------ ----- --<br>----- ----- ---------- --- --- ------ ------ ---- -- ------<br>------- --- ------ ----- --- ---- ------- -- ---- --- --<br>------- ------,152433.62000000002,152430.97499999998,152083.717,152091.31000000003,152100.39,152450.523,,10,revenue
screen,html.Screen,1_1_1_1_11,2021-04-12T08:46:18.777Z,,,,,,,,,,,,,,,,54,,,,,,,,,,,,,,333.512000000017,,response,,,,100,,,,,,,Space,keypress(Space),,,,,,,,-- --- ---- --- ------ ----- ------- ---- -- --- ------- by<br>------- ---------- ------ -- ----- -- ----- -- ---- ------<br>--- ----- --- --- ------ -------- ----- --- ------ ----- --<br>----- ----- ---------- --- --- ------ ------ ---- -- ------<br>------- --- ------ ----- --- ---- ------- -- ---- --- --<br>------- ------,152786.745,152784.035,152433.85,152433.78500000006,152450.523,152800.656,,11,by
screen,html.Screen,1_1_1_1_12,2021-04-12T08:46:19.160Z,,,,,,,,,,,,,,,,54,,,,,,,,,,,,,,367.09900000007474,,response,,,,100,,,,,,,Space,keypress(Space),,,,,,,,-- --- ---- --- ------ ----- ------- ---- -- --- ------- --<br>issuing ---------- ------ -- ----- -- ----- -- ---- ------<br>--- ----- --- --- ------ -------- ----- --- ------ ----- --<br>----- ----- ---------- --- --- ------ ------ ---- -- ------<br>------- --- ------ ----- --- ---- ------- -- ---- --- --<br>------- ------,153169.65000000005,153167.75500000006,152783.983,152786.925,152800.656,153184.135,,12,issuing
screen,html.Screen,1_1_1_1_13,2021-04-12T08:46:19.464Z,,,,,,,,,,,,,,,,54,,,,,,,,,,,,,,285.94000000006054,,response,,,,100,,,,,,,Space,keypress(Space),,,,,,,,-- --- ---- --- ------ ----- ------- ---- -- --- ------- --<br>------- government ------ -- ----- -- ----- -- ---- ------<br>--- ----- --- --- ------ -------- ----- --- ------ ----- --<br>----- ----- ---------- --- --- ------ ------ ---- -- ------<br>------- --- ------ ----- --- ---- ------- -- ---- --- --<br>------- ------,153472.83000000005,153470.07500000007,153167.462,153169.79000000004,153184.135,153484.249,,13,government
screen,html.Screen,1_1_1_1_14,2021-04-12T08:46:19.788Z,,,,,,,,,,,,,,,,54,,,,,,,,,,,,,,310.26600000003236,,response,,,,100,,,,,,,Space,keypress(Space),,,,,,,,-- --- ---- --- ------ ----- ------- ---- -- --- ------- --<br>------- ---------- bonds. -- ----- -- ----- -- ---- ------<br>--- ----- --- --- ------ -------- ----- --- ------ ----- --<br>----- ----- ---------- --- --- ------ ------ ---- -- ------<br>------- --- ------ ----- --- ---- ------- -- ---- --- --<br>------- ------,153797.235,153794.51500000004,153467.576,153473.91500000004,153484.249,153801.036,,14,bonds.
screen,html.Screen,1_1_1_1_15,2021-04-12T08:46:20.151Z,,,,,,,,,,,,,,,,54,,,,,,,,,,,,,,356.4690000000119,,response,,,,100,,,,,,,Space,keypress(Space),,,,,,,,-- --- ---- --- ------ ----- ------- ---- -- --- ------- --<br>------- ---------- ------ In ----- -- ----- -- ---- ------<br>--- ----- --- --- ------ -------- ----- --- ------ ----- --<br>----- ----- ---------- --- --- ------ ------ ---- -- ------<br>------- --- ------ ----- --- ---- ------- -- ---- --- --<br>------- ------,154160.18500000006,154157.505,153784.363,153797.40500000003,153801.036,154167.842,,15,In
screen,html.Screen,1_1_1_1_16,2021-04-12T08:46:20.471Z,,,,,,,,,,,,,,,,54,,,,,,,,,,,,,,309.6630000000587,,response,,,,100,,,,,,,Space,keypress(Space),,,,,,,,"-- --- ---- --- ------ ----- ------- ---- -- --- ------- --<br>------- ---------- ------ -- 1727, -- ----- -- ---- ------<br>--- ----- --- --- ------ -------- ----- --- ------ ----- --<br>----- ----- ---------- --- --- ------ ------ ---- -- ------<br>------- --- ------ ----- --- ---- ------- -- ---- --- --<br>------- ------",154480.135,154477.50500000006,154151.169,154160.35999999996,154167.842,154484.629,,16,"1727,"
screen,html.Screen,1_1_1_1_17,2021-04-12T08:46:23.452Z,,,,,,,,,,,,,,,,54,,,,,,,,,,,,,,2973.481000000058,,response,,,,100,,,,,,,Space,keypress(Space),,,,,,,,-- --- ---- --- ------ ----- ------- ---- -- --- ------- --<br>------- ---------- ------ -- ----- in ----- -- ---- ------<br>--- ----- --- --- ------ -------- ----- --- ------ ----- --<br>----- ----- ---------- --- --- ------ ------ ---- -- ------<br>------- --- ------ ----- --- ---- ------- -- ---- --- --<br>------- ------,157460.825,157458.11000000004,154467.956,154480.30500000005,154484.629,157469.096,,17,in
screen,html.Screen,1_1_1_1_18,2021-04-12T08:46:23.832Z,,,,,,,,,,,,,,,,54,,,,,,,,,,,,,,369.3440000000119,,response,,,,100,,,,,,,Space,keypress(Space),,,,,,,,-- --- ---- --- ------ ----- ------- ---- -- --- ------- --<br>------- ---------- ------ -- ----- -- order -- ---- ------<br>--- ----- --- --- ------ -------- ----- --- ------ ----- --<br>----- ----- ---------- --- --- ------ ------ ---- -- ------<br>------- --- ------ ----- --- ---- ------- -- ---- --- --<br>------- ------,157841.20000000007,157838.44,157452.423,157460.99500000002,157469.096,157852.575,,18,order
screen,html.Screen,1_1_1_1_19,2021-04-12T08:46:24.183Z,,,,,,,,,,,,,,,,54,,,,,,,,,,,,,,336.9649999999674,,response,,,,100,,,,,,,Space,keypress(Space),,,,,,,,-- --- ---- --- ------ ----- ------- ---- -- --- ------- --<br>------- ---------- ------ -- ----- -- ----- to ---- ------<br>--- ----- --- --- ------ -------- ----- --- ------ ----- --<br>----- ----- ---------- --- --- ------ ------ ---- -- ------<br>------- --- ------ ----- --- ---- ------- -- ---- --- --<br>------- ------,158192.27999999997,158189.53999999998,157835.902,157841.38000000006,157852.575,158202.708,,19,to
screen,html.Screen,1_1_1_1_20,2021-04-12T08:46:24.560Z,,,,,,,,,,,,,,,,54,,,,,,,,,,,,,,363.7420000000275,,response,,,,100,,,,,,,Space,keypress(Space),,,,,,,,-- --- ---- --- ------ ----- ------- ---- -- --- ------- --<br>------- ---------- ------ -- ----- -- ----- -- save ------<br>--- ----- --- --- ------ -------- ----- --- ------ ----- --<br>----- ----- ---------- --- --- ------ ------ ---- -- ------<br>------- --- ------ ----- --- ---- ------- -- ---- --- --<br>------- ------,158569.27500000005,158566.45000000004,158186.035,158192.445,158202.708,158586.187,,20,save
screen,html.Screen,1_1_1_1_21,2021-04-12T08:46:24.971Z,,,,,,,,,,,,,,,,54,,,,,,,,,,,,,,391.252999999997,,response,,,,100,,,,,,,Space,keypress(Space),,,,,,,,"-- --- ---- --- ------ ----- ------- ---- -- --- ------- --<br>------- ---------- ------ -- ----- -- ----- -- ---- money,<br>--- ----- --- --- ------ -------- ----- --- ------ ----- --<br>----- ----- ---------- --- --- ------ ------ ---- -- ------<br>------- --- ------ ----- --- ---- ------- -- ---- --- --<br>------- ------",158980.645,158977.44,158569.514,158569.44499999998,158586.187,158986.339,,21,"money,"
screen,html.Screen,1_1_1_1_22,2021-04-12T08:46:25.399Z,,,,,,,,,,,,,,,,54,,,,,,,,,,,,,,419.16600000005565,,response,,,,100,,,,,,,Space,keypress(Space),,,,,,,,-- --- ---- --- ------ ----- ------- ---- -- --- ------- --<br>------- ---------- ------ -- ----- -- ----- -- ---- ------<br>the ----- --- --- ------ -------- ----- --- ------ ----- --<br>----- ----- ---------- --- --- ------ ------ ---- -- ------<br>------- --- ------ ----- --- ---- ------- -- ---- --- --<br>------- ------,159408.41499999998,159405.50500000006,158969.666,158980.82499999998,158986.339,159419.837,,22,the
screen,html.Screen,1_1_1_1_23,2021-04-12T08:46:26.288Z,,,,,,,,,,,,,,,,54,,,,,,,,,,,,,,875.0030000000261,,response,,,,100,,,,,,,Space,keypress(Space),,,,,,,,-- --- ---- --- ------ ----- ------- ---- -- --- ------- --<br>------- ---------- ------ -- ----- -- ----- -- ---- ------<br>--- state --- --- ------ -------- ----- --- ------ ----- --<br>----- ----- ---------- --- --- ------ ------ ---- -- ------<br>------- --- ------ ----- --- ---- ------- -- ---- --- --<br>------- ------,160297.49500000002,160294.84000000003,159403.164,159408.63999999998,159419.837,160303.506,,23,state
screen,html.Screen,1_1_1_1_24,2021-04-12T08:46:26.772Z,,,,,,,,,,,,,,,,54,,,,,,,,,,,,,,474.899000000034,,response,,,,100,,,,,,,Space,keypress(Space),,,,,,,,-- --- ---- --- ------ ----- ------- ---- -- --- ------- --<br>------- ---------- ------ -- ----- -- ----- -- ---- ------<br>--- ----- cut --- ------ -------- ----- --- ------ ----- --<br>----- ----- ---------- --- --- ------ ------ ---- -- ------<br>------- --- ------ ----- --- ---- ------- -- ---- --- --<br>------- ------,160781.115,160778.40500000003,160286.833,160297.725,160303.506,160787.023,,24,cut
screen,html.Screen,1_1_1_1_25,2021-04-12T08:46:27.148Z,,,,,,,,,,,,,,,,54,,,,,,,,,,,,,,367.3670000000566,,response,,,,100,,,,,,,Space,keypress(Space),,,,,,,,-- --- ---- --- ------ ----- ------- ---- -- --- ------- --<br>------- ---------- ------ -- ----- -- ----- -- ---- ------<br>--- ----- --- the ------ -------- ----- --- ------ ----- --<br>----- ----- ---------- --- --- ------ ------ ---- -- ------<br>------- --- ------ ----- --- ---- ------- -- ---- --- --<br>------- ------,161157.06,161154.39000000004,160770.35,160781.28500000003,160787.023,161170.502,,25,the
screen,html.Screen,1_1_1_1_26,2021-04-12T08:46:27.537Z,,,,,,,,,,,,,,,,54,,,,,,,,,,,,,,372.43800000002375,,response,,,,100,,,,,,,Space,keypress(Space),,,,,,,,-- --- ---- --- ------ ----- ------- ---- -- --- ------- --<br>------- ---------- ------ -- ----- -- ----- -- ---- ------<br>--- ----- --- --- bonds' -------- ----- --- ------ ----- --<br>----- ----- ---------- --- --- ------ ------ ---- -- ------<br>------- --- ------ ----- --- ---- ------- -- ---- --- --<br>------- ------,161546.52499999997,161542.94000000003,161153.829,161157.22500000003,161170.502,161553.981,,26,bonds'
screen,html.Screen,1_1_1_1_27,2021-04-12T08:46:28.090Z,,,,,,,,,,,,,,,,54,,,,,,,,,,,,,,542.2840000000142,,response,,,,100,,,,,,,Space,keypress(Space),,,,,,,,-- --- ---- --- ------ ----- ------- ---- -- --- ------- --<br>------- ---------- ------ -- ----- -- ----- -- ---- ------<br>--- ----- --- --- ------ interest ----- --- ------ ----- --<br>----- ----- ---------- --- --- ------ ------ ---- -- ------<br>------- --- ------ ----- --- ---- ------- -- ---- --- --<br>------- ------,162098.94500000007,162096.265,161537.308,161546.79499999998,161553.981,162104.19,,27,interest
screen,html.Screen,1_1_1_1_28,2021-04-12T08:46:28.688Z,,,,,,,,,,,,,,,,54,,,,,,,,,,,,,,589.9950000000536,,response,,,,100,,,,,,,Space,keypress(Space),,,,,,,,-- --- ---- --- ------ ----- ------- ---- -- --- ------- --<br>------- ---------- ------ -- ----- -- ----- -- ---- ------<br>--- ----- --- --- ------ -------- rate. --- ------ ----- --<br>----- ----- ---------- --- --- ------ ------ ---- -- ------<br>------- --- ------ ----- --- ---- ------- -- ---- --- --<br>------- ------,162696.94500000004,162694.18500000006,162087.517,162099.11,162104.19,162708.121,,28,rate.
screen,html.Screen,1_1_1_1_29,2021-04-12T08:46:29.065Z,,,,,,,,,,,,,,,,54,,,,,,,,,,,,,,364.49400000003516,,response,,,,100,,,,,,,Space,keypress(Space),,,,,,,,-- --- ---- --- ------ ----- ------- ---- -- --- ------- --<br>------- ---------- ------ -- ----- -- ----- -- ---- ------<br>--- ----- --- --- ------ -------- ----- The ------ ----- --<br>----- ----- ---------- --- --- ------ ------ ---- -- ------<br>------- --- ------ ----- --- ---- ------- -- ---- --- --<br>------- ------,163074.46000000005,163072.61500000005,162691.448,162697.12000000005,162708.121,163091.6,,29,The
screen,html.Screen,1_1_1_1_30,2021-04-12T08:46:29.495Z,,,,,,,,,,,,,,,,54,,,,,,,,,,,,,,409.4899999999616,,response,,,,100,,,,,,,Space,keypress(Space),,,,,,,,-- --- ---- --- ------ ----- ------- ---- -- --- ------- --<br>------- ---------- ------ -- ----- -- ----- -- ---- ------<br>--- ----- --- --- ------ -------- ----- --- market ----- --<br>----- ----- ---------- --- --- ------ ------ ---- -- ------<br>------- --- ------ ----- --- ---- ------- -- ---- --- --<br>------- ------,163503.86500000002,163501.08999999997,163074.927,163074.62,163091.6,163508.425,,30,market
screen,html.Screen,1_1_1_1_31,2021-04-12T08:46:29.971Z,,,,,,,,,,,,,,,,54,,,,,,,,,,,,,,468.6850000000559,,response,,,,100,,,,,,,Space,keypress(Space),,,,,,,,-- --- ---- --- ------ ----- ------- ---- -- --- ------- --<br>------- ---------- ------ -- ----- -- ----- -- ---- ------<br>--- ----- --- --- ------ -------- ----- --- ------ value --<br>----- ----- ---------- --- --- ------ ------ ---- -- ------<br>------- --- ------ ----- --- ---- ------- -- ---- --- --<br>------- ------,163979.80000000008,163977.11000000004,163491.752,163504.03500000003,163508.425,163991.942,,31,value
screen,html.Screen,1_1_1_1_32,2021-04-12T08:46:30.757Z,,,,,,,,,,,,,,,,54,,,,,,,,,,,,,,771.8879999999772,,response,,,,100,,,,,,,Space,keypress(Space),,,,,,,,-- --- ---- --- ------ ----- ------- ---- -- --- ------- --<br>------- ---------- ------ -- ----- -- ----- -- ---- ------<br>--- ----- --- --- ------ -------- ----- --- ------ ----- of<br>----- ----- ---------- --- --- ------ ------ ---- -- ------<br>------- --- ------ ----- --- ---- ------- -- ---- --- --<br>------- ------,164766.49,164763.83,163975.269,163979.97499999998,163991.942,164775.573,,32,of
screen,html.Screen,1_1_1_1_33,2021-04-12T08:46:31.352Z,,,,,,,,,,,,,,,,54,,,,,,,,,,,,,,583.1270000000077,,response,,,,100,,,,,,,Space,keypress(Space),,,,,,,,-- --- ---- --- ------ ----- ------- ---- -- --- ------- --<br>------- ---------- ------ -- ----- -- ----- -- ---- ------<br>--- ----- --- --- ------ -------- ----- --- ------ ----- --<br>these ----- ---------- --- --- ------ ------ ---- -- ------<br>------- --- ------ ----- --- ---- ------- -- ---- --- --<br>------- ------,165361.43500000003,165358.7,164758.9,164766.65500000003,164775.573,165375.801,,33,these
screen,html.Screen,1_1_1_1_34,2021-04-12T08:46:31.729Z,,,,,,,,,,,,,,,,54,,,,,,,,,,,,,,359.51900000000023,,response,,,,100,,,,,,,Space,keypress(Space),,,,,,,,-- --- ---- --- ------ ----- ------- ---- -- --- ------- --<br>------- ---------- ------ -- ----- -- ----- -- ---- ------<br>--- ----- --- --- ------ -------- ----- --- ------ ----- --<br>----- bonds ---------- --- --- ------ ------ ---- -- ------<br>------- --- ------ ----- --- ---- ------- -- ---- --- --<br>------- ------,165738.04500000004,165735.32,165359.128,165361.60500000004,165375.801,165742.607,,34,bonds
screen,html.Screen,1_1_1_1_35,2021-04-12T08:46:32.176Z,,,,,,,,,,,,,,,,54,,,,,,,,,,,,,,440.38300000003073,,response,,,,100,,,,,,,Space,keypress(Space),,,,,,,,"-- --- ---- --- ------ ----- ------- ---- -- --- ------- --<br>------- ---------- ------ -- ----- -- ----- -- ---- ------<br>--- ----- --- --- ------ -------- ----- --- ------ ----- --<br>----- ----- plummeted, --- --- ------ ------ ---- -- ------<br>------- --- ------ ----- --- ---- ------- -- ---- --- --<br>------- ------",166185.72000000006,166182.99000000002,165725.934,165738.21499999997,165742.607,166192.778,,35,"plummeted,"
screen,html.Screen,1_1_1_1_36,2021-04-12T08:46:32.667Z,,,,,,,,,,,,,,,,54,,,,,,,,,,,,,,480.50699999998324,,response,,,,100,,,,,,,Space,keypress(Space),,,,,,,,-- --- ---- --- ------ ----- ------- ---- -- --- ------- --<br>------- ---------- ------ -- ----- -- ----- -- ---- ------<br>--- ----- --- --- ------ -------- ----- --- ------ ----- --<br>----- ----- ---------- and --- ------ ------ ---- -- ------<br>------- --- ------ ----- --- ---- ------- -- ---- --- --<br>------- ------,166675.95000000007,166673.28499999997,166176.105,166185.88999999998,166192.778,166692.968,,36,and
screen,html.Screen,1_1_1_1_37,2021-04-12T08:46:33.110Z,,,,,,,,,,,,,,,,54,,,,,,,,,,,,,,423.32700000004843,,response,,,,100,,,,,,,Space,keypress(Space),,,,,,,,-- --- ---- --- ------ ----- ------- ---- -- --- ------- --<br>------- ---------- ------ -- ----- -- ----- -- ---- ------<br>--- ----- --- --- ------ -------- ----- --- ------ ----- --<br>----- ----- ---------- --- the ------ ------ ---- -- ------<br>------- --- ------ ----- --- ---- ------- -- ---- --- --<br>------- ------,167118.97999999995,167116.29500000004,166676.295,166676.11999999997,166692.968,167126.466,,37,the
screen,html.Screen,1_1_1_1_38,2021-04-12T08:46:33.513Z,,,,,,,,,,,,,,,,54,,,,,,,,,,,,,,393.45900000006077,,response,,,,100,,,,,,,Space,keypress(Space),,,,,,,,-- --- ---- --- ------ ----- ------- ---- -- --- ------- --<br>------- ---------- ------ -- ----- -- ----- -- ---- ------<br>--- ----- --- --- ------ -------- ----- --- ------ ----- --<br>----- ----- ---------- --- --- market ------ ---- -- ------<br>------- --- ------ ----- --- ---- ------- -- ---- --- --<br>------- ------,167522.68500000003,167519.92500000005,167109.793,167119.15,167126.466,167526.618,,38,market
screen,html.Screen,1_1_1_1_39,2021-04-12T08:46:33.976Z,,,,,,,,,,,,,,,,54,,,,,,,,,,,,,,455.93700000006356,,response,,,,100,,,,,,,Space,keypress(Space),,,,,,,,-- --- ---- --- ------ ----- ------- ---- -- --- ------- --<br>------- ---------- ------ -- ----- -- ----- -- ---- ------<br>--- ----- --- --- ------ -------- ----- --- ------ ----- --<br>----- ----- ---------- --- --- ------ became ---- -- ------<br>------- --- ------ ----- --- ---- ------- -- ---- --- --<br>------- ------,167985.235,167982.55500000005,167509.945,167522.85500000004,167526.618,167993.462,,39,became
screen,html.Screen,1_1_1_1_40,2021-04-12T08:46:34.437Z,,,,,,,,,,,,,,,,54,,,,,,,,,,,,,,450.42800000001444,,response,,,,100,,,,,,,Space,keypress(Space),,,,,,,,-- --- ---- --- ------ ----- ------- ---- -- --- ------- --<br>------- ---------- ------ -- ----- -- ----- -- ---- ------<br>--- ----- --- --- ------ -------- ----- --- ------ ----- --<br>----- ----- ---------- --- --- ------ ------ wary -- ------<br>------- --- ------ ----- --- ---- ------- -- ---- --- --<br>------- ------,168446.635,168443.89,167976.789,167985.41,167993.462,168460.306,,40,wary
screen,html.Screen,1_1_1_1_41,2021-04-12T08:46:34.870Z,,,,,,,,,,,,,,,,54,,,,,,,,,,,,,,416.2190000000119,,response,,,,100,,,,,,,Space,keypress(Space),,,,,,,,-- --- ---- --- ------ ----- ------- ---- -- --- ------- --<br>------- ---------- ------ -- ----- -- ----- -- ---- ------<br>--- ----- --- --- ------ -------- ----- --- ------ ----- --<br>----- ----- ---------- --- --- ------ ------ ---- of ------<br>------- --- ------ ----- --- ---- ------- -- ---- --- --<br>------- ------,168879.24,168876.52500000002,168443.633,168446.815,168460.306,168893.804,,41,of
screen,html.Screen,1_1_1_1_42,2021-04-12T08:46:35.331Z,,,,,,,,,,,,,,,,54,,,,,,,,,,,,,,443.4360000000743,,response,,,,100,,,,,,,Space,keypress(Space),,,,,,,,-- --- ---- --- ------ ----- ------- ---- -- --- ------- --<br>------- ---------- ------ -- ----- -- ----- -- ---- ------<br>--- ----- --- --- ------ -------- ----- --- ------ ----- --<br>----- ----- ---------- --- --- ------ ------ ---- -- French<br>------- --- ------ ----- --- ---- ------- -- ---- --- --<br>------- ------,169340.27000000002,169337.24000000008,168877.131,168879.41,168893.804,169343.975,,42,French
screen,html.Screen,1_1_1_1_43,2021-04-12T08:46:35.781Z,,,,,,,,,,,,,,,,54,,,,,,,,,,,,,,443.92500000001746,,response,,,,100,,,,,,,Space,keypress(Space),,,,,,,,-- --- ---- --- ------ ----- ------- ---- -- --- ------- --<br>------- ---------- ------ -- ----- -- ----- -- ---- ------<br>--- ----- --- --- ------ -------- ----- --- ------ ----- --<br>----- ----- ---------- --- --- ------ ------ ---- -- ------<br>credit. --- ------ ----- --- ---- ------- -- ---- --- --<br>------- ------,169790.61000000002,169787.90000000002,169327.302,169340.44000000006,169343.975,169794.146,,43,credit.
screen,html.Screen,1_1_1_1_44,2021-04-12T08:46:36.251Z,,,,,,,,,,,,,,,,54,,,,,,,,,,,,,,463.09900000001653,,response,,,,100,,,,,,,Space,keypress(Space),,,,,,,,-- --- ---- --- ------ ----- ------- ---- -- --- ------- --<br>------- ---------- ------ -- ----- -- ----- -- ---- ------<br>--- ----- --- --- ------ -------- ----- --- ------ ----- --<br>----- ----- ---------- --- --- ------ ------ ---- -- ------<br>------- The ------ ----- --- ---- ------- -- ---- --- --<br>------- ------,170259.955,170257.24500000002,169777.473,169790.77500000005,169794.146,170260.99,,44,The
screen,html.Screen,1_1_1_1_45,2021-04-12T08:46:36.716Z,,,,,,,,,,,,,,,,54,,,,,,,,,,,,,,461.5350000000326,,response,,,,100,,,,,,,Space,keypress(Space),,,,,,,,-- --- ---- --- ------ ----- ------- ---- -- --- ------- --<br>------- ---------- ------ -- ----- -- ----- -- ---- ------<br>--- ----- --- --- ------ -------- ----- --- ------ ----- --<br>----- ----- ---------- --- --- ------ ------ ---- -- ------<br>------- --- French ----- --- ---- ------- -- ---- --- --<br>------- ------,170725.22000000003,170722.52500000002,170244.317,170260.12500000003,170260.99,170727.834,,45,French
screen,html.Screen,1_1_1_1_46,2021-04-12T08:46:37.093Z,,,,,,,,,,,,,,,,54,,,,,,,,,,,,,,371.40600000001723,,response,,,,100,,,,,,,Space,keypress(Space),,,,,,,,-- --- ---- --- ------ ----- ------- ---- -- --- ------- --<br>------- ---------- ------ -- ----- -- ----- -- ---- ------<br>--- ----- --- --- ------ -------- ----- --- ------ ----- --<br>----- ----- ---------- --- --- ------ ------ ---- -- ------<br>------- --- ------ state --- ---- ------- -- ---- --- --<br>------- ------,171102.00500000006,171099.24000000002,170711.161,170725.39000000007,170727.834,171111.313,,46,state
screen,html.Screen,1_1_1_1_47,2021-04-12T08:46:37.418Z,,,,,,,,,,,,,,,,54,,,,,,,,,,,,,,313.5919999999751,,response,,,,100,,,,,,,Space,keypress(Space),,,,,,,,-- --- ---- --- ------ ----- ------- ---- -- --- ------- --<br>------- ---------- ------ -- ----- -- ----- -- ---- ------<br>--- ----- --- --- ------ -------- ----- --- ------ ----- --<br>----- ----- ---------- --- --- ------ ------ ---- -- ------<br>------- --- ------ ----- was ---- ------- -- ---- --- --<br>------- ------,171427.685,171424.90499999997,171094.64,171102.175,171111.313,171444.773,,47,was
screen,html.Screen,1_1_1_1_48,2021-04-12T08:46:37.761Z,,,,,,,,,,,,,,,,54,,,,,,,,,,,,,,322.6619999999821,,response,,,,100,,,,,,,Space,keypress(Space),,,,,,,,-- --- ---- --- ------ ----- ------- ---- -- --- ------- --<br>------- ---------- ------ -- ----- -- ----- -- ---- ------<br>--- ----- --- --- ------ -------- ----- --- ------ ----- --<br>----- ----- ---------- --- --- ------ ------ ---- -- ------<br>------- --- ------ ----- --- left ------- -- ---- --- --<br>------- ------,171770.075,171767.43499999997,171428.1,171427.87,171444.773,171778.233,,48,left
screen,html.Screen,1_1_1_1_49,2021-04-12T08:46:38.127Z,,,,,,,,,,,,,,,,54,,,,,,,,,,,,,,354.8769999999786,,response,,,,100,,,,,,,Space,keypress(Space),,,,,,,,-- --- ---- --- ------ ----- ------- ---- -- --- ------- --<br>------- ---------- ------ -- ----- -- ----- -- ---- ------<br>--- ----- --- --- ------ -------- ----- --- ------ ----- --<br>----- ----- ---------- --- --- ------ ------ ---- -- ------<br>------- --- ------ ----- --- ---- without -- ---- --- --<br>------- ------,172135.93500000003,172133.11,171761.56,171770.25000000003,171778.233,172145.039,,49,without
screen,html.Screen,1_1_1_1_50,2021-04-12T08:46:38.462Z,,,,,,,,,,,,,,,,54,,,,,,,,,,,,,,323.1510000000708,,response,,,,100,,,,,,,Space,keypress(Space),,,,,,,,-- --- ---- --- ------ ----- ------- ---- -- --- ------- --<br>------- ---------- ------ -- ----- -- ----- -- ---- ------<br>--- ----- --- --- ------ -------- ----- --- ------ ----- --<br>----- ----- ---------- --- --- ------ ------ ---- -- ------<br>------- --- ------ ----- --- ---- ------- an ---- --- --<br>------- ------,172470.83499999996,172468.19000000006,172128.366,172136.10500000004,172145.039,172483.542,,50,an
screen,html.Screen,1_1_1_1_51,2021-04-12T08:46:38.884Z,,,,,,,,,,,,,,,,54,,,,,,,,,,,,,,407.1480000000738,,response,,,,100,,,,,,,Space,keypress(Space),,,,,,,,-- --- ---- --- ------ ----- ------- ---- -- --- ------- --<br>------- ---------- ------ -- ----- -- ----- -- ---- ------<br>--- ----- --- --- ------ -------- ----- --- ------ ----- --<br>----- ----- ---------- --- --- ------ ------ ---- -- ------<br>------- --- ------ ----- --- ---- ------- -- easy --- --<br>------- ------,172893.65499999997,172890.69000000006,172466.869,172471.005,172483.542,172900.367,,51,easy
screen,html.Screen,1_1_1_1_52,2021-04-12T08:46:39.274Z,,,,,,,,,,,,,,,,54,,,,,,,,,,,,,,379.8180000000866,,response,,,,100,,,,,,,Space,keypress(Space),,,,,,,,-- --- ---- --- ------ ----- ------- ---- -- --- ------- --<br>------- ---------- ------ -- ----- -- ----- -- ---- ------<br>--- ----- --- --- ------ -------- ----- --- ------ ----- --<br>----- ----- ---------- --- --- ------ ------ ---- -- ------<br>------- --- ------ ----- --- ---- ------- -- ---- way --<br>------- ------,173282.91999999998,173280.18500000008,172883.694,172893.84000000005,172900.367,173283.846,,52,way
screen,html.Screen,1_1_1_1_53,2021-04-12T08:46:39.720Z,,,,,,,,,,,,,,,,54,,,,,,,,,,,,,,442.32400000002235,,response,,,,100,,,,,,,Space,keypress(Space),,,,,,,,-- --- ---- --- ------ ----- ------- ---- -- --- ------- --<br>------- ---------- ------ -- ----- -- ----- -- ---- ------<br>--- ----- --- --- ------ -------- ----- --- ------ ----- --<br>----- ----- ---------- --- --- ------ ------ ---- -- ------<br>------- --- ------ ----- --- ---- ------- -- ---- --- of<br>------- ------,173728.88,173726.17,173267.173,173283.09999999998,173283.846,173734.017,,53,of
screen,html.Screen,1_1_1_1_54,2021-04-12T08:46:40.167Z,,,,,,,,,,,,,,,,54,,,,,,,,,,,,,,439.1380000000645,,response,,,,100,,,,,,,Space,keypress(Space),,,,,,,,-- --- ---- --- ------ ----- ------- ---- -- --- ------- --<br>------- ---------- ------ -- ----- -- ----- -- ---- ------<br>--- ----- --- --- ------ -------- ----- --- ------ ----- --<br>----- ----- ---------- --- --- ------ ------ ---- -- ------<br>------- --- ------ ----- --- ---- ------- -- ---- --- --<br>raising ------,174175.84499999997,174173.15500000006,173717.344,173729.05000000002,173734.017,174184.188,,54,raising
screen,html.Screen,1_1_1_1_55,2021-04-12T08:46:40.617Z,,,,,,,,,,,,,,,,54,,,,,,,,,,,,,,439.2720000000263,,response,,,,100,,,,,,,Space,keypress(Space),,,,,,,,-- --- ---- --- ------ ----- ------- ---- -- --- ------- --<br>------- ---------- ------ -- ----- -- ----- -- ---- ------<br>--- ----- --- --- ------ -------- ----- --- ------ ----- --<br>----- ----- ---------- --- --- ------ ------ ---- -- ------<br>------- --- ------ ----- --- ---- ------- -- ---- --- --<br>------- money.,174626.11500000002,174623.46000000002,174167.515,174176.01,174184.188,174634.359,,55,money.
Item 100,flow.Loop,1_1_1_1,2021-04-12T08:46:40.617Z,,,,,,,,,,,,,,,,,,,,,,,,,,,,,,26495.811000000016,,completion,,,,,A,,,,,,,,,,,silence,,,,,174626.40499999997,174623.46000000002,148110.976,148112.44,148127.649,174634.359,,,
Question 1,html.Screen,1_1_1_2,2021-04-12T08:46:42.597Z,,,,,,,,,,,,,,,,,,,,,,,,,,,true,TRUE,,1968.9860000000044,,response,,,,100,A,,,,,,TRUE,click #choice-1,,,,silence,,,,,176606.26,176603.345,174617.686,174626.53999999998,174634.359,176618.446,,,
Question 2,html.Screen,1_1_1_3,2021-04-12T08:46:44.787Z,,,,,,,,,,,,,,,,,,,,,,,,,,,true,FALSE,,2174.444000000047,,response,,,,100,A,,,,,,FALSE,click #choice-2,,,,silence,,,,,178795.93,178792.89000000004,176601.773,176606.43500000003,176618.446,178802.609,,,
Item 100,flow.Sequence,1_1_1,2021-04-12T08:46:44.787Z,,,,,,,,,,,,,,,,,,,,,,,,,,,,,,40670.464000000036,,completion,,,,,,,,,,,,,,,,,,,,,178796.195,178792.89000000004,138105.753,138115.03500000003,138122.426,178802.609,,,
End of Practice,html.Page,1_1_2,2021-04-12T08:46:47.756Z,,,,,,,,,,,,,,,,,,,,,,,,,,,,,,2962.551000000036,,form submission,,,,,,,,,,,,,,,,,,,,,181765.46000000008,181765.16000000003,178785.936,178796.325,178802.609,181770.403,,,
Practice,flow.Sequence,1_1,2021-04-12T08:46:47.756Z,,,,,,,,,,,,,,,,,,,,,,,,,,,,,,81717.89800000003,,completion,,,,,,,,,,,,,,,,,,,,,181765.73000000007,181765.16000000003,100030.589,100050.51000000004,100047.262,181770.403,,,
Trap_instruction,html.Page,1_2_0,2021-04-12T08:46:51.210Z,,,,,,,,,,,,,,,,,,,,,,,,,,,,,,3448.832000000024,,form submission,,,,,,,,,,,,,,,,,,,,,185219.615,185219.23500000002,181753.73,181765.93000000002,181770.403,185231.99,,,
trap_trial,html.Screen,1_2_1,2021-04-12T08:46:53.556Z,,,,,,,,,,,,,,,,,,,,,,,,,,,true,1,,2330.58500000005,,response,,,,,,,,,,,1,click #choice-1,,,,,,,,,187565.74999999997,187562.57500000004,185215.317,185219.785,185231.99,187566.21,,,
end of trap trial,html.Page,1_2_2,2021-04-12T08:46:54.997Z,,,,,,,,,,,,,,,,,,,,,,,,,,,,,,1439.8400000000838,,form submission,,,,,,,,,,,,,,,,,,,,,189006.42500000005,189006.05000000008,187549.537,187565.94500000007,187566.21,189016.761,,,
Trap 1,flow.Sequence,1_2,2021-04-12T08:46:54.997Z,,,,,,,,,,,,,,,,,,,,,,,,,,,,,,7235.6470000000845,,completion,,,,,,,,,,,,,,,,,,,,,189006.68500000006,189006.05000000008,181753.73,181765.86500000008,181770.403,189016.761,,,
Standby,html.Page,1_3_0,2021-04-12T08:47:02.996Z,,,,,,,,,,,,,,,,,,,,,,,,,,,,,,8003.040000000008,,timeout,,,,,,,,,,,,,,,,,,,,,197005.17,197003.128,189000.088,189006.86000000007,189016.761,197019.801,,,
Holding screen,html.Screen,1_3_1_0_0,2021-04-12T08:47:10.004Z,,,,,,,,,,,,,,,,,,,,,,,,,,,,,,7007.997999999992,,timeout,,,,,,,,,,,,,,,,,,,,,204013.27500000002,204011.126,197003.128,197005.46500000008,197019.801,204027.799,,,
screen,html.Screen,1_3_1_0_1_0,2021-04-12T08:47:10.722Z,,,,,,,,,,,,,,,,11,,,,,,,,,,,,,,700.7060000000347,,response,,,,4,A,,,,,,Space,keypress(Space),,,,silence,,,,Known -- ---- --- -- --- -------- ------------ ---------- --<br>- ------- ------ --------- -- ------------ -- --- ---- -----<br>------ ---- ---- ------ ------ ------- --- ----- ---------<br>---- --- -------- -------- --- --- -- ------- --- --- -----<br>-- --- ------ ------- --- --- -------- ---- --------- --<br>---------- -- -------- ----------------,204731.69500000007,204728.50500000003,204011.126,204013.6,204027.799,204744.738,,0,Known
screen,html.Screen,1_3_1_0_1_1,2021-04-12T08:47:11.564Z,,,,,,,,,,,,,,,,11,,,,,,,,,,,,,,825.6919999999809,,response,,,,4,A,,,,,,Space,keypress(Space),,,,silence,,,,----- as ---- --- -- --- -------- ------------ ---------- --<br>- ------- ------ --------- -- ------------ -- --- ---- -----<br>------ ---- ---- ------ ------ ------- --- ----- ---------<br>---- --- -------- -------- --- --- -- ------- --- --- -----<br>-- --- ------ ------- --- --- -------- ---- --------- --<br>---------- -- -------- ----------------,205573.03999999998,205570.43,204728.065,204731.89,204744.738,205578.388,,1,as
screen,html.Screen,1_3_1_0_1_2,2021-04-12T08:47:11.883Z,,,,,,,,,,,,,,,,11,,,,,,,,,,,,,,310.8220000000438,,response,,,,4,A,,,,,,Space,keypress(Space),,,,silence,,,,----- -- Rapa --- -- --- -------- ------------ ---------- --<br>- ------- ------ --------- -- ------------ -- --- ---- -----<br>------ ---- ---- ------ ------ ------- --- ----- ---------<br>---- --- -------- -------- --- --- -- ------- --- --- -----<br>-- --- ------ ------- --- --- -------- ---- --------- --<br>---------- -- -------- ----------------,205891.84999999998,205889.21000000005,205561.715,205573.20000000004,205578.388,205895.175,,2,Rapa
screen,html.Screen,1_3_1_0_1_3,2021-04-12T08:47:12.234Z,,,,,,,,,,,,,,,,11,,,,,,,,,,,,,,345.7849999999744,,response,,,,4,A,,,,,,Space,keypress(Space),,,,silence,,,,----- -- ---- Nui -- --- -------- ------------ ---------- --<br>- ------- ------ --------- -- ------------ -- --- ---- -----<br>------ ---- ---- ------ ------ ------- --- ----- ---------<br>---- --- -------- -------- --- --- -- ------- --- --- -----<br>-- --- ------ ------- --- --- -------- ---- --------- --<br>---------- -- -------- ----------------,206243.6,206240.95999999996,205878.502,205892.015,205895.175,206245.308,,3,Nui
screen,html.Screen,1_3_1_0_1_4,2021-04-12T08:47:12.611Z,,,,,,,,,,,,,,,,11,,,,,,,,,,,,,,372.64200000007986,,response,,,,4,A,,,,,,Space,keypress(Space),,,,silence,,,,----- -- ---- --- to --- -------- ------------ ---------- --<br>- ------- ------ --------- -- ------------ -- --- ---- -----<br>------ ---- ---- ------ ------ ------- --- ----- ---------<br>---- --- -------- -------- --- --- -- ------- --- --- -----<br>-- --- ------ ------- --- --- -------- ---- --------- --<br>---------- -- -------- ----------------,206620.64499999996,206617.95000000007,206228.635,206243.77000000005,206245.308,206628.787,,4,to
screen,html.Screen,1_3_1_0_1_5,2021-04-12T08:47:12.949Z,,,,,,,,,,,,,,,,11,,,,,,,,,,,,,,327.1580000000249,,response,,,,4,A,,,,,,Space,keypress(Space),,,,silence,,,,----- -- ---- --- -- the -------- ------------ ---------- --<br>- ------- ------ --------- -- ------------ -- --- ---- -----<br>------ ---- ---- ------ ------ ------- --- ----- ---------<br>---- --- -------- -------- --- --- -- ------- --- --- -----<br>-- --- ------ ------- --- --- -------- ---- --------- --<br>---------- -- -------- ----------------,206958.57,206955.94500000004,206612.114,206620.815,206628.787,206962.247,,5,the
screen,html.Screen,1_3_1_0_1_6,2021-04-12T08:47:13.400Z,,,,,,,,,,,,,,,,11,,,,,,,,,,,,,,444.68299999999,,response,,,,4,A,,,,,,Space,keypress(Space),,,,silence,,,,----- -- ---- --- -- --- island's ------------ ---------- --<br>- ------- ------ --------- -- ------------ -- --- ---- -----<br>------ ---- ---- ------ ------ ------- --- ----- ---------<br>---- --- -------- -------- --- --- -- ------- --- --- -----<br>-- --- ------ ------- --- --- -------- ---- --------- --<br>---------- -- -------- ----------------,207409.53999999998,207406.93,206945.574,206958.73500000004,206962.247,207412.418,,6,island's
screen,html.Screen,1_3_1_0_1_7,2021-04-12T08:47:13.901Z,,,,,,,,,,,,,,,,11,,,,,,,,,,,,,,495.50699999998324,,response,,,,4,A,,,,,,Space,keypress(Space),,,,silence,,,,"----- -- ---- --- -- --- -------- inhabitants, ---------- --<br>- ------- ------ --------- -- ------------ -- --- ---- -----<br>------ ---- ---- ------ ------ ------- --- ----- ---------<br>---- --- -------- -------- --- --- -- ------- --- --- -----<br>-- --- ------ ------- --- --- -------- ---- --------- --<br>---------- -- -------- ----------------",207910.58,207907.925,207395.745,207409.71000000002,207412.418,207912.608,,7,"inhabitants,"
screen,html.Screen,1_3_1_0_1_8,2021-04-12T08:47:15.550Z,,,,,,,,,,,,,,,,11,,,,,,,,,,,,,,1644.3070000000007,,response,,,,4,A,,,,,,Space,keypress(Space),,,,silence,,,,----- -- ---- --- -- --- -------- ------------ Rongorongo --<br>- ------- ------ --------- -- ------------ -- --- ---- -----<br>------ ---- ---- ------ ------ ------- --- ----- ---------<br>---- --- -------- -------- --- --- -- ------- --- --- -----<br>-- --- ------ ------- --- --- -------- ---- --------- --<br>---------- -- -------- ----------------,209559.64000000007,209556.915,207895.935,207910.755,207912.608,209568.185,,8,Rongorongo
screen,html.Screen,1_3_1_0_1_9,2021-04-12T08:47:15.933Z,,,,,,,,,,,,,,,,11,,,,,,,,,,,,,,371.7400000000198,,response,,,,4,A,,,,,,Space,keypress(Space),,,,silence,,,,----- -- ---- --- -- --- -------- ------------ ---------- is<br>- ------- ------ --------- -- ------------ -- --- ---- -----<br>------ ---- ---- ------ ------ ------- --- ----- ---------<br>---- --- -------- -------- --- --- -- ------- --- --- -----<br>-- --- ------ ------- --- --- -------- ---- --------- --<br>---------- -- -------- ----------------,209942.66000000003,209939.92500000002,209551.512,209559.805,209568.185,209951.664,,9,is
screen,html.Screen,1_3_1_0_1_10,2021-04-12T08:47:16.359Z,,,,,,,,,,,,,,,,11,,,,,,,,,,,,,,413.6710000000894,,response,,,,4,A,,,,,,Space,keypress(Space),,,,silence,,,,----- -- ---- --- -- --- -------- ------------ ---------- --<br>a ------- ------ --------- -- ------------ -- --- ---- -----<br>------ ---- ---- ------ ------ ------- --- ----- ---------<br>---- --- -------- -------- --- --- -- ------- --- --- -----<br>-- --- ------ ------- --- --- -------- ---- --------- --<br>---------- -- -------- ----------------,210368.04500000004,210365.33500000008,209934.991,209942.83000000007,209951.664,210385.162,,10,a
screen,html.Screen,1_3_1_0_1_11,2021-04-12T08:47:16.787Z,,,,,,,,,,,,,,,,11,,,,,,,,,,,,,,408.73300000000745,,response,,,,4,A,,,,,,Space,keypress(Space),,,,silence,,,,----- -- ---- --- -- --- -------- ------------ ---------- --<br>- writing ------ --------- -- ------------ -- --- ---- -----<br>------ ---- ---- ------ ------ ------- --- ----- ---------<br>---- --- -------- -------- --- --- -- ------- --- --- -----<br>-- --- ------ ------- --- --- -------- ---- --------- --<br>---------- -- -------- ----------------,210796.61499999996,210793.89500000002,210368.489,210368.20999999996,210385.162,210801.987,,11,writing
screen,html.Screen,1_3_1_0_1_12,2021-04-12T08:47:17.193Z,,,,,,,,,,,,,,,,11,,,,,,,,,,,,,,397.9429999999993,,response,,,,4,A,,,,,,Space,keypress(Space),,,,silence,,,,----- -- ---- --- -- --- -------- ------------ ---------- --<br>- ------- system --------- -- ------------ -- --- ---- -----<br>------ ---- ---- ------ ------ ------- --- ----- ---------<br>---- --- -------- -------- --- --- -- ------- --- --- -----<br>-- --- ------ ------- --- --- -------- ---- --------- --<br>---------- -- -------- ----------------,211202.60000000006,211199.93,210785.314,210796.785,210801.987,211218.812,,12,system
screen,html.Screen,1_3_1_0_1_13,2021-04-12T08:47:17.693Z,,,,,,,,,,,,,,,,11,,,,,,,,,,,,,,481.12799999996787,,response,,,,4,A,,,,,,Space,keypress(Space),,,,silence,,,,----- -- ---- --- -- --- -------- ------------ ---------- --<br>- ------- ------ comprised -- ------------ -- --- ---- -----<br>------ ---- ---- ------ ------ ------- --- ----- ---------<br>---- --- -------- -------- --- --- -- ------- --- --- -----<br>-- --- ------ ------- --- --- -------- ---- --------- --<br>---------- -- -------- ----------------,211702.70000000004,211699.93999999997,211202.139,211202.77,211218.812,211719.002,,13,comprised
screen,html.Screen,1_3_1_0_1_14,2021-04-12T08:47:18.163Z,,,,,,,,,,,,,,,,11,,,,,,,,,,,,,,450.8730000000505,,response,,,,4,A,,,,,,Space,keypress(Space),,,,silence,,,,----- -- ---- --- -- --- -------- ------------ ---------- --<br>- ------- ------ --------- of ------------ -- --- ---- -----<br>------ ---- ---- ------ ------ ------- --- ----- ---------<br>---- --- -------- -------- --- --- -- ------- --- --- -----<br>-- --- ------ ------- --- --- -------- ---- --------- --<br>---------- -- -------- ----------------,212172.64,212169.87500000006,211702.329,211702.87000000008,211719.002,212185.846,,14,of
screen,html.Screen,1_3_1_0_1_15,2021-04-12T08:47:18.928Z,,,,,,,,,,,,,,,,11,,,,,,,,,,,,,,750.2540000000154,,response,,,,4,A,,,,,,Space,keypress(Space),,,,silence,,,,----- -- ---- --- -- --- -------- ------------ ---------- --<br>- ------- ------ --------- -- pictographs. -- --- ---- -----<br>------ ---- ---- ------ ------ ------- --- ----- ---------<br>---- --- -------- -------- --- --- -- ------- --- --- -----<br>-- --- ------ ------- --- --- -------- ---- --------- --<br>---------- -- -------- ----------------,212937.81999999998,212936.1,212169.173,212172.80500000005,212185.846,212952.804,,15,pictographs.
screen,html.Screen,1_3_1_0_1_16,2021-04-12T08:47:19.348Z,,,,,,,,,,,,,,,,11,,,,,,,,,,,,,,401.5560000000405,,response,,,,4,A,,,,,,Space,keypress(Space),,,,silence,,,,----- -- ---- --- -- --- -------- ------------ ---------- --<br>- ------- ------ --------- -- ------------ It --- ---- -----<br>------ ---- ---- ------ ------ ------- --- ----- ---------<br>---- --- -------- -------- --- --- -- ------- --- --- -----<br>-- --- ------ ------- --- --- -------- ---- --------- --<br>---------- -- -------- ----------------,213357.08,213354.36000000004,212936.131,212937.97000000006,212952.804,213369.629,,16,It
screen,html.Screen,1_3_1_0_1_17,2021-04-12T08:47:19.714Z,,,,,,,,,,,,,,,,11,,,,,,,,,,,,,,350.4310000000114,,response,,,,4,A,,,,,,Space,keypress(Space),,,,silence,,,,----- -- ---- --- -- --- -------- ------------ ---------- --<br>- ------- ------ --------- -- ------------ -- has ---- -----<br>------ ---- ---- ------ ------ ------- --- ----- ---------<br>---- --- -------- -------- --- --- -- ------- --- --- -----<br>-- --- ------ ------- --- --- -------- ---- --------- --<br>---------- -- -------- ----------------,213722.85,213720.06,213352.956,213357.24500000002,213369.629,213736.435,,17,has
screen,html.Screen,1_3_1_0_1_18,2021-04-12T08:47:20.055Z,,,,,,,,,,,,,,,,11,,,,,,,,,,,,,,325.15500000002794,,response,,,,4,A,,,,,,Space,keypress(Space),,,,silence,,,,----- -- ---- --- -- --- -------- ------------ ---------- --<br>- ------- ------ --------- -- ------------ -- --- been -----<br>------ ---- ---- ------ ------ ------- --- ----- ---------<br>---- --- -------- -------- --- --- -- ------- --- --- -----<br>-- --- ------ ------- --- --- -------- ---- --------- --<br>---------- -- -------- ----------------,214064.37500000003,214061.59000000003,213719.762,213723.02000000002,213736.435,214069.895,,18,been
screen,html.Screen,1_3_1_0_1_19,2021-04-12T08:47:20.394Z,,,,,,,,,,,,,,,,11,,,,,,,,,,,,,,331.19000000008964,,response,,,,4,A,,,,,,Space,keypress(Space),,,,silence,,,,----- -- ---- --- -- --- -------- ------------ ---------- --<br>- ------- ------ --------- -- ------------ -- --- ---- found<br>------ ---- ---- ------ ------ ------- --- ----- ---------<br>---- --- -------- -------- --- --- -- ------- --- --- -----<br>-- --- ------ ------- --- --- -------- ---- --------- --<br>---------- -- -------- ----------------,214403.77000000002,214401.08500000008,214053.222,214064.54000000007,214069.895,214420.028,,19,found
screen,html.Screen,1_3_1_0_1_20,2021-04-12T08:47:20.837Z,,,,,,,,,,,,,,,,11,,,,,,,,,,,,,,422.7520000000659,,response,,,,4,A,,,,,,Space,keypress(Space),,,,silence,,,,----- -- ---- --- -- --- -------- ------------ ---------- --<br>- ------- ------ --------- -- ------------ -- --- ---- -----<br>carved ---- ---- ------ ------ ------- --- ----- ---------<br>---- --- -------- -------- --- --- -- ------- --- --- -----<br>-- --- ------ ------- --- --- -------- ---- --------- --<br>---------- -- -------- ----------------,214845.84000000005,214842.78000000006,214403.355,214403.945,214420.028,214853.526,,20,carved
screen,html.Screen,1_3_1_0_1_21,2021-04-12T08:47:21.235Z,,,,,,,,,,,,,,,,11,,,,,,,,,,,,,,387.5440000000235,,response,,,,4,A,,,,,,Space,keypress(Space),,,,silence,,,,----- -- ---- --- -- --- -------- ------------ ---------- --<br>- ------- ------ --------- -- ------------ -- --- ---- -----<br>------ into ---- ------ ------ ------- --- ----- ---------<br>---- --- -------- -------- --- --- -- ------- --- --- -----<br>-- --- ------ ------- --- --- -------- ---- --------- --<br>---------- -- -------- ----------------,215243.88,215241.07000000004,214836.853,214846.02000000008,214853.526,215253.678,,21,into
screen,html.Screen,1_3_1_0_1_22,2021-04-12T08:47:21.685Z,,,,,,,,,,,,,,,,11,,,,,,,,,,,,,,438.08700000002864,,response,,,,4,A,,,,,,Space,keypress(Space),,,,silence,,,,----- -- ---- --- -- --- -------- ------------ ---------- --<br>- ------- ------ --------- -- ------------ -- --- ---- -----<br>------ ---- many ------ ------ ------- --- ----- ---------<br>---- --- -------- -------- --- --- -- ------- --- --- -----<br>-- --- ------ ------- --- --- -------- ---- --------- --<br>---------- -- -------- ----------------,215694.4050000001,215691.76500000004,215237.005,215244.055,215253.678,215703.849,,22,many
screen,html.Screen,1_3_1_0_1_23,2021-04-12T08:47:22.675Z,,,,,,,,,,,,,,,,11,,,,,,,,,,,,,,977.4009999999835,,response,,,,4,A,,,,,,Space,keypress(Space),,,,silence,,,,----- -- ---- --- -- --- -------- ------------ ---------- --<br>- ------- ------ --------- -- ------------ -- --- ---- -----<br>------ ---- ---- oblong ------ ------- --- ----- ---------<br>---- --- -------- -------- --- --- -- ------- --- --- -----<br>-- --- ------ ------- --- --- -------- ---- --------- --<br>---------- -- -------- ----------------,216683.96000000008,216681.24999999997,215687.176,215694.57499999998,215703.849,216687.556,,23,oblong
screen,html.Screen,1_3_1_0_1_24,2021-04-12T08:47:23.173Z,,,,,,,,,,,,,,,,11,,,,,,,,,,,,,,492.18900000001304,,response,,,,4,A,,,,,,Space,keypress(Space),,,,silence,,,,----- -- ---- --- -- --- -------- ------------ ---------- --<br>- ------- ------ --------- -- ------------ -- --- ---- -----<br>------ ---- ---- ------ wooden ------- --- ----- ---------<br>---- --- -------- -------- --- --- -- ------- --- --- -----<br>-- --- ------ ------- --- --- -------- ---- --------- --<br>---------- -- -------- ----------------,217182.43500000006,217179.74500000002,216670.883,216684.13499999998,216687.556,217187.746,,24,wooden
screen,html.Screen,1_3_1_0_1_25,2021-04-12T08:47:23.628Z,,,,,,,,,,,,,,,,11,,,,,,,,,,,,,,446.57399999999325,,response,,,,4,A,,,,,,Space,keypress(Space),,,,silence,,,,----- -- ---- --- -- --- -------- ------------ ---------- --<br>- ------- ------ --------- -- ------------ -- --- ---- -----<br>------ ---- ---- ------ ------ tablets --- ----- ---------<br>---- --- -------- -------- --- --- -- ------- --- --- -----<br>-- --- ------ ------- --- --- -------- ---- --------- --<br>---------- -- -------- ----------------,217637.205,217634.32,217171.073,217182.60500000007,217187.746,217637.917,,25,tablets
screen,html.Screen,1_3_1_0_1_26,2021-04-12T08:47:24.039Z,,,,,,,,,,,,,,,,11,,,,,,,,,,,,,,407.16300000000047,,response,,,,4,A,,,,,,Space,keypress(Space),,,,silence,,,,----- -- ---- --- -- --- -------- ------------ ---------- --<br>- ------- ------ --------- -- ------------ -- --- ---- -----<br>------ ---- ---- ------ ------ ------- and ----- ---------<br>---- --- -------- -------- --- --- -- ------- --- --- -----<br>-- --- ------ ------- --- --- -------- ---- --------- --<br>---------- -- -------- ----------------,218047.94500000004,218045.08,217621.244,217637.38,217637.917,218054.742,,26,and
screen,html.Screen,1_3_1_0_1_27,2021-04-12T08:47:24.342Z,,,,,,,,,,,,,,,,11,,,,,,,,,,,,,,294.05299999998533,,response,,,,4,A,,,,,,Space,keypress(Space),,,,silence,,,,----- -- ---- --- -- --- -------- ------------ ---------- --<br>- ------- ------ --------- -- ------------ -- --- ---- -----<br>------ ---- ---- ------ ------ ------- --- other ---------<br>---- --- -------- -------- --- --- -- ------- --- --- -----<br>-- --- ------ ------- --- --- -------- ---- --------- --<br>---------- -- -------- ----------------,218351.56000000006,218348.79499999998,218038.069,218048.10500000007,218054.742,218359.305,,27,other
screen,html.Screen,1_3_1_0_1_28,2021-04-12T08:47:24.732Z,,,,,,,,,,,,,,,,11,,,,,,,,,,,,,,379.41500000006636,,response,,,,4,A,,,,,,Space,keypress(Space),,,,silence,,,,----- -- ---- --- -- --- -------- ------------ ---------- --<br>- ------- ------ --------- -- ------------ -- --- ---- -----<br>------ ---- ---- ------ ------ ------- --- ----- artifacts<br>---- --- -------- -------- --- --- -- ------- --- --- -----<br>-- --- ------ ------- --- --- -------- ---- --------- --<br>---------- -- -------- ----------------,218741.51000000007,218738.72000000006,218342.632,218351.73500000007,218359.305,218742.784,,28,artifacts
screen,html.Screen,1_3_1_0_1_29,2021-04-12T08:47:25.177Z,,,,,,,,,,,,,,,,11,,,,,,,,,,,,,,441.3210000000254,,response,,,,4,A,,,,,,Space,keypress(Space),,,,silence,,,,----- -- ---- --- -- --- -------- ------------ ---------- --<br>- ------- ------ --------- -- ------------ -- --- ---- -----<br>------ ---- ---- ------ ------ ------- --- ----- ---------<br>from --- -------- -------- --- --- -- ------- --- --- -----<br>-- --- ------ ------- --- --- -------- ---- --------- --<br>---------- -- -------- ----------------,219186.66500000007,219184.10500000004,218726.111,218741.68500000008,218742.784,219192.955,,29,from
screen,html.Screen,1_3_1_0_1_30,2021-04-12T08:47:25.565Z,,,,,,,,,,,,,,,,11,,,,,,,,,,,,,,378.53000000005704,,response,,,,4,A,,,,,,Space,keypress(Space),,,,silence,,,,----- -- ---- --- -- --- -------- ------------ ---------- --<br>- ------- ------ --------- -- ------------ -- --- ---- -----<br>------ ---- ---- ------ ------ ------- --- ----- ---------<br>---- the -------- -------- --- --- -- ------- --- --- -----<br>-- --- ------ ------- --- --- -------- ---- --------- --<br>---------- -- -------- ----------------,219574.25,219571.48500000004,219176.282,219186.83,219192.955,219576.434,,30,the
screen,html.Screen,1_3_1_0_1_31,2021-04-12T08:47:25.971Z,,,,,,,,,,,,,,,,11,,,,,,,,,,,,,,401.4010000000126,,response,,,,4,A,,,,,,Space,keypress(Space),,,,silence,,,,----- -- ---- --- -- --- -------- ------------ ---------- --<br>- ------- ------ --------- -- ------------ -- --- ---- -----<br>------ ---- ---- ------ ------ ------- --- ----- ---------<br>---- --- island's -------- --- --- -- ------- --- --- -----<br>-- --- ------ ------- --- --- -------- ---- --------- --<br>---------- -- -------- ----------------,219980.54,219977.83500000002,219559.761,219574.42000000004,219576.434,219993.259,,31,island's
screen,html.Screen,1_3_1_0_1_32,2021-04-12T08:47:26.394Z,,,,,,,,,,,,,,,,11,,,,,,,,,,,,,,407.4460000000254,,response,,,,4,A,,,,,,Space,keypress(Space),,,,silence,,,,----- -- ---- --- -- --- -------- ------------ ---------- --<br>- ------- ------ --------- -- ------------ -- --- ---- -----<br>------ ---- ---- ------ ------ ------- --- ----- ---------<br>---- --- -------- history. --- --- -- ------- --- --- -----<br>-- --- ------ ------- --- --- -------- ---- --------- --<br>---------- -- -------- ----------------,220403.49000000002,220400.70500000002,219976.586,219980.71500000003,219993.259,220410.084,,32,history.
screen,html.Screen,1_3_1_0_1_33,2021-04-12T08:47:26.825Z,,,,,,,,,,,,,,,,11,,,,,,,,,,,,,,421.08600000003935,,response,,,,4,A,,,,,,Space,keypress(Space),,,,silence,,,,----- -- ---- --- -- --- -------- ------------ ---------- --<br>- ------- ------ --------- -- ------------ -- --- ---- -----<br>------ ---- ---- ------ ------ ------- --- ----- ---------<br>---- --- -------- -------- The --- -- ------- --- --- -----<br>-- --- ------ ------- --- --- -------- ---- --------- --<br>---------- -- -------- ----------------,220833.94499999998,220831.17000000004,220393.411,220403.66500000004,220410.084,220843.582,,33,The
screen,html.Screen,1_3_1_0_1_34,2021-04-12T08:47:27.168Z,,,,,,,,,,,,,,,,11,,,,,,,,,,,,,,330.59799999999814,,response,,,,4,A,,,,,,Space,keypress(Space),,,,silence,,,,----- -- ---- --- -- --- -------- ------------ ---------- --<br>- ------- ------ --------- -- ------------ -- --- ---- -----<br>------ ---- ---- ------ ------ ------- --- ----- ---------<br>---- --- -------- -------- --- art -- ------- --- --- -----<br>-- --- ------ ------- --- --- -------- ---- --------- --<br>---------- -- -------- ----------------,221176.94000000006,221174.18,220826.909,220834.11000000002,220843.582,221193.715,,34,art
screen,html.Screen,1_3_1_0_1_35,2021-04-12T08:47:27.549Z,,,,,,,,,,,,,,,,11,,,,,,,,,,,,,,361.9750000000349,,response,,,,4,A,,,,,,Space,keypress(Space),,,,silence,,,,----- -- ---- --- -- --- -------- ------------ ---------- --<br>- ------- ------ --------- -- ------------ -- --- ---- -----<br>------ ---- ---- ------ ------ ------- --- ----- ---------<br>---- --- -------- -------- --- --- of ------- --- --- -----<br>-- --- ------ ------- --- --- -------- ---- --------- --<br>---------- -- -------- ----------------,221558.55000000008,221555.69000000003,221177.042,221177.11500000008,221193.715,221560.521,,35,of
screen,html.Screen,1_3_1_0_1_36,2021-04-12T08:47:28.015Z,,,,,,,,,,,,,,,,11,,,,,,,,,,,,,,460.6740000000282,,response,,,,4,A,,,,,,Space,keypress(Space),,,,silence,,,,----- -- ---- --- -- --- -------- ------------ ---------- --<br>- ------- ------ --------- -- ------------ -- --- ---- -----<br>------ ---- ---- ------ ------ ------- --- ----- ---------<br>---- --- -------- -------- --- --- -- writing --- --- -----<br>-- --- ------ ------- --- --- -------- ---- --------- --<br>---------- -- -------- ----------------,222023.92500000008,222021.19500000004,221543.848,221558.80000000002,221560.521,222027.365,,36,writing
screen,html.Screen,1_3_1_0_1_37,2021-04-12T08:47:28.437Z,,,,,,,,,,,,,,,,11,,,,,,,,,,,,,,416.0899999999674,,response,,,,4,A,,,,,,Space,keypress(Space),,,,silence,,,,----- -- ---- --- -- --- -------- ------------ ---------- --<br>- ------- ------ --------- -- ------------ -- --- ---- -----<br>------ ---- ---- ------ ------ ------- --- ----- ---------<br>---- --- -------- -------- --- --- -- ------- was --- -----<br>-- --- ------ ------- --- --- -------- ---- --------- --<br>---------- -- -------- ----------------,222446.07500000007,222443.45499999996,222010.692,222024.09,222027.365,222460.863,,37,was
screen,html.Screen,1_3_1_0_1_38,2021-04-12T08:47:28.792Z,,,,,,,,,,,,,,,,11,,,,,,,,,,,,,,337.30200000002515,,response,,,,4,A,,,,,,Space,keypress(Space),,,,silence,,,,----- -- ---- --- -- --- -------- ------------ ---------- --<br>- ------- ------ --------- -- ------------ -- --- ---- -----<br>------ ---- ---- ------ ------ ------- --- ----- ---------<br>---- --- -------- -------- --- --- -- ------- --- not -----<br>-- --- ------ ------- --- --- -------- ---- --------- --<br>---------- -- -------- ----------------,222800.95000000007,222798.16500000004,222444.19,222446.24,222460.863,222810.996,,38,not
screen,html.Screen,1_3_1_0_1_39,2021-04-12T08:47:29.205Z,,,,,,,,,,,,,,,,11,,,,,,,,,,,,,,400.84900000001653,,response,,,,4,A,,,,,,Space,keypress(Space),,,,silence,,,,----- -- ---- --- -- --- -------- ------------ ---------- --<br>- ------- ------ --------- -- ------------ -- --- ---- -----<br>------ ---- ---- ------ ------ ------- --- ----- ---------<br>---- --- -------- -------- --- --- -- ------- --- --- known<br>-- --- ------ ------- --- --- -------- ---- --------- --<br>---------- -- -------- ----------------,223214.55000000002,223211.84500000003,222794.323,222801.115,222810.996,223227.821,,39,known
