sender,sender_type,sender_id,timestamp,meta,,Blues,Classical,Country,Dance,Electronic,Folk,Gospel,Hip-Hop,Jazz,Latin,Musical/Film,New-age,Pop,Provo_ID,R&B,Rap,Reggae,Religious,Rock,Soul,Swing,Traditional,age,artist_name,correct,correctResponse,distraction,duration,education,ended_on,familiarity,gender,headphone_check_performance,item,list,music_frequency,offensiveness,pleasantness,position_correct,preference,response,response_action,snippet_file,song_name,song_rating,sound,stimulus_1,stimulus_2,stimulus_3,text,time_commit,time_end,time_render,time_run,time_show,time_switch,url,word,word_ID
Introduction,html.Screen,0_0,2021-04-11T15:03:22.023Z,"{""labjs_version"":""20.2.2"",""labjs_build"":{""flavor"":""production"",""commit"":""a25486e0c714a0ae2ce03ff94b7bb6896854dcfa""},""location"":""https://run.pavlovia.org/mvasilev/music_a/"",""userAgent"":""Mozilla/5.0 (Macintosh; Intel Mac OS X 10_15_6) AppleWebKit/605.1.15 (KHTML, like Gecko) Version/14.0.3 Safari/605.1.15"",""platform"":""MacIntel"",""language"":""en-gb"",""locale"":""en-GB"",""timeZone"":""Europe/London"",""timezoneOffset"":-60,""screen_width"":1680,""screen_height"":1050,""scroll_width"":1680,""scroll_height"":922,""window_innerWidth"":1680,""window_innerHeight"":970,""devicePixelRatio"":2}",,,,,,,,,,,,,,,,,,,,,,,,,,,,,10409,,response,,,,,,,,,,,continue,click button,,,,,,,,,28171,27829,17420,17398,17441,28201,{},,
Volume calibration,html.Screen,0_1,2021-04-11T15:03:41.540Z,,,,,,,,,,,,,,,,,,,,,,,,,,,,,,19500.000000000007,,response,,,,,,,,,,,continue,click button,,,,,,,,,47687,47681.00000000001,28181,28173,28201,47714,,,
Task instructions,html.Screen,0_2,2021-04-11T15:04:00.753Z,,,,,,,,,,,,,,,,,,,,,,,,,,,,,,19198,,response,,,,,,,,,,,continue,click button,,,,,,,,,66899,66894,47696,47688,47714,66926,,,
Sounds,html.Screen,0_3_0_0,2021-04-11T15:04:05.020Z,,,,,,,,,,,,,,,,,,,,,,,,,,,,,,4256,,timeout,,,,,,,,,3,,,,,,,,I,O,S,,71166,71165,66911,66900,66926,71182,,,
Judgement,html.Screen,0_3_0_1,2021-04-11T15:04:09.026Z,,,,,,,,,,,,,,,,,,,,,,,,,,,true,3,,4001,,response,,,,,,,,,3,,3,click #choice-3,,,,,I,O,S,,75172,75166,71165,71166,71182,75201,,,
Trial,flow.Sequence,0_3_0,2021-04-11T15:04:09.027Z,,,,,,,,,,,,,,,,,,,,,,,,,,,,,,8240,,completion,,,,,,,,,3,,,,,,,,I,O,S,,75173,75166,66911,66900,66926,75201,,,
Sounds,html.Screen,0_3_1_0,2021-04-11T15:04:13.290Z,,,,,,,,,,,,,,,,,,,,,,,,,,,,,,4252,,timeout,,,,,,,,,1,,,,,,,,S,O,I,,79436,79435,75185,75173,75201,79453,,,
Judgement,html.Screen,0_3_1_1,2021-04-11T15:04:15.025Z,,,,,,,,,,,,,,,,,,,,,,,,,,,false,1,,1730,,response,,,,,,,,,1,,3,click #choice-3,,,,,S,O,I,,81171,81165,79435,79436,79453,81203,,,
Trial,flow.Sequence,0_3_1,2021-04-11T15:04:15.026Z,,,,,,,,,,,,,,,,,,,,,,,,,,,,,,5964,,completion,,,,,,,,,1,,,,,,,,S,O,I,,81171,81165,75185,75173,75201,81203,,,
Sounds,html.Screen,0_3_2_0,2021-04-11T15:04:19.292Z,,,,,,,,,,,,,,,,,,,,,,,,,,,,,,4252,,timeout,,,,,,,,,1,,,,,,,,S,I,O,,85438,85437,81186,81173,81203,85455,,,
Judgement,html.Screen,0_3_2_1,2021-04-11T15:04:20.481Z,,,,,,,,,,,,,,,,,,,,,,,,,,,true,1,,1183,,response,,,,,,,,,1,,1,click #choice-1,,,,,S,I,O,,86627,86620,85437,85438,85455,86659,,,
Trial,flow.Sequence,0_3_2,2021-04-11T15:04:20.482Z,,,,,,,,,,,,,,,,,,,,,,,,,,,,,,5417,,completion,,,,,,,,,1,,,,,,,,S,I,O,,86627,86620,81186,81173,81203,86659,,,
Sounds,html.Screen,0_3_3_0,2021-04-11T15:04:24.749Z,,,,,,,,,,,,,,,,,,,,,,,,,,,,,,4253,,timeout,,,,,,,,,3,,,,,,,,O,I,S,,90895,90894,86643,86627,86659,90912,,,
Judgement,html.Screen,0_3_3_1,2021-04-11T15:04:25.407Z,,,,,,,,,,,,,,,,,,,,,,,,,,,true,3,,652,,response,,,,,,,,,3,,3,click #choice-3,,,,,O,I,S,,91553,91546,90894,90895,90912,91578,,,
Trial,flow.Sequence,0_3_3,2021-04-11T15:04:25.407Z,,,,,,,,,,,,,,,,,,,,,,,,,,,,,,4887,,completion,,,,,,,,,3,,,,,,,,O,I,S,,91553,91546,86643,86627,86659,91578,,,
Sounds,html.Screen,0_3_4_0,2021-04-11T15:04:29.663Z,,,,,,,,,,,,,,,,,,,,,,,,,,,,,,4246,,timeout,,,,,,,,,2,,,,,,,,O,S,I,,95808,95808,91562,91553,91578,95824,,,
Judgement,html.Screen,0_3_4_1,2021-04-11T15:04:30.093Z,,,,,,,,,,,,,,,,,,,,,,,,,,,true,2,,424,,response,,,,,,,,,2,,2,click #choice-2,,,,,O,S,I,,96238,96232,95808,95808,95824,96258,,,
Trial,flow.Sequence,0_3_4,2021-04-11T15:04:30.093Z,,,,,,,,,,,,,,,,,,,,,,,,,,,,,,4654,,completion,,,,,,,,,2,,,,,,,,O,S,I,,96239,96232,91562,91553,91578,96258,,,
Sounds,html.Screen,0_3_5_0,2021-04-11T15:04:34.342Z,,,,,,,,,,,,,,,,,,,,,,,,,,,,,,4246,,timeout,,,,,,,,,2,,,,,,,,I,S,O,,100487.00000000001,100487,96242,96239,96258,100504,,,
Judgement,html.Screen,0_3_5_1,2021-04-11T15:04:34.815Z,,,,,,,,,,,,,,,,,,,,,,,,,,,true,2,,466,,response,,,,,,,,,2,,2,click #choice-2,,,,,I,S,O,,100960.00000000001,100953,100487,100488,100504,100980,,,
Trial,flow.Sequence,0_3_5,2021-04-11T15:04:34.815Z,,,,,,,,,,,,,,,,,,,,,,,,,,,,,,4695,,completion,,,,,,,,,2,,,,,,,,I,S,O,,100960.00000000001,100953,96242,96239,96258,100980,,,
Task,flow.Loop,0_3,2021-04-11T15:04:34.818Z,,,,,,,,,,,,,,,,,,,,,,,,,,,,,,34027,,completion,,,0.8333333333333334,,,,,,,,,,,,,,,,,,100963.00000000001,100953,66911,66899,66926,100980,,,
Trap,html.Screen,0_4,2021-04-11T15:04:34.821Z,,,,,,,,,,,,,,,,,,,,,,,,,,,,,,NaN,,skipped,,,,,,,,,,,,,,,,,,,,,100966.00000000001,100953,,100966.00000000001,,100980,,,
Thanks,html.Screen,0_5,2021-04-11T15:04:38.791Z,,,,,,,,,,,,,,,,,,,,,,,,,,,,,,3960,,response,,,,,,,,,,,continue,click button,,,,,,,,,104936,104929,100969,100966.00000000001,100980,112398,,,
Headphone screening,flow.Sequence,0,2021-04-11T15:04:38.791Z,,,,,,,,,,,,,,,,,,,,,,,,,,,,,,87488,,completion,,,,,,,,,,,,,,,,,,,,,104937,104929,17420,17398,17441,112398,,,
Instructions,html.Page,1_0,2021-04-11T15:05:07.370Z,,,,,,,,,,,,,,,,,,,,,,,,,,,,,,21115,,form submission,,,,,,,,,,,,,,,,,,,,,133514,133513,112380,112358,112398,133540,,,
Holding screen,html.Screen,1_1_0_0,2021-04-11T15:05:17.380Z,,,,,,,,,,,,,,,,,,,,,,,,,,,,,,10027,,timeout,,,,,,,,,,,,,,,,,,,,,143524,143523,133521,133514,133540,143567,,,
screen,html.Screen,1_1_0_1_0,2021-04-11T15:05:18.479Z,,,,,,,,,,,,,,,,53,,,,,,,,,,,,,,1090,,response,,,,99,,,,,,,Space,keypress(Space),,,,,,,,When -- ----- -- ------ - ------- --- ----------<br>------------- ------ ------ ---- ---- ------- ----- -- ----<br>-------- ------- -- ---------- --- - --- ----- ----- ----<br>---- --- --- ----- --- ---- ---- ------- ----- ---- -------<br>--- --- -- ----- -- --- ---- -- --- ---- -- ------ ------<br>--- ----- -- ----,144623,144613,143523,143524,143567,144660,,0,When
screen,html.Screen,1_1_0_1_1,2021-04-11T15:05:20.140Z,,,,,,,,,,,,,,,,53,,,,,,,,,,,,,,1631,,response,,,,99,,,,,,,Space,keypress(Space),,,,,,,,---- it ----- -- ------ - ------- --- ----------<br>------------- ------ ------ ---- ---- ------- ----- -- ----<br>-------- ------- -- ---------- --- - --- ----- ----- ----<br>---- --- --- ----- --- ---- ---- ------- ----- ---- -------<br>--- --- -- ----- -- --- ---- -- --- ---- -- ------ ------<br>--- ----- -- ----,146284,146274,144643,144623,144660,146319,,1,it
screen,html.Screen,1_1_0_1_2,2021-04-11T15:05:20.980Z,,,,,,,,,,,,,,,,53,,,,,,,,,,,,,,812,,response,,,,99,,,,,,,Space,keypress(Space),,,,,,,,---- -- comes -- ------ - ------- --- ----------<br>------------- ------ ------ ---- ---- ------- ----- -- ----<br>-------- ------- -- ---------- --- - --- ----- ----- ----<br>---- --- --- ----- --- ---- ---- ------- ----- ---- -------<br>--- --- -- ----- -- --- ---- -- --- ---- -- ------ ------<br>--- ----- -- ----,147124,147114,146302,146284,146319,147155,,2,comes
screen,html.Screen,1_1_0_1_3,2021-04-11T15:05:21.635Z,,,,,,,,,,,,,,,,53,,,,,,,,,,,,,,631,,response,,,,99,,,,,,,Space,keypress(Space),,,,,,,,---- -- ----- to ------ - ------- --- ----------<br>------------- ------ ------ ---- ---- ------- ----- -- ----<br>-------- ------- -- ---------- --- - --- ----- ----- ----<br>---- --- --- ----- --- ---- ---- ------- ----- ---- -------<br>--- --- -- ----- -- --- ---- -- --- ---- -- ------ ------<br>--- ----- -- ----,147779,147769,147138,147124,147155,147808,,3,to
screen,html.Screen,1_1_0_1_4,2021-04-11T15:05:22.212Z,,,,,,,,,,,,,,,,53,,,,,,,,,,,,,,556,,response,,,,99,,,,,,,Space,keypress(Space),,,,,,,,---- -- ----- -- having - ------- --- ----------<br>------------- ------ ------ ---- ---- ------- ----- -- ----<br>-------- ------- -- ---------- --- - --- ----- ----- ----<br>---- --- --- ----- --- ---- ---- ------- ----- ---- -------<br>--- --- -- ----- -- --- ---- -- --- ---- -- ------ ------<br>--- ----- -- ----,148356,148347,147791,147779,147808,148394,,4,having
screen,html.Screen,1_1_0_1_5,2021-04-11T15:05:22.661Z,,,,,,,,,,,,,,,,53,,,,,,,,,,,,,,419,,response,,,,99,,,,,,,Space,keypress(Space),,,,,,,,---- -- ----- -- ------ a ------- --- ----------<br>------------- ------ ------ ---- ---- ------- ----- -- ----<br>-------- ------- -- ---------- --- - --- ----- ----- ----<br>---- --- --- ----- --- ---- ---- ------- ----- ---- -------<br>--- --- -- ----- -- --- ---- -- --- ---- -- ------ ------<br>--- ----- -- ----,148805,148796,148377,148356,148394,148847,,5,a
screen,html.Screen,1_1_0_1_6,2021-04-11T15:05:23.347Z,,,,,,,,,,,,,,,,53,,,,,,,,,,,,,,651,,response,,,,99,,,,,,,Space,keypress(Space),,,,,,,,---- -- ----- -- ------ - lasting --- ----------<br>------------- ------ ------ ---- ---- ------- ----- -- ----<br>-------- ------- -- ---------- --- - --- ----- ----- ----<br>---- --- --- ----- --- ---- ---- ------- ----- ---- -------<br>--- --- -- ----- -- --- ---- -- --- ---- -- ------ ------<br>--- ----- -- ----,149491,149482,148831,148805,148847,149534,,6,lasting
screen,html.Screen,1_1_0_1_7,2021-04-11T15:05:23.963Z,,,,,,,,,,,,,,,,53,,,,,,,,,,,,,,582,,response,,,,99,,,,,,,Space,keypress(Space),,,,,,,,---- -- ----- -- ------ - ------- and ----------<br>------------- ------ ------ ---- ---- ------- ----- -- ----<br>-------- ------- -- ---------- --- - --- ----- ----- ----<br>---- --- --- ----- --- ---- ---- ------- ----- ---- -------<br>--- --- -- ----- -- --- ---- -- --- ---- -- ------ ------<br>--- ----- -- ----,150107,150098,149516,149491,149534,150136,,7,and
screen,html.Screen,1_1_0_1_8,2021-04-11T15:05:24.487Z,,,,,,,,,,,,,,,,53,,,,,,,,,,,,,,502,,response,,,,99,,,,,,,Space,keypress(Space),,,,,,,,---- -- ----- -- ------ - ------- --- fulfilling<br>------------- ------ ------ ---- ---- ------- ----- -- ----<br>-------- ------- -- ---------- --- - --- ----- ----- ----<br>---- --- --- ----- --- ---- ---- ------- ----- ---- -------<br>--- --- -- ----- -- --- ---- -- --- ---- -- ------ ------<br>--- ----- -- ----,150631,150622,150120,150107,150136,150672,,8,fulfilling
screen,html.Screen,1_1_0_1_9,2021-04-11T15:05:24.997Z,,,,,,,,,,,,,,,,53,,,,,,,,,,,,,,475,,response,,,,99,,,,,,,Space,keypress(Space),,,,,,,,"---- -- ----- -- ------ - ------- --- ----------<br>relationship, ------ ------ ---- ---- ------- ----- -- ----<br>-------- ------- -- ---------- --- - --- ----- ----- ----<br>---- --- --- ----- --- ---- ---- ------- ----- ---- -------<br>--- --- -- ----- -- --- ---- -- --- ---- -- ------ ------<br>--- ----- -- ----",151140.00000000003,151131,150656,150631,150672,151175,,9,"relationship,"
screen,html.Screen,1_1_0_1_10,2021-04-11T15:05:25.713Z,,,,,,,,,,,,,,,,53,,,,,,,,,,,,,,689,,response,,,,99,,,,,,,Space,keypress(Space),,,,,,,,---- -- ----- -- ------ - ------- --- ----------<br>------------- common ------ ---- ---- ------- ----- -- ----<br>-------- ------- -- ---------- --- - --- ----- ----- ----<br>---- --- --- ----- --- ---- ---- ------- ----- ---- -------<br>--- --- -- ----- -- --- ---- -- --- ---- -- ------ ------<br>--- ----- -- ----,151857,151848,151159,151140.00000000003,151175,151895,,10,common
screen,html.Screen,1_1_0_1_11,2021-04-11T15:05:26.213Z,,,,,,,,,,,,,,,,53,,,,,,,,,,,,,,469,,response,,,,99,,,,,,,Space,keypress(Space),,,,,,,,---- -- ----- -- ------ - ------- --- ----------<br>------------- ------ wisdom ---- ---- ------- ----- -- ----<br>-------- ------- -- ---------- --- - --- ----- ----- ----<br>---- --- --- ----- --- ---- ---- ------- ----- ---- -------<br>--- --- -- ----- -- --- ---- -- --- ---- -- ------ ------<br>--- ----- -- ----,152357,152347,151878,151857,151895,152398,,11,wisdom
screen,html.Screen,1_1_0_1_12,2021-04-11T15:05:26.852Z,,,,,,,,,,,,,,,,53,,,,,,,,,,,,,,605,,response,,,,99,,,,,,,Space,keypress(Space),,,,,,,,---- -- ----- -- ------ - ------- --- ----------<br>------------- ------ ------ says ---- ------- ----- -- ----<br>-------- ------- -- ---------- --- - --- ----- ----- ----<br>---- --- --- ----- --- ---- ---- ------- ----- ---- -------<br>--- --- -- ----- -- --- ---- -- --- ---- -- ------ ------<br>--- ----- -- ----,152996,152986,152381,152357,152398,153033,,12,says
screen,html.Screen,1_1_0_1_13,2021-04-11T15:05:27.474Z,,,,,,,,,,,,,,,,53,,,,,,,,,,,,,,592,,response,,,,99,,,,,,,Space,keypress(Space),,,,,,,,---- -- ----- -- ------ - ------- --- ----------<br>------------- ------ ------ ---- that ------- ----- -- ----<br>-------- ------- -- ---------- --- - --- ----- ----- ----<br>---- --- --- ----- --- ---- ---- ------- ----- ---- -------<br>--- --- -- ----- -- --- ---- -- --- ---- -- ------ ------<br>--- ----- -- ----,153618,153609,153017,152996,153033,153655,,13,that
screen,html.Screen,1_1_0_1_14,2021-04-11T15:05:27.994Z,,,,,,,,,,,,,,,,53,,,,,,,,,,,,,,490,,response,,,,99,,,,,,,Space,keypress(Space),,,,,,,,---- -- ----- -- ------ - ------- --- ----------<br>------------- ------ ------ ---- ---- feeling ----- -- ----<br>-------- ------- -- ---------- --- - --- ----- ----- ----<br>---- --- --- ----- --- ---- ---- ------- ----- ---- -------<br>--- --- -- ----- -- --- ---- -- --- ---- -- ------ ------<br>--- ----- -- ----,154138,154129,153639,153618,153655,154176,,14,feeling
screen,html.Screen,1_1_0_1_15,2021-04-11T15:05:28.469Z,,,,,,,,,,,,,,,,53,,,,,,,,,,,,,,444,,response,,,,99,,,,,,,Space,keypress(Space),,,,,,,,---- -- ----- -- ------ - ------- --- ----------<br>------------- ------ ------ ---- ---- ------- close -- ----<br>-------- ------- -- ---------- --- - --- ----- ----- ----<br>---- --- --- ----- --- ---- ---- ------- ----- ---- -------<br>--- --- -- ----- -- --- ---- -- --- ---- -- ------ ------<br>--- ----- -- ----,154613,154603,154159,154138,154176,154645,,15,close
screen,html.Screen,1_1_0_1_16,2021-04-11T15:05:28.962Z,,,,,,,,,,,,,,,,53,,,,,,,,,,,,,,468,,response,,,,99,,,,,,,Space,keypress(Space),,,,,,,,---- -- ----- -- ------ - ------- --- ----------<br>------------- ------ ------ ---- ---- ------- ----- to ----<br>-------- ------- -- ---------- --- - --- ----- ----- ----<br>---- --- --- ----- --- ---- ---- ------- ----- ---- -------<br>--- --- -- ----- -- --- ---- -- --- ---- -- ------ ------<br>--- ----- -- ----,155106,155096,154628,154613,154645,155147,,16,to
screen,html.Screen,1_1_0_1_17,2021-04-11T15:05:29.505Z,,,,,,,,,,,,,,,,53,,,,,,,,,,,,,,507,,response,,,,99,,,,,,,Space,keypress(Space),,,,,,,,---- -- ----- -- ------ - ------- --- ----------<br>------------- ------ ------ ---- ---- ------- ----- -- your<br>-------- ------- -- ---------- --- - --- ----- ----- ----<br>---- --- --- ----- --- ---- ---- ------- ----- ---- -------<br>--- --- -- ----- -- --- ---- -- --- ---- -- ------ ------<br>--- ----- -- ----,155648,155638,155131,155106,155147,155684,,17,your
screen,html.Screen,1_1_0_1_18,2021-04-11T15:05:29.989Z,,,,,,,,,,,,,,,,53,,,,,,,,,,,,,,455,,response,,,,99,,,,,,,Space,keypress(Space),,,,,,,,---- -- ----- -- ------ - ------- --- ----------<br>------------- ------ ------ ---- ---- ------- ----- -- ----<br>romantic ------- -- ---------- --- - --- ----- ----- ----<br>---- --- --- ----- --- ---- ---- ------- ----- ---- -------<br>--- --- -- ----- -- --- ---- -- --- ---- -- ------ ------<br>--- ----- -- ----,156133,156123,155668,155648,155684,156169,,18,romantic
screen,html.Screen,1_1_0_1_19,2021-04-11T15:05:30.453Z,,,,,,,,,,,,,,,,53,,,,,,,,,,,,,,433,,response,,,,99,,,,,,,Space,keypress(Space),,,,,,,,---- -- ----- -- ------ - ------- --- ----------<br>------------- ------ ------ ---- ---- ------- ----- -- ----<br>-------- partner -- ---------- --- - --- ----- ----- ----<br>---- --- --- ----- --- ---- ---- ------- ----- ---- -------<br>--- --- -- ----- -- --- ---- -- --- ---- -- ------ ------<br>--- ----- -- ----,156596,156586,156153,156133,156169,156623,,19,partner
screen,html.Screen,1_1_0_1_20,2021-04-11T15:05:30.932Z,,,,,,,,,,,,,,,,53,,,,,,,,,,,,,,459,,response,,,,99,,,,,,,Space,keypress(Space),,,,,,,,---- -- ----- -- ------ - ------- --- ----------<br>------------- ------ ------ ---- ---- ------- ----- -- ----<br>-------- ------- is ---------- --- - --- ----- ----- ----<br>---- --- --- ----- --- ---- ---- ------- ----- ---- -------<br>--- --- -- ----- -- --- ---- -- --- ---- -- ------ ------<br>--- ----- -- ----,157076,157066,156607,156596,156623,157109,,20,is
screen,html.Screen,1_1_0_1_21,2021-04-11T15:05:31.373Z,,,,,,,,,,,,,,,,53,,,,,,,,,,,,,,415,,response,,,,99,,,,,,,Space,keypress(Space),,,,,,,,---- -- ----- -- ------ - ------- --- ----------<br>------------- ------ ------ ---- ---- ------- ----- -- ----<br>-------- ------- -- paramount. --- - --- ----- ----- ----<br>---- --- --- ----- --- ---- ---- ------- ----- ---- -------<br>--- --- -- ----- -- --- ---- -- --- ---- -- ------ ------<br>--- ----- -- ----,157517,157507,157092,157076,157109,157545,,21,paramount.
screen,html.Screen,1_1_0_1_22,2021-04-11T15:05:32.189Z,,,,,,,,,,,,,,,,53,,,,,,,,,,,,,,794,,response,,,,99,,,,,,,Space,keypress(Space),,,,,,,,---- -- ----- -- ------ - ------- --- ----------<br>------------- ------ ------ ---- ---- ------- ----- -- ----<br>-------- ------- -- ---------- But - --- ----- ----- ----<br>---- --- --- ----- --- ---- ---- ------- ----- ---- -------<br>--- --- -- ----- -- --- ---- -- --- ---- -- ------ ------<br>--- ----- -- ----,158333,158323,157529,157517,157545,158364,,22,But
screen,html.Screen,1_1_0_1_23,2021-04-11T15:05:32.649Z,,,,,,,,,,,,,,,,53,,,,,,,,,,,,,,434,,response,,,,99,,,,,,,Space,keypress(Space),,,,,,,,---- -- ----- -- ------ - ------- --- ----------<br>------------- ------ ------ ---- ---- ------- ----- -- ----<br>-------- ------- -- ---------- --- a --- ----- ----- ----<br>---- --- --- ----- --- ---- ---- ------- ----- ---- -------<br>--- --- -- ----- -- --- ---- -- --- ---- -- ------ ------<br>--- ----- -- ----,158792,158782,158348,158333,158364,158835,,23,a
screen,html.Screen,1_1_0_1_24,2021-04-11T15:05:33.131Z,,,,,,,,,,,,,,,,53,,,,,,,,,,,,,,448.0000000000291,,response,,,,99,,,,,,,Space,keypress(Space),,,,,,,,---- -- ----- -- ------ - ------- --- ----------<br>------------- ------ ------ ---- ---- ------- ----- -- ----<br>-------- ------- -- ---------- --- - new ----- ----- ----<br>---- --- --- ----- --- ---- ---- ------- ----- ---- -------<br>--- --- -- ----- -- --- ---- -- --- ---- -- ------ ------<br>--- ----- -- ----,159275,159265.00000000003,158817,158793,158835,159305,,24,new
screen,html.Screen,1_1_0_1_25,2021-04-11T15:05:33.570Z,,,,,,,,,,,,,,,,53,,,,,,,,,,,,,,416,,response,,,,99,,,,,,,Space,keypress(Space),,,,,,,,---- -- ----- -- ------ - ------- --- ----------<br>------------- ------ ------ ---- ---- ------- ----- -- ----<br>-------- ------- -- ---------- --- - --- study ----- ----<br>---- --- --- ----- --- ---- ---- ------- ----- ---- -------<br>--- --- -- ----- -- --- ---- -- --- ---- -- ------ ------<br>--- ----- -- ----,159714,159704,159288,159275,159305,159741,,25,study
screen,html.Screen,1_1_0_1_26,2021-04-11T15:05:33.977Z,,,,,,,,,,,,,,,,53,,,,,,,,,,,,,,386,,response,,,,99,,,,,,,Space,keypress(Space),,,,,,,,---- -- ----- -- ------ - ------- --- ----------<br>------------- ------ ------ ---- ---- ------- ----- -- ----<br>-------- ------- -- ---------- --- - --- ----- finds ----<br>---- --- --- ----- --- ---- ---- ------- ----- ---- -------<br>--- --- -- ----- -- --- ---- -- --- ---- -- ------ ------<br>--- ----- -- ----,160120,160110,159724,159714,159741,160161,,26,finds
screen,html.Screen,1_1_0_1_27,2021-04-11T15:05:34.448Z,,,,,,,,,,,,,,,,53,,,,,,,,,,,,,,437.0000000000291,,response,,,,99,,,,,,,Space,keypress(Space),,,,,,,,---- -- ----- -- ------ - ------- --- ----------<br>------------- ------ ------ ---- ---- ------- ----- -- ----<br>-------- ------- -- ---------- --- - --- ----- ----- that<br>---- --- --- ----- --- ---- ---- ------- ----- ---- -------<br>--- --- -- ----- -- --- ---- -- --- ---- -- ------ ------<br>--- ----- -- ----,160591,160581.00000000003,160144,160120,160161,160630,,27,that
screen,html.Screen,1_1_0_1_28,2021-04-11T15:05:34.888Z,,,,,,,,,,,,,,,,53,,,,,,,,,,,,,,409,,response,,,,99,,,,,,,Space,keypress(Space),,,,,,,,---- -- ----- -- ------ - ------- --- ----------<br>------------- ------ ------ ---- ---- ------- ----- -- ----<br>-------- ------- -- ---------- --- - --- ----- ----- ----<br>it's --- --- ----- --- ---- ---- ------- ----- ---- -------<br>--- --- -- ----- -- --- ---- -- --- ---- -- ------ ------<br>--- ----- -- ----,161032,161022,160613,160591,160630,161066,,28,it's
screen,html.Screen,1_1_0_1_29,2021-04-11T15:05:35.296Z,,,,,,,,,,,,,,,,53,,,,,,,,,,,,,,381,,response,,,,99,,,,,,,Space,keypress(Space),,,,,,,,---- -- ----- -- ------ - ------- --- ----------<br>------------- ------ ------ ---- ---- ------- ----- -- ----<br>-------- ------- -- ---------- --- - --- ----- ----- ----<br>---- not --- ----- --- ---- ---- ------- ----- ---- -------<br>--- --- -- ----- -- --- ---- -- --- ---- -- ------ ------<br>--- ----- -- ----,161440,161430,161049,161032,161066,161468,,29,not
screen,html.Screen,1_1_0_1_30,2021-04-11T15:05:35.693Z,,,,,,,,,,,,,,,,53,,,,,,,,,,,,,,373.0000000000291,,response,,,,99,,,,,,,Space,keypress(Space),,,,,,,,---- -- ----- -- ------ - ------- --- ----------<br>------------- ------ ------ ---- ---- ------- ----- -- ----<br>-------- ------- -- ---------- --- - --- ----- ----- ----<br>---- --- how ----- --- ---- ---- ------- ----- ---- -------<br>--- --- -- ----- -- --- ---- -- --- ---- -- ------ ------<br>--- ----- -- ----,161837.00000000003,161825.00000000003,161452,161440,161468,161871,,30,how
screen,html.Screen,1_1_0_1_31,2021-04-11T15:05:36.070Z,,,,,,,,,,,,,,,,53,,,,,,,,,,,,,,349,,response,,,,99,,,,,,,Space,keypress(Space),,,,,,,,---- -- ----- -- ------ - ------- --- ----------<br>------------- ------ ------ ---- ---- ------- ----- -- ----<br>-------- ------- -- ---------- --- - --- ----- ----- ----<br>---- --- --- close --- ---- ---- ------- ----- ---- -------<br>--- --- -- ----- -- --- ---- -- --- ---- -- ------ ------<br>--- ----- -- ----,162214,162204,161855,161837.00000000003,161871,162241,,31,close
screen,html.Screen,1_1_0_1_32,2021-04-11T15:05:36.481Z,,,,,,,,,,,,,,,,53,,,,,,,,,,,,,,391,,response,,,,99,,,,,,,Space,keypress(Space),,,,,,,,---- -- ----- -- ------ - ------- --- ----------<br>------------- ------ ------ ---- ---- ------- ----- -- ----<br>-------- ------- -- ---------- --- - --- ----- ----- ----<br>---- --- --- ----- you ---- ---- ------- ----- ---- -------<br>--- --- -- ----- -- --- ---- -- --- ---- -- ------ ------<br>--- ----- -- ----,162625,162615,162224,162214,162241,162659,,32,you
screen,html.Screen,1_1_0_1_33,2021-04-11T15:05:36.938Z,,,,,,,,,,,,,,,,53,,,,,,,,,,,,,,429,,response,,,,99,,,,,,,Space,keypress(Space),,,,,,,,---- -- ----- -- ------ - ------- --- ----------<br>------------- ------ ------ ---- ---- ------- ----- -- ----<br>-------- ------- -- ---------- --- - --- ----- ----- ----<br>---- --- --- ----- --- feel ---- ------- ----- ---- -------<br>--- --- -- ----- -- --- ---- -- --- ---- -- ------ ------<br>--- ----- -- ----,163082,163072,162643,162625,162659,163113,,33,feel
screen,html.Screen,1_1_0_1_34,2021-04-11T15:05:37.372Z,,,,,,,,,,,,,,,,53,,,,,,,,,,,,,,410,,response,,,,99,,,,,,,Space,keypress(Space),,,,,,,,---- -- ----- -- ------ - ------- --- ----------<br>------------- ------ ------ ---- ---- ------- ----- -- ----<br>-------- ------- -- ---------- --- - --- ----- ----- ----<br>---- --- --- ----- --- ---- that ------- ----- ---- -------<br>--- --- -- ----- -- --- ---- -- --- ---- -- ------ ------<br>--- ----- -- ----,163516,163506,163096,163082,163113,163548,,34,that
screen,html.Screen,1_1_0_1_35,2021-04-11T15:05:37.763Z,,,,,,,,,,,,,,,,53,,,,,,,,,,,,,,364.0000000000291,,response,,,,99,,,,,,,Space,keypress(Space),,,,,,,,---- -- ----- -- ------ - ------- --- ----------<br>------------- ------ ------ ---- ---- ------- ----- -- ----<br>-------- ------- -- ---------- --- - --- ----- ----- ----<br>---- --- --- ----- --- ---- ---- matters ----- ---- -------<br>--- --- -- ----- -- --- ---- -- --- ---- -- ------ ------<br>--- ----- -- ----,163906,163896.00000000003,163532,163516,163548,163935,,35,matters
screen,html.Screen,1_1_0_1_36,2021-04-11T15:05:38.277Z,,,,,,,,,,,,,,,,53,,,,,,,,,,,,,,493,,response,,,,99,,,,,,,Space,keypress(Space),,,,,,,,"---- -- ----- -- ------ - ------- --- ----------<br>------------- ------ ------ ---- ---- ------- ----- -- ----<br>-------- ------- -- ---------- --- - --- ----- ----- ----<br>---- --- --- ----- --- ---- ---- ------- most, ---- -------<br>--- --- -- ----- -- --- ---- -- --- ---- -- ------ ------<br>--- ----- -- ----",164420.00000000003,164410,163917,163906,163935,164454,,36,"most,"
screen,html.Screen,1_1_0_1_37,2021-04-11T15:05:39.105Z,,,,,,,,,,,,,,,,53,,,,,,,,,,,,,,801,,response,,,,99,,,,,,,Space,keypress(Space),,,,,,,,---- -- ----- -- ------ - ------- --- ----------<br>------------- ------ ------ ---- ---- ------- ----- -- ----<br>-------- ------- -- ---------- --- - --- ----- ----- ----<br>---- --- --- ----- --- ---- ---- ------- ----- it's -------<br>--- --- -- ----- -- --- ---- -- --- ---- -- ------ ------<br>--- ----- -- ----,165248,165238,164437,164420.00000000003,164454,165289,,37,it's
screen,html.Screen,1_1_0_1_38,2021-04-11T15:05:39.734Z,,,,,,,,,,,,,,,,53,,,,,,,,,,,,,,594,,response,,,,99,,,,,,,Space,keypress(Space),,,,,,,,---- -- ----- -- ------ - ------- --- ----------<br>------------- ------ ------ ---- ---- ------- ----- -- ----<br>-------- ------- -- ---------- --- - --- ----- ----- ----<br>---- --- --- ----- --- ---- ---- ------- ----- ---- whether<br>--- --- -- ----- -- --- ---- -- --- ---- -- ------ ------<br>--- ----- -- ----,165877,165867,165273,165248,165289,165909,,38,whether
screen,html.Screen,1_1_0_1_39,2021-04-11T15:05:40.320Z,,,,,,,,,,,,,,,,53,,,,,,,,,,,,,,561,,response,,,,99,,,,,,,Space,keypress(Space),,,,,,,,---- -- ----- -- ------ - ------- --- ----------<br>------------- ------ ------ ---- ---- ------- ----- -- ----<br>-------- ------- -- ---------- --- - --- ----- ----- ----<br>---- --- --- ----- --- ---- ---- ------- ----- ---- -------<br>you --- -- ----- -- --- ---- -- --- ---- -- ------ ------<br>--- ----- -- ----,166463,166453,165892,165877,165909,166495,,39,you
screen,html.Screen,1_1_0_1_40,2021-04-11T15:05:40.900Z,,,,,,,,,,,,,,,,53,,,,,,,,,,,,,,556,,response,,,,99,,,,,,,Space,keypress(Space),,,,,,,,---- -- ----- -- ------ - ------- --- ----------<br>------------- ------ ------ ---- ---- ------- ----- -- ----<br>-------- ------- -- ---------- --- - --- ----- ----- ----<br>---- --- --- ----- --- ---- ---- ------- ----- ---- -------<br>--- are -- ----- -- --- ---- -- --- ---- -- ------ ------<br>--- ----- -- ----,167044,167034,166478,166463,166495,167081,,40,are
screen,html.Screen,1_1_0_1_41,2021-04-11T15:05:41.381Z,,,,,,,,,,,,,,,,53,,,,,,,,,,,,,,450.0000000000291,,response,,,,99,,,,,,,Space,keypress(Space),,,,,,,,---- -- ----- -- ------ - ------- --- ----------<br>------------- ------ ------ ---- ---- ------- ----- -- ----<br>-------- ------- -- ---------- --- - --- ----- ----- ----<br>---- --- --- ----- --- ---- ---- ------- ----- ---- -------<br>--- --- as ----- -- --- ---- -- --- ---- -- ------ ------<br>--- ----- -- ----,167525,167515.00000000003,167065,167044,167081,167567,,41,as
screen,html.Screen,1_1_0_1_42,2021-04-11T15:05:41.820Z,,,,,,,,,,,,,,,,53,,,,,,,,,,,,,,403,,response,,,,99,,,,,,,Space,keypress(Space),,,,,,,,---- -- ----- -- ------ - ------- --- ----------<br>------------- ------ ------ ---- ---- ------- ----- -- ----<br>-------- ------- -- ---------- --- - --- ----- ----- ----<br>---- --- --- ----- --- ---- ---- ------- ----- ---- -------<br>--- --- -- close -- --- ---- -- --- ---- -- ------ ------<br>--- ----- -- ----,167964,167954,167551,167525,167567,168004,,42,close
screen,html.Screen,1_1_0_1_43,2021-04-11T15:05:42.265Z,,,,,,,,,,,,,,,,53,,,,,,,,,,,,,,412,,response,,,,99,,,,,,,Space,keypress(Space),,,,,,,,---- -- ----- -- ------ - ------- --- ----------<br>------------- ------ ------ ---- ---- ------- ----- -- ----<br>-------- ------- -- ---------- --- - --- ----- ----- ----<br>---- --- --- ----- --- ---- ---- ------- ----- ---- -------<br>--- --- -- ----- as --- ---- -- --- ---- -- ------ ------<br>--- ----- -- ----,168408.00000000003,168399,167987,167964,168004,168439,,43,as
screen,html.Screen,1_1_0_1_44,2021-04-11T15:05:42.738Z,,,,,,,,,,,,,,,,53,,,,,,,,,,,,,,448,,response,,,,99,,,,,,,Space,keypress(Space),,,,,,,,---- -- ----- -- ------ - ------- --- ----------<br>------------- ------ ------ ---- ---- ------- ----- -- ----<br>-------- ------- -- ---------- --- - --- ----- ----- ----<br>---- --- --- ----- --- ---- ---- ------- ----- ---- -------<br>--- --- -- ----- -- you ---- -- --- ---- -- ------ ------<br>--- ----- -- ----,168881,168871,168423,168409,168439,168908,,44,you
screen,html.Screen,1_1_0_1_45,2021-04-11T15:05:43.154Z,,,,,,,,,,,,,,,,53,,,,,,,,,,,,,,395,,response,,,,99,,,,,,,Space,keypress(Space),,,,,,,,---- -- ----- -- ------ - ------- --- ----------<br>------------- ------ ------ ---- ---- ------- ----- -- ----<br>-------- ------- -- ---------- --- - --- ----- ----- ----<br>---- --- --- ----- --- ---- ---- ------- ----- ---- -------<br>--- --- -- ----- -- --- want -- --- ---- -- ------ ------<br>--- ----- -- ----,169297,169287,168892,168881,168908,169329,,45,want
screen,html.Screen,1_1_0_1_46,2021-04-11T15:05:43.558Z,,,,,,,,,,,,,,,,53,,,,,,,,,,,,,,380,,response,,,,99,,,,,,,Space,keypress(Space),,,,,,,,---- -- ----- -- ------ - ------- --- ----------<br>------------- ------ ------ ---- ---- ------- ----- -- ----<br>-------- ------- -- ---------- --- - --- ----- ----- ----<br>---- --- --- ----- --- ---- ---- ------- ----- ---- -------<br>--- --- -- ----- -- --- ---- to --- ---- -- ------ ------<br>--- ----- -- ----,169701,169691,169311,169297,169329,169731,,46,to
screen,html.Screen,1_1_0_1_47,2021-04-11T15:05:43.962Z,,,,,,,,,,,,,,,,53,,,,,,,,,,,,,,382,,response,,,,99,,,,,,,Space,keypress(Space),,,,,,,,"---- -- ----- -- ------ - ------- --- ----------<br>------------- ------ ------ ---- ---- ------- ----- -- ----<br>-------- ------- -- ---------- --- - --- ----- ----- ----<br>---- --- --- ----- --- ---- ---- ------- ----- ---- -------<br>--- --- -- ----- -- --- ---- -- be, ---- -- ------ ------<br>--- ----- -- ----",170105,170095,169713,169701,169731,170133,,47,"be,"
screen,html.Screen,1_1_0_1_48,2021-04-11T15:05:44.691Z,,,,,,,,,,,,,,,,53,,,,,,,,,,,,,,709.0000000000291,,response,,,,99,,,,,,,Space,keypress(Space),,,,,,,,---- -- ----- -- ------ - ------- --- ----------<br>------------- ------ ------ ---- ---- ------- ----- -- ----<br>-------- ------- -- ---------- --- - --- ----- ----- ----<br>---- --- --- ----- --- ---- ---- ------- ----- ---- -------<br>--- --- -- ----- -- --- ---- -- --- even -- ------ ------<br>--- ----- -- ----,170835,170825.00000000003,170116,170105,170133,170868,,48,even
screen,html.Screen,1_1_0_1_49,2021-04-11T15:05:45.257Z,,,,,,,,,,,,,,,,53,,,,,,,,,,,,,,539,,response,,,,99,,,,,,,Space,keypress(Space),,,,,,,,---- -- ----- -- ------ - ------- --- ----------<br>------------- ------ ------ ---- ---- ------- ----- -- ----<br>-------- ------- -- ---------- --- - --- ----- ----- ----<br>---- --- --- ----- --- ---- ---- ------- ----- ---- -------<br>--- --- -- ----- -- --- ---- -- --- ---- if ------ ------<br>--- ----- -- ----,171401,171391,170852,170835,170868,171438,,49,if
screen,html.Screen,1_1_0_1_50,2021-04-11T15:05:45.729Z,,,,,,,,,,,,,,,,53,,,,,,,,,,,,,,441,,response,,,,99,,,,,,,Space,keypress(Space),,,,,,,,---- -- ----- -- ------ - ------- --- ----------<br>------------- ------ ------ ---- ---- ------- ----- -- ----<br>-------- ------- -- ---------- --- - --- ----- ----- ----<br>---- --- --- ----- --- ---- ---- ------- ----- ---- -------<br>--- --- -- ----- -- --- ---- -- --- ---- -- that's ------<br>--- ----- -- ----,171873,171863,171422,171401,171438,171907,,50,that's
screen,html.Screen,1_1_0_1_51,2021-04-11T15:05:46.936Z,,,,,,,,,,,,,,,,53,,,,,,,,,,,,,,1178.000000000029,,response,,,,99,,,,,,,Space,keypress(Space),,,,,,,,---- -- ----- -- ------ - ------- --- ----------<br>------------- ------ ------ ---- ---- ------- ----- -- ----<br>-------- ------- -- ---------- --- - --- ----- ----- ----<br>---- --- --- ----- --- ---- ---- ------- ----- ---- -------<br>--- --- -- ----- -- --- ---- -- --- ---- -- ------ really<br>--- ----- -- ----,173079,173069.00000000003,171891,171873,171907,173110,,51,really
screen,html.Screen,1_1_0_1_52,2021-04-11T15:05:47.758Z,,,,,,,,,,,,,,,,53,,,,,,,,,,,,,,796.0000000000291,,response,,,,99,,,,,,,Space,keypress(Space),,,,,,,,---- -- ----- -- ------ - ------- --- ----------<br>------------- ------ ------ ---- ---- ------- ----- -- ----<br>-------- ------- -- ---------- --- - --- ----- ----- ----<br>---- --- --- ----- --- ---- ---- ------- ----- ---- -------<br>--- --- -- ----- -- --- ---- -- --- ---- -- ------ ------<br>not ----- -- ----,173901,173890.00000000003,173094,173080,173110,173929,,52,not
screen,html.Screen,1_1_0_1_53,2021-04-11T15:05:48.451Z,,,,,,,,,,,,,,,,53,,,,,,,,,,,,,,670,,response,,,,99,,,,,,,Space,keypress(Space),,,,,,,,---- -- ----- -- ------ - ------- --- ----------<br>------------- ------ ------ ---- ---- ------- ----- -- ----<br>-------- ------- -- ---------- --- - --- ----- ----- ----<br>---- --- --- ----- --- ---- ---- ------- ----- ---- -------<br>--- --- -- ----- -- --- ---- -- --- ---- -- ------ ------<br>--- close -- ----,174594,174583,173913,173901,173929,174632,,53,close
screen,html.Screen,1_1_0_1_54,2021-04-11T15:05:48.938Z,,,,,,,,,,,,,,,,53,,,,,,,,,,,,,,456,,response,,,,99,,,,,,,Space,keypress(Space),,,,,,,,---- -- ----- -- ------ - ------- --- ----------<br>------------- ------ ------ ---- ---- ------- ----- -- ----<br>-------- ------- -- ---------- --- - --- ----- ----- ----<br>---- --- --- ----- --- ---- ---- ------- ----- ---- -------<br>--- --- -- ----- -- --- ---- -- --- ---- -- ------ ------<br>--- ----- at ----,175081.00000000003,175071,174615,174594,174632,175117,,54,at
screen,html.Screen,1_1_0_1_55,2021-04-11T15:05:50.240Z,,,,,,,,,,,,,,,,53,,,,,,,,,,,,,,1270,,response,,,,99,,,,,,,Space,keypress(Space),,,,,,,,---- -- ----- -- ------ - ------- --- ----------<br>------------- ------ ------ ---- ---- ------- ----- -- ----<br>-------- ------- -- ---------- --- - --- ----- ----- ----<br>---- --- --- ----- --- ---- ---- ------- ----- ---- -------<br>--- --- -- ----- -- --- ---- -- --- ---- -- ------ ------<br>--- ----- -- all.,176383,176372,175102,175081.00000000003,175117,176420,,55,all.
Item 99,flow.Loop,1_1_0_1,2021-04-11T15:05:50.240Z,,,,,,,,,,,,,,,,,,,,,,,,,,,,,,32805,,completion,,,,,A,,,,,,,,,,,silence,,,,,176383,176372,143523,143524,143567,176420,,,
Question 1,html.Screen,1_1_0_2,2021-04-11T15:05:56.304Z,,,,,,,,,,,,,,,,,,,,,,,,,,,false,FALSE,,6034.000000000029,,response,,,,99,A,,,,,,TRUE,click #choice-1,,,,silence,,,,,182447,182438.00000000003,176404,176383,176420,182477,,,
Question 2,html.Screen,1_1_0_3,2021-04-11T15:06:03.799Z,,,,,,,,,,,,,,,,,,,,,,,,,,,true,TRUE,,7472.000000000029,,response,,,,99,A,,,,,,TRUE,click #choice-1,,,,silence,,,,,189942,189932.00000000003,182460,182447,182477,189977,,,
Item 99,flow.Sequence,1_1_0,2021-04-11T15:06:03.799Z,,,,,,,,,,,,,,,,,,,,,,,,,,,,,,56392.00000000003,,completion,,,,,,,,,,,,,,,,,,,,,189942,189932.00000000003,133521,133514,133540,189977,,,
Holding screen,html.Screen,1_1_1_0,2021-04-11T15:06:13.817Z,,,,,,,,,,,,,,,,,,,,,,,,,,,,,,9998,,timeout,,,,,,,,,,,,,,,,,,,,,199959,199959,189949,189942,189977,199975,,,
screen,html.Screen,1_1_1_1_0,2021-04-11T15:06:14.925Z,,,,,,,,,,,,,,,,54,,,,,,,,,,,,,,1097,,response,,,,100,,,,,,,Space,keypress(Space),,,,,,,,At --- ---- --- ------ ----- ------- ---- -- --- ------- --<br>------- ---------- ------ -- ----- -- ----- -- ---- ------<br>--- ----- --- --- ------ -------- ----- --- ------ ----- --<br>----- ----- ---------- --- --- ------ ------ ---- -- ------<br>------- --- ------ ----- --- ---- ------- -- ---- --- --<br>------- ------,201067,201056,199959,199959,199975,201095,,0,At
screen,html.Screen,1_1_1_1_1,2021-04-11T15:06:15.362Z,,,,,,,,,,,,,,,,54,,,,,,,,,,,,,,415,,response,,,,100,,,,,,,Space,keypress(Space),,,,,,,,-- the ---- --- ------ ----- ------- ---- -- --- ------- --<br>------- ---------- ------ -- ----- -- ----- -- ---- ------<br>--- ----- --- --- ------ -------- ----- --- ------ ----- --<br>----- ----- ---------- --- --- ------ ------ ---- -- ------<br>------- --- ------ ----- --- ---- ------- -- ---- --- --<br>------- ------,201504,201493,201078,201067,201095,201547,,1,the
screen,html.Screen,1_1_1_1_2,2021-04-11T15:06:15.819Z,,,,,,,,,,,,,,,,54,,,,,,,,,,,,,,419.0000000000291,,response,,,,100,,,,,,,Space,keypress(Space),,,,,,,,-- --- time --- ------ ----- ------- ---- -- --- ------- --<br>------- ---------- ------ -- ----- -- ----- -- ---- ------<br>--- ----- --- --- ------ -------- ----- --- ------ ----- --<br>----- ----- ---------- --- --- ------ ------ ---- -- ------<br>------- --- ------ ----- --- ---- ------- -- ---- --- --<br>------- ------,201962.00000000003,201950.00000000003,201531,201504,201547,202001,,2,time
screen,html.Screen,1_1_1_1_3,2021-04-11T15:06:16.225Z,,,,,,,,,,,,,,,,54,,,,,,,,,,,,,,372,,response,,,,100,,,,,,,Space,keypress(Space),,,,,,,,-- --- ---- the ------ ----- ------- ---- -- --- ------- --<br>------- ---------- ------ -- ----- -- ----- -- ---- ------<br>--- ----- --- --- ------ -------- ----- --- ------ ----- --<br>----- ----- ---------- --- --- ------ ------ ---- -- ------<br>------- --- ------ ----- --- ---- ------- -- ---- --- --<br>------- ------,202367,202356,201984,201962.00000000003,202001,202387,,3,the
screen,html.Screen,1_1_1_1_4,2021-04-11T15:06:16.635Z,,,,,,,,,,,,,,,,54,,,,,,,,,,,,,,397,,response,,,,100,,,,,,,Space,keypress(Space),,,,,,,,-- --- ---- --- French ----- ------- ---- -- --- ------- --<br>------- ---------- ------ -- ----- -- ----- -- ---- ------<br>--- ----- --- --- ------ -------- ----- --- ------ ----- --<br>----- ----- ---------- --- --- ------ ------ ---- -- ------<br>------- --- ------ ----- --- ---- ------- -- ---- --- --<br>------- ------,202777.00000000003,202766,202369,202367,202387,202806,,4,French
screen,html.Screen,1_1_1_1_5,2021-04-11T15:06:17.028Z,,,,,,,,,,,,,,,,54,,,,,,,,,,,,,,370,,response,,,,100,,,,,,,Space,keypress(Space),,,,,,,,-- --- ---- --- ------ crown ------- ---- -- --- ------- --<br>------- ---------- ------ -- ----- -- ----- -- ---- ------<br>--- ----- --- --- ------ -------- ----- --- ------ ----- --<br>----- ----- ---------- --- --- ------ ------ ---- -- ------<br>------- --- ------ ----- --- ---- ------- -- ---- --- --<br>------- ------,203170.00000000003,203159,202789,202777.00000000003,202806,203192,,5,crown
screen,html.Screen,1_1_1_1_6,2021-04-11T15:06:17.406Z,,,,,,,,,,,,,,,,54,,,,,,,,,,,,,,362,,response,,,,100,,,,,,,Space,keypress(Space),,,,,,,,-- --- ---- --- ------ ----- secured ---- -- --- ------- --<br>------- ---------- ------ -- ----- -- ----- -- ---- ------<br>--- ----- --- --- ------ -------- ----- --- ------ ----- --<br>----- ----- ---------- --- --- ------ ------ ---- -- ------<br>------- --- ------ ----- --- ---- ------- -- ---- --- --<br>------- ------,203548,203537,203175,203170.00000000003,203192,203578,,6,secured
screen,html.Screen,1_1_1_1_7,2021-04-11T15:06:17.830Z,,,,,,,,,,,,,,,,54,,,,,,,,,,,,,,400,,response,,,,100,,,,,,,Space,keypress(Space),,,,,,,,-- --- ---- --- ------ ----- ------- much -- --- ------- --<br>------- ---------- ------ -- ----- -- ----- -- ---- ------<br>--- ----- --- --- ------ -------- ----- --- ------ ----- --<br>----- ----- ---------- --- --- ------ ------ ---- -- ------<br>------- --- ------ ----- --- ---- ------- -- ---- --- --<br>------- ------,203972,203961,203561,203548,203578,204014,,7,much
screen,html.Screen,1_1_1_1_8,2021-04-11T15:06:18.240Z,,,,,,,,,,,,,,,,54,,,,,,,,,,,,,,374,,response,,,,100,,,,,,,Space,keypress(Space),,,,,,,,-- --- ---- --- ------ ----- ------- ---- of --- ------- --<br>------- ---------- ------ -- ----- -- ----- -- ---- ------<br>--- ----- --- --- ------ -------- ----- --- ------ ----- --<br>----- ----- ---------- --- --- ------ ------ ---- -- ------<br>------- --- ------ ----- --- ---- ------- -- ---- --- --<br>------- ------,204382,204371,203997,203972,204014,204417,,8,of
screen,html.Screen,1_1_1_1_9,2021-04-11T15:06:18.620Z,,,,,,,,,,,,,,,,54,,,,,,,,,,,,,,351,,response,,,,100,,,,,,,Space,keypress(Space),,,,,,,,-- --- ---- --- ------ ----- ------- ---- -- its ------- --<br>------- ---------- ------ -- ----- -- ----- -- ---- ------<br>--- ----- --- --- ------ -------- ----- --- ------ ----- --<br>----- ----- ---------- --- --- ------ ------ ---- -- ------<br>------- --- ------ ----- --- ---- ------- -- ---- --- --<br>------- ------,204762,204751,204400,204383,204417,204785,,9,its
screen,html.Screen,1_1_1_1_10,2021-04-11T15:06:19.041Z,,,,,,,,,,,,,,,,54,,,,,,,,,,,,,,403,,response,,,,100,,,,,,,Space,keypress(Space),,,,,,,,-- --- ---- --- ------ ----- ------- ---- -- --- revenue --<br>------- ---------- ------ -- ----- -- ----- -- ---- ------<br>--- ----- --- --- ------ -------- ----- --- ------ ----- --<br>----- ----- ---------- --- --- ------ ------ ---- -- ------<br>------- --- ------ ----- --- ---- ------- -- ---- --- --<br>------- ------,205183,205172,204769,204762,204785,205222,,10,revenue
screen,html.Screen,1_1_1_1_11,2021-04-11T15:06:19.528Z,,,,,,,,,,,,,,,,54,,,,,,,,,,,,,,454,,response,,,,100,,,,,,,Space,keypress(Space),,,,,,,,-- --- ---- --- ------ ----- ------- ---- -- --- ------- by<br>------- ---------- ------ -- ----- -- ----- -- ---- ------<br>--- ----- --- --- ------ -------- ----- --- ------ ----- --<br>----- ----- ---------- --- --- ------ ------ ---- -- ------<br>------- --- ------ ----- --- ---- ------- -- ---- --- --<br>------- ------,205670.00000000003,205659,205205,205183,205222,205708,,11,by
screen,html.Screen,1_1_1_1_12,2021-04-11T15:06:19.951Z,,,,,,,,,,,,,,,,54,,,,,,,,,,,,,,391,,response,,,,100,,,,,,,Space,keypress(Space),,,,,,,,-- --- ---- --- ------ ----- ------- ---- -- --- ------- --<br>issuing ---------- ------ -- ----- -- ----- -- ---- ------<br>--- ----- --- --- ------ -------- ----- --- ------ ----- --<br>----- ----- ---------- --- --- ------ ------ ---- -- ------<br>------- --- ------ ----- --- ---- ------- -- ---- --- --<br>------- ------,206093.00000000003,206082,205691,205670.00000000003,205708,206128,,12,issuing
screen,html.Screen,1_1_1_1_13,2021-04-11T15:06:20.363Z,,,,,,,,,,,,,,,,54,,,,,,,,,,,,,,383,,response,,,,100,,,,,,,Space,keypress(Space),,,,,,,,-- --- ---- --- ------ ----- ------- ---- -- --- ------- --<br>------- government ------ -- ----- -- ----- -- ---- ------<br>--- ----- --- --- ------ -------- ----- --- ------ ----- --<br>----- ----- ---------- --- --- ------ ------ ---- -- ------<br>------- --- ------ ----- --- ---- ------- -- ---- --- --<br>------- ------,206505,206494,206111,206093.00000000003,206128,206547,,13,government
screen,html.Screen,1_1_1_1_14,2021-04-11T15:06:20.772Z,,,,,,,,,,,,,,,,54,,,,,,,,,,,,,,374,,response,,,,100,,,,,,,Space,keypress(Space),,,,,,,,-- --- ---- --- ------ ----- ------- ---- -- --- ------- --<br>------- ---------- bonds. -- ----- -- ----- -- ---- ------<br>--- ----- --- --- ------ -------- ----- --- ------ ----- --<br>----- ----- ---------- --- --- ------ ------ ---- -- ------<br>------- --- ------ ----- --- ---- ------- -- ---- --- --<br>------- ------,206914.00000000003,206903,206529,206505,206547,206933,,14,bonds.
screen,html.Screen,1_1_1_1_15,2021-04-11T15:06:21.282Z,,,,,,,,,,,,,,,,54,,,,,,,,,,,,,,498,,response,,,,100,,,,,,,Space,keypress(Space),,,,,,,,-- --- ---- --- ------ ----- ------- ---- -- --- ------- --<br>------- ---------- ------ In ----- -- ----- -- ---- ------<br>--- ----- --- --- ------ -------- ----- --- ------ ----- --<br>----- ----- ---------- --- --- ------ ------ ---- -- ------<br>------- --- ------ ----- --- ---- ------- -- ---- --- --<br>------- ------,207424,207413,206915,206914.00000000003,206933,207451,,15,In
screen,html.Screen,1_1_1_1_16,2021-04-11T15:06:23.054Z,,,,,,,,,,,,,,,,54,,,,,,,,,,,,,,1750,,response,,,,100,,,,,,,Space,keypress(Space),,,,,,,,"-- --- ---- --- ------ ----- ------- ---- -- --- ------- --<br>------- ---------- ------ -- 1727, -- ----- -- ---- ------<br>--- ----- --- --- ------ -------- ----- --- ------ ----- --<br>----- ----- ---------- --- --- ------ ------ ---- -- ------<br>------- --- ------ ----- --- ---- ------- -- ---- --- --<br>------- ------",209196,209185,207435,207424,207451,209238,,16,"1727,"
screen,html.Screen,1_1_1_1_17,2021-04-11T15:06:23.524Z,,,,,,,,,,,,,,,,54,,,,,,,,,,,,,,433,,response,,,,100,,,,,,,Space,keypress(Space),,,,,,,,-- --- ---- --- ------ ----- ------- ---- -- --- ------- --<br>------- ---------- ------ -- ----- in ----- -- ---- ------<br>--- ----- --- --- ------ -------- ----- --- ------ ----- --<br>----- ----- ---------- --- --- ------ ------ ---- -- ------<br>------- --- ------ ----- --- ---- ------- -- ---- --- --<br>------- ------,209666,209655,209222,209196,209238,209707,,17,in
screen,html.Screen,1_1_1_1_18,2021-04-11T15:06:24.004Z,,,,,,,,,,,,,,,,54,,,,,,,,,,,,,,443,,response,,,,100,,,,,,,Space,keypress(Space),,,,,,,,-- --- ---- --- ------ ----- ------- ---- -- --- ------- --<br>------- ---------- ------ -- ----- -- order -- ---- ------<br>--- ----- --- --- ------ -------- ----- --- ------ ----- --<br>----- ----- ---------- --- --- ------ ------ ---- -- ------<br>------- --- ------ ----- --- ---- ------- -- ---- --- --<br>------- ------,210146.00000000003,210134,209691,209666,209707,210177,,18,order
screen,html.Screen,1_1_1_1_19,2021-04-11T15:06:24.532Z,,,,,,,,,,,,,,,,54,,,,,,,,,,,,,,502,,response,,,,100,,,,,,,Space,keypress(Space),,,,,,,,-- --- ---- --- ------ ----- ------- ---- -- --- ------- --<br>------- ---------- ------ -- ----- -- ----- to ---- ------<br>--- ----- --- --- ------ -------- ----- --- ------ ----- --<br>----- ----- ---------- --- --- ------ ------ ---- -- ------<br>------- --- ------ ----- --- ---- ------- -- ---- --- --<br>------- ------,210674,210663,210161,210146.00000000003,210177,210713,,19,to
screen,html.Screen,1_1_1_1_20,2021-04-11T15:06:25.143Z,,,,,,,,,,,,,,,,54,,,,,,,,,,,,,,577,,response,,,,100,,,,,,,Space,keypress(Space),,,,,,,,-- --- ---- --- ------ ----- ------- ---- -- --- ------- --<br>------- ---------- ------ -- ----- -- ----- -- save ------<br>--- ----- --- --- ------ -------- ----- --- ------ ----- --<br>----- ----- ---------- --- --- ------ ------ ---- -- ------<br>------- --- ------ ----- --- ---- ------- -- ---- --- --<br>------- ------,211285,211274,210697,210674,210713,211316,,20,save
screen,html.Screen,1_1_1_1_21,2021-04-11T15:06:25.701Z,,,,,,,,,,,,,,,,54,,,,,,,,,,,,,,533,,response,,,,100,,,,,,,Space,keypress(Space),,,,,,,,"-- --- ---- --- ------ ----- ------- ---- -- --- ------- --<br>------- ---------- ------ -- ----- -- ----- -- ---- money,<br>--- ----- --- --- ------ -------- ----- --- ------ ----- --<br>----- ----- ---------- --- --- ------ ------ ---- -- ------<br>------- --- ------ ----- --- ---- ------- -- ---- --- --<br>------- ------",211843.00000000003,211832,211299,211285,211316,211885,,21,"money,"
screen,html.Screen,1_1_1_1_22,2021-04-11T15:06:26.261Z,,,,,,,,,,,,,,,,54,,,,,,,,,,,,,,521,,response,,,,100,,,,,,,Space,keypress(Space),,,,,,,,-- --- ---- --- ------ ----- ------- ---- -- --- ------- --<br>------- ---------- ------ -- ----- -- ----- -- ---- ------<br>the ----- --- --- ------ -------- ----- --- ------ ----- --<br>----- ----- ---------- --- --- ------ ------ ---- -- ------<br>------- --- ------ ----- --- ---- ------- -- ---- --- --<br>------- ------,212403,212389,211868,211843.00000000003,211885,212439,,22,the
screen,html.Screen,1_1_1_1_23,2021-04-11T15:06:26.743Z,,,,,,,,,,,,,,,,54,,,,,,,,,,,,,,452,,response,,,,100,,,,,,,Space,keypress(Space),,,,,,,,-- --- ---- --- ------ ----- ------- ---- -- --- ------- --<br>------- ---------- ------ -- ----- -- ----- -- ---- ------<br>--- state --- --- ------ -------- ----- --- ------ ----- --<br>----- ----- ---------- --- --- ------ ------ ---- -- ------<br>------- --- ------ ----- --- ---- ------- -- ---- --- --<br>------- ------,212885,212874,212422,212403,212439,212924,,23,state
screen,html.Screen,1_1_1_1_24,2021-04-11T15:06:27.213Z,,,,,,,,,,,,,,,,54,,,,,,,,,,,,,,436,,response,,,,100,,,,,,,Space,keypress(Space),,,,,,,,-- --- ---- --- ------ ----- ------- ---- -- --- ------- --<br>------- ---------- ------ -- ----- -- ----- -- ---- ------<br>--- ----- cut --- ------ -------- ----- --- ------ ----- --<br>----- ----- ---------- --- --- ------ ------ ---- -- ------<br>------- --- ------ ----- --- ---- ------- -- ---- --- --<br>------- ------,213355.00000000003,213344,212908,212885,212924,213393,,24,cut
screen,html.Screen,1_1_1_1_25,2021-04-11T15:06:27.616Z,,,,,,,,,,,,,,,,54,,,,,,,,,,,,,,369,,response,,,,100,,,,,,,Space,keypress(Space),,,,,,,,-- --- ---- --- ------ ----- ------- ---- -- --- ------- --<br>------- ---------- ------ -- ----- -- ----- -- ---- ------<br>--- ----- --- the ------ -------- ----- --- ------ ----- --<br>----- ----- ---------- --- --- ------ ------ ---- -- ------<br>------- --- ------ ----- --- ---- ------- -- ---- --- --<br>------- ------,213758,213746,213377,213355.00000000003,213393,213780,,25,the
screen,html.Screen,1_1_1_1_26,2021-04-11T15:06:28.044Z,,,,,,,,,,,,,,,,54,,,,,,,,,,,,,,411,,response,,,,100,,,,,,,Space,keypress(Space),,,,,,,,-- --- ---- --- ------ ----- ------- ---- -- --- ------- --<br>------- ---------- ------ -- ----- -- ----- -- ---- ------<br>--- ----- --- --- bonds' -------- ----- --- ------ ----- --<br>----- ----- ---------- --- --- ------ ------ ---- -- ------<br>------- --- ------ ----- --- ---- ------- -- ---- --- --<br>------- ------,214186,214174,213763,213758,213780,214216,,26,bonds'
screen,html.Screen,1_1_1_1_27,2021-04-11T15:06:28.577Z,,,,,,,,,,,,,,,,54,,,,,,,,,,,,,,508,,response,,,,100,,,,,,,Space,keypress(Space),,,,,,,,-- --- ---- --- ------ ----- ------- ---- -- --- ------- --<br>------- ---------- ------ -- ----- -- ----- -- ---- ------<br>--- ----- --- --- ------ interest ----- --- ------ ----- --<br>----- ----- ---------- --- --- ------ ------ ---- -- ------<br>------- --- ------ ----- --- ---- ------- -- ---- --- --<br>------- ------,214719,214707,214199,214186,214216,214752,,27,interest
screen,html.Screen,1_1_1_1_28,2021-04-11T15:06:29.363Z,,,,,,,,,,,,,,,,54,,,,,,,,,,,,,,759,,response,,,,100,,,,,,,Space,keypress(Space),,,,,,,,-- --- ---- --- ------ ----- ------- ---- -- --- ------- --<br>------- ---------- ------ -- ----- -- ----- -- ---- ------<br>--- ----- --- --- ------ -------- rate. --- ------ ----- --<br>----- ----- ---------- --- --- ------ ------ ---- -- ------<br>------- --- ------ ----- --- ---- ------- -- ---- --- --<br>------- ------,215505,215494,214735,214719,214752,215537,,28,rate.
screen,html.Screen,1_1_1_1_29,2021-04-11T15:06:29.948Z,,,,,,,,,,,,,,,,54,,,,,,,,,,,,,,557,,response,,,,100,,,,,,,Space,keypress(Space),,,,,,,,-- --- ---- --- ------ ----- ------- ---- -- --- ------- --<br>------- ---------- ------ -- ----- -- ----- -- ---- ------<br>--- ----- --- --- ------ -------- ----- The ------ ----- --<br>----- ----- ---------- --- --- ------ ------ ---- -- ------<br>------- --- ------ ----- --- ---- ------- -- ---- --- --<br>------- ------,216090,216078,215521,215505,215537,216124,,29,The
screen,html.Screen,1_1_1_1_30,2021-04-11T15:06:30.557Z,,,,,,,,,,,,,,,,54,,,,,,,,,,,,,,580,,response,,,,100,,,,,,,Space,keypress(Space),,,,,,,,-- --- ---- --- ------ ----- ------- ---- -- --- ------- --<br>------- ---------- ------ -- ----- -- ----- -- ---- ------<br>--- ----- --- --- ------ -------- ----- --- market ----- --<br>----- ----- ---------- --- --- ------ ------ ---- -- ------<br>------- --- ------ ----- --- ---- ------- -- ---- --- --<br>------- ------,216698,216687,216107,216090,216124,216727,,30,market
screen,html.Screen,1_1_1_1_31,2021-04-11T15:06:31.177Z,,,,,,,,,,,,,,,,54,,,,,,,,,,,,,,597.0000000000291,,response,,,,100,,,,,,,Space,keypress(Space),,,,,,,,-- --- ---- --- ------ ----- ------- ---- -- --- ------- --<br>------- ---------- ------ -- ----- -- ----- -- ---- ------<br>--- ----- --- --- ------ -------- ----- --- ------ value --<br>----- ----- ---------- --- --- ------ ------ ---- -- ------<br>------- --- ------ ----- --- ---- ------- -- ---- --- --<br>------- ------,217318,217307.00000000003,216710,216699,216727,217345,,31,value
screen,html.Screen,1_1_1_1_32,2021-04-11T15:06:32.158Z,,,,,,,,,,,,,,,,54,,,,,,,,,,,,,,959,,response,,,,100,,,,,,,Space,keypress(Space),,,,,,,,-- --- ---- --- ------ ----- ------- ---- -- --- ------- --<br>------- ---------- ------ -- ----- -- ----- -- ---- ------<br>--- ----- --- --- ------ -------- ----- --- ------ ----- of<br>----- ----- ---------- --- --- ------ ------ ---- -- ------<br>------- --- ------ ----- --- ---- ------- -- ---- --- --<br>------- ------,218300,218288,217329,217319.00000000003,217345,218332,,32,of
screen,html.Screen,1_1_1_1_33,2021-04-11T15:06:32.781Z,,,,,,,,,,,,,,,,54,,,,,,,,,,,,,,595,,response,,,,100,,,,,,,Space,keypress(Space),,,,,,,,-- --- ---- --- ------ ----- ------- ---- -- --- ------- --<br>------- ---------- ------ -- ----- -- ----- -- ---- ------<br>--- ----- --- --- ------ -------- ----- --- ------ ----- --<br>these ----- ---------- --- --- ------ ------ ---- -- ------<br>------- --- ------ ----- --- ---- ------- -- ---- --- --<br>------- ------,218923,218911,218316,218300,218332,218952,,33,these
screen,html.Screen,1_1_1_1_34,2021-04-11T15:06:33.465Z,,,,,,,,,,,,,,,,54,,,,,,,,,,,,,,660,,response,,,,100,,,,,,,Space,keypress(Space),,,,,,,,-- --- ---- --- ------ ----- ------- ---- -- --- ------- --<br>------- ---------- ------ -- ----- -- ----- -- ---- ------<br>--- ----- --- --- ------ -------- ----- --- ------ ----- --<br>----- bonds ---------- --- --- ------ ------ ---- -- ------<br>------- --- ------ ----- --- ---- ------- -- ---- --- --<br>------- ------,219607,219595,218935,218923,218952,219638,,34,bonds
screen,html.Screen,1_1_1_1_35,2021-04-11T15:06:34.138Z,,,,,,,,,,,,,,,,54,,,,,,,,,,,,,,647,,response,,,,100,,,,,,,Space,keypress(Space),,,,,,,,"-- --- ---- --- ------ ----- ------- ---- -- --- ------- --<br>------- ---------- ------ -- ----- -- ----- -- ---- ------<br>--- ----- --- --- ------ -------- ----- --- ------ ----- --<br>----- ----- plummeted, --- --- ------ ------ ---- -- ------<br>------- --- ------ ----- --- ---- ------- -- ---- --- --<br>------- ------",220279,220268,219621,219607,219638,220307,,35,"plummeted,"
screen,html.Screen,1_1_1_1_36,2021-04-11T15:06:34.711Z,,,,,,,,,,,,,,,,54,,,,,,,,,,,,,,550,,response,,,,100,,,,,,,Space,keypress(Space),,,,,,,,-- --- ---- --- ------ ----- ------- ---- -- --- ------- --<br>------- ---------- ------ -- ----- -- ----- -- ---- ------<br>--- ----- --- --- ------ -------- ----- --- ------ ----- --<br>----- ----- ---------- and --- ------ ------ ---- -- ------<br>------- --- ------ ----- --- ---- ------- -- ---- --- --<br>------- ------,220852,220841,220291,220279,220307,220894,,36,and
screen,html.Screen,1_1_1_1_37,2021-04-11T15:06:35.202Z,,,,,,,,,,,,,,,,54,,,,,,,,,,,,,,455,,response,,,,100,,,,,,,Space,keypress(Space),,,,,,,,-- --- ---- --- ------ ----- ------- ---- -- --- ------- --<br>------- ---------- ------ -- ----- -- ----- -- ---- ------<br>--- ----- --- --- ------ -------- ----- --- ------ ----- --<br>----- ----- ---------- --- the ------ ------ ---- -- ------<br>------- --- ------ ----- --- ---- ------- -- ---- --- --<br>------- ------,221343.00000000003,221332,220877,220853,220894,221380,,37,the
screen,html.Screen,1_1_1_1_38,2021-04-11T15:06:35.602Z,,,,,,,,,,,,,,,,54,,,,,,,,,,,,,,368,,response,,,,100,,,,,,,Space,keypress(Space),,,,,,,,-- --- ---- --- ------ ----- ------- ---- -- --- ------- --<br>------- ---------- ------ -- ----- -- ----- -- ---- ------<br>--- ----- --- --- ------ -------- ----- --- ------ ----- --<br>----- ----- ---------- --- --- market ------ ---- -- ------<br>------- --- ------ ----- --- ---- ------- -- ---- --- --<br>------- ------,221744,221732,221364,221343.00000000003,221380,221767,,38,market
screen,html.Screen,1_1_1_1_39,2021-04-11T15:06:36.016Z,,,,,,,,,,,,,,,,54,,,,,,,,,,,,,,397.0000000000291,,response,,,,100,,,,,,,Space,keypress(Space),,,,,,,,-- --- ---- --- ------ ----- ------- ---- -- --- ------- --<br>------- ---------- ------ -- ----- -- ----- -- ---- ------<br>--- ----- --- --- ------ -------- ----- --- ------ ----- --<br>----- ----- ---------- --- --- ------ became ---- -- ------<br>------- --- ------ ----- --- ---- ------- -- ---- --- --<br>------- ------,222158.00000000003,222146.00000000003,221749,221744,221767,222185,,39,became
screen,html.Screen,1_1_1_1_40,2021-04-11T15:06:36.439Z,,,,,,,,,,,,,,,,54,,,,,,,,,,,,,,400.0000000000291,,response,,,,100,,,,,,,Space,keypress(Space),,,,,,,,-- --- ---- --- ------ ----- ------- ---- -- --- ------- --<br>------- ---------- ------ -- ----- -- ----- -- ---- ------<br>--- ----- --- --- ------ -------- ----- --- ------ ----- --<br>----- ----- ---------- --- --- ------ ------ wary -- ------<br>------- --- ------ ----- --- ---- ------- -- ---- --- --<br>------- ------,222581.00000000003,222569.00000000003,222169,222158.00000000003,222185,222622,,40,wary
screen,html.Screen,1_1_1_1_41,2021-04-11T15:06:36.947Z,,,,,,,,,,,,,,,,54,,,,,,,,,,,,,,471,,response,,,,100,,,,,,,Space,keypress(Space),,,,,,,,-- --- ---- --- ------ ----- ------- ---- -- --- ------- --<br>------- ---------- ------ -- ----- -- ----- -- ---- ------<br>--- ----- --- --- ------ -------- ----- --- ------ ----- --<br>----- ----- ---------- --- --- ------ ------ ---- of ------<br>------- --- ------ ----- --- ---- ------- -- ---- --- --<br>------- ------,223088,223077,222606,222581.00000000003,222622,223124,,41,of
screen,html.Screen,1_1_1_1_42,2021-04-11T15:06:37.524Z,,,,,,,,,,,,,,,,54,,,,,,,,,,,,,,546,,response,,,,100,,,,,,,Space,keypress(Space),,,,,,,,-- --- ---- --- ------ ----- ------- ---- -- --- ------- --<br>------- ---------- ------ -- ----- -- ----- -- ---- ------<br>--- ----- --- --- ------ -------- ----- --- ------ ----- --<br>----- ----- ---------- --- --- ------ ------ ---- -- French<br>------- --- ------ ----- --- ---- ------- -- ---- --- --<br>------- ------,223666,223654,223108,223088,223124,223694,,42,French
screen,html.Screen,1_1_1_1_43,2021-04-11T15:06:37.972Z,,,,,,,,,,,,,,,,54,,,,,,,,,,,,,,424,,response,,,,100,,,,,,,Space,keypress(Space),,,,,,,,-- --- ---- --- ------ ----- ------- ---- -- --- ------- --<br>------- ---------- ------ -- ----- -- ----- -- ---- ------<br>--- ----- --- --- ------ -------- ----- --- ------ ----- --<br>----- ----- ---------- --- --- ------ ------ ---- -- ------<br>credit. --- ------ ----- --- ---- ------- -- ---- --- --<br>------- ------,224114,224102,223678,223666,223694,224147,,43,credit.
screen,html.Screen,1_1_1_1_44,2021-04-11T15:06:38.409Z,,,,,,,,,,,,,,,,54,,,,,,,,,,,,,,409.0000000000291,,response,,,,100,,,,,,,Space,keypress(Space),,,,,,,,-- --- ---- --- ------ ----- ------- ---- -- --- ------- --<br>------- ---------- ------ -- ----- -- ----- -- ---- ------<br>--- ----- --- --- ------ -------- ----- --- ------ ----- --<br>----- ----- ---------- --- --- ------ ------ ---- -- ------<br>------- The ------ ----- --- ---- ------- -- ---- --- --<br>------- ------,224550,224539.00000000003,224130,224114,224147,224583,,44,The
screen,html.Screen,1_1_1_1_45,2021-04-11T15:06:39.252Z,,,,,,,,,,,,,,,,54,,,,,,,,,,,,,,815,,response,,,,100,,,,,,,Space,keypress(Space),,,,,,,,-- --- ---- --- ------ ----- ------- ---- -- --- ------- --<br>------- ---------- ------ -- ----- -- ----- -- ---- ------<br>--- ----- --- --- ------ -------- ----- --- ------ ----- --<br>----- ----- ---------- --- --- ------ ------ ---- -- ------<br>------- --- French ----- --- ---- ------- -- ---- --- --<br>------- ------,225393,225382,224567,224550,224583,225436,,45,French
screen,html.Screen,1_1_1_1_46,2021-04-11T15:06:39.753Z,,,,,,,,,,,,,,,,54,,,,,,,,,,,,,,464,,response,,,,100,,,,,,,Space,keypress(Space),,,,,,,,-- --- ---- --- ------ ----- ------- ---- -- --- ------- --<br>------- ---------- ------ -- ----- -- ----- -- ---- ------<br>--- ----- --- --- ------ -------- ----- --- ------ ----- --<br>----- ----- ---------- --- --- ------ ------ ---- -- ------<br>------- --- ------ state --- ---- ------- -- ---- --- --<br>------- ------,225894,225883,225419,225394,225436,225921,,46,state
screen,html.Screen,1_1_1_1_47,2021-04-11T15:06:40.246Z,,,,,,,,,,,,,,,,54,,,,,,,,,,,,,,471,,response,,,,100,,,,,,,Space,keypress(Space),,,,,,,,-- --- ---- --- ------ ----- ------- ---- -- --- ------- --<br>------- ---------- ------ -- ----- -- ----- -- ---- ------<br>--- ----- --- --- ------ -------- ----- --- ------ ----- --<br>----- ----- ---------- --- --- ------ ------ ---- -- ------<br>------- --- ------ ----- was ---- ------- -- ---- --- --<br>------- ------,226388,226376,225905,225894,225921,226424,,47,was
screen,html.Screen,1_1_1_1_48,2021-04-11T15:06:40.857Z,,,,,,,,,,,,,,,,54,,,,,,,,,,,,,,578,,response,,,,100,,,,,,,Space,keypress(Space),,,,,,,,-- --- ---- --- ------ ----- ------- ---- -- --- ------- --<br>------- ---------- ------ -- ----- -- ----- -- ---- ------<br>--- ----- --- --- ------ -------- ----- --- ------ ----- --<br>----- ----- ---------- --- --- ------ ------ ---- -- ------<br>------- --- ------ ----- --- left ------- -- ---- --- --<br>------- ------,226998.00000000003,226987,226409,226388,226424,227028,,48,left
screen,html.Screen,1_1_1_1_49,2021-04-11T15:06:41.402Z,,,,,,,,,,,,,,,,54,,,,,,,,,,,,,,521,,response,,,,100,,,,,,,Space,keypress(Space),,,,,,,,-- --- ---- --- ------ ----- ------- ---- -- --- ------- --<br>------- ---------- ------ -- ----- -- ----- -- ---- ------<br>--- ----- --- --- ------ -------- ----- --- ------ ----- --<br>----- ----- ---------- --- --- ------ ------ ---- -- ------<br>------- --- ------ ----- --- ---- without -- ---- --- --<br>------- ------,227543,227532,227011,226999,227028,227580,,49,without
screen,html.Screen,1_1_1_1_50,2021-04-11T15:06:41.918Z,,,,,,,,,,,,,,,,54,,,,,,,,,,,,,,484,,response,,,,100,,,,,,,Space,keypress(Space),,,,,,,,-- --- ---- --- ------ ----- ------- ---- -- --- ------- --<br>------- ---------- ------ -- ----- -- ----- -- ---- ------<br>--- ----- --- --- ------ -------- ----- --- ------ ----- --<br>----- ----- ---------- --- --- ------ ------ ---- -- ------<br>------- --- ------ ----- --- ---- ------- an ---- --- --<br>------- ------,228060,228048,227564,227543,227580,228100,,50,an
screen,html.Screen,1_1_1_1_51,2021-04-11T15:06:42.392Z,,,,,,,,,,,,,,,,54,,,,,,,,,,,,,,438,,response,,,,100,,,,,,,Space,keypress(Space),,,,,,,,-- --- ---- --- ------ ----- ------- ---- -- --- ------- --<br>------- ---------- ------ -- ----- -- ----- -- ---- ------<br>--- ----- --- --- ------ -------- ----- --- ------ ----- --<br>----- ----- ---------- --- --- ------ ------ ---- -- ------<br>------- --- ------ ----- --- ---- ------- -- easy --- --<br>------- ------,228533.00000000003,228522,228084,228060,228100,228569,,51,easy
screen,html.Screen,1_1_1_1_52,2021-04-11T15:06:42.960Z,,,,,,,,,,,,,,,,54,,,,,,,,,,,,,,537,,response,,,,100,,,,,,,Space,keypress(Space),,,,,,,,-- --- ---- --- ------ ----- ------- ---- -- --- ------- --<br>------- ---------- ------ -- ----- -- ----- -- ---- ------<br>--- ----- --- --- ------ -------- ----- --- ------ ----- --<br>----- ----- ---------- --- --- ------ ------ ---- -- ------<br>------- --- ------ ----- --- ---- ------- -- ---- way --<br>------- ------,229102,229090,228553,228533.00000000003,228569,229139,,52,way
screen,html.Screen,1_1_1_1_53,2021-04-11T15:06:43.498Z,,,,,,,,,,,,,,,,54,,,,,,,,,,,,,,505,,response,,,,100,,,,,,,Space,keypress(Space),,,,,,,,-- --- ---- --- ------ ----- ------- ---- -- --- ------- --<br>------- ---------- ------ -- ----- -- ----- -- ---- ------<br>--- ----- --- --- ------ -------- ----- --- ------ ----- --<br>----- ----- ---------- --- --- ------ ------ ---- -- ------<br>------- --- ------ ----- --- ---- ------- -- ---- --- of<br>------- ------,229639,229628,229123,229102,229139,229675,,53,of
screen,html.Screen,1_1_1_1_54,2021-04-11T15:06:44.008Z,,,,,,,,,,,,,,,,54,,,,,,,,,,,,,,479,,response,,,,100,,,,,,,Space,keypress(Space),,,,,,,,-- --- ---- --- ------ ----- ------- ---- -- --- ------- --<br>------- ---------- ------ -- ----- -- ----- -- ---- ------<br>--- ----- --- --- ------ -------- ----- --- ------ ----- --<br>----- ----- ---------- --- --- ------ ------ ---- -- ------<br>------- --- ------ ----- --- ---- ------- -- ---- --- --<br>raising ------,230150,230138,229659,229639,229675,230177,,54,raising
screen,html.Screen,1_1_1_1_55,2021-04-11T15:06:44.853Z,,,,,,,,,,,,,,,,54,,,,,,,,,,,,,,821,,response,,,,100,,,,,,,Space,keypress(Space),,,,,,,,-- --- ---- --- ------ ----- ------- ---- -- --- ------- --<br>------- ---------- ------ -- ----- -- ----- -- ---- ------<br>--- ----- --- --- ------ -------- ----- --- ------ ----- --<br>----- ----- ---------- --- --- ------ ------ ---- -- ------<br>------- --- ------ ----- --- ---- ------- -- ---- --- --<br>------- money.,230994,230982,230161,230150,230177,231031,,55,money.
Item 100,flow.Loop,1_1_1_1,2021-04-11T15:06:44.853Z,,,,,,,,,,,,,,,,,,,,,,,,,,,,,,31007,,completion,,,,,A,,,,,,,,,,,silence,,,,,230995,230982,199959,199959,199975,231031,,,
Question 1,html.Screen,1_1_1_2,2021-04-11T15:06:48.976Z,,,,,,,,,,,,,,,,,,,,,,,,,,,true,TRUE,,4092,,response,,,,100,A,,,,,,TRUE,click #choice-1,,,,silence,,,,,235118,235107,231015,230995,231031,235153,,,
Question 2,html.Screen,1_1_1_3,2021-04-11T15:06:52.904Z,,,,,,,,,,,,,,,,,,,,,,,,,,,true,FALSE,,3899,,response,,,,100,A,,,,,,FALSE,click #choice-2,,,,silence,,,,,239045.00000000003,239034,235135,235118,235153,239078,,,
Item 100,flow.Sequence,1_1_1,2021-04-11T15:06:52.904Z,,,,,,,,,,,,,,,,,,,,,,,,,,,,,,49057,,completion,,,,,,,,,,,,,,,,,,,,,239045.00000000003,239034,189949,189942,189977,239078,,,
End of Practice,html.Page,1_1_2,2021-04-11T15:06:58.512Z,,,,,,,,,,,,,,,,,,,,,,,,,,,,,,5574.000000000029,,form submission,,,,,,,,,,,,,,,,,,,,,244653,244652.00000000003,239060,239046,239078,244678,,,
Practice,flow.Sequence,1_1,2021-04-11T15:06:58.512Z,,,,,,,,,,,,,,,,,,,,,,,,,,,,,,111112.00000000003,,completion,,,,,,,,,,,,,,,,,,,,,244653,244652.00000000003,133521,133514,133540,244678,,,
Trap_instruction,html.Page,1_2_0,2021-04-11T15:07:08.746Z,,,,,,,,,,,,,,,,,,,,,,,,,,,,,,10208,,form submission,,,,,,,,,,,,,,,,,,,,,254887,254886,244660,244653,244678,254916,,,
trap_trial,html.Screen,1_2_1,2021-04-11T15:07:15.540Z,,,,,,,,,,,,,,,,,,,,,,,,,,,true,1,,6767,,response,,,,,,,,,,,1,click #choice-1,,,,,,,,,261680,261668,254901,254887,254916,261732,,,
end of trap trial,html.Page,1_2_2,2021-04-11T15:07:19.850Z,,,,,,,,,,,,,,,,,,,,,,,,,,,,,,4258,,form submission,,,,,,,,,,,,,,,,,,,,,265991,265990,261722,261680,261732,266012,,,
Trap 1,flow.Sequence,1_2,2021-04-11T15:07:19.851Z,,,,,,,,,,,,,,,,,,,,,,,,,,,,,,21312,,completion,,,,,,,,,,,,,,,,,,,,,265991,265990,244660,244653,244678,266012,,,
Standby,html.Page,1_3_0,2021-04-11T15:07:27.862Z,,,,,,,,,,,,,,,,,,,,,,,,,,,,,,8005,,timeout,,,,,,,,,,,,,,,,,,,,,274002,274001,265996,265991,266012,274017,,,
Holding screen,html.Screen,1_3_1_0_0,2021-04-11T15:07:34.852Z,,,,,,,,,,,,,,,,,,,,,,,,,,,,,,6992,,timeout,,,,,,,,,,,,,,,,,,,,,280992,280992,274001,274002,274017,281009,,,
screen,html.Screen,1_3_1_0_1_0,2021-04-11T15:07:36.618Z,,,,,,,,,,,,,,,,15,,,,,,,,,,,,,,1752,,response,,,,7,A,,,,,,Space,keypress(Space),,,,silence,,,,Greg --------- ---------- - --- ------- -- --- ------------<br>----- -- -------- ------- ---- ------ - -------- ---- -----<br>--- ------- ---- -- --- -------- --- - ----- ------ ---- --<br>-------- --- -------- -------- --- -------- ---- -- ----- -<br>-------- ---- --- ---------- --------- -- ------- ------ -<br>--------- ----- -----,282758,282744,280992,280992,281009,282793,,0,Greg
screen,html.Screen,1_3_1_0_1_1,2021-04-11T15:07:37.193Z,,,,,,,,,,,,,,,,15,,,,,,,,,,,,,,541,,response,,,,7,A,,,,,,Space,keypress(Space),,,,silence,,,,"---- Anderson, ---------- - --- ------- -- --- ------------<br>----- -- -------- ------- ---- ------ - -------- ---- -----<br>--- ------- ---- -- --- -------- --- - ----- ------ ---- --<br>-------- --- -------- -------- --- -------- ---- -- ----- -<br>-------- ---- --- ---------- --------- -- ------- ------ -<br>--------- ----- -----",283333,283319,282778,282758,282793,283371,,1,"Anderson,"
screen,html.Screen,1_3_1_0_1_2,2021-04-11T15:07:37.758Z,,,,,,,,,,,,,,,,15,,,,,,,,,,,,,,528,,response,,,,7,A,,,,,,Space,keypress(Space),,,,silence,,,,---- --------- considered - --- ------- -- --- ------------<br>----- -- -------- ------- ---- ------ - -------- ---- -----<br>--- ------- ---- -- --- -------- --- - ----- ------ ---- --<br>-------- --- -------- -------- --- -------- ---- -- ----- -<br>-------- ---- --- ---------- --------- -- ------- ------ -<br>--------- ----- -----,283897,283883,283355,283333,283371,283924,,2,considered
screen,html.Screen,1_3_1_0_1_3,2021-04-11T15:07:38.242Z,,,,,,,,,,,,,,,,15,,,,,,,,,,,,,,460,,response,,,,7,A,,,,,,Space,keypress(Space),,,,silence,,,,---- --------- ---------- a --- ------- -- --- ------------<br>----- -- -------- ------- ---- ------ - -------- ---- -----<br>--- ------- ---- -- --- -------- --- - ----- ------ ---- --<br>-------- --- -------- -------- --- -------- ---- -- ----- -<br>-------- ---- --- ---------- --------- -- ------- ------ -<br>--------- ----- -----,284382,284368,283908,283898,283924,284409,,3,a
screen,html.Screen,1_3_1_0_1_4,2021-04-11T15:07:38.683Z,,,,,,,,,,,,,,,,15,,,,,,,,,,,,,,416,,response,,,,7,A,,,,,,Space,keypress(Space),,,,silence,,,,---- --------- ---------- - key ------- -- --- ------------<br>----- -- -------- ------- ---- ------ - -------- ---- -----<br>--- ------- ---- -- --- -------- --- - ----- ------ ---- --<br>-------- --- -------- -------- --- -------- ---- -- ----- -<br>-------- ---- --- ---------- --------- -- ------- ------ -<br>--------- ----- -----,284823,284809,284393,284382,284409,284863,,4,key
screen,html.Screen,1_3_1_0_1_5,2021-04-11T15:07:39.164Z,,,,,,,,,,,,,,,,15,,,,,,,,,,,,,,444,,response,,,,7,A,,,,,,Space,keypress(Space),,,,silence,,,,---- --------- ---------- - --- witness -- --- ------------<br>----- -- -------- ------- ---- ------ - -------- ---- -----<br>--- ------- ---- -- --- -------- --- - ----- ------ ---- --<br>-------- --- -------- -------- --- -------- ---- -- ----- -<br>-------- ---- --- ---------- --------- -- ------- ------ -<br>--------- ----- -----,285304.00000000006,285290,284846,284823,284863,285332,,5,witness
screen,html.Screen,1_3_1_0_1_6,2021-04-11T15:07:39.619Z,,,,,,,,,,,,,,,,15,,,,,,,,,,,,,,429,,response,,,,7,A,,,,,,Space,keypress(Space),,,,silence,,,,---- --------- ---------- - --- ------- by --- ------------<br>----- -- -------- ------- ---- ------ - -------- ---- -----<br>--- ------- ---- -- --- -------- --- - ----- ------ ---- --<br>-------- --- -------- -------- --- -------- ---- -- ----- -<br>-------- ---- --- ---------- --------- -- ------- ------ -<br>--------- ----- -----,285759,285745,285316,285304.00000000006,285332,285801,,6,by
screen,html.Screen,1_3_1_0_1_7,2021-04-11T15:07:40.074Z,,,,,,,,,,,,,,,,15,,,,,,,,,,,,,,416,,response,,,,7,A,,,,,,Space,keypress(Space),,,,silence,,,,---- --------- ---------- - --- ------- -- the ------------<br>----- -- -------- ------- ---- ------ - -------- ---- -----<br>--- ------- ---- -- --- -------- --- - ----- ------ ---- --<br>-------- --- -------- -------- --- -------- ---- -- ----- -<br>-------- ---- --- ---------- --------- -- ------- ------ -<br>--------- ----- -----,286214,286200,285784,285759,285801,286255,,7,the
screen,html.Screen,1_3_1_0_1_8,2021-04-11T15:07:41.078Z,,,,,,,,,,,,,,,,15,,,,,,,,,,,,,,966,,response,,,,7,A,,,,,,Space,keypress(Space),,,,silence,,,,"---- --------- ---------- - --- ------- -- --- prosecution,<br>----- -- -------- ------- ---- ------ - -------- ---- -----<br>--- ------- ---- -- --- -------- --- - ----- ------ ---- --<br>-------- --- -------- -------- --- -------- ---- -- ----- -<br>-------- ---- --- ---------- --------- -- ------- ------ -<br>--------- ----- -----",287218,287204,286238,286214,286255,287257,,8,"prosecution,"
screen,html.Screen,1_3_1_0_1_9,2021-04-11T15:07:41.702Z,,,,,,,,,,,,,,,,15,,,,,,,,,,,,,,588.0000000000582,,response,,,,7,A,,,,,,Space,keypress(Space),,,,silence,,,,---- --------- ---------- - --- ------- -- --- ------------<br>vowed -- -------- ------- ---- ------ - -------- ---- -----<br>--- ------- ---- -- --- -------- --- - ----- ------ ---- --<br>-------- --- -------- -------- --- -------- ---- -- ----- -<br>-------- ---- --- ---------- --------- -- ------- ------ -<br>--------- ----- -----,287842,287828.00000000006,287240,287218,287257,287876,,9,vowed
screen,html.Screen,1_3_1_0_1_10,2021-04-11T15:07:42.168Z,,,,,,,,,,,,,,,,15,,,,,,,,,,,,,,434,,response,,,,7,A,,,,,,Space,keypress(Space),,,,silence,,,,---- --------- ---------- - --- ------- -- --- ------------<br>----- he -------- ------- ---- ------ - -------- ---- -----<br>--- ------- ---- -- --- -------- --- - ----- ------ ---- --<br>-------- --- -------- -------- --- -------- ---- -- ----- -<br>-------- ---- --- ---------- --------- -- ------- ------ -<br>--------- ----- -----,288308,288294,287860,287842,287876,288345,,10,he
screen,html.Screen,1_3_1_0_1_11,2021-04-11T15:07:42.663Z,,,,,,,,,,,,,,,,15,,,,,,,,,,,,,,460,,response,,,,7,A,,,,,,Space,keypress(Space),,,,silence,,,,---- --------- ---------- - --- ------- -- --- ------------<br>----- -- wouldn't ------- ---- ------ - -------- ---- -----<br>--- ------- ---- -- --- -------- --- - ----- ------ ---- --<br>-------- --- -------- -------- --- -------- ---- -- ----- -<br>-------- ---- --- ---------- --------- -- ------- ------ -<br>--------- ----- -----,288803,288789,288329,288308,288345,288832,,11,wouldn't
screen,html.Screen,1_3_1_0_1_12,2021-04-11T15:07:43.213Z,,,,,,,,,,,,,,,,15,,,,,,,,,,,,,,524,,response,,,,7,A,,,,,,Space,keypress(Space),,,,silence,,,,---- --------- ---------- - --- ------- -- --- ------------<br>----- -- -------- testify ---- ------ - -------- ---- -----<br>--- ------- ---- -- --- -------- --- - ----- ------ ---- --<br>-------- --- -------- -------- --- -------- ---- -- ----- -<br>-------- ---- --- ---------- --------- -- ------- ------ -<br>--------- ----- -----,289353,289339,288815,288803,288832,289385,,12,testify
screen,html.Screen,1_3_1_0_1_13,2021-04-11T15:07:43.852Z,,,,,,,,,,,,,,,,15,,,,,,,,,,,,,,610,,response,,,,7,A,,,,,,Space,keypress(Space),,,,silence,,,,---- --------- ---------- - --- ------- -- --- ------------<br>----- -- -------- ------- when ------ - -------- ---- -----<br>--- ------- ---- -- --- -------- --- - ----- ------ ---- --<br>-------- --- -------- -------- --- -------- ---- -- ----- -<br>-------- ---- --- ---------- --------- -- ------- ------ -<br>--------- ----- -----,289991,289978,289368,289353,289385,290020,,13,when
screen,html.Screen,1_3_1_0_1_14,2021-04-11T15:07:44.485Z,,,,,,,,,,,,,,,,15,,,,,,,,,,,,,,607,,response,,,,7,A,,,,,,Space,keypress(Space),,,,silence,,,,---- --------- ---------- - --- ------- -- --- ------------<br>----- -- -------- ------- ---- served - -------- ---- -----<br>--- ------- ---- -- --- -------- --- - ----- ------ ---- --<br>-------- --- -------- -------- --- -------- ---- -- ----- -<br>-------- ---- --- ---------- --------- -- ------- ------ -<br>--------- ----- -----,290625,290611,290004,289992,290020,290657,,14,served
screen,html.Screen,1_3_1_0_1_15,2021-04-11T15:07:45.058Z,,,,,,,,,,,,,,,,15,,,,,,,,,,,,,,544,,response,,,,7,A,,,,,,Space,keypress(Space),,,,silence,,,,---- --------- ---------- - --- ------- -- --- ------------<br>----- -- -------- ------- ---- ------ a -------- ---- -----<br>--- ------- ---- -- --- -------- --- - ----- ------ ---- --<br>-------- --- -------- -------- --- -------- ---- -- ----- -<br>-------- ---- --- ---------- --------- -- ------- ------ -<br>--------- ----- -----,291198,291184,290640,290625,290657,291225,,15,a
screen,html.Screen,1_3_1_0_1_16,2021-04-11T15:07:46.357Z,,,,,,,,,,,,,,,,15,,,,,,,,,,,,,,1274,,response,,,,7,A,,,,,,Space,keypress(Space),,,,silence,,,,---- --------- ---------- - --- ------- -- --- ------------<br>----- -- -------- ------- ---- ------ - subpoena ---- -----<br>--- ------- ---- -- --- -------- --- - ----- ------ ---- --<br>-------- --- -------- -------- --- -------- ---- -- ----- -<br>-------- ---- --- ---------- --------- -- ------- ------ -<br>--------- ----- -----,292497,292483,291209,291198,291225,292529,,16,subpoena
screen,html.Screen,1_3_1_0_1_17,2021-04-11T15:07:47.067Z,,,,,,,,,,,,,,,,15,,,,,,,,,,,,,,681,,response,,,,7,A,,,,,,Space,keypress(Space),,,,silence,,,,---- --------- ---------- - --- ------- -- --- ------------<br>----- -- -------- ------- ---- ------ - -------- last -----<br>--- ------- ---- -- --- -------- --- - ----- ------ ---- --<br>-------- --- -------- -------- --- -------- ---- -- ----- -<br>-------- ---- --- ---------- --------- -- ------- ------ -<br>--------- ----- -----,293207,293193,292512,292497,292529,293248,,17,last
screen,html.Screen,1_3_1_0_1_18,2021-04-11T15:07:47.797Z,,,,,,,,,,,,,,,,15,,,,,,,,,,,,,,691,,response,,,,7,A,,,,,,Space,keypress(Space),,,,silence,,,,---- --------- ---------- - --- ------- -- --- ------------<br>----- -- -------- ------- ---- ------ - -------- ---- week.<br>--- ------- ---- -- --- -------- --- - ----- ------ ---- --<br>-------- --- -------- -------- --- -------- ---- -- ----- -<br>-------- ---- --- ---------- --------- -- ------- ------ -<br>--------- ----- -----,293937,293923,293232,293207,293248,293968,,18,week.
screen,html.Screen,1_3_1_0_1_19,2021-04-11T15:07:48.638Z,,,,,,,,,,,,,,,,15,,,,,,,,,,,,,,813,,response,,,,7,A,,,,,,Space,keypress(Space),,,,silence,,,,---- --------- ---------- - --- ------- -- --- ------------<br>----- -- -------- ------- ---- ------ - -------- ---- -----<br>His ------- ---- -- --- -------- --- - ----- ------ ---- --<br>-------- --- -------- -------- --- -------- ---- -- ----- -<br>-------- ---- --- ---------- --------- -- ------- ------ -<br>--------- ----- -----,294778,294764,293951,293937,293968,294820,,19,His
screen,html.Screen,1_3_1_0_1_20,2021-04-11T15:07:49.249Z,,,,,,,,,,,,,,,,15,,,,,,,,,,,,,,571,,response,,,,7,A,,,,,,Space,keypress(Space),,,,silence,,,,---- --------- ---------- - --- ------- -- --- ------------<br>----- -- -------- ------- ---- ------ - -------- ---- -----<br>--- lawyers ---- -- --- -------- --- - ----- ------ ---- --<br>-------- --- -------- -------- --- -------- ---- -- ----- -<br>-------- ---- --- ---------- --------- -- ------- ------ -<br>--------- ----- -----,295389,295375,294804,294778,294820,295423,,20,lawyers
screen,html.Screen,1_3_1_0_1_21,2021-04-11T15:07:49.869Z,,,,,,,,,,,,,,,,15,,,,,,,,,,,,,,588,,response,,,,7,A,,,,,,Space,keypress(Space),,,,silence,,,,---- --------- ---------- - --- ------- -- --- ------------<br>----- -- -------- ------- ---- ------ - -------- ---- -----<br>--- ------- said -- --- -------- --- - ----- ------ ---- --<br>-------- --- -------- -------- --- -------- ---- -- ----- -<br>-------- ---- --- ---------- --------- -- ------- ------ -<br>--------- ----- -----,296009,295995,295407,295389,295423,296043,,21,said
screen,html.Screen,1_3_1_0_1_22,2021-04-11T15:07:50.373Z,,,,,,,,,,,,,,,,15,,,,,,,,,,,,,,474,,response,,,,7,A,,,,,,Space,keypress(Space),,,,silence,,,,---- --------- ---------- - --- ------- -- --- ------------<br>----- -- -------- ------- ---- ------ - -------- ---- -----<br>--- ------- ---- he --- -------- --- - ----- ------ ---- --<br>-------- --- -------- -------- --- -------- ---- -- ----- -<br>-------- ---- --- ---------- --------- -- ------- ------ -<br>--------- ----- -----,296513.00000000006,296499,296025,296009,296043,296545,,22,he
screen,html.Screen,1_3_1_0_1_23,2021-04-11T15:07:50.884Z,,,,,,,,,,,,,,,,15,,,,,,,,,,,,,,482,,response,,,,7,A,,,,,,Space,keypress(Space),,,,silence,,,,---- --------- ---------- - --- ------- -- --- ------------<br>----- -- -------- ------- ---- ------ - -------- ---- -----<br>--- ------- ---- -- was -------- --- - ----- ------ ---- --<br>-------- --- -------- -------- --- -------- ---- -- ----- -<br>-------- ---- --- ---------- --------- -- ------- ------ -<br>--------- ----- -----,297023,297010,296528,296513.00000000006,296545,297064,,23,was
screen,html.Screen,1_3_1_0_1_24,2021-04-11T15:07:51.587Z,,,,,,,,,,,,,,,,15,,,,,,,,,,,,,,664,,response,,,,7,A,,,,,,Space,keypress(Space),,,,silence,,,,---- --------- ---------- - --- ------- -- --- ------------<br>----- -- -------- ------- ---- ------ - -------- ---- -----<br>--- ------- ---- -- --- prepared --- - ----- ------ ---- --<br>-------- --- -------- -------- --- -------- ---- -- ----- -<br>-------- ---- --- ---------- --------- -- ------- ------ -<br>--------- ----- -----,297727.00000000006,297713,297049,297024,297064,297768,,24,prepared
screen,html.Screen,1_3_1_0_1_25,2021-04-11T15:07:52.115Z,,,,,,,,,,,,,,,,15,,,,,,,,,,,,,,490,,response,,,,7,A,,,,,,Space,keypress(Space),,,,silence,,,,---- --------- ---------- - --- ------- -- --- ------------<br>----- -- -------- ------- ---- ------ - -------- ---- -----<br>--- ------- ---- -- --- -------- for - ----- ------ ---- --<br>-------- --- -------- -------- --- -------- ---- -- ----- -<br>-------- ---- --- ---------- --------- -- ------- ------ -<br>--------- ----- -----,298255,298241,297751,297727.00000000006,297768,298287,,25,for
screen,html.Screen,1_3_1_0_1_26,2021-04-11T15:07:52.652Z,,,,,,,,,,,,,,,,15,,,,,,,,,,,,,,507,,response,,,,7,A,,,,,,Space,keypress(Space),,,,silence,,,,---- --------- ---------- - --- ------- -- --- ------------<br>----- -- -------- ------- ---- ------ - -------- ---- -----<br>--- ------- ---- -- --- -------- --- a ----- ------ ---- --<br>-------- --- -------- -------- --- -------- ---- -- ----- -<br>-------- ---- --- ---------- --------- -- ------- ------ -<br>--------- ----- -----,298791,298778,298271,298255,298287,298823,,26,a
screen,html.Screen,1_3_1_0_1_27,2021-04-11T15:07:53.152Z,,,,,,,,,,,,,,,,15,,,,,,,,,,,,,,471,,response,,,,7,A,,,,,,Space,keypress(Space),,,,silence,,,,---- --------- ---------- - --- ------- -- --- ------------<br>----- -- -------- ------- ---- ------ - -------- ---- -----<br>--- ------- ---- -- --- -------- --- - third ------ ---- --<br>-------- --- -------- -------- --- -------- ---- -- ----- -<br>-------- ---- --- ---------- --------- -- ------- ------ -<br>--------- ----- -----,299291,299278,298807,298792.00000000006,298823,299326,,27,third
screen,html.Screen,1_3_1_0_1_28,2021-04-11T15:07:53.614Z,,,,,,,,,,,,,,,,15,,,,,,,,,,,,,,431,,response,,,,7,A,,,,,,Space,keypress(Space),,,,silence,,,,---- --------- ---------- - --- ------- -- --- ------------<br>----- -- -------- ------- ---- ------ - -------- ---- -----<br>--- ------- ---- -- --- -------- --- - ----- prison ---- --<br>-------- --- -------- -------- --- -------- ---- -- ----- -<br>-------- ---- --- ---------- --------- -- ------- ------ -<br>--------- ----- -----,299754,299740,299309,299291,299326,299795,,28,prison
screen,html.Screen,1_3_1_0_1_29,2021-04-11T15:07:54.107Z,,,,,,,,,,,,,,,,15,,,,,,,,,,,,,,453,,response,,,,7,A,,,,,,Space,keypress(Space),,,,silence,,,,---- --------- ---------- - --- ------- -- --- ------------<br>----- -- -------- ------- ---- ------ - -------- ---- -----<br>--- ------- ---- -- --- -------- --- - ----- ------ stay --<br>-------- --- -------- -------- --- -------- ---- -- ----- -<br>-------- ---- --- ---------- --------- -- ------- ------ -<br>--------- ----- -----,300246,300232,299779,299754,299795,300281,,29,stay
screen,html.Screen,1_3_1_0_1_30,2021-04-11T15:07:54.642Z,,,,,,,,,,,,,,,,15,,,,,,,,,,,,,,503,,response,,,,7,A,,,,,,Space,keypress(Space),,,,silence,,,,---- --------- ---------- - --- ------- -- --- ------------<br>----- -- -------- ------- ---- ------ - -------- ---- -----<br>--- ------- ---- -- --- -------- --- - ----- ------ ---- to<br>-------- --- -------- -------- --- -------- ---- -- ----- -<br>-------- ---- --- ---------- --------- -- ------- ------ -<br>--------- ----- -----,300782,300768,300265,300246,300281,300817,,30,to
screen,html.Screen,1_3_1_0_1_31,2021-04-11T15:07:55.483Z,,,,,,,,,,,,,,,,15,,,,,,,,,,,,,,808,,response,,,,7,A,,,,,,Space,keypress(Space),,,,silence,,,,---- --------- ---------- - --- ------- -- --- ------------<br>----- -- -------- ------- ---- ------ - -------- ---- -----<br>--- ------- ---- -- --- -------- --- - ----- ------ ---- --<br>maintain --- -------- -------- --- -------- ---- -- ----- -<br>-------- ---- --- ---------- --------- -- ------- ------ -<br>--------- ----- -----,301623,301609,300801,300782,300817,301654,,31,maintain
screen,html.Screen,1_3_1_0_1_32,2021-04-11T15:07:56.029Z,,,,,,,,,,,,,,,,15,,,,,,,,,,,,,,517,,response,,,,7,A,,,,,,Space,keypress(Space),,,,silence,,,,---- --------- ---------- - --- ------- -- --- ------------<br>----- -- -------- ------- ---- ------ - -------- ---- -----<br>--- ------- ---- -- --- -------- --- - ----- ------ ---- --<br>-------- his -------- -------- --- -------- ---- -- ----- -<br>-------- ---- --- ---------- --------- -- ------- ------ -<br>--------- ----- -----,302168,302154,301637,301623,301654,302207,,32,his
screen,html.Screen,1_3_1_0_1_33,2021-04-11T15:07:57.008Z,,,,,,,,,,,,,,,,15,,,,,,,,,,,,,,943,,response,,,,7,A,,,,,,Space,keypress(Space),,,,silence,,,,---- --------- ---------- - --- ------- -- --- ------------<br>----- -- -------- ------- ---- ------ - -------- ---- -----<br>--- ------- ---- -- --- -------- --- - ----- ------ ---- --<br>-------- --- silence. -------- --- -------- ---- -- ----- -<br>-------- ---- --- ---------- --------- -- ------- ------ -<br>--------- ----- -----,303147,303133,302190,302168,302207,303177,,33,silence.
screen,html.Screen,1_3_1_0_1_34,2021-04-11T15:07:57.700Z,,,,,,,,,,,,,,,,15,,,,,,,,,,,,,,665,,response,,,,7,A,,,,,,Space,keypress(Space),,,,silence,,,,---- --------- ---------- - --- ------- -- --- ------------<br>----- -- -------- ------- ---- ------ - -------- ---- -----<br>--- ------- ---- -- --- -------- --- - ----- ------ ---- --<br>-------- --- -------- Anderson --- -------- ---- -- ----- -<br>-------- ---- --- ---------- --------- -- ------- ------ -<br>--------- ----- -----,303839,303825,303160,303148,303177,303879,,34,Anderson
screen,html.Screen,1_3_1_0_1_35,2021-04-11T15:07:58.245Z,,,,,,,,,,,,,,,,15,,,,,,,,,,,,,,507,,response,,,,7,A,,,,,,Space,keypress(Space),,,,silence,,,,---- --------- ---------- - --- ------- -- --- ------------<br>----- -- -------- ------- ---- ------ - -------- ---- -----<br>--- ------- ---- -- --- -------- --- - ----- ------ ---- --<br>-------- --- -------- -------- was -------- ---- -- ----- -<br>-------- ---- --- ---------- --------- -- ------- ------ -<br>--------- ----- -----,304384,304370,303863,303839,303879,304416,,35,was
screen,html.Screen,1_3_1_0_1_36,2021-04-11T15:07:58.804Z,,,,,,,,,,,,,,,,15,,,,,,,,,,,,,,529,,response,,,,7,A,,,,,,Space,keypress(Space),,,,silence,,,,---- --------- ---------- - --- ------- -- --- ------------<br>----- -- -------- ------- ---- ------ - -------- ---- -----<br>--- ------- ---- -- --- -------- --- - ----- ------ ---- --<br>-------- --- -------- -------- --- released ---- -- ----- -<br>-------- ---- --- ---------- --------- -- ------- ------ -<br>--------- ----- -----,304943,304928,304399,304384,304416,304985,,36,released
screen,html.Screen,1_3_1_0_1_37,2021-04-11T15:07:59.518Z,,,,,,,,,,,,,,,,15,,,,,,,,,,,,,,674,,response,,,,7,A,,,,,,Space,keypress(Space),,,,silence,,,,---- --------- ---------- - --- ------- -- --- ------------<br>----- -- -------- ------- ---- ------ - -------- ---- -----<br>--- ------- ---- -- --- -------- --- - ----- ------ ---- --<br>-------- --- -------- -------- --- -------- July -- ----- -<br>-------- ---- --- ---------- --------- -- ------- ------ -<br>--------- ----- -----,305657,305643,304969,304943,304985,305687,,37,July
screen,html.Screen,1_3_1_0_1_38,2021-04-11T15:08:00.230Z,,,,,,,,,,,,,,,,15,,,,,,,,,,,,,,683,,response,,,,7,A,,,,,,Space,keypress(Space),,,,silence,,,,---- --------- ---------- - --- ------- -- --- ------------<br>----- -- -------- ------- ---- ------ - -------- ---- -----<br>--- ------- ---- -- --- -------- --- - ----- ------ ---- --<br>-------- --- -------- -------- --- -------- ---- 20 ----- -<br>-------- ---- --- ---------- --------- -- ------- ------ -<br>--------- ----- -----,306369,306354,305671,305658,305687,306407,,38,20
screen,html.Screen,1_3_1_0_1_39,2021-04-11T15:08:00.995Z,,,,,,,,,,,,,,,,15,,,,,,,,,,,,,,728,,response,,,,7,A,,,,,,Space,keypress(Space),,,,silence,,,,---- --------- ---------- - --- ------- -- --- ------------<br>----- -- -------- ------- ---- ------ - -------- ---- -----<br>--- ------- ---- -- --- -------- --- - ----- ------ ---- --<br>-------- --- -------- -------- --- -------- ---- -- after -<br>-------- ---- --- ---------- --------- -- ------- ------ -<br>--------- ----- -----,307134,307119,306391,306369,306407,307177,,39,after
screen,html.Screen,1_3_1_0_1_40,2021-04-11T15:08:01.535Z,,,,,,,,,,,,,,,,15,,,,,,,,,,,,,,500,,response,,,,7,A,,,,,,Space,keypress(Space),,,,silence,,,,---- --------- ---------- - --- ------- -- --- ------------<br>----- -- -------- ------- ---- ------ - -------- ---- -----<br>--- ------- ---- -- --- -------- --- - ----- ------ ---- --<br>-------- --- -------- -------- --- -------- ---- -- ----- a<br>-------- ---- --- ---------- --------- -- ------- ------ -<br>--------- ----- -----,307674,307660,307160,307134,307177,307713,,40,a
screen,html.Screen,1_3_1_0_1_41,2021-04-11T15:08:02.605Z,,,,,,,,,,,,,,,,15,,,,,,,,,,,,,,1034,,response,,,,7,A,,,,,,Space,keypress(Space),,,,silence,,,,---- --------- ---------- - --- ------- -- --- ------------<br>----- -- -------- ------- ---- ------ - -------- ---- -----<br>--- ------- ---- -- --- -------- --- - ----- ------ ---- --<br>-------- --- -------- -------- --- -------- ---- -- ----- -<br>two-week ---- --- ---------- --------- -- ------- ------ -<br>--------- ----- -----,308744,308730,307696,307674,307713,308782,,41,two-week
screen,html.Screen,1_3_1_0_1_42,2021-04-11T15:08:03.162Z,,,,,,,,,,,,,,,,15,,,,,,,,,,,,,,521.0000000000582,,response,,,,7,A,,,,,,Space,keypress(Space),,,,silence,,,,---- --------- ---------- - --- ------- -- --- ------------<br>----- -- -------- ------- ---- ------ - -------- ---- -----<br>--- ------- ---- -- --- -------- --- - ----- ------ ---- --<br>-------- --- -------- -------- --- -------- ---- -- ----- -<br>-------- stay --- ---------- --------- -- ------- ------ -<br>--------- ----- -----,309301,309287.00000000006,308766,308744,308782,309335,,42,stay
screen,html.Screen,1_3_1_0_1_43,2021-04-11T15:08:03.750Z,,,,,,,,,,,,,,,,15,,,,,,,,,,,,,,555,,response,,,,7,A,,,,,,Space,keypress(Space),,,,silence,,,,---- --------- ---------- - --- ------- -- --- ------------<br>----- -- -------- ------- ---- ------ - -------- ---- -----<br>--- ------- ---- -- --- -------- --- - ----- ------ ---- --<br>-------- --- -------- -------- --- -------- ---- -- ----- -<br>-------- ---- for ---------- --------- -- ------- ------ -<br>--------- ----- -----,309889,309874,309319,309301,309335,309926,,43,for
screen,html.Screen,1_3_1_0_1_44,2021-04-11T15:08:04.445Z,,,,,,,,,,,,,,,,15,,,,,,,,,,,,,,662,,response,,,,7,A,,,,,,Space,keypress(Space),,,,silence,,,,---- --------- ---------- - --- ------- -- --- ------------<br>----- -- -------- ------- ---- ------ - -------- ---- -----<br>--- ------- ---- -- --- -------- --- - ----- ------ ---- --<br>-------- --- -------- -------- --- -------- ---- -- ----- -<br>-------- ---- --- previously --------- -- ------- ------ -<br>--------- ----- -----,310584,310570,309908,309889,309926,310612,,44,previously
screen,html.Screen,1_3_1_0_1_45,2021-04-11T15:08:05.124Z,,,,,,,,,,,,,,,,15,,,,,,,,,,,,,,655,,response,,,,7,A,,,,,,Space,keypress(Space),,,,silence,,,,---- --------- ---------- - --- ------- -- --- ------------<br>----- -- -------- ------- ---- ------ - -------- ---- -----<br>--- ------- ---- -- --- -------- --- - ----- ------ ---- --<br>-------- --- -------- -------- --- -------- ---- -- ----- -<br>-------- ---- --- ---------- declining -- ------- ------ -<br>--------- ----- -----,311263.00000000006,311249,310594,310584,310612,311297,,45,declining
screen,html.Screen,1_3_1_0_1_46,2021-04-11T15:08:05.779Z,,,,,,,,,,,,,,,,15,,,,,,,,,,,,,,623,,response,,,,7,A,,,,,,Space,keypress(Space),,,,silence,,,,---- --------- ---------- - --- ------- -- --- ------------<br>----- -- -------- ------- ---- ------ - -------- ---- -----<br>--- ------- ---- -- --- -------- --- - ----- ------ ---- --<br>-------- --- -------- -------- --- -------- ---- -- ----- -<br>-------- ---- --- ---------- --------- to ------- ------ -<br>--------- ----- -----,311918,311904,311281,311263.00000000006,311297,311951,,46,to
screen,html.Screen,1_3_1_0_1_47,2021-04-11T15:08:06.401Z,,,,,,,,,,,,,,,,15,,,,,,,,,,,,,,592,,response,,,,7,A,,,,,,Space,keypress(Space),,,,silence,,,,---- --------- ---------- - --- ------- -- --- ------------<br>----- -- -------- ------- ---- ------ - -------- ---- -----<br>--- ------- ---- -- --- -------- --- - ----- ------ ---- --<br>-------- --- -------- -------- --- -------- ---- -- ----- -<br>-------- ---- --- ---------- --------- -- testify ------ -<br>--------- ----- -----,312540,312526,311934,311919,311951,312569,,47,testify
screen,html.Screen,1_3_1_0_1_48,2021-04-11T15:08:07.009Z,,,,,,,,,,,,,,,,15,,,,,,,,,,,,,,581,,response,,,,7,A,,,,,,Space,keypress(Space),,,,silence,,,,---- --------- ---------- - --- ------- -- --- ------------<br>----- -- -------- ------- ---- ------ - -------- ---- -----<br>--- ------- ---- -- --- -------- --- - ----- ------ ---- --<br>-------- --- -------- -------- --- -------- ---- -- ----- -<br>-------- ---- --- ---------- --------- -- ------- before -<br>--------- ----- -----,313148,313134,312553,312540,312569,313190,,48,before
screen,html.Screen,1_3_1_0_1_49,2021-04-11T15:08:07.606Z,,,,,,,,,,,,,,,,15,,,,,,,,,,,,,,559,,response,,,,7,A,,,,,,Space,keypress(Space),,,,silence,,,,---- --------- ---------- - --- ------- -- --- ------------<br>----- -- -------- ------- ---- ------ - -------- ---- -----<br>--- ------- ---- -- --- -------- --- - ----- ------ ---- --<br>-------- --- -------- -------- --- -------- ---- -- ----- -<br>-------- ---- --- ---------- --------- -- ------- ------ a<br>--------- ----- -----,313745,313731,313172,313148,313190,313776,,49,a
screen,html.Screen,1_3_1_0_1_50,2021-04-11T15:08:08.080Z,,,,,,,,,,,,,,,,15,,,,,,,,,,,,,,445,,response,,,,7,A,,,,,,Space,keypress(Space),,,,silence,,,,---- --------- ---------- - --- ------- -- --- ------------<br>----- -- -------- ------- ---- ------ - -------- ---- -----<br>--- ------- ---- -- --- -------- --- - ----- ------ ---- --<br>-------- --- -------- -------- --- -------- ---- -- ----- -<br>-------- ---- --- ---------- --------- -- ------- ------ -<br>different ----- -----,314219,314204,313759,313745,313776,314262,,50,different
screen,html.Screen,1_3_1_0_1_51,2021-04-11T15:08:08.591Z,,,,,,,,,,,,,,,,15,,,,,,,,,,,,,,471,,response,,,,7,A,,,,,,Space,keypress(Space),,,,silence,,,,---- --------- ---------- - --- ------- -- --- ------------<br>----- -- -------- ------- ---- ------ - -------- ---- -----<br>--- ------- ---- -- --- -------- --- - ----- ------ ---- --<br>-------- --- -------- -------- --- -------- ---- -- ----- -<br>-------- ---- --- ---------- --------- -- ------- ------ -<br>--------- grand -----,314730,314716,314245,314219,314262,314764,,51,grand
screen,html.Screen,1_3_1_0_1_52,2021-04-11T15:08:09.292Z,,,,,,,,,,,,,,,,15,,,,,,,,,,,,,,668,,response,,,,7,A,,,,,,Space,keypress(Space),,,,silence,,,,---- --------- ---------- - --- ------- -- --- ------------<br>----- -- -------- ------- ---- ------ - -------- ---- -----<br>--- ------- ---- -- --- -------- --- - ----- ------ ---- --<br>-------- --- -------- -------- --- -------- ---- -- ----- -<br>-------- ---- --- ---------- --------- -- ------- ------ -<br>--------- ----- jury.,315431,315416,314748,314730,314764,315467,,52,jury.
Item 7,flow.Loop,1_3_1_0_1,2021-04-11T15:08:09.292Z,,,,,,,,,,,,,,,,,,,,,,,,,,,,,,34407,,completion,,,,,,,,,,,,,,,,,,,,,315431,315416,280992,280992,281009,315467,,,
Question 1,html.Screen,1_3_1_0_2,2021-04-11T15:08:13.169Z,,,,,,,,,,,,,,,,,,,,,,,,,,,true,FALSE,,3843,,response,,,,7,A,,,,,,FALSE,click #choice-2,,,,silence,,,,,319307,319294,315451,315431,315467,319329,,,
Question 2,html.Screen,1_3_1_0_3,2021-04-11T15:08:18.439Z,,,,,,,,,,,,,,,,,,,,,,,,,,,true,TRUE,,5251,,response,,,,7,A,,,,,,TRUE,click #choice-1,,,,silence,,,,,324577,324564,319313,319308,319329,324603,,,
Item 7,flow.Sequence,1_3_1_0,2021-04-11T15:08:18.439Z,,,,,,,,,,,,,,,,,,,,,,,,,,,,,,50547,,completion,,,,,,,,,,,,,,,,,,,,,324578.00000000006,324564,274001,274002,274017,324603,,,
Holding screen,html.Screen,1_3_1_1_0,2021-04-11T15:08:25.455Z,,,,,,,,,,,,,,,,,,,,,,,,,,,,,,7006,,timeout,,,,,,,,,,,,,,,,,,,,,331593,331593,324585,324578.00000000006,324603,331609,,,
screen,html.Screen,1_3_1_1_1_0,2021-04-11T15:08:26.381Z,,,,,,,,,,,,,,,,51,,,,,,,,,,,,,,912,,response,,,,13,A,,,,,,Space,keypress(Space),,,,silence,,,,American -------- --- --- ---- --- --- ------ -- --------<br>---- --------- --- ------- ------------ ---------- ---------<br>--- ---------- ------- ---------- ------- -- -------- ----<br>---- --- ------ ----- ------ -- ---- --- ----- -- - -------<br>-------- -- --- --- -- ----- ----------- ----- -----------<br>---- --- ---------- --- ---- --- -- ----------,332520,332505,331593,331593,331609,332561,,0,American
screen,html.Screen,1_3_1_1_1_1,2021-04-11T15:08:27.022Z,,,,,,,,,,,,,,,,51,,,,,,,,,,,,,,600,,response,,,,13,A,,,,,,Space,keypress(Space),,,,silence,,,,-------- industry --- --- ---- --- --- ------ -- --------<br>---- --------- --- ------- ------------ ---------- ---------<br>--- ---------- ------- ---------- ------- -- -------- ----<br>---- --- ------ ----- ------ -- ---- --- ----- -- - -------<br>-------- -- --- --- -- ----- ----------- ----- -----------<br>---- --- ---------- --- ---- --- -- ----------,333161,333145,332545,332520,332561,333201,,1,industry
screen,html.Screen,1_3_1_1_1_2,2021-04-11T15:08:27.750Z,,,,,,,,,,,,,,,,51,,,,,,,,,,,,,,689,,response,,,,13,A,,,,,,Space,keypress(Space),,,,silence,,,,-------- -------- may --- ---- --- --- ------ -- --------<br>---- --------- --- ------- ------------ ---------- ---------<br>--- ---------- ------- ---------- ------- -- -------- ----<br>---- --- ------ ----- ------ -- ---- --- ----- -- - -------<br>-------- -- --- --- -- ----- ----------- ----- -----------<br>---- --- ---------- --- ---- --- -- ----------,333889,333873,333184,333161,333201,333920,,2,may
screen,html.Screen,1_3_1_1_1_3,2021-04-11T15:08:28.228Z,,,,,,,,,,,,,,,,51,,,,,,,,,,,,,,448,,response,,,,13,A,,,,,,Space,keypress(Space),,,,silence,,,,-------- -------- --- not ---- --- --- ------ -- --------<br>---- --------- --- ------- ------------ ---------- ---------<br>--- ---------- ------- ---------- ------- -- -------- ----<br>---- --- ------ ----- ------ -- ---- --- ----- -- - -------<br>-------- -- --- --- -- ----- ----------- ----- -----------<br>---- --- ---------- --- ---- --- -- ----------,334366,334351,333903,333889,333920,334407,,3,not
screen,html.Screen,1_3_1_1_1_4,2021-04-11T15:08:28.796Z,,,,,,,,,,,,,,,,51,,,,,,,,,,,,,,529,,response,,,,13,A,,,,,,Space,keypress(Space),,,,silence,,,,-------- -------- --- --- know --- --- ------ -- --------<br>---- --------- --- ------- ------------ ---------- ---------<br>--- ---------- ------- ---------- ------- -- -------- ----<br>---- --- ------ ----- ------ -- ---- --- ----- -- - -------<br>-------- -- --- --- -- ----- ----------- ----- -----------<br>---- --- ---------- --- ---- --- -- ----------,334934,334919,334390,334367,334407,334976,,4,know
