sender,sender_type,sender_id,timestamp,meta,,Blues,Classical,Country,Dance,Electronic,Folk,Gospel,Hip-Hop,Jazz,Latin,Musical/Film,New-age,Pop,Provo_ID,R&B,Rap,Reggae,Religious,Rock,Soul,Swing,Traditional,age,artist_name,correct,correctResponse,distraction,duration,education,ended_on,familiarity,gender,headphone_check_performance,item,list,music_frequency,offensiveness,pleasantness,position_correct,preference,response,response_action,snippet_file,song_name,song_rating,sound,stimulus_1,stimulus_2,stimulus_3,text,time_commit,time_end,time_render,time_run,time_show,time_switch,url,word,word_ID
Introduction,html.Screen,0_0,2021-04-12T09:59:26.047Z,"{""labjs_version"":""20.2.2"",""labjs_build"":{""flavor"":""production"",""commit"":""a25486e0c714a0ae2ce03ff94b7bb6896854dcfa""},""location"":""https://run.pavlovia.org/mvasilev/music_a/"",""userAgent"":""Mozilla/5.0 (Windows NT 10.0; Win64; x64) AppleWebKit/537.36 (KHTML, like Gecko) Chrome/89.0.4389.114 Safari/537.36"",""platform"":""Win32"",""language"":""en-GB"",""locale"":""en-GB"",""timeZone"":""Europe/London"",""timezoneOffset"":-60,""screen_width"":1536,""screen_height"":864,""scroll_width"":1536,""scroll_height"":706,""window_innerWidth"":1536,""window_innerHeight"":754,""devicePixelRatio"":1.25}",,,,,,,,,,,,,,,,,,,,,,,,,,,,,189285.1670000739,,response,,,,,,,,,,,continue,click button,,,,,,,,,231557.63499997556,231555.1100000739,42235.514,42246.31999991834,42269.943,231562.223,{},,
Volume calibration,html.Screen,0_1,2021-04-12T10:00:24.805Z,,,,,,,,,,,,,,,,,,,,,,,,,,,,,,58749.59200013918,,response,,,,,,,,,,,continue,click button,,,,,,,,,290314.3549999222,290311.8150001392,231545.787,231557.87000013515,231562.223,290321.447,,,
Task instructions,html.Screen,0_2,2021-04-12T10:00:40.247Z,,,,,,,,,,,,,,,,,,,,,,,,,,,,,,15434.677999839827,,response,,,,,,,,,,,continue,click button,,,,,,,,,305756.8299998529,305756.1249998398,290304.916,290314.4799997099,290321.447,305769.573,,,
Sounds,html.Screen,0_3_0_0,2021-04-12T10:00:44.498Z,,,,,,,,,,,,,,,,,,,,,,,,,,,,,,4249.273000000045,,timeout,,,,,,,,,1,,,,,,,,S,I,O,,310008.08499986306,310002.444,305752.894,305757.02999997884,305769.573,310018.846,,,
Judgement,html.Screen,0_3_0_1,2021-04-12T10:00:49.479Z,,,,,,,,,,,,,,,,,,,,,,,,,,,false,1,,4969.428999894182,,response,,,,,,,,,1,,2,click #choice-2,,,,,S,I,O,,314989.07999973744,314988.2749998942,310002.444,310008.479999844,310018.846,315001.698,,,
Trial,flow.Sequence,0_3_0,2021-04-12T10:00:49.481Z,,,,,,,,,,,,,,,,,,,,,,,,,,,,,,9218.701999894227,,completion,,,,,,,,,1,,,,,,,,S,I,O,,314990.58499978855,314988.2749998942,305752.894,305756.9800000638,305769.573,315001.698,,,
Sounds,html.Screen,0_3_1_0,2021-04-12T10:00:53.726Z,,,,,,,,,,,,,,,,,,,,,,,,,,,,,,4249.263000000035,,timeout,,,,,,,,,3,,,,,,,,I,O,S,,319236.0749999061,319234.56,314984.965,314990.720000118,315001.698,319250.961,,,
Judgement,html.Screen,0_3_1_1,2021-04-12T10:01:04.340Z,,,,,,,,,,,,,,,,,,,,,,,,,,,true,3,,10597.689000058104,,response,,,,,,,,,3,,3,click #choice-3,,,,,I,O,S,,329849.5600000024,329848.6500000581,319234.56,319236.43000004813,319250.961,329867.312,,,
Trial,flow.Sequence,0_3_1,2021-04-12T10:01:04.340Z,,,,,,,,,,,,,,,,,,,,,,,,,,,,,,14846.95200005814,,completion,,,,,,,,,3,,,,,,,,I,O,S,,329849.8499998823,329848.6500000581,314984.965,314990.68500008434,315001.698,329867.312,,,
Sounds,html.Screen,0_3_2_0,2021-04-12T10:01:08.591Z,,,,,,,,,,,,,,,,,,,,,,,,,,,,,,4248.409000000043,,timeout,,,,,,,,,1,,,,,,,,S,O,I,,334100.49000009894,334099.094,329833.192,329850.0649998896,329867.312,334115.721,,,
Judgement,html.Screen,0_3_2_1,2021-04-12T10:01:09.660Z,,,,,,,,,,,,,,,,,,,,,,,,,,,true,1,,1053.5439996839268,,response,,,,,,,,,1,,1,click #choice-1,,,,,S,O,I,,335169.9399999343,335169.26499968395,334099.094,334100.80000013113,334115.721,335182.452,,,
Trial,flow.Sequence,0_3_2,2021-04-12T10:01:09.660Z,,,,,,,,,,,,,,,,,,,,,,,,,,,,,,5301.95299968397,,completion,,,,,,,,,1,,,,,,,,S,O,I,,335170.0999997556,335169.26499968395,329833.192,329850.02500005066,329867.312,335182.452,,,
Sounds,html.Screen,0_3_3_0,2021-04-12T10:01:13.908Z,,,,,,,,,,,,,,,,,,,,,,,,,,,,,,4249.255000000005,,timeout,,,,,,,,,2,,,,,,,,O,S,I,,339417.3849998042,339415.285,335165.86,335170.21000012755,335182.452,339431.707,,,
Judgement,html.Screen,0_3_3_1,2021-04-12T10:01:14.629Z,,,,,,,,,,,,,,,,,,,,,,,,,,,true,2,,706.5879999533645,,response,,,,,,,,,2,,2,click #choice-2,,,,,O,S,I,,340139.13000002503,340138.29499995336,339415.285,339417.6949998364,339431.707,340148.206,,,
Trial,flow.Sequence,0_3_3,2021-04-12T10:01:14.629Z,,,,,,,,,,,,,,,,,,,,,,,,,,,,,,4955.842999953369,,completion,,,,,,,,,2,,,,,,,,O,S,I,,340139.2950001173,340138.29499995336,335165.86,335170.1750000939,335182.452,340148.206,,,
Sounds,html.Screen,0_3_4_0,2021-04-12T10:01:18.873Z,,,,,,,,,,,,,,,,,,,,,,,,,,,,,,4249.5139999999665,,timeout,,,,,,,,,3,,,,,,,,O,I,S,,344382.9699996859,344381.11,340131.856,340139.39999975264,340148.206,344397.72,,,
Judgement,html.Screen,0_3_4_1,2021-04-12T10:01:20.079Z,,,,,,,,,,,,,,,,,,,,,,,,,,,true,3,,1190.459999962477,,response,,,,,,,,,3,,3,click #choice-3,,,,,O,I,S,,345589.18999973685,345588.17999996245,344381.11,344383.3999997005,344397.72,345597.53,,,
Trial,flow.Sequence,0_3_4,2021-04-12T10:01:20.079Z,,,,,,,,,,,,,,,,,,,,,,,,,,,,,,5439.9739999624435,,completion,,,,,,,,,3,,,,,,,,O,I,S,,345589.3399999477,345588.17999996245,340131.856,340139.36499971896,340148.206,345597.53,,,
Sounds,html.Screen,0_3_5_0,2021-04-12T10:01:24.322Z,,,,,,,,,,,,,,,,,,,,,,,,,,,,,,4249.679999999993,,timeout,,,,,,,,,2,,,,,,,,I,S,O,,349831.5050001256,349830.535,345581,345589.4450000487,345597.53,349847.21,,,
Judgement,html.Screen,0_3_5_1,2021-04-12T10:01:25.073Z,,,,,,,,,,,,,,,,,,,,,,,,,,,true,2,,734.4400000655442,,response,,,,,,,,,2,,2,click #choice-2,,,,,I,S,O,,350582.6999996789,350581.65000006557,349830.535,349831.7299997434,349847.21,350596.899,,,
Trial,flow.Sequence,0_3_5,2021-04-12T10:01:25.073Z,,,,,,,,,,,,,,,,,,,,,,,,,,,,,,4984.120000065537,,completion,,,,,,,,,2,,,,,,,,I,S,O,,350582.8399998136,350581.65000006557,345581,345589.41000001505,345597.53,350596.899,,,
Task,flow.Loop,0_3,2021-04-12T10:01:25.076Z,,,,,,,,,,,,,,,,,,,,,,,,,,,,,,44812.07700006559,,completion,,,0.8333333333333334,,,,,,,,,,,,,,,,,,350586.14999987185,350581.65000006557,305752.894,305756.9399997592,305769.573,350596.899,,,
Trap,html.Screen,0_4,2021-04-12T10:01:25.077Z,,,,,,,,,,,,,,,,,,,,,,,,,,,,,,NaN,,skipped,,,,,,,,,,,,,,,,,,,,,350587.154999841,350581.65000006557,,350586.94999990985,,350596.899,,,
Thanks,html.Screen,0_5,2021-04-12T10:01:32.459Z,,,,,,,,,,,,,,,,,,,,,,,,,,,,,,7371.350999918068,,response,,,,,,,,,,,continue,click button,,,,,,,,,357969.0399998799,357968.24999991804,350580.512,350587.24500006065,350596.899,363411.926,,,
Headphone screening,flow.Sequence,0,2021-04-12T10:01:32.459Z,,,,,,,,,,,,,,,,,,,,,,,,,,,,,,315698.3069999181,,completion,,,,,,,,,,,,,,,,,,,,,357969.26499996334,357968.24999991804,42235.514,42246.29499996081,42269.943,363411.926,,,
Instructions,html.Page,1_0,2021-04-12T10:02:21.861Z,,,,,,,,,,,,,,,,,,,,,,,,,,,,,,43958.698999981396,,form submission,,,,,,,,,,,,,,,,,,,,,407371.0400001146,407370.6249999814,363378.558,363410.4749998078,363411.926,407372.886,,,
Holding screen,html.Screen,1_1_0_0,2021-04-12T10:02:31.846Z,,,,,,,,,,,,,,,,,,,,,,,,,,,,,,9998.728000000003,,timeout,,,,,,,,,,,,,,,,,,,,,417356.6850000061,417355.268,407356.537,407371.24500004575,407372.886,417371.614,,,
screen,html.Screen,1_1_0_1_0,2021-04-12T10:02:32.769Z,,,,,,,,,,,,,,,,53,,,,,,,,,,,,,,904.2060000971542,,response,,,,99,,,,,,,Space,keypress(Space),,,,,,,,When -- ----- -- ------ - ------- --- ----------<br>------------- ------ ------ ---- ---- ------- ----- -- ----<br>-------- ------- -- ---------- --- - --- ----- ----- ----<br>---- --- --- ----- --- ---- ---- ------- ----- ---- -------<br>--- --- -- ----- -- --- ---- -- --- ---- -- ------ ------<br>--- ----- -- ----,418279.7650001012,418275.82000009716,417355.268,417357.1649999358,417371.614,418288.421,,0,When
screen,html.Screen,1_1_0_1_1,2021-04-12T10:02:33.398Z,,,,,,,,,,,,,,,,53,,,,,,,,,,,,,,620.0439998694928,,response,,,,99,,,,,,,Space,keypress(Space),,,,,,,,---- it ----- -- ------ - ------- --- ----------<br>------------- ------ ------ ---- ---- ------- ----- -- ----<br>-------- ------- -- ---------- --- - --- ----- ----- ----<br>---- --- --- ----- --- ---- ---- ------- ----- ---- -------<br>--- --- -- ----- -- --- ---- -- --- ---- -- ------ ------<br>--- ----- -- ----,418909.56000005826,418908.46499986947,418271.737,418279.8799998127,418288.421,418921.581,,1,it
screen,html.Screen,1_1_0_1_2,2021-04-12T10:02:33.997Z,,,,,,,,,,,,,,,,53,,,,,,,,,,,,,,585.5689999612514,,response,,,,99,,,,,,,Space,keypress(Space),,,,,,,,---- -- comes -- ------ - ------- --- ----------<br>------------- ------ ------ ---- ---- ------- ----- -- ----<br>-------- ------- -- ---------- --- - --- ----- ----- ----<br>---- --- --- ----- --- ---- ---- ------- ----- ---- -------<br>--- --- -- ----- -- --- ---- -- --- ---- -- ------ ------<br>--- ----- -- ----,419508.37499974295,419507.14999996126,418904.951,418909.8350000568,418921.581,419521.661,,2,comes
screen,html.Screen,1_1_0_1_3,2021-04-12T10:02:34.629Z,,,,,,,,,,,,,,,,53,,,,,,,,,,,,,,616.8739999181707,,response,,,,99,,,,,,,Space,keypress(Space),,,,,,,,---- -- ----- to ------ - ------- --- ----------<br>------------- ------ ------ ---- ---- ------- ----- -- ----<br>-------- ------- -- ---------- --- - --- ----- ----- ----<br>---- --- --- ----- --- ---- ---- ------- ----- ---- -------<br>--- --- -- ----- -- --- ---- -- --- ---- -- ------ ------<br>--- ----- -- ----,420139.7649999708,420138.5349999182,419504.931,419508.68499977514,419521.661,420154.871,,3,to
screen,html.Screen,1_1_0_1_4,2021-04-12T10:02:35.304Z,,,,,,,,,,,,,,,,53,,,,,,,,,,,,,,659.5189999559079,,response,,,,99,,,,,,,Space,keypress(Space),,,,,,,,---- -- ----- -- having - ------- --- ----------<br>------------- ------ ------ ---- ---- ------- ----- -- ----<br>-------- ------- -- ---------- --- - --- ----- ----- ----<br>---- --- --- ----- --- ---- ---- ------- ----- ---- -------<br>--- --- -- ----- -- --- ---- -- --- ---- -- ------ ------<br>--- ----- -- ----,420815.4949997552,420814.3899999559,420138.203,420140.0850000791,420154.871,420821.202,,4,having
screen,html.Screen,1_1_0_1_5,2021-04-12T10:02:35.780Z,,,,,,,,,,,,,,,,53,,,,,,,,,,,,,,468.69799974147463,,response,,,,99,,,,,,,Space,keypress(Space),,,,,,,,---- -- ----- -- ------ a ------- --- ----------<br>------------- ------ ------ ---- ---- ------- ----- -- ----<br>-------- ------- -- ---------- --- - --- ----- ----- ----<br>---- --- --- ----- --- ---- ---- ------- ----- ---- -------<br>--- --- -- ----- -- --- ---- -- --- ---- -- ------ ------<br>--- ----- -- ----,421291.26500012353,421289.89999974146,420804.784,420815.78500010073,420821.202,421304.754,,5,a
screen,html.Screen,1_1_0_1_6,2021-04-12T10:02:36.273Z,,,,,,,,,,,,,,,,53,,,,,,,,,,,,,,477.9060000262107,,response,,,,99,,,,,,,Space,keypress(Space),,,,,,,,---- -- ----- -- ------ - lasting --- ----------<br>------------- ------ ------ ---- ---- ------- ----- -- ----<br>-------- ------- -- ---------- --- - --- ----- ----- ----<br>---- --- --- ----- --- ---- ---- ------- ----- ---- -------<br>--- --- -- ----- -- --- ---- -- --- ---- -- ------ ------<br>--- ----- -- ----,421783.739999868,421782.6600000262,421287.848,421291.5499997325,421304.754,421787.767,,6,lasting
screen,html.Screen,1_1_0_1_7,2021-04-12T10:02:36.724Z,,,,,,,,,,,,,,,,53,,,,,,,,,,,,,,446.287999891676,,response,,,,99,,,,,,,Space,keypress(Space),,,,,,,,---- -- ----- -- ------ - ------- and ----------<br>------------- ------ ------ ---- ---- ------- ----- -- ----<br>-------- ------- -- ---------- --- - --- ----- ----- ----<br>---- --- --- ----- --- ---- ---- ------- ----- ---- -------<br>--- --- -- ----- -- --- ---- -- --- ---- -- ------ ------<br>--- ----- -- ----,422235.11999985203,422234.05499989167,421771.322,421784.0450000949,421787.767,422237.715,,7,and
screen,html.Screen,1_1_0_1_8,2021-04-12T10:02:37.358Z,,,,,,,,,,,,,,,,53,,,,,,,,,,,,,,630.3099997414392,,response,,,,99,,,,,,,Space,keypress(Space),,,,,,,,---- -- ----- -- ------ - ------- --- fulfilling<br>------------- ------ ------ ---- ---- ------- ----- -- ----<br>-------- ------- -- ---------- --- - --- ----- ----- ----<br>---- --- --- ----- --- ---- ---- ------- ----- ---- -------<br>--- --- -- ----- -- --- ---- -- --- ---- -- ------ ------<br>--- ----- -- ----,422869.28999982774,422868.02499974146,422221.249,422235.40000012144,422237.715,422895.658,,8,fulfilling
screen,html.Screen,1_1_0_1_9,2021-04-12T10:02:37.835Z,,,,,,,,,,,,,,,,53,,,,,,,,,,,,,,449.4669999925536,,response,,,,99,,,,,,,Space,keypress(Space),,,,,,,,"---- -- ----- -- ------ - ------- --- ----------<br>relationship, ------ ------ ---- ---- ------- ----- -- ----<br>-------- ------- -- ---------- --- - --- ----- ----- ----<br>---- --- --- ----- --- ---- ---- ------- ----- ---- -------<br>--- --- -- ----- -- --- ---- -- --- ---- -- ------ ------<br>--- ----- -- ----",423346.33499989286,423345.12499999255,422854.514,422869.6200000122,422895.658,423354.464,,9,"relationship,"
screen,html.Screen,1_1_0_1_10,2021-04-12T10:02:38.549Z,,,,,,,,,,,,,,,,53,,,,,,,,,,,,,,704.5259998158435,,response,,,,99,,,,,,,Space,keypress(Space),,,,,,,,---- -- ----- -- ------ - ------- --- ----------<br>------------- common ------ ---- ---- ------- ----- -- ----<br>-------- ------- -- ---------- --- - --- ----- ----- ----<br>---- --- --- ----- --- ---- ---- ------- ----- ---- -------<br>--- --- -- ----- -- --- ---- -- --- ---- -- ------ ------<br>--- ----- -- ----,424060.1200000383,424058.9899998158,423337.789,423346.65999980643,423354.464,424070.949,,10,common
screen,html.Screen,1_1_0_1_11,2021-04-12T10:02:39.157Z,,,,,,,,,,,,,,,,53,,,,,,,,,,,,,,596.2709997119382,,response,,,,99,,,,,,,Space,keypress(Space),,,,,,,,---- -- ----- -- ------ - ------- --- ----------<br>------------- ------ wisdom ---- ---- ------- ----- -- ----<br>-------- ------- -- ---------- --- - --- ----- ----- ----<br>---- --- --- ----- --- ---- ---- ------- ----- ---- -------<br>--- --- -- ----- -- --- ---- -- --- ---- -- ------ ------<br>--- ----- -- ----,424668.40999992564,424667.21999971196,424054.383,424060.3950000368,424070.949,424670.673,,11,wisdom
screen,html.Screen,1_1_0_1_12,2021-04-12T10:02:39.685Z,,,,,,,,,,,,,,,,53,,,,,,,,,,,,,,523.9569998089573,,response,,,,99,,,,,,,Space,keypress(Space),,,,,,,,---- -- ----- -- ------ - ------- --- ----------<br>------------- ------ ------ says ---- ------- ----- -- ----<br>-------- ------- -- ---------- --- - --- ----- ----- ----<br>---- --- --- ----- --- ---- ---- ------- ----- ---- -------<br>--- --- -- ----- -- --- ---- -- --- ---- -- ------ ------<br>--- ----- -- ----,425195.93499973416,425194.62999980897,424654.277,424668.75999979675,424670.673,425204.16,,12,says
screen,html.Screen,1_1_0_1_13,2021-04-12T10:02:40.175Z,,,,,,,,,,,,,,,,53,,,,,,,,,,,,,,480.80500002222834,,response,,,,99,,,,,,,Space,keypress(Space),,,,,,,,---- -- ----- -- ------ - ------- --- ----------<br>------------- ------ ------ ---- that ------- ----- -- ----<br>-------- ------- -- ---------- --- - --- ----- ----- ----<br>---- --- --- ----- --- ---- ---- ------- ----- ---- -------<br>--- --- -- ----- -- --- ---- -- --- ---- -- ------ ------<br>--- ----- -- ----,425686.1000000499,425684.9650000222,425187.548,425196.2699997239,425204.16,425704.188,,13,that
screen,html.Screen,1_1_0_1_14,2021-04-12T10:02:40.599Z,,,,,,,,,,,,,,,,53,,,,,,,,,,,,,,404.65699968958506,,response,,,,99,,,,,,,Space,keypress(Space),,,,,,,,---- -- ----- -- ------ - ------- --- ----------<br>------------- ------ ------ ---- ---- feeling ----- -- ----<br>-------- ------- -- ---------- --- - --- ----- ----- ----<br>---- --- --- ----- --- ---- ---- ------- ----- ---- -------<br>--- --- -- ----- -- --- ---- -- --- ---- -- ------ ------<br>--- ----- -- ----,426109.92999980226,426108.8449996896,425670.778,425686.3850001246,425704.188,426120.705,,14,feeling
screen,html.Screen,1_1_0_1_15,2021-04-12T10:02:41.076Z,,,,,,,,,,,,,,,,53,,,,,,,,,,,,,,465.73499975173036,,response,,,,99,,,,,,,Space,keypress(Space),,,,,,,,---- -- ----- -- ------ - ------- --- ----------<br>------------- ------ ------ ---- ---- ------- close -- ----<br>-------- ------- -- ---------- --- - --- ----- ----- ----<br>---- --- --- ----- --- ---- ---- ------- ----- ---- -------<br>--- --- -- ----- -- --- ---- -- --- ---- -- ------ ------<br>--- ----- -- ----,426587.5849998556,426586.43999975175,426104.061,426110.2049998008,426120.705,426604.112,,15,close
screen,html.Screen,1_1_0_1_16,2021-04-12T10:02:41.491Z,,,,,,,,,,,,,,,,53,,,,,,,,,,,,,,396.3929998871754,,response,,,,99,,,,,,,Space,keypress(Space),,,,,,,,---- -- ----- -- ------ - ------- --- ----------<br>------------- ------ ------ ---- ---- ------- ----- to ----<br>-------- ------- -- ---------- --- - --- ----- ----- ----<br>---- --- --- ----- --- ---- ---- ------- ----- ---- -------<br>--- --- -- ----- -- --- ---- -- --- ---- -- ------ ------<br>--- ----- -- ----,427001.6250000335,427000.5049998872,426587.285,426587.9150000401,426604.112,427003.781,,16,to
screen,html.Screen,1_1_0_1_17,2021-04-12T10:02:41.929Z,,,,,,,,,,,,,,,,53,,,,,,,,,,,,,,435.013999849034,,response,,,,99,,,,,,,Space,keypress(Space),,,,,,,,---- -- ----- -- ------ - ------- --- ----------<br>------------- ------ ------ ---- ---- ------- ----- -- your<br>-------- ------- -- ---------- --- - --- ----- ----- ----<br>---- --- --- ----- --- ---- ---- ------- ----- ---- -------<br>--- --- -- ----- -- --- ---- -- --- ---- -- ------ ------<br>--- ----- -- ----,427439.8949998431,427438.79499984905,426987.339,427001.9299997948,427003.781,427453.916,,17,your
screen,html.Screen,1_1_0_1_18,2021-04-12T10:02:42.390Z,,,,,,,,,,,,,,,,53,,,,,,,,,,,,,,446.26899968570797,,response,,,,99,,,,,,,Space,keypress(Space),,,,,,,,---- -- ----- -- ------ - ------- --- ----------<br>------------- ------ ------ ---- ---- ------- ----- -- ----<br>romantic ------- -- ---------- --- - --- ----- ----- ----<br>---- --- --- ----- --- ---- ---- ------- ----- ---- -------<br>--- --- -- ----- -- --- ---- -- --- ---- -- ------ ------<br>--- ----- -- ----,427901.33999986574,427900.18499968573,427437.249,427440.2350001037,427453.916,427903.671,,18,romantic
screen,html.Screen,1_1_0_1_19,2021-04-12T10:02:42.862Z,,,,,,,,,,,,,,,,53,,,,,,,,,,,,,,467.8389999681385,,response,,,,99,,,,,,,Space,keypress(Space),,,,,,,,---- -- ----- -- ------ - ------- --- ----------<br>------------- ------ ------ ---- ---- ------- ----- -- ----<br>-------- partner -- ---------- --- - --- ----- ----- ----<br>---- --- --- ----- --- ---- ---- ------- ----- ---- -------<br>--- --- -- ----- -- --- ---- -- --- ---- -- ------ ------<br>--- ----- -- ----,428372.6800000295,428371.5099999681,427887.246,427901.6399998218,427903.671,428387.142,,19,partner
screen,html.Screen,1_1_0_1_20,2021-04-12T10:02:43.326Z,,,,,,,,,,,,,,,,53,,,,,,,,,,,,,,448.18799968156964,,response,,,,99,,,,,,,Space,keypress(Space),,,,,,,,---- -- ----- -- ------ - ------- --- ----------<br>------------- ------ ------ ---- ---- ------- ----- -- ----<br>-------- ------- is ---------- --- - --- ----- ----- ----<br>---- --- --- ----- --- ---- ---- ------- ----- ---- -------<br>--- --- -- ----- -- --- ---- -- --- ---- -- ------ ------<br>--- ----- -- ----,428836.6849999875,428835.32999968156,428370.475,428373.0099997483,428387.142,428853.63,,20,is
screen,html.Screen,1_1_0_1_21,2021-04-12T10:02:43.889Z,,,,,,,,,,,,,,,,53,,,,,,,,,,,,,,545.5199999538017,,response,,,,99,,,,,,,Space,keypress(Space),,,,,,,,---- -- ----- -- ------ - ------- --- ----------<br>------------- ------ ------ ---- ---- ------- ----- -- ----<br>-------- ------- -- paramount. --- - --- ----- ----- ----<br>---- --- --- ----- --- ---- ---- ------- ----- ---- -------<br>--- --- -- ----- -- --- ---- -- --- ---- -- ------ ------<br>--- ----- -- ----,429400.260000024,429399.1499999538,428837.083,428837.00999990106,428853.63,429403.468,,21,paramount.
screen,html.Screen,1_1_0_1_22,2021-04-12T10:02:44.602Z,,,,,,,,,,,,,,,,53,,,,,,,,,,,,,,708.6169996805256,,response,,,,99,,,,,,,Space,keypress(Space),,,,,,,,---- -- ----- -- ------ - ------- --- ----------<br>------------- ------ ------ ---- ---- ------- ----- -- ----<br>-------- ------- -- ---------- But - --- ----- ----- ----<br>---- --- --- ----- --- ---- ---- ------- ----- ---- -------<br>--- --- -- ----- -- --- ---- -- --- ---- -- ------ ------<br>--- ----- -- ----,430113.214999903,430112.0849996805,429386.974,429400.58499993756,429403.468,430120.01,,22,But
screen,html.Screen,1_1_0_1_23,2021-04-12T10:02:45.139Z,,,,,,,,,,,,,,,,53,,,,,,,,,,,,,,529.0050000899937,,response,,,,99,,,,,,,Space,keypress(Space),,,,,,,,---- -- ----- -- ------ - ------- --- ----------<br>------------- ------ ------ ---- ---- ------- ----- -- ----<br>-------- ------- -- ---------- --- a --- ----- ----- ----<br>---- --- --- ----- --- ---- ---- ------- ----- ---- -------<br>--- --- -- ----- -- --- ---- -- --- ---- -- ------ ------<br>--- ----- -- ----,430650.1500001177,430649.01500009,430103.589,430113.4899999015,430120.01,430653.329,,23,a
screen,html.Screen,1_1_0_1_24,2021-04-12T10:02:45.643Z,,,,,,,,,,,,,,,,53,,,,,,,,,,,,,,499.3810000530211,,response,,,,99,,,,,,,Space,keypress(Space),,,,,,,,---- -- ----- -- ------ - ------- --- ----------<br>------------- ------ ------ ---- ---- ------- ----- -- ----<br>-------- ------- -- ---------- --- - new ----- ----- ----<br>---- --- --- ----- --- ---- ---- ------- ----- ---- -------<br>--- --- -- ----- -- --- ---- -- --- ---- -- ------ ------<br>--- ----- -- ----,431153.73499970883,431152.71000005305,430636.851,430650.45999968424,430653.329,431170.161,,24,new
screen,html.Screen,1_1_0_1_25,2021-04-12T10:02:46.087Z,,,,,,,,,,,,,,,,53,,,,,,,,,,,,,,427.2690000816365,,response,,,,99,,,,,,,Space,keypress(Space),,,,,,,,---- -- ----- -- ------ - ------- --- ----------<br>------------- ------ ------ ---- ---- ------- ----- -- ----<br>-------- ------- -- ---------- --- - --- study ----- ----<br>---- --- --- ----- --- ---- ---- ------- ----- ---- -------<br>--- --- -- ----- -- --- ---- -- --- ---- -- ------ ------<br>--- ----- -- ----,431598.479999695,431597.43000008166,431153.447,431154.00999970734,431170.161,431603.179,,25,study
screen,html.Screen,1_1_0_1_26,2021-04-12T10:02:46.545Z,,,,,,,,,,,,,,,,53,,,,,,,,,,,,,,452.1409998103045,,response,,,,99,,,,,,,Space,keypress(Space),,,,,,,,---- -- ----- -- ------ - ------- --- ----------<br>------------- ------ ------ ---- ---- ------- ----- -- ----<br>-------- ------- -- ---------- --- - --- ----- finds ----<br>---- --- --- ----- --- ---- ---- ------- ----- ---- -------<br>--- --- -- ----- -- --- ---- -- --- ---- -- ------ ------<br>--- ----- -- ----,432056.4500000328,432055.3199998103,431586.72,431598.745000083,431603.179,432069.992,,26,finds
screen,html.Screen,1_1_0_1_27,2021-04-12T10:02:46.983Z,,,,,,,,,,,,,,,,53,,,,,,,,,,,,,,422.897999877634,,response,,,,99,,,,,,,Space,keypress(Space),,,,,,,,---- -- ----- -- ------ - ------- --- ----------<br>------------- ------ ------ ---- ---- ------- ----- -- ----<br>-------- ------- -- ---------- --- - --- ----- ----- that<br>---- --- --- ----- --- ---- ---- ------- ----- ---- -------<br>--- --- -- ----- -- --- ---- -- --- ---- -- ------ ------<br>--- ----- -- ----,432494.08000009134,432492.88999987766,432053.306,432056.7999999039,432069.992,432503.075,,27,that
screen,html.Screen,1_1_0_1_28,2021-04-12T10:02:47.411Z,,,,,,,,,,,,,,,,53,,,,,,,,,,,,,,417.44999996497063,,response,,,,99,,,,,,,Space,keypress(Space),,,,,,,,---- -- ----- -- ------ - ------- --- ----------<br>------------- ------ ------ ---- ---- ------- ----- -- ----<br>-------- ------- -- ---------- --- - --- ----- ----- ----<br>it's --- --- ----- --- ---- ---- ------- ----- ---- -------<br>--- --- -- ----- -- --- ---- -- --- ---- -- ------ ------<br>--- ----- -- ----,432921.7050001025,432920.524999965,432486.588,432494.3849998526,432503.075,432936.336,,28,it's
screen,html.Screen,1_1_0_1_29,2021-04-12T10:02:47.839Z,,,,,,,,,,,,,,,,53,,,,,,,,,,,,,,412.38400012545753,,response,,,,99,,,,,,,Space,keypress(Space),,,,,,,,---- -- ----- -- ------ - ------- --- ----------<br>------------- ------ ------ ---- ---- ------- ----- -- ----<br>-------- ------- -- ---------- --- - --- ----- ----- ----<br>---- not --- ----- --- ---- ---- ------- ----- ---- -------<br>--- --- -- ----- -- --- ---- -- --- ---- -- ------ ------<br>--- ----- -- ----,433350.25499993935,433348.72000012547,432919.932,432922.04000009224,432936.336,433352.974,,29,not
screen,html.Screen,1_1_0_1_30,2021-04-12T10:02:48.298Z,,,,,,,,,,,,,,,,53,,,,,,,,,,,,,,454.1659996988601,,response,,,,99,,,,,,,Space,keypress(Space),,,,,,,,---- -- ----- -- ------ - ------- --- ----------<br>------------- ------ ------ ---- ---- ------- ----- -- ----<br>-------- ------- -- ---------- --- - --- ----- ----- ----<br>---- --- how ----- --- ---- ---- ------- ----- ---- -------<br>--- --- -- ----- -- --- ---- -- --- ---- -- ------ ------<br>--- ----- -- ----,433808.7349999696,433807.13999969885,433336.357,433350.6000000052,433352.974,433819.525,,30,how
screen,html.Screen,1_1_0_1_31,2021-04-12T10:02:48.726Z,,,,,,,,,,,,,,,,53,,,,,,,,,,,,,,416.55999998224434,,response,,,,99,,,,,,,Space,keypress(Space),,,,,,,,---- -- ----- -- ------ - ------- --- ----------<br>------------- ------ ------ ---- ---- ------- ----- -- ----<br>-------- ------- -- ---------- --- - --- ----- ----- ----<br>---- --- --- close --- ---- ---- ------- ----- ---- -------<br>--- --- -- ----- -- --- ---- -- --- ---- -- ------ ------<br>--- ----- -- ----,434237.1450001374,434236.08499998227,433803.117,433809.0599998832,433819.525,434253.091,,31,close
screen,html.Screen,1_1_0_1_32,2021-04-12T10:02:49.192Z,,,,,,,,,,,,,,,,53,,,,,,,,,,,,,,449.2790000718087,,response,,,,99,,,,,,,Space,keypress(Space),,,,,,,,---- -- ----- -- ------ - ------- --- ----------<br>------------- ------ ------ ---- ---- ------- ----- -- ----<br>-------- ------- -- ---------- --- - --- ----- ----- ----<br>---- --- --- ----- you ---- ---- ------- ----- ---- -------<br>--- --- -- ----- -- --- ---- -- --- ---- -- ------ ------<br>--- ----- -- ----,434703.4599999897,434702.3700000718,434236.367,434237.40499978885,434253.091,434719.672,,32,you
screen,html.Screen,1_1_0_1_33,2021-04-12T10:02:49.674Z,,,,,,,,,,,,,,,,53,,,,,,,,,,,,,,464.43299999297597,,response,,,,99,,,,,,,Space,keypress(Space),,,,,,,,---- -- ----- -- ------ - ------- --- ----------<br>------------- ------ ------ ---- ---- ------- ----- -- ----<br>-------- ------- -- ---------- --- - --- ----- ----- ----<br>---- --- --- ----- --- feel ---- ------- ----- ---- -------<br>--- --- -- ----- -- --- ---- -- --- ---- -- ------ ------<br>--- ----- -- ----,435185.3950000368,435184.104999993,434702.964,434703.7249999121,434719.672,435203.038,,33,feel
screen,html.Screen,1_1_0_1_34,2021-04-12T10:02:50.116Z,,,,,,,,,,,,,,,,53,,,,,,,,,,,,,,422.91199978318764,,response,,,,99,,,,,,,Space,keypress(Space),,,,,,,,---- -- ----- -- ------ - ------- --- ----------<br>------------- ------ ------ ---- ---- ------- ----- -- ----<br>-------- ------- -- ---------- --- - --- ----- ----- ----<br>---- --- --- ----- --- ---- that ------- ----- ---- -------<br>--- --- -- ----- -- --- ---- -- --- ---- -- ------ ------<br>--- ----- -- ----,435627.16999975964,435625.9499997832,435186.239,435185.7199999504,435203.038,435636.033,,34,that
screen,html.Screen,1_1_0_1_35,2021-04-12T10:02:50.550Z,,,,,,,,,,,,,,,,53,,,,,,,,,,,,,,424.1169998010737,,response,,,,99,,,,,,,Space,keypress(Space),,,,,,,,---- -- ----- -- ------ - ------- --- ----------<br>------------- ------ ------ ---- ---- ------- ----- -- ----<br>-------- ------- -- ---------- --- - --- ----- ----- ----<br>---- --- --- ----- --- ---- ---- matters ----- ---- -------<br>--- --- -- ----- -- --- ---- -- --- ---- -- ------ ------<br>--- ----- -- ----,436061.28000002354,436060.14999980107,435619.56,435627.59999977425,435636.033,436069.359,,35,matters
screen,html.Screen,1_1_0_1_36,2021-04-12T10:02:51.224Z,,,,,,,,,,,,,,,,53,,,,,,,,,,,,,,664.5610000278684,,response,,,,99,,,,,,,Space,keypress(Space),,,,,,,,"---- -- ----- -- ------ - ------- --- ----------<br>------------- ------ ------ ---- ---- ------- ----- -- ----<br>-------- ------- -- ---------- --- - --- ----- ----- ----<br>---- --- --- ----- --- ---- ---- ------- most, ---- -------<br>--- --- -- ----- -- --- ---- -- --- ---- -- ------ ------<br>--- ----- -- ----",436735.0550000556,436733.92000002787,436052.905,436061.5749997087,436069.359,436769.424,,36,"most,"
screen,html.Screen,1_1_0_1_37,2021-04-12T10:02:51.672Z,,,,,,,,,,,,,,,,53,,,,,,,,,,,,,,412.26599999761675,,response,,,,99,,,,,,,Space,keypress(Space),,,,,,,,---- -- ----- -- ------ - ------- --- ----------<br>------------- ------ ------ ---- ---- ------- ----- -- ----<br>-------- ------- -- ---------- --- - --- ----- ----- ----<br>---- --- --- ----- --- ---- ---- ------- ----- it's -------<br>--- --- -- ----- -- --- ---- -- --- ---- -- ------ ------<br>--- ----- -- ----,437182.7799999155,437181.6899999976,436752.828,436735.3550000116,436769.424,437185.814,,37,it's
screen,html.Screen,1_1_0_1_38,2021-04-12T10:02:52.130Z,,,,,,,,,,,,,,,,53,,,,,,,,,,,,,,453.6159999810625,,response,,,,99,,,,,,,Space,keypress(Space),,,,,,,,---- -- ----- -- ------ - ------- --- ----------<br>------------- ------ ------ ---- ---- ------- ----- -- ----<br>-------- ------- -- ---------- --- - --- ----- ----- ----<br>---- --- --- ----- --- ---- ---- ------- ----- ---- whether<br>--- --- -- ----- -- --- ---- -- --- ---- -- ------ ------<br>--- ----- -- ----,437640.6799997203,437639.4299999811,437169.348,437183.04000003263,437185.814,437652.617,,38,whether
screen,html.Screen,1_1_0_1_39,2021-04-12T10:02:52.720Z,,,,,,,,,,,,,,,,53,,,,,,,,,,,,,,577.1579998978996,,response,,,,99,,,,,,,Space,keypress(Space),,,,,,,,---- -- ----- -- ------ - ------- --- ----------<br>------------- ------ ------ ---- ---- ------- ----- -- ----<br>-------- ------- -- ---------- --- - --- ----- ----- ----<br>---- --- --- ----- --- ---- ---- ------- ----- ---- -------<br>you --- -- ----- -- --- ---- -- --- ---- -- ------ ------<br>--- ----- -- ----,438231.0750000179,438229.7749998979,437635.919,437640.98499994725,437652.617,438235.643,,39,you
screen,html.Screen,1_1_0_1_40,2021-04-12T10:02:53.354Z,,,,,,,,,,,,,,,,53,,,,,,,,,,,,,,627.892000011343,,response,,,,99,,,,,,,Space,keypress(Space),,,,,,,,---- -- ----- -- ------ - ------- --- ----------<br>------------- ------ ------ ---- ---- ------- ----- -- ----<br>-------- ------- -- ---------- --- - --- ----- ----- ----<br>---- --- --- ----- --- ---- ---- ------- ----- ---- -------<br>--- are -- ----- -- --- ---- -- --- ---- -- ------ ------<br>--- ----- -- ----,438864.9149998091,438863.5350000113,438219.14,438231.37999977916,438235.643,438868.839,,40,are
screen,html.Screen,1_1_0_1_41,2021-04-12T10:02:53.824Z,,,,,,,,,,,,,,,,53,,,,,,,,,,,,,,465.67099995695753,,response,,,,99,,,,,,,Space,keypress(Space),,,,,,,,---- -- ----- -- ------ - ------- --- ----------<br>------------- ------ ------ ---- ---- ------- ----- -- ----<br>-------- ------- -- ---------- --- - --- ----- ----- ----<br>---- --- --- ----- --- ---- ---- ------- ----- ---- -------<br>--- --- as ----- -- --- ---- -- --- ---- -- ------ ------<br>--- ----- -- ----,439335.5299998075,439334.50999995694,438852.395,438865.3400000185,438868.839,439352.421,,41,as
screen,html.Screen,1_1_0_1_42,2021-04-12T10:02:54.257Z,,,,,,,,,,,,,,,,53,,,,,,,,,,,,,,413.83400014054496,,response,,,,99,,,,,,,Space,keypress(Space),,,,,,,,---- -- ----- -- ------ - ------- --- ----------<br>------------- ------ ------ ---- ---- ------- ----- -- ----<br>-------- ------- -- ---------- --- - --- ----- ----- ----<br>---- --- --- ----- --- ---- ---- ------- ----- ---- -------<br>--- --- -- close -- --- ---- -- --- ---- -- ------ ------<br>--- ----- -- ----,439768.1399998255,439766.2550001405,439335.704,439335.78500011936,439352.421,439785.539,,42,close
screen,html.Screen,1_1_0_1_43,2021-04-12T10:02:54.713Z,,,,,,,,,,,,,,,,53,,,,,,,,,,,,,,437.96099984727334,,response,,,,99,,,,,,,Space,keypress(Space),,,,,,,,---- -- ----- -- ------ - ------- --- ----------<br>------------- ------ ------ ---- ---- ------- ----- -- ----<br>-------- ------- -- ---------- --- - --- ----- ----- ----<br>---- --- --- ----- --- ---- ---- ------- ----- ---- -------<br>--- --- -- ----- as --- ---- -- --- ---- -- ------ ------<br>--- ----- -- ----,440224.4500000961,440223.49999984726,439769.007,439768.3950001374,439785.539,440235.582,,43,as
screen,html.Screen,1_1_0_1_44,2021-04-12T10:02:55.413Z,,,,,,,,,,,,,,,,53,,,,,,,,,,,,,,687.2179998256615,,response,,,,99,,,,,,,Space,keypress(Space),,,,,,,,---- -- ----- -- ------ - ------- --- ----------<br>------------- ------ ------ ---- ---- ------- ----- -- ----<br>-------- ------- -- ---------- --- - --- ----- ----- ----<br>---- --- --- ----- --- ---- ---- ------- ----- ---- -------<br>--- --- -- ----- -- you ---- -- --- ---- -- ------ ------<br>--- ----- -- ----,440923.7500000745,440922.79999982566,440218.943,440224.7199998237,440235.582,440935.512,,44,you
screen,html.Screen,1_1_0_1_45,2021-04-12T10:02:55.789Z,,,,,,,,,,,,,,,,53,,,,,,,,,,,,,,363.763000114006,,response,,,,99,,,,,,,Space,keypress(Space),,,,,,,,---- -- ----- -- ------ - ------- --- ----------<br>------------- ------ ------ ---- ---- ------- ----- -- ----<br>-------- ------- -- ---------- --- - --- ----- ----- ----<br>---- --- --- ----- --- ---- ---- ------- ----- ---- -------<br>--- --- -- ----- -- --- want -- --- ---- -- ------ ------<br>--- ----- -- ----,441300.3249997273,441299.275000114,440918.846,440923.99000003934,440935.512,441325.019,,45,want
screen,html.Screen,1_1_0_1_46,2021-04-12T10:02:56.201Z,,,,,,,,,,,,,,,,53,,,,,,,,,,,,,,386.15100002416875,,response,,,,99,,,,,,,Space,keypress(Space),,,,,,,,---- -- ----- -- ------ - ------- --- ----------<br>------------- ------ ------ ---- ---- ------- ----- -- ----<br>-------- ------- -- ---------- --- - --- ----- ----- ----<br>---- --- --- ----- --- ---- ---- ------- ----- ---- -------<br>--- --- -- ----- -- --- ---- to --- ---- -- ------ ------<br>--- ----- -- ----,441712.3750001192,441711.17000002414,441285.5,441300.56499969214,441325.019,441718.54,,46,to
screen,html.Screen,1_1_0_1_47,2021-04-12T10:02:56.592Z,,,,,,,,,,,,,,,,53,,,,,,,,,,,,,,383.1049998133094,,response,,,,99,,,,,,,Space,keypress(Space),,,,,,,,"---- -- ----- -- ------ - ------- --- ----------<br>------------- ------ ------ ---- ---- ------- ----- -- ----<br>-------- ------- -- ---------- --- - --- ----- ----- ----<br>---- --- --- ----- --- ---- ---- ------- ----- ---- -------<br>--- --- -- ----- -- --- ---- -- be, ---- -- ------ ------<br>--- ----- -- ----",442102.71500004455,442101.6449998133,441702.091,441712.6349997707,441718.54,442118.735,,47,"be,"
screen,html.Screen,1_1_0_1_48,2021-04-12T10:02:57.086Z,,,,,,,,,,,,,,,,53,,,,,,,,,,,,,,477.13000003935304,,response,,,,99,,,,,,,Space,keypress(Space),,,,,,,,---- -- ----- -- ------ - ------- --- ----------<br>------------- ------ ------ ---- ---- ------- ----- -- ----<br>-------- ------- -- ---------- --- - --- ----- ----- ----<br>---- --- --- ----- --- ---- ---- ------- ----- ---- -------<br>--- --- -- ----- -- --- ---- -- --- even -- ------ ------<br>--- ----- -- ----,442597.0049998723,442595.86500003934,442102.036,442102.96500008553,442118.735,442601.8,,48,even
screen,html.Screen,1_1_0_1_49,2021-04-12T10:02:57.490Z,,,,,,,,,,,,,,,,53,,,,,,,,,,,,,,398.0550000600633,,response,,,,99,,,,,,,Space,keypress(Space),,,,,,,,---- -- ----- -- ------ - ------- --- ----------<br>------------- ------ ------ ---- ---- ------- ----- -- ----<br>-------- ------- -- ---------- --- - --- ----- ----- ----<br>---- --- --- ----- --- ---- ---- ------- ----- ---- -------<br>--- --- -- ----- -- --- ---- -- --- ---- if ------ ------<br>--- ----- -- ----,443001.15999998525,442999.85500006005,442585.3,442597.2799998708,442601.8,443018.623,,49,if
screen,html.Screen,1_1_0_1_50,2021-04-12T10:02:57.880Z,,,,,,,,,,,,,,,,53,,,,,,,,,,,,,,371.26199995318893,,response,,,,99,,,,,,,Space,keypress(Space),,,,,,,,---- -- ----- -- ------ - ------- --- ----------<br>------------- ------ ------ ---- ---- ------- ----- -- ----<br>-------- ------- -- ---------- --- - --- ----- ----- ----<br>---- --- --- ----- --- ---- ---- ------- ----- ---- -------<br>--- --- -- ----- -- --- ---- -- --- ---- -- that's ------<br>--- ----- -- ----,443390.9499999136,443389.8849999532,443001.931,443001.48999970406,443018.623,443401.851,,50,that's
screen,html.Screen,1_1_0_1_51,2021-04-12T10:02:58.373Z,,,,,,,,,,,,,,,,53,,,,,,,,,,,,,,481.30399993038736,,response,,,,99,,,,,,,Space,keypress(Space),,,,,,,,---- -- ----- -- ------ - ------- --- ----------<br>------------- ------ ------ ---- ---- ------- ----- -- ----<br>-------- ------- -- ---------- --- - --- ----- ----- ----<br>---- --- --- ----- --- ---- ---- ------- ----- ---- -------<br>--- --- -- ----- -- --- ---- -- --- ---- -- ------ really<br>--- ----- -- ----,443884.23499977216,443883.1549999304,443385.23,443391.27499982715,443401.851,443901.581,,51,really
screen,html.Screen,1_1_0_1_52,2021-04-12T10:02:58.746Z,,,,,,,,,,,,,,,,53,,,,,,,,,,,,,,354.1739998164121,,response,,,,99,,,,,,,Space,keypress(Space),,,,,,,,---- -- ----- -- ------ - ------- --- ----------<br>------------- ------ ------ ---- ---- ------- ----- -- ----<br>-------- ------- -- ---------- --- - --- ----- ----- ----<br>---- --- --- ----- --- ---- ---- ------- ----- ---- -------<br>--- --- -- ----- -- --- ---- -- --- ---- -- ------ ------<br>not ----- -- ----,444256.7099998705,444255.7549998164,443885.147,443884.7499997355,443901.581,444268.405,,52,not
screen,html.Screen,1_1_0_1_53,2021-04-12T10:02:59.165Z,,,,,,,,,,,,,,,,53,,,,,,,,,,,,,,406.90499984589405,,response,,,,99,,,,,,,Space,keypress(Space),,,,,,,,---- -- ----- -- ------ - ------- --- ----------<br>------------- ------ ------ ---- ---- ------- ----- -- ----<br>-------- ------- -- ---------- --- - --- ----- ----- ----<br>---- --- --- ----- --- ---- ---- ------- ----- ---- -------<br>--- --- -- ----- -- --- ---- -- --- ---- -- ------ ------<br>--- close -- ----,444676.4050000347,444675.3099998459,444251.726,444256.9900001399,444268.405,444684.965,,53,close
screen,html.Screen,1_1_0_1_54,2021-04-12T10:02:59.620Z,,,,,,,,,,,,,,,,53,,,,,,,,,,,,,,445.46999970806064,,response,,,,99,,,,,,,Space,keypress(Space),,,,,,,,---- -- ----- -- ------ - ------- --- ----------<br>------------- ------ ------ ---- ---- ------- ----- -- ----<br>-------- ------- -- ---------- --- - --- ----- ----- ----<br>---- --- --- ----- --- ---- ---- ------- ----- ---- -------<br>--- --- -- ----- -- --- ---- -- --- ---- -- ------ ------<br>--- ----- at ----,445131.539999973,445130.4349997081,444668.351,444676.68000003323,444684.965,445134.749,,54,at
screen,html.Screen,1_1_0_1_55,2021-04-12T10:03:00.614Z,,,,,,,,,,,,,,,,53,,,,,,,,,,,,,,988.9909997189534,,response,,,,99,,,,,,,Space,keypress(Space),,,,,,,,---- -- ----- -- ------ - ------- --- ----------<br>------------- ------ ------ ---- ---- ------- ----- -- ----<br>-------- ------- -- ---------- --- - --- ----- ----- ----<br>---- --- --- ----- --- ---- ---- ------- ----- ---- -------<br>--- --- -- ----- -- --- ---- -- --- ---- -- ------ ------<br>--- ----- -- all.,446124.80999995023,446123.73999971896,445118.308,445131.7849997431,445134.749,446134.66,,55,all.
Item 99,flow.Loop,1_1_0_1,2021-04-12T10:03:00.614Z,,,,,,,,,,,,,,,,,,,,,,,,,,,,,,28752.125999718963,,completion,,,,,A,,,,,,,,,,,silence,,,,,446125.32000010833,446123.73999971896,417355.268,417357.0349998772,417371.614,446134.66,,,
Question 1,html.Screen,1_1_0_2,2021-04-12T10:03:09.928Z,,,,,,,,,,,,,,,,,,,,,,,,,,,true,FALSE,,9303.795000054117,,response,,,,99,A,,,,,,FALSE,click #choice-2,,,,silence,,,,,455439.44500014186,455438.4550000541,446118.127,446125.58999983594,446134.66,455450.058,,,
Question 2,html.Screen,1_1_0_3,2021-04-12T10:03:17.559Z,,,,,,,,,,,,,,,,,,,,,,,,,,,true,TRUE,,7618.692000093113,,response,,,,99,A,,,,,,TRUE,click #choice-1,,,,silence,,,,,463069.6749999188,463068.75000009313,455433.681,455439.5999996923,455450.058,463082.399,,,
Item 99,flow.Sequence,1_1_0,2021-04-12T10:03:17.559Z,,,,,,,,,,,,,,,,,,,,,,,,,,,,,,55695.864000093134,,completion,,,,,,,,,,,,,,,,,,,,,463069.81999985874,463068.75000009313,407356.537,407371.2149998173,407372.886,463082.399,,,
Holding screen,html.Screen,1_1_1_0,2021-04-12T10:03:27.555Z,,,,,,,,,,,,,,,,,,,,,,,,,,,,,,9998.794000000053,,timeout,,,,,,,,,,,,,,,,,,,,,473065.95999980345,473064.761,463066.039,463069.9149998836,463082.399,473081.193,,,
screen,html.Screen,1_1_1_1_0,2021-04-12T10:03:28.206Z,,,,,,,,,,,,,,,,54,,,,,,,,,,,,,,635.2219996824278,,response,,,,100,,,,,,,Space,keypress(Space),,,,,,,,At --- ---- --- ------ ----- ------- ---- -- --- ------- --<br>------- ---------- ------ -- ----- -- ----- -- ---- ------<br>--- ----- --- --- ------ -------- ----- --- ------ ----- --<br>----- ----- ---------- --- --- ------ ------ ---- -- ------<br>------- --- ------ ----- --- ---- ------- -- ---- --- --<br>------- ------,473717.43499999866,473716.41499968246,473064.761,473066.31499994546,473081.193,473731.295,,0,At
screen,html.Screen,1_1_1_1_1,2021-04-12T10:03:28.621Z,,,,,,,,,,,,,,,,54,,,,,,,,,,,,,,399.459999816434,,response,,,,100,,,,,,,Space,keypress(Space),,,,,,,,-- the ---- --- ------ ----- ------- ---- -- --- ------- --<br>------- ---------- ------ -- ----- -- ----- -- ---- ------<br>--- ----- --- --- ------ -------- ----- --- ------ ----- --<br>----- ----- ---------- --- --- ------ ------ ---- -- ------<br>------- --- ------ ----- --- ---- ------- -- ---- --- --<br>------- ------,474131.8449997343,474130.7549998164,473714.627,473717.6899998449,473731.295,474147.998,,1,the
screen,html.Screen,1_1_1_1_2,2021-04-12T10:03:29.147Z,,,,,,,,,,,,,,,,54,,,,,,,,,,,,,,508.6519997861469,,response,,,,100,,,,,,,Space,keypress(Space),,,,,,,,-- --- time --- ------ ----- ------- ---- -- --- ------- --<br>------- ---------- ------ -- ----- -- ----- -- ---- ------<br>--- ----- --- --- ------ -------- ----- --- ------ ----- --<br>----- ----- ---------- --- --- ------ ------ ---- -- ------<br>------- --- ------ ----- --- ---- ------- -- ---- --- --<br>------- ------,474657.7349998988,474656.64999978617,474131.186,474132.1149999276,474147.998,474664.245,,2,time
screen,html.Screen,1_1_1_1_3,2021-04-12T10:03:29.596Z,,,,,,,,,,,,,,,,54,,,,,,,,,,,,,,442.3399997103261,,response,,,,100,,,,,,,Space,keypress(Space),,,,,,,,-- --- ---- the ------ ----- ------- ---- -- --- ------- --<br>------- ---------- ------ -- ----- -- ----- -- ---- ------<br>--- ----- --- --- ------ -------- ----- --- ------ ----- --<br>----- ----- ---------- --- --- ------ ------ ---- -- ------<br>------- --- ------ ----- --- ---- ------- -- ---- --- --<br>------- ------,475107.0349998772,475106.5849997103,474647.77,474657.98999974504,474664.245,475114.392,,3,the
screen,html.Screen,1_1_1_1_4,2021-04-12T10:03:30.044Z,,,,,,,,,,,,,,,,54,,,,,,,,,,,,,,439.8729999260977,,response,,,,100,,,,,,,Space,keypress(Space),,,,,,,,-- --- ---- --- French ----- ------- ---- -- --- ------- --<br>------- ---------- ------ -- ----- -- ----- -- ---- ------<br>--- ----- --- --- ------ -------- ----- --- ------ ----- --<br>----- ----- ---------- --- --- ------ ------ ---- -- ------<br>------- --- ------ ----- --- ---- ------- -- ---- --- --<br>------- ------,475555.4149998352,475554.2649999261,475097.637,475107.12500009686,475114.392,475564.358,,4,French
screen,html.Screen,1_1_1_1_5,2021-04-12T10:03:30.478Z,,,,,,,,,,,,,,,,54,,,,,,,,,,,,,,423.42200008314103,,response,,,,100,,,,,,,Space,keypress(Space),,,,,,,,-- --- ---- --- ------ crown ------- ---- -- --- ------- --<br>------- ---------- ------ -- ----- -- ----- -- ---- ------<br>--- ----- --- --- ------ -------- ----- --- ------ ----- --<br>----- ----- ---------- --- --- ------ ------ ---- -- ------<br>------- --- ------ ----- --- ---- ------- -- ---- --- --<br>------- ------,475988.9750001021,475987.78000008315,475547.72,475555.6950001046,475564.358,475997.509,,5,crown
screen,html.Screen,1_1_1_1_6,2021-04-12T10:03:30.896Z,,,,,,,,,,,,,,,,54,,,,,,,,,,,,,,408.4660000014701,,response,,,,100,,,,,,,Space,keypress(Space),,,,,,,,-- --- ---- --- ------ ----- secured ---- -- --- ------- --<br>------- ---------- ------ -- ----- -- ----- -- ---- ------<br>--- ----- --- --- ------ -------- ----- --- ------ ----- --<br>----- ----- ---------- --- --- ------ ------ ---- -- ------<br>------- --- ------ ----- --- ---- ------- -- ---- --- --<br>------- ------,476406.9699998945,476405.9750000015,475981.005,475989.2249996774,475997.509,476414.086,,6,secured
screen,html.Screen,1_1_1_1_7,2021-04-12T10:03:31.388Z,,,,,,,,,,,,,,,,54,,,,,,,,,,,,,,483.94900007836986,,response,,,,100,,,,,,,Space,keypress(Space),,,,,,,,-- --- ---- --- ------ ----- ------- much -- --- ------- --<br>------- ---------- ------ -- ----- -- ----- -- ---- ------<br>--- ----- --- --- ------ -------- ----- --- ------ ----- --<br>----- ----- ---------- --- --- ------ ------ ---- -- ------<br>------- --- ------ ----- --- ---- ------- -- ---- --- --<br>------- ------,476899.1249999963,476898.0350000784,476397.614,476407.2249997407,476414.086,476914.304,,7,much
screen,html.Screen,1_1_1_1_8,2021-04-12T10:03:31.825Z,,,,,,,,,,,,,,,,54,,,,,,,,,,,,,,420.7509996830486,,response,,,,100,,,,,,,Space,keypress(Space),,,,,,,,-- --- ---- --- ------ ----- ------- ---- of --- ------- --<br>------- ---------- ------ -- ----- -- ----- -- ---- ------<br>--- ----- --- --- ------ -------- ----- --- ------ ----- --<br>----- ----- ---------- --- --- ------ ------ ---- -- ------<br>------- --- ------ ----- --- ---- ------- -- ---- --- --<br>------- ------,477336.159999948,477335.05499968305,476897.546,476899.4049998,476914.304,477347.42,,8,of
screen,html.Screen,1_1_1_1_9,2021-04-12T10:03:32.145Z,,,,,,,,,,,,,,,,54,,,,,,,,,,,,,,307.4599998127087,,response,,,,100,,,,,,,Space,keypress(Space),,,,,,,,-- --- ---- --- ------ ----- ------- ---- -- its ------- --<br>------- ---------- ------ -- ----- -- ----- -- ---- ------<br>--- ----- --- --- ------ -------- ----- --- ------ ----- --<br>----- ----- ---------- --- --- ------ ------ ---- -- ------<br>------- --- ------ ----- --- ---- ------- -- ---- --- --<br>------- ------,477655.894999858,477654.8799998127,477330.848,477336.4200000651,477347.42,477663.962,,9,its
screen,html.Screen,1_1_1_1_10,2021-04-12T10:03:32.458Z,,,,,,,,,,,,,,,,54,,,,,,,,,,,,,,303.6280000147526,,response,,,,100,,,,,,,Space,keypress(Space),,,,,,,,-- --- ---- --- ------ ----- ------- ---- -- --- revenue --<br>------- ---------- ------ -- ----- -- ----- -- ---- ------<br>--- ----- --- --- ------ -------- ----- --- ------ ----- --<br>----- ----- ---------- --- --- ------ ------ ---- -- ------<br>------- --- ------ ----- --- ---- ------- -- ---- --- --<br>------- ------,477968.64499989897,477967.59000001475,477647.419,477656.1549999751,477663.962,477980.654,,10,revenue
screen,html.Screen,1_1_1_1_11,2021-04-12T10:03:33.164Z,,,,,,,,,,,,,,,,54,,,,,,,,,,,,,,693.1859998285072,,response,,,,100,,,,,,,Space,keypress(Space),,,,,,,,-- --- ---- --- ------ ----- ------- ---- -- --- ------- by<br>------- ---------- ------ -- ----- -- ----- -- ---- ------<br>--- ----- --- --- ------ -------- ----- --- ------ ----- --<br>----- ----- ---------- --- --- ------ ------ ---- -- ------<br>------- --- ------ ----- --- ---- ------- -- ---- --- --<br>------- ------,478674.9599999748,478673.8399998285,477964.086,477968.9050000161,477980.654,478680.418,,11,by
screen,html.Screen,1_1_1_1_12,2021-04-12T10:03:34.062Z,,,,,,,,,,,,,,,,54,,,,,,,,,,,,,,891.8969999976107,,response,,,,100,,,,,,,Space,keypress(Space),,,,,,,,-- --- ---- --- ------ ----- ------- ---- -- --- ------- --<br>issuing ---------- ------ -- ----- -- ----- -- ---- ------<br>--- ----- --- --- ------ -------- ----- --- ------ ----- --<br>----- ----- ---------- --- --- ------ ------ ---- -- ------<br>------- --- ------ ----- --- ---- ------- -- ---- --- --<br>------- ------,479573.28999973834,479572.3149999976,478663.991,478675.2450000495,478680.418,479580.322,,12,issuing
screen,html.Screen,1_1_1_1_13,2021-04-12T10:03:34.572Z,,,,,,,,,,,,,,,,54,,,,,,,,,,,,,,501.88299986784114,,response,,,,100,,,,,,,Space,keypress(Space),,,,,,,,-- --- ---- --- ------ ----- ------- ---- -- --- ------- --<br>------- government ------ -- ----- -- ----- -- ---- ------<br>--- ----- --- --- ------ -------- ----- --- ------ ----- --<br>----- ----- ---------- --- --- ------ ------ ---- -- ------<br>------- --- ------ ----- --- ---- ------- -- ---- --- --<br>------- ------,480083.16499972716,480082.2049998678,479563.875,479573.5450000502,479580.322,480097.13,,13,government
screen,html.Screen,1_1_1_1_14,2021-04-12T10:03:35.085Z,,,,,,,,,,,,,,,,54,,,,,,,,,,,,,,498.06999986513983,,response,,,,100,,,,,,,Space,keypress(Space),,,,,,,,-- --- ---- --- ------ ----- ------- ---- -- --- ------- --<br>------- ---------- bonds. -- ----- -- ----- -- ---- ------<br>--- ----- --- --- ------ -------- ----- --- ------ ----- --<br>----- ----- ---------- --- --- ------ ------ ---- -- ------<br>------- --- ------ ----- --- ---- ------- -- ---- --- --<br>------- ------,480596.4399999939,480595.19999986514,480080.354,480083.41499976814,480097.13,480613.74,,14,bonds.
screen,html.Screen,1_1_1_1_15,2021-04-12T10:03:35.644Z,,,,,,,,,,,,,,,,54,,,,,,,,,,,,,,540.2999999357853,,response,,,,100,,,,,,,Space,keypress(Space),,,,,,,,-- --- ---- --- ------ ----- ------- ---- -- --- ------- --<br>------- ---------- ------ In ----- -- ----- -- ---- ------<br>--- ----- --- --- ------ -------- ----- --- ------ ----- --<br>----- ----- ---------- --- --- ------ ------ ---- -- ------<br>------- --- ------ ----- --- ---- ------- -- ---- --- --<br>------- ------,481155.25999991223,481154.0399999358,480597.099,480596.71999979764,480613.74,481163.44,,15,In
screen,html.Screen,1_1_1_1_16,2021-04-12T10:03:36.300Z,,,,,,,,,,,,,,,,54,,,,,,,,,,,,,,645.8699999241508,,response,,,,100,,,,,,,Space,keypress(Space),,,,,,,,"-- --- ---- --- ------ ----- ------- ---- -- --- ------- --<br>------- ---------- ------ -- 1727, -- ----- -- ---- ------<br>--- ----- --- --- ------ -------- ----- --- ------ ----- --<br>----- ----- ---------- --- --- ------ ------ ---- -- ------<br>------- --- ------ ----- --- ---- ------- -- ---- --- --<br>------- ------",481810.5799998157,481809.30999992415,481147.031,481155.700000003,481163.44,481813.401,,16,"1727,"
screen,html.Screen,1_1_1_1_17,2021-04-12T10:03:36.910Z,,,,,,,,,,,,,,,,54,,,,,,,,,,,,,,606.7539999415749,,response,,,,100,,,,,,,Space,keypress(Space),,,,,,,,-- --- ---- --- ------ ----- ------- ---- -- --- ------- --<br>------- ---------- ------ -- ----- in ----- -- ---- ------<br>--- ----- --- --- ------ -------- ----- --- ------ ----- --<br>----- ----- ---------- --- --- ------ ------ ---- -- ------<br>------- --- ------ ----- --- ---- ------- -- ---- --- --<br>------- ------,482421.2549999356,482420.1549999416,481796.973,481810.899999924,481813.401,482430.021,,17,in
screen,html.Screen,1_1_1_1_18,2021-04-12T10:03:37.401Z,,,,,,,,,,,,,,,,54,,,,,,,,,,,,,,480.1140000128071,,response,,,,100,,,,,,,Space,keypress(Space),,,,,,,,-- --- ---- --- ------ ----- ------- ---- -- --- ------- --<br>------- ---------- ------ -- ----- -- order -- ---- ------<br>--- ----- --- --- ------ -------- ----- --- ------ ----- --<br>----- ----- ---------- --- --- ------ ------ ---- -- ------<br>------- --- ------ ----- --- ---- ------- -- ---- --- --<br>------- ------,482911.5749998018,482910.1350000128,482413.516,482421.5799998492,482430.021,482943.469,,18,order
screen,html.Screen,1_1_1_1_19,2021-04-12T10:03:37.882Z,,,,,,,,,,,,,,,,54,,,,,,,,,,,,,,448.30599990912015,,response,,,,100,,,,,,,Space,keypress(Space),,,,,,,,-- --- ---- --- ------ ----- ------- ---- -- --- ------- --<br>------- ---------- ------ -- ----- -- ----- to ---- ------<br>--- ----- --- --- ------ -------- ----- --- ------ ----- --<br>----- ----- ---------- --- --- ------ ------ ---- -- ------<br>------- --- ------ ----- --- ---- ------- -- ---- --- --<br>------- ------,483393.00999976695,483391.7749999091,482896.811,482911.8649996817,482943.469,483396.52,,19,to
screen,html.Screen,1_1_1_1_20,2021-04-12T10:03:38.410Z,,,,,,,,,,,,,,,,54,,,,,,,,,,,,,,523.5749999503605,,response,,,,100,,,,,,,Space,keypress(Space),,,,,,,,-- --- ---- --- ------ ----- ------- ---- -- --- ------- --<br>------- ---------- ------ -- ----- -- ----- -- save ------<br>--- ----- --- --- ------ -------- ----- --- ------ ----- --<br>----- ----- ---------- --- --- ------ ------ ---- -- ------<br>------- --- ------ ----- --- ---- ------- -- ---- --- --<br>------- ------,483921.2299999781,483920.0949999504,483380.085,483393.2799999602,483396.52,483929.925,,20,save
screen,html.Screen,1_1_1_1_21,2021-04-12T10:03:39.177Z,,,,,,,,,,,,,,,,54,,,,,,,,,,,,,,756.6050000645337,,response,,,,100,,,,,,,Space,keypress(Space),,,,,,,,"-- --- ---- --- ------ ----- ------- ---- -- --- ------- --<br>------- ---------- ------ -- ----- -- ----- -- ---- money,<br>--- ----- --- --- ------ -------- ----- --- ------ ----- --<br>----- ----- ---------- --- --- ------ ------ ---- -- ------<br>------- --- ------ ----- --- ---- ------- -- ---- --- --<br>------- ------",484687.8100000322,484686.5300000645,483913.098,483921.52999993414,483929.925,484696.457,,21,"money,"
screen,html.Screen,1_1_1_1_22,2021-04-12T10:03:39.762Z,,,,,,,,,,,,,,,,54,,,,,,,,,,,,,,574.8629998252145,,response,,,,100,,,,,,,Space,keypress(Space),,,,,,,,-- --- ---- --- ------ ----- ------- ---- -- --- ------- --<br>------- ---------- ------ -- ----- -- ----- -- ---- ------<br>the ----- --- --- ------ -------- ----- --- ------ ----- --<br>----- ----- ---------- --- --- ------ ------ ---- -- ------<br>------- --- ------ ----- --- ---- ------- -- ---- --- --<br>------- ------,485272.52000011504,485271.3199998252,484679.882,484688.1300001405,484696.457,485279.552,,22,the
screen,html.Screen,1_1_1_1_23,2021-04-12T10:03:40.211Z,,,,,,,,,,,,,,,,54,,,,,,,,,,,,,,441.6629999104189,,response,,,,100,,,,,,,Space,keypress(Space),,,,,,,,-- --- ---- --- ------ ----- ------- ---- -- --- ------- --<br>------- ---------- ------ -- ----- -- ----- -- ---- ------<br>--- state --- --- ------ -------- ----- --- ------ ----- --<br>----- ----- ---------- --- --- ------ ------ ---- -- ------<br>------- --- ------ ----- --- ---- ------- -- ---- --- --<br>------- ------,485722.3450001329,485721.21499991044,485263.138,485272.7999999188,485279.552,485729.72,,23,state
screen,html.Screen,1_1_1_1_24,2021-04-12T10:03:40.882Z,,,,,,,,,,,,,,,,54,,,,,,,,,,,,,,662.3199998314958,,response,,,,100,,,,,,,Space,keypress(Space),,,,,,,,-- --- ---- --- ------ ----- ------- ---- -- --- ------- --<br>------- ---------- ------ -- ----- -- ----- -- ---- ------<br>--- ----- cut --- ------ -------- ----- --- ------ ----- --<br>----- ----- ---------- --- --- ------ ------ ---- -- ------<br>------- --- ------ ----- --- ---- ------- -- ---- --- --<br>------- ------,486393.07500002906,486392.03999983147,485713.061,485722.59499970824,485729.72,486396.121,,24,cut
screen,html.Screen,1_1_1_1_25,2021-04-12T10:03:41.369Z,,,,,,,,,,,,,,,,54,,,,,,,,,,,,,,482.3589999557589,,response,,,,100,,,,,,,Space,keypress(Space),,,,,,,,-- --- ---- --- ------ ----- ------- ---- -- --- ------- --<br>------- ---------- ------ -- ----- -- ----- -- ---- ------<br>--- ----- --- the ------ -------- ----- --- ------ ----- --<br>----- ----- ---------- --- --- ------ ------ ---- -- ------<br>------- --- ------ ----- --- ---- ------- -- ---- --- --<br>------- ------,486879.70499973744,486878.47999995574,486379.664,486393.31999979913,486396.121,486896.298,,25,the
screen,html.Screen,1_1_1_1_26,2021-04-12T10:03:41.775Z,,,,,,,,,,,,,,,,54,,,,,,,,,,,,,,388.6019998532138,,response,,,,100,,,,,,,Space,keypress(Space),,,,,,,,-- --- ---- --- ------ ----- ------- ---- -- --- ------- --<br>------- ---------- ------ -- ----- -- ----- -- ---- ------<br>--- ----- --- --- bonds' -------- ----- --- ------ ----- --<br>----- ----- ---------- --- --- ------ ------ ---- -- ------<br>------- --- ------ ----- --- ---- ------- -- ---- --- --<br>------- ------,487286.0449999571,487284.8999998532,486879.612,486880.0300001167,486896.298,487296.077,,26,bonds'
screen,html.Screen,1_1_1_1_27,2021-04-12T10:03:42.528Z,,,,,,,,,,,,,,,,54,,,,,,,,,,,,,,741.9630000140169,,response,,,,100,,,,,,,Space,keypress(Space),,,,,,,,-- --- ---- --- ------ ----- ------- ---- -- --- ------- --<br>------- ---------- ------ -- ----- -- ----- -- ---- ------<br>--- ----- --- --- ------ interest ----- --- ------ ----- --<br>----- ----- ---------- --- --- ------ ------ ---- -- ------<br>------- --- ------ ----- --- ---- ------- -- ---- --- --<br>------- ------,488039.11999985576,488038.040000014,487279.551,487286.3149996847,487296.077,488045.929,,27,interest
screen,html.Screen,1_1_1_1_28,2021-04-12T10:03:43.082Z,,,,,,,,,,,,,,,,54,,,,,,,,,,,,,,545.8159998669289,,response,,,,100,,,,,,,Space,keypress(Space),,,,,,,,-- --- ---- --- ------ ----- ------- ---- -- --- ------- --<br>------- ---------- ------ -- ----- -- ----- -- ---- ------<br>--- ----- --- --- ------ -------- rate. --- ------ ----- --<br>----- ----- ---------- --- --- ------ ------ ---- -- ------<br>------- --- ------ ----- --- ---- ------- -- ---- --- --<br>------- ------,488593.10999978334,488591.74499986693,488029.429,488039.36999989673,488045.929,488595.883,,28,rate.
screen,html.Screen,1_1_1_1_29,2021-04-12T10:03:44.173Z,,,,,,,,,,,,,,,,54,,,,,,,,,,,,,,1086.6019997647381,,response,,,,100,,,,,,,Space,keypress(Space),,,,,,,,-- --- ---- --- ------ ----- ------- ---- -- --- ------- --<br>------- ---------- ------ -- ----- -- ----- -- ---- ------<br>--- ----- --- --- ------ -------- ----- The ------ ----- --<br>----- ----- ---------- --- --- ------ ------ ---- -- ------<br>------- --- ------ ----- --- ---- ------- -- ---- --- --<br>------- ------,489683.6099997163,489682.4849997647,488579.349,488593.40499993414,488595.883,489695.876,,29,The
screen,html.Screen,1_1_1_1_30,2021-04-12T10:03:44.681Z,,,,,,,,,,,,,,,,54,,,,,,,,,,,,,,495.1339997185278,,response,,,,100,,,,,,,Space,keypress(Space),,,,,,,,-- --- ---- --- ------ ----- ------- ---- -- --- ------- --<br>------- ---------- ------ -- ----- -- ----- -- ---- ------<br>--- ----- --- --- ------ -------- ----- --- market ----- --<br>----- ----- ---------- --- --- ------ ------ ---- -- ------<br>------- --- ------ ----- --- ---- ------- -- ---- --- --<br>------- ------,490192.245000042,490191.0099997185,489679.209,489683.9149999432,489695.876,490195.646,,30,market
screen,html.Screen,1_1_1_1_31,2021-04-12T10:03:44.987Z,,,,,,,,,,,,,,,,54,,,,,,,,,,,,,,301.57900005736155,,response,,,,100,,,,,,,Space,keypress(Space),,,,,,,,-- --- ---- --- ------ ----- ------- ---- -- --- ------- --<br>------- ---------- ------ -- ----- -- ----- -- ---- ------<br>--- ----- --- --- ------ -------- ----- --- ------ value --<br>----- ----- ---------- --- --- ------ ------ ---- -- ------<br>------- --- ------ ----- --- ---- ------- -- ---- --- --<br>------- ------,490498.2249997556,490497.22500005737,490179.195,490192.53999972716,490195.646,490512.473,,31,value
screen,html.Screen,1_1_1_1_32,2021-04-12T10:03:45.471Z,,,,,,,,,,,,,,,,54,,,,,,,,,,,,,,468.12699989345856,,response,,,,100,,,,,,,Space,keypress(Space),,,,,,,,-- --- ---- --- ------ ----- ------- ---- -- --- ------- --<br>------- ---------- ------ -- ----- -- ----- -- ---- ------<br>--- ----- --- --- ------ -------- ----- --- ------ ----- of<br>----- ----- ---------- --- --- ------ ------ ---- -- ------<br>------- --- ------ ----- --- ---- ------- -- ---- --- --<br>------- ------,490981.64499970153,490980.59999989346,490495.814,490498.4749997966,490512.473,490995.735,,32,of
screen,html.Screen,1_1_1_1_33,2021-04-12T10:03:45.935Z,,,,,,,,,,,,,,,,54,,,,,,,,,,,,,,448.989999833866,,response,,,,100,,,,,,,Space,keypress(Space),,,,,,,,-- --- ---- --- ------ ----- ------- ---- -- --- ------- --<br>------- ---------- ------ -- ----- -- ----- -- ---- ------<br>--- ----- --- --- ------ -------- ----- --- ------ ----- --<br>these ----- ---------- --- --- ------ ------ ---- -- ------<br>------- --- ------ ----- --- ---- ------- -- ---- --- --<br>------- ------,491445.784999989,491444.72499983385,490979.069,490981.9000000134,490995.735,491462.226,,33,these
screen,html.Screen,1_1_1_1_34,2021-04-12T10:03:46.323Z,,,,,,,,,,,,,,,,54,,,,,,,,,,,,,,370.49900010204874,,response,,,,100,,,,,,,Space,keypress(Space),,,,,,,,-- --- ---- --- ------ ----- ------- ---- -- --- ------- --<br>------- ---------- ------ -- ----- -- ----- -- ---- ------<br>--- ----- --- --- ------ -------- ----- --- ------ ----- --<br>----- bonds ---------- --- --- ------ ------ ---- -- ------<br>------- --- ------ ----- --- ---- ------- -- ---- --- --<br>------- ------,491834.1500000097,491832.7250001021,491445.642,491446.04999991134,491462.226,491845.557,,34,bonds
screen,html.Screen,1_1_1_1_35,2021-04-12T10:03:46.694Z,,,,,,,,,,,,,,,,54,,,,,,,,,,,,,,357.433000136225,,response,,,,100,,,,,,,Space,keypress(Space),,,,,,,,"-- --- ---- --- ------ ----- ------- ---- -- --- ------- --<br>------- ---------- ------ -- ----- -- ----- -- ---- ------<br>--- ----- --- --- ------ -------- ----- --- ------ ----- --<br>----- ----- plummeted, --- --- ------ ------ ---- -- ------<br>------- --- ------ ----- --- ---- ------- -- ---- --- --<br>------- ------",492204.55999998376,492202.9900001362,491828.962,491834.4399998896,491845.557,492212.196,,35,"plummeted,"
screen,html.Screen,1_1_1_1_36,2021-04-12T10:03:47.459Z,,,,,,,,,,,,,,,,54,,,,,,,,,,,,,,756.1389998667873,,response,,,,100,,,,,,,Space,keypress(Space),,,,,,,,-- --- ---- --- ------ ----- ------- ---- -- --- ------- --<br>------- ---------- ------ -- ----- -- ----- -- ---- ------<br>--- ----- --- --- ------ -------- ----- --- ------ ----- --<br>----- ----- ---------- and --- ------ ------ ---- -- ------<br>------- --- ------ ----- --- ---- ------- -- ---- --- --<br>------- ------,492969.639999792,492968.3349998668,492195.59,492204.85500013456,492212.196,492978.608,,36,and
screen,html.Screen,1_1_1_1_37,2021-04-12T10:03:47.911Z,,,,,,,,,,,,,,,,54,,,,,,,,,,,,,,442.3320000981912,,response,,,,100,,,,,,,Space,keypress(Space),,,,,,,,-- --- ---- --- ------ ----- ------- ---- -- --- ------- --<br>------- ---------- ------ -- ----- -- ----- -- ---- ------<br>--- ----- --- --- ------ -------- ----- --- ------ ----- --<br>----- ----- ---------- --- the ------ ------ ---- -- ------<br>------- --- ------ ----- --- ---- ------- -- ---- --- --<br>------- ------,493421.95499967784,493420.9400000982,492962.145,492969.9200000614,492978.608,493428.572,,37,the
screen,html.Screen,1_1_1_1_38,2021-04-12T10:03:48.347Z,,,,,,,,,,,,,,,,54,,,,,,,,,,,,,,428.26800002221717,,response,,,,100,,,,,,,Space,keypress(Space),,,,,,,,-- --- ---- --- ------ ----- ------- ---- -- --- ------- --<br>------- ---------- ------ -- ----- -- ----- -- ---- ------<br>--- ----- --- --- ------ -------- ----- --- ------ ----- --<br>----- ----- ---------- --- --- market ------ ---- -- ------<br>------- --- ------ ----- --- ---- ------- -- ---- --- --<br>------- ------,493857.9150000587,493856.8400000222,493412.094,493422.2099999897,493428.572,493861.743,,38,market
screen,html.Screen,1_1_1_1_39,2021-04-12T10:03:48.773Z,,,,,,,,,,,,,,,,54,,,,,,,,,,,,,,421.4520001418423,,response,,,,100,,,,,,,Space,keypress(Space),,,,,,,,-- --- ---- --- ------ ----- ------- ---- -- --- ------- --<br>------- ---------- ------ -- ----- -- ----- -- ---- ------<br>--- ----- --- --- ------ -------- ----- --- ------ ----- --<br>----- ----- ---------- --- --- ------ became ---- -- ------<br>------- --- ------ ----- --- ---- ------- -- ---- --- --<br>------- ------,494283.6299999617,494283.19500014186,493845.371,493858.1650000997,493861.743,494295.345,,39,became
screen,html.Screen,1_1_1_1_40,2021-04-12T10:03:49.161Z,,,,,,,,,,,,,,,,54,,,,,,,,,,,,,,375.41999992984347,,response,,,,100,,,,,,,Space,keypress(Space),,,,,,,,-- --- ---- --- ------ ----- ------- ---- -- --- ------- --<br>------- ---------- ------ -- ----- -- ----- -- ---- ------<br>--- ----- --- --- ------ -------- ----- --- ------ ----- --<br>----- ----- ---------- --- --- ------ ------ wary -- ------<br>------- --- ------ ----- --- ---- ------- -- ---- --- --<br>------- ------,494671.7650000937,494670.7649999298,494278.574,494283.72999979183,494295.345,494678.38,,40,wary
screen,html.Screen,1_1_1_1_41,2021-04-12T10:03:49.512Z,,,,,,,,,,,,,,,,54,,,,,,,,,,,,,,343.6899999481393,,response,,,,100,,,,,,,Space,keypress(Space),,,,,,,,-- --- ---- --- ------ ----- ------- ---- -- --- ------- --<br>------- ---------- ------ -- ----- -- ----- -- ---- ------<br>--- ----- --- --- ------ -------- ----- --- ------ ----- --<br>----- ----- ---------- --- --- ------ ------ ---- of ------<br>------- --- ------ ----- --- ---- ------- -- ---- --- --<br>------- ------,495023.1699999422,495022.06999994814,494661.947,494672.01999993995,494678.38,495028.325,,41,of
screen,html.Screen,1_1_1_1_42,2021-04-12T10:03:50.342Z,,,,,,,,,,,,,,,,54,,,,,,,,,,,,,,823.6000000826898,,response,,,,100,,,,,,,Space,keypress(Space),,,,,,,,-- --- ---- --- ------ ----- ------- ---- -- --- ------- --<br>------- ---------- ------ -- ----- -- ----- -- ---- ------<br>--- ----- --- --- ------ -------- ----- --- ------ ----- --<br>----- ----- ---------- --- --- ------ ------ ---- -- French<br>------- --- ------ ----- --- ---- ------- -- ---- --- --<br>------- ------,495853.0600001104,495851.9250000827,495011.845,495023.4599998221,495028.325,495861.729,,42,French
screen,html.Screen,1_1_1_1_43,2021-04-12T10:03:50.944Z,,,,,,,,,,,,,,,,54,,,,,,,,,,,,,,592.1809996909578,,response,,,,100,,,,,,,Space,keypress(Space),,,,,,,,-- --- ---- --- ------ ----- ------- ---- -- --- ------- --<br>------- ---------- ------ -- ----- -- ----- -- ---- ------<br>--- ----- --- --- ------ -------- ----- --- ------ ----- --<br>----- ----- ---------- --- --- ------ ------ ---- -- ------<br>credit. --- ------ ----- --- ---- ------- -- ---- --- --<br>------- ------,496455.0350001082,496453.90999969095,495845.06,495853.3250000328,495861.729,496461.556,,43,credit.
screen,html.Screen,1_1_1_1_44,2021-04-12T10:03:51.821Z,,,,,,,,,,,,,,,,54,,,,,,,,,,,,,,869.26399979915,,response,,,,100,,,,,,,Space,keypress(Space),,,,,,,,-- --- ---- --- ------ ----- ------- ---- -- --- ------- --<br>------- ---------- ------ -- ----- -- ----- -- ---- ------<br>--- ----- --- --- ------ -------- ----- --- ------ ----- --<br>----- ----- ---------- --- --- ------ ------ ---- -- ------<br>------- The ------ ----- --- ---- ------- -- ---- --- --<br>------- ------,497332.14999968186,497330.81999979913,496445.001,496455.2849996835,496461.556,497344.905,,44,The
screen,html.Screen,1_1_1_1_45,2021-04-12T10:03:52.202Z,,,,,,,,,,,,,,,,54,,,,,,,,,,,,,,366.5649999801535,,response,,,,100,,,,,,,Space,keypress(Space),,,,,,,,-- --- ---- --- ------ ----- ------- ---- -- --- ------- --<br>------- ---------- ------ -- ----- -- ----- -- ---- ------<br>--- ----- --- --- ------ -------- ----- --- ------ ----- --<br>----- ----- ---------- --- --- ------ ------ ---- -- ------<br>------- --- French ----- --- ---- ------- -- ---- --- --<br>------- ------,497712.83000009134,497711.4699999802,497328.179,497332.4299999513,497344.905,497728.218,,45,French
screen,html.Screen,1_1_1_1_46,2021-04-12T10:03:52.536Z,,,,,,,,,,,,,,,,54,,,,,,,,,,,,,,317.24199970287737,,response,,,,100,,,,,,,Space,keypress(Space),,,,,,,,-- --- ---- --- ------ ----- ------- ---- -- --- ------- --<br>------- ---------- ------ -- ----- -- ----- -- ---- ------<br>--- ----- --- --- ------ -------- ----- --- ------ ----- --<br>----- ----- ---------- --- --- ------ ------ ---- -- ------<br>------- --- ------ state --- ---- ------- -- ---- --- --<br>------- ------,498046.63500003517,498045.45999970287,497711.552,497713.1349998526,497728.218,498061.517,,46,state
screen,html.Screen,1_1_1_1_47,2021-04-12T10:03:52.841Z,,,,,,,,,,,,,,,,54,,,,,,,,,,,,,,289.7730001369491,,response,,,,100,,,,,,,Space,keypress(Space),,,,,,,,-- --- ---- --- ------ ----- ------- ---- -- --- ------- --<br>------- ---------- ------ -- ----- -- ----- -- ---- ------<br>--- ----- --- --- ------ -------- ----- --- ------ ----- --<br>----- ----- ---------- --- --- ------ ------ ---- -- ------<br>------- --- ------ ----- was ---- ------- -- ---- --- --<br>------- ------,498352.4449998513,498351.29000013694,498044.588,498046.9299997203,498061.517,498361.375,,47,was
screen,html.Screen,1_1_1_1_48,2021-04-12T10:03:53.380Z,,,,,,,,,,,,,,,,54,,,,,,,,,,,,,,528.6549998931587,,response,,,,100,,,,,,,Space,keypress(Space),,,,,,,,-- --- ---- --- ------ ----- ------- ---- -- --- ------- --<br>------- ---------- ------ -- ----- -- ----- -- ---- ------<br>--- ----- --- --- ------ -------- ----- --- ------ ----- --<br>----- ----- ---------- --- --- ------ ------ ---- -- ------<br>------- --- ------ ----- --- left ------- -- ---- --- --<br>------- ------,498891.2849999033,498890.02999989316,498344.733,498352.7549998835,498361.375,498894.541,,48,left
screen,html.Screen,1_1_1_1_49,2021-04-12T10:03:53.626Z,,,,,,,,,,,,,,,,54,,,,,,,,,,,,,,241.5689998466405,,response,,,,100,,,,,,,Space,keypress(Space),,,,,,,,-- --- ---- --- ------ ----- ------- ---- -- --- ------- --<br>------- ---------- ------ -- ----- -- ----- -- ---- ------<br>--- ----- --- --- ------ -------- ----- --- ------ ----- --<br>----- ----- ---------- --- --- ------ ------ ---- -- ------<br>------- --- ------ ----- --- ---- without -- ---- --- --<br>------- ------,499137.2650000267,499136.10999984667,498877.976,498891.5800000541,498894.541,499144.505,,49,without
screen,html.Screen,1_1_1_1_50,2021-04-12T10:03:54.391Z,,,,,,,,,,,,,,,,54,,,,,,,,,,,,,,756.8199999843491,,response,,,,100,,,,,,,Space,keypress(Space),,,,,,,,-- --- ---- --- ------ ----- ------- ---- -- --- ------- --<br>------- ---------- ------ -- ----- -- ----- -- ---- ------<br>--- ----- --- --- ------ -------- ----- --- ------ ----- --<br>----- ----- ---------- --- --- ------ ------ ---- -- ------<br>------- --- ------ ----- --- ---- ------- an ---- --- --<br>------- ------,499902.3249996826,499901.32499998435,499128.053,499137.585000135,499144.505,499911.055,,50,an
screen,html.Screen,1_1_1_1_51,2021-04-12T10:03:54.886Z,,,,,,,,,,,,,,,,54,,,,,,,,,,,,,,484.7200000990997,,response,,,,100,,,,,,,Space,keypress(Space),,,,,,,,-- --- ---- --- ------ ----- ------- ---- -- --- ------- --<br>------- ---------- ------ -- ----- -- ----- -- ---- ------<br>--- ----- --- --- ------ -------- ----- --- ------ ----- --<br>----- ----- ---------- --- --- ------ ------ ---- -- ------<br>------- --- ------ ----- --- ---- ------- -- easy --- --<br>------- ------,500396.99500007555,500395.7750000991,499894.564,499902.56999991834,499911.055,500411.086,,51,easy
screen,html.Screen,1_1_1_1_52,2021-04-12T10:03:55.262Z,,,,,,,,,,,,,,,,54,,,,,,,,,,,,,,360.60900011949707,,response,,,,100,,,,,,,Space,keypress(Space),,,,,,,,-- --- ---- --- ------ ----- ------- ---- -- --- ------- --<br>------- ---------- ------ -- ----- -- ----- -- ---- ------<br>--- ----- --- --- ------ -------- ----- --- ------ ----- --<br>----- ----- ---------- --- --- ------ ------ ---- -- ------<br>------- --- ------ ----- --- ---- ------- -- ---- way --<br>------- ------,500772.76999969035,500771.6950001195,500394.441,500397.2749998793,500411.086,500777.665,,52,way
screen,html.Screen,1_1_1_1_53,2021-04-12T10:03:55.651Z,,,,,,,,,,,,,,,,54,,,,,,,,,,,,,,383.880000039062,,response,,,,100,,,,,,,Space,keypress(Space),,,,,,,,-- --- ---- --- ------ ----- ------- ---- -- --- ------- --<br>------- ---------- ------ -- ----- -- ----- -- ---- ------<br>--- ----- --- --- ------ -------- ----- --- ------ ----- --<br>----- ----- ---------- --- --- ------ ------ ---- -- ------<br>------- --- ------ ----- --- ---- ------- -- ---- --- of<br>------- ------,501161.9449998252,501161.54500003904,500761.169,500773.054999765,500777.665,501177.473,,53,of
screen,html.Screen,1_1_1_1_54,2021-04-12T10:03:56.055Z,,,,,,,,,,,,,,,,54,,,,,,,,,,,,,,387.7219997991342,,response,,,,100,,,,,,,Space,keypress(Space),,,,,,,,-- --- ---- --- ------ ----- ------- ---- -- --- ------- --<br>------- ---------- ------ -- ----- -- ----- -- ---- ------<br>--- ----- --- --- ------ -------- ----- --- ------ ----- --<br>----- ----- ---------- --- --- ------ ------ ---- -- ------<br>------- --- ------ ----- --- ---- ------- -- ---- --- --<br>raising ------,501566.25499995425,501565.19499979913,501161.092,501162.0199996978,501177.473,501577.684,,54,raising
screen,html.Screen,1_1_1_1_55,2021-04-12T10:03:56.642Z,,,,,,,,,,,,,,,,54,,,,,,,,,,,,,,573.7159998569405,,response,,,,100,,,,,,,Space,keypress(Space),,,,,,,,-- --- ---- --- ------ ----- ------- ---- -- --- ------- --<br>------- ---------- ------ -- ----- -- ----- -- ---- ------<br>--- ----- --- --- ------ -------- ----- --- ------ ----- --<br>----- ----- ---------- --- --- ------ ------ ---- -- ------<br>------- --- ------ ----- --- ---- ------- -- ---- --- --<br>------- money.,502152.5999996811,502151.39999985695,501560.807,501566.4999997243,501577.684,502160.7,,55,money.
Item 100,flow.Loop,1_1_1_1,2021-04-12T10:03:56.642Z,,,,,,,,,,,,,,,,,,,,,,,,,,,,,,29070.20699985692,,completion,,,,,A,,,,,,,,,,,silence,,,,,502153.0649997294,502151.39999985695,473064.761,473066.2199999206,473081.193,502160.7,,,
Question 1,html.Screen,1_1_1_2,2021-04-12T10:04:01.627Z,,,,,,,,,,,,,,,,,,,,,,,,,,,true,TRUE,,4976.764999686915,,response,,,,100,A,,,,,,TRUE,click #choice-1,,,,silence,,,,,507138.3599997498,507137.4649996869,502144.291,502153.2850000076,502160.7,507143.396,,,
Question 2,html.Screen,1_1_1_3,2021-04-12T10:04:09.042Z,,,,,,,,,,,,,,,,,,,,,,,,,,,true,FALSE,,7408.983999775432,,response,,,,100,A,,,,,,FALSE,click #choice-2,,,,silence,,,,,514553.2100000419,514552.37999977544,507127.025,507138.44999996945,507143.396,514559.106,,,
Item 100,flow.Sequence,1_1_1,2021-04-12T10:04:09.042Z,,,,,,,,,,,,,,,,,,,,,,,,,,,,,,51469.980999775464,,completion,,,,,,,,,,,,,,,,,,,,,514553.37999993935,514552.37999977544,463066.039,463069.8899999261,463082.399,514559.106,,,
End of Practice,html.Page,1_1_2,2021-04-12T10:04:12.410Z,,,,,,,,,,,,,,,,,,,,,,,,,,,,,,3361.714000115753,,form submission,,,,,,,,,,,,,,,,,,,,,517921.1900001392,517920.8200001158,514542.689,514553.45499981195,514559.106,517925.298,,,
Practice,flow.Sequence,1_1,2021-04-12T10:04:12.410Z,,,,,,,,,,,,,,,,,,,,,,,,,,,,,,110547.93400011578,,completion,,,,,,,,,,,,,,,,,,,,,517921.4099999517,517920.8200001158,407356.537,407371.16499990225,407372.886,517925.298,,,
Trap_instruction,html.Page,1_2_0,2021-04-12T10:04:20.753Z,,,,,,,,,,,,,,,,,,,,,,,,,,,,,,8337.936999962141,,form submission,,,,,,,,,,,,,,,,,,,,,526263.5099999607,526263.2349999622,517908.834,517921.57500004396,517925.298,526274.249,,,
trap_trial,html.Screen,1_2_1,2021-04-12T10:04:25.267Z,,,,,,,,,,,,,,,,,,,,,,,,,,,true,1,,4503.015999691444,,response,,,,,,,,,,,1,click #choice-1,,,,,,,,,530777.9149999842,530777.2649996914,526257.844,526263.5999997146,526274.249,530790.573,,,
end of trap trial,html.Page,1_2_2,2021-04-12T10:04:30.111Z,,,,,,,,,,,,,,,,,,,,,,,,,,,,,,4830.736999842222,,form submission,,,,,,,,,,,,,,,,,,,,,535621.5900001116,535621.3099998422,530773.746,530778.0100000091,530790.573,535623.055,,,
Trap 1,flow.Sequence,1_2,2021-04-12T10:04:30.111Z,,,,,,,,,,,,,,,,,,,,,,,,,,,,,,17696.011999842187,,completion,,,,,,,,,,,,,,,,,,,,,535621.7199997045,535621.3099998422,517908.834,517921.519999858,517925.298,535623.055,,,
Standby,html.Page,1_3_0,2021-04-12T10:04:38.096Z,,,,,,,,,,,,,,,,,,,,,,,,,,,,,,7999.06799999997,,timeout,,,,,,,,,,,,,,,,,,,,,543606.8949997425,543605.644,535606.501,535621.8099999242,535623.055,543622.123,,,
Holding screen,html.Screen,1_3_1_0_0,2021-04-12T10:04:45.095Z,,,,,,,,,,,,,,,,,,,,,,,,,,,,,,6999.27099999995,,timeout,,,,,,,,,,,,,,,,,,,,,550605.9550000355,550604.759,543605.644,543607.3849997483,543622.123,550621.394,,,
screen,html.Screen,1_3_1_0_1_0,2021-04-12T10:04:45.895Z,,,,,,,,,,,,,,,,11,,,,,,,,,,,,,,782.9660000441363,,response,,,,4,A,,,,,,Space,keypress(Space),,,,silence,,,,Known -- ---- --- -- --- -------- ------------ ---------- --<br>- ------- ------ --------- -- ------------ -- --- ---- -----<br>------ ---- ---- ------ ------ ------- --- ----- ---------<br>---- --- -------- -------- --- --- -- ------- --- --- -----<br>-- --- ------ ------- --- --- -------- ---- --------- --<br>---------- -- -------- ----------------,551405.9349996969,551404.3600000441,550604.759,550606.3250000589,550621.394,551421.306,,0,Known
screen,html.Screen,1_3_1_0_1_1,2021-04-12T10:04:46.585Z,,,,,,,,,,,,,,,,11,,,,,,,,,,,,,,673.0040000731824,,response,,,,4,A,,,,,,Space,keypress(Space),,,,silence,,,,----- as ---- --- -- --- -------- ------------ ---------- --<br>- ------- ------ --------- -- ------------ -- --- ---- -----<br>------ ---- ---- ------ ------ ------- --- ----- ---------<br>---- --- -------- -------- --- --- -- ------- --- --- -----<br>-- --- ------ ------- --- --- -------- ---- --------- --<br>---------- -- -------- ----------------,552095.5799999647,552094.3100000732,551404.595,551406.2049998902,551421.306,552104.313,,1,as
screen,html.Screen,1_3_1_0_1_2,2021-04-12T10:04:47.132Z,,,,,,,,,,,,,,,,11,,,,,,,,,,,,,,537.2969998168992,,response,,,,4,A,,,,,,Space,keypress(Space),,,,silence,,,,----- -- Rapa --- -- --- -------- ------------ ---------- --<br>- ------- ------ --------- -- ------------ -- --- ---- -----<br>------ ---- ---- ------ ------ ------- --- ----- ---------<br>---- --- -------- -------- --- --- -- ------- --- --- -----<br>-- --- ------ ------- --- --- -------- ---- --------- --<br>---------- -- -------- ----------------,552642.7099998109,552641.6099998169,552087.81,552095.8650000393,552104.313,552654.398,,2,Rapa
screen,html.Screen,1_3_1_0_1_3,2021-04-12T10:04:47.815Z,,,,,,,,,,,,,,,,11,,,,,,,,,,,,,,669.4669996928424,,response,,,,4,A,,,,,,Space,keypress(Space),,,,silence,,,,----- -- ---- Nui -- --- -------- ------------ ---------- --<br>- ------- ------ --------- -- ------------ -- --- ---- -----<br>------ ---- ---- ------ ------ ------- --- ----- ---------<br>---- --- -------- -------- --- --- -- ------- --- --- -----<br>-- --- ------ ------- --- --- -------- ---- --------- --<br>---------- -- -------- ----------------,553325.4800001159,553323.8649996929,552637.8,552642.9550000466,552654.398,553337.72,,3,Nui
screen,html.Screen,1_3_1_0_1_4,2021-04-12T10:04:48.357Z,,,,,,,,,,,,,,,,11,,,,,,,,,,,,,,528.360000065295,,response,,,,4,A,,,,,,Space,keypress(Space),,,,silence,,,,----- -- ---- --- to --- -------- ------------ ---------- --<br>- ------- ------ --------- -- ------------ -- --- ---- -----<br>------ ---- ---- ------ ------ ------- --- ----- ---------<br>---- --- -------- -------- --- --- -- ------- --- --- -----<br>-- --- ------ ------- --- --- -------- ---- --------- --<br>---------- -- -------- ----------------,553867.2449998558,553866.0800000653,553321.036,553325.7499998435,553337.72,553870.752,,4,to
screen,html.Screen,1_3_1_0_1_5,2021-04-12T10:04:48.753Z,,,,,,,,,,,,,,,,11,,,,,,,,,,,,,,391.41800000180956,,response,,,,4,A,,,,,,Space,keypress(Space),,,,silence,,,,----- -- ---- --- -- the -------- ------------ ---------- --<br>- ------- ------ --------- -- ------------ -- --- ---- -----<br>------ ---- ---- ------ ------ ------- --- ----- ---------<br>---- --- -------- -------- --- --- -- ------- --- --- -----<br>-- --- ------ ------- --- --- -------- ---- --------- --<br>---------- -- -------- ----------------,554263.1899998523,554262.1700000018,553854.297,553867.4900000915,553870.752,554270.699,,5,the
screen,html.Screen,1_3_1_0_1_6,2021-04-12T10:04:49.020Z,,,,,,,,,,,,,,,,11,,,,,,,,,,,,,,256.30099976900965,,response,,,,4,A,,,,,,Space,keypress(Space),,,,silence,,,,----- -- ---- --- -- --- island's ------------ ---------- --<br>- ------- ------ --------- -- ------------ -- --- ---- -----<br>------ ---- ---- ------ ------ ------- --- ----- ---------<br>---- --- -------- -------- --- --- -- ------- --- --- -----<br>-- --- ------ ------- --- --- -------- ---- --------- --<br>---------- -- -------- ----------------,554530.3799998946,554526.999999769,554254.237,554263.4399998933,554270.699,554537.239,,6,island's
screen,html.Screen,1_3_1_0_1_7,2021-04-12T10:04:50.014Z,,,,,,,,,,,,,,,,11,,,,,,,,,,,,,,986.4410001003416,,response,,,,4,A,,,,,,Space,keypress(Space),,,,silence,,,,"----- -- ---- --- -- --- -------- inhabitants, ---------- --<br>- ------- ------ --------- -- ------------ -- --- ---- -----<br>------ ---- ---- ------ ------ ------- --- ----- ---------<br>---- --- -------- -------- --- --- -- ------- --- --- -----<br>-- --- ------ ------- --- --- -------- ---- --------- --<br>---------- -- -------- ----------------",555524.8599997722,555523.6800001003,554520.893,554530.4549997672,554537.239,555537.417,,7,"inhabitants,"
screen,html.Screen,1_3_1_0_1_8,2021-04-12T10:04:51.417Z,,,,,,,,,,,,,,,,11,,,,,,,,,,,,,,1388.7679997564992,,response,,,,4,A,,,,,,Space,keypress(Space),,,,silence,,,,----- -- ---- --- -- --- -------- ------------ Rongorongo --<br>- ------- ------ --------- -- ------------ -- --- ---- -----<br>------ ---- ---- ------ ------ ------- --- ----- ---------<br>---- --- -------- -------- --- --- -- ------- --- --- -----<br>-- --- ------ ------- --- --- -------- ---- --------- --<br>---------- -- -------- ----------------,556927.4399997666,556926.1849997565,555520.719,555525.1649999991,555537.417,556937.162,,8,Rongorongo
screen,html.Screen,1_3_1_0_1_9,2021-04-12T10:04:52.050Z,,,,,,,,,,,,,,,,11,,,,,,,,,,,,,,622.9829999958165,,response,,,,4,A,,,,,,Space,keypress(Space),,,,silence,,,,----- -- ---- --- -- --- -------- ------------ ---------- is<br>- ------- ------ --------- -- ------------ -- --- ---- -----<br>------ ---- ---- ------ ------ ------- --- ----- ---------<br>---- --- -------- -------- --- --- -- ------- --- --- -----<br>-- --- ------ ------- --- --- -------- ---- --------- --<br>---------- -- -------- ----------------,557560.8950001188,557560.1449999958,556920.573,556927.7149997652,556937.162,557570.254,,9,is
screen,html.Screen,1_3_1_0_1_10,2021-04-12T10:04:52.535Z,,,,,,,,,,,,,,,,11,,,,,,,,,,,,,,474.71599969710223,,response,,,,4,A,,,,,,Space,keypress(Space),,,,silence,,,,----- -- ---- --- -- --- -------- ------------ ---------- --<br>a ------- ------ --------- -- ------------ -- --- ---- -----<br>------ ---- ---- ------ ------ ------- --- ----- ---------<br>---- --- -------- -------- --- --- -- ------- --- --- -----<br>-- --- ------ ------- --- --- -------- ---- --------- --<br>---------- -- -------- ----------------,558045.9549999796,558044.9699996971,557553.837,557560.9749997966,557570.254,558053.514,,10,a
screen,html.Screen,1_3_1_0_1_11,2021-04-12T10:04:53.151Z,,,,,,,,,,,,,,,,11,,,,,,,,,,,,,,607.3509999834932,,response,,,,4,A,,,,,,Space,keypress(Space),,,,silence,,,,----- -- ---- --- -- --- -------- ------------ ---------- --<br>- writing ------ --------- -- ------------ -- --- ---- -----<br>------ ---- ---- ------ ------ ------- --- ----- ---------<br>---- --- -------- -------- --- --- -- ------- --- --- -----<br>-- --- ------ ------- --- --- -------- ---- --------- --<br>---------- -- -------- ----------------,558661.9449998252,558660.8649999835,558036.847,558046.2349997833,558053.514,558670.191,,11,writing
screen,html.Screen,1_3_1_0_1_12,2021-04-12T10:04:53.488Z,,,,,,,,,,,,,,,,11,,,,,,,,,,,,,,327.41899996215943,,response,,,,4,A,,,,,,Space,keypress(Space),,,,silence,,,,----- -- ---- --- -- --- -------- ------------ ---------- --<br>- ------- system --------- -- ------------ -- --- ---- -----<br>------ ---- ---- ------ ------ ------- --- ----- ---------<br>---- --- -------- -------- --- --- -- ------- --- --- -----<br>-- --- ------ ------- --- --- -------- ---- --------- --<br>---------- -- -------- ----------------,558998.6100001261,558997.6099999622,558653.684,558662.1949998662,558670.191,559003.41,,12,system
screen,html.Screen,1_3_1_0_1_13,2021-04-12T10:04:54.520Z,,,,,,,,,,,,,,,,11,,,,,,,,,,,,,,1025.8300000616582,,response,,,,4,A,,,,,,Space,keypress(Space),,,,silence,,,,----- -- ---- --- -- --- -------- ------------ ---------- --<br>- ------- ------ comprised -- ------------ -- --- ---- -----<br>------ ---- ---- ------ ------ ------- --- ----- ---------<br>---- --- -------- -------- --- --- -- ------- --- --- -----<br>-- --- ------ ------- --- --- -------- ---- --------- --<br>---------- -- -------- ----------------,560030.4250000045,560029.2400000617,558986.971,558998.8500000909,559003.41,560036.643,,13,comprised
screen,html.Screen,1_3_1_0_1_14,2021-04-12T10:04:54.989Z,,,,,,,,,,,,,,,,11,,,,,,,,,,,,,,461.68200005136896,,response,,,,4,A,,,,,,Space,keypress(Space),,,,silence,,,,----- -- ---- --- -- --- -------- ------------ ---------- --<br>- ------- ------ --------- of ------------ -- --- ---- -----<br>------ ---- ---- ------ ------ ------- --- ----- ---------<br>---- --- -------- -------- --- --- -- ------- --- --- -----<br>-- --- ------ ------- --- --- -------- ---- --------- --<br>---------- -- -------- ----------------,560499.3900000118,560498.3250000514,560020.168,560030.7100000791,560036.643,560503.205,,14,of
screen,html.Screen,1_3_1_0_1_15,2021-04-12T10:04:56.451Z,,,,,,,,,,,,,,,,11,,,,,,,,,,,,,,1457.659999797237,,response,,,,4,A,,,,,,Space,keypress(Space),,,,silence,,,,----- -- ---- --- -- --- -------- ------------ ---------- --<br>- ------- ------ --------- -- pictographs. -- --- ---- -----<br>------ ---- ---- ------ ------ ------- --- ----- ---------<br>---- --- -------- -------- --- --- -- ------- --- --- -----<br>-- --- ------ ------- --- --- -------- ---- --------- --<br>---------- -- -------- ----------------,561961.9649997912,561960.8649997972,560486.748,560499.6549999341,560503.205,561969.69,,15,pictographs.
screen,html.Screen,1_3_1_0_1_16,2021-04-12T10:04:57.125Z,,,,,,,,,,,,,,,,11,,,,,,,,,,,,,,664.9349999479018,,response,,,,4,A,,,,,,Space,keypress(Space),,,,silence,,,,----- -- ---- --- -- --- -------- ------------ ---------- --<br>- ------- ------ --------- -- ------------ It --- ---- -----<br>------ ---- ---- ------ ------ ------- --- ----- ---------<br>---- --- -------- -------- --- --- -- ------- --- --- -----<br>-- --- ------ ------- --- --- -------- ---- --------- --<br>---------- -- -------- ----------------,562635.735000018,562634.6249999478,561953.201,561962.210000027,561969.69,562653.203,,16,It
screen,html.Screen,1_3_1_0_1_17,2021-04-12T10:04:57.614Z,,,,,,,,,,,,,,,,11,,,,,,,,,,,,,,470.55200006603263,,response,,,,4,A,,,,,,Space,keypress(Space),,,,silence,,,,----- -- ---- --- -- --- -------- ------------ ---------- --<br>- ------- ------ --------- -- ------------ -- has ---- -----<br>------ ---- ---- ------ ------ ------- --- ----- ---------<br>---- --- -------- -------- --- --- -- ------- --- --- -----<br>-- --- ------ ------- --- --- -------- ---- --------- --<br>---------- -- -------- ----------------,563124.8749997467,563123.755000066,562636.511,562635.9999999404,562653.203,563136.397,,17,has
screen,html.Screen,1_3_1_0_1_18,2021-04-12T10:04:58.031Z,,,,,,,,,,,,,,,,11,,,,,,,,,,,,,,404.5879998541204,,response,,,,4,A,,,,,,Space,keypress(Space),,,,silence,,,,----- -- ---- --- -- --- -------- ------------ ---------- --<br>- ------- ------ --------- -- ------------ -- --- been -----<br>------ ---- ---- ------ ------ ------- --- ----- ---------<br>---- --- -------- -------- --- --- -- ------- --- --- -----<br>-- --- ------ ------- --- --- -------- ---- --------- --<br>---------- -- -------- ----------------,563542.0949999243,563540.9849998541,563119.771,563125.1499997452,563136.397,563553.009,,18,been
screen,html.Screen,1_3_1_0_1_19,2021-04-12T10:04:58.440Z,,,,,,,,,,,,,,,,11,,,,,,,,,,,,,,396.92100011894945,,response,,,,4,A,,,,,,Space,keypress(Space),,,,silence,,,,----- -- ---- --- -- --- -------- ------------ ---------- --<br>- ------- ------ --------- -- ------------ -- --- ---- found<br>------ ---- ---- ------ ------ ------- --- ----- ---------<br>---- --- -------- -------- --- --- -- ------- --- --- -----<br>-- --- ------ ------- --- --- -------- ---- --------- --<br>---------- -- -------- ----------------,563950.6649998948,563949.9300001189,563536.275,563542.3550000414,563553.009,563969.895,,19,found
screen,html.Screen,1_3_1_0_1_20,2021-04-12T10:05:00.129Z,,,,,,,,,,,,,,,,11,,,,,,,,,,,,,,1668.3449997673742,,response,,,,4,A,,,,,,Space,keypress(Space),,,,silence,,,,----- -- ---- --- -- --- -------- ------------ ---------- --<br>- ------- ------ --------- -- ------------ -- --- ---- -----<br>carved ---- ---- ------ ------ ------- --- ----- ---------<br>---- --- -------- -------- --- --- -- ------- --- --- -----<br>-- --- ------ ------- --- --- -------- ---- --------- --<br>---------- -- -------- ----------------,565639.4349997863,565638.2399997674,563936.237,563952.0449996926,563969.895,565652.731,,20,carved
screen,html.Screen,1_3_1_0_1_21,2021-04-12T10:05:00.610Z,,,,,,,,,,,,,,,,11,,,,,,,,,,,,,,466.87899993604515,,response,,,,4,A,,,,,,Space,keypress(Space),,,,silence,,,,----- -- ---- --- -- --- -------- ------------ ---------- --<br>- ------- ------ --------- -- ------------ -- --- ---- -----<br>------ into ---- ------ ------ ------- --- ----- ---------<br>---- --- -------- -------- --- --- -- ------- --- --- -----<br>-- --- ------ ------- --- --- -------- ---- --------- --<br>---------- -- -------- ----------------,566120.7550000399,566119.6099999361,565636.102,565639.6999997087,565652.731,566136.086,,21,into
screen,html.Screen,1_3_1_0_1_22,2021-04-12T10:05:01.166Z,,,,,,,,,,,,,,,,11,,,,,,,,,,,,,,539.64399978437,,response,,,,4,A,,,,,,Space,keypress(Space),,,,silence,,,,----- -- ---- --- -- --- -------- ------------ ---------- --<br>- ------- ------ --------- -- ------------ -- --- ---- -----<br>------ ---- many ------ ------ ------- --- ----- ---------<br>---- --- -------- -------- --- --- -- ------- --- --- -----<br>-- --- ------ ------- --- --- -------- ---- --------- --<br>---------- -- -------- ----------------,566676.764999982,566675.7299997844,566119.317,566121.0499997251,566136.086,566685.885,,22,many
screen,html.Screen,1_3_1_0_1_23,2021-04-12T10:05:01.732Z,,,,,,,,,,,,,,,,11,,,,,,,,,,,,,,556.0649997049477,,response,,,,4,A,,,,,,Space,keypress(Space),,,,silence,,,,----- -- ---- --- -- --- -------- ------------ ---------- --<br>- ------- ------ --------- -- ------------ -- --- ---- -----<br>------ ---- ---- oblong ------ ------- --- ----- ---------<br>---- --- -------- -------- --- --- -- ------- --- --- -----<br>-- --- ------ ------- --- --- -------- ---- --------- --<br>---------- -- -------- ----------------,567243.0400000885,567241.949999705,566669.317,566677.0449997857,566685.885,567252.524,,23,oblong
screen,html.Screen,1_3_1_0_1_24,2021-04-12T10:05:02.215Z,,,,,,,,,,,,,,,,11,,,,,,,,,,,,,,471.6959997417871,,response,,,,4,A,,,,,,Space,keypress(Space),,,,silence,,,,----- -- ---- --- -- --- -------- ------------ ---------- --<br>- ------- ------ --------- -- ------------ -- --- ---- -----<br>------ ---- ---- ------ wooden ------- --- ----- ---------<br>---- --- -------- -------- --- --- -- ------- --- --- -----<br>-- --- ------ ------- --- --- -------- ---- --------- --<br>---------- -- -------- ----------------,567725.4650001414,567724.2199997418,567235.923,567243.3299999684,567252.524,567735.806,,24,wooden
screen,html.Screen,1_3_1_0_1_25,2021-04-12T10:05:02.481Z,,,,,,,,,,,,,,,,11,,,,,,,,,,,,,,255.19899972702842,,response,,,,4,A,,,,,,Space,keypress(Space),,,,silence,,,,----- -- ---- --- -- --- -------- ------------ ---------- --<br>- ------- ------ --------- -- ------------ -- --- ---- -----<br>------ ---- ---- ------ ------ tablets --- ----- ---------<br>---- --- -------- -------- --- --- -- ------- --- --- -----<br>-- --- ------ ------- --- --- -------- ---- --------- --<br>---------- -- -------- ----------------,567992.1399997547,567991.004999727,567719.092,567725.7799999788,567735.806,568002.276,,25,tablets
screen,html.Screen,1_3_1_0_1_26,2021-04-12T10:05:03.326Z,,,,,,,,,,,,,,,,11,,,,,,,,,,,,,,833.5090001194039,,response,,,,4,A,,,,,,Space,keypress(Space),,,,silence,,,,----- -- ---- --- -- --- -------- ------------ ---------- --<br>- ------- ------ --------- -- ------------ -- --- ---- -----<br>------ ---- ---- ------ ------ ------- and ----- ---------<br>---- --- -------- -------- --- --- -- ------- --- --- -----<br>-- --- ------ ------- --- --- -------- ---- --------- --<br>---------- -- -------- ----------------,568836.7949998938,568835.7850001194,567985.838,567992.4049996771,568002.276,568852.4,,26,and
screen,html.Screen,1_3_1_0_1_27,2021-04-12T10:05:04.117Z,,,,,,,,,,,,,,,,11,,,,,,,,,,,,,,774.3999997362262,,response,,,,4,A,,,,,,Space,keypress(Space),,,,silence,,,,----- -- ---- --- -- --- -------- ------------ ---------- --<br>- ------- ------ --------- -- ------------ -- --- ---- -----<br>------ ---- ---- ------ ------ ------- --- other ---------<br>---- --- -------- -------- --- --- -- ------- --- --- -----<br>-- --- ------ ------- --- --- -------- ---- --------- --<br>---------- -- -------- ----------------,569627.8550000861,569626.7999997362,568835.668,568837.0349998586,568852.4,569635.446,,27,other
screen,html.Screen,1_3_1_0_1_28,2021-04-12T10:05:05.215Z,,,,,,,,,,,,,,,,11,,,,,,,,,,,,,,1089.3789999247529,,response,,,,4,A,,,,,,Space,keypress(Space),,,,silence,,,,----- -- ---- --- -- --- -------- ------------ ---------- --<br>- ------- ------ --------- -- ------------ -- --- ---- -----<br>------ ---- ---- ------ ------ ------- --- ----- artifacts<br>---- --- -------- -------- --- --- -- ------- --- --- -----<br>-- --- ------ ------- --- --- -------- ---- --------- --<br>---------- -- -------- ----------------,570725.8949996904,570724.8249999247,569618.937,569628.1200000085,569635.446,570735.341,,28,artifacts
screen,html.Screen,1_3_1_0_1_29,2021-04-12T10:05:05.803Z,,,,,,,,,,,,,,,,11,,,,,,,,,,,,,,577.2890000585467,,response,,,,4,A,,,,,,Space,keypress(Space),,,,silence,,,,----- -- ---- --- -- --- -------- ------------ ---------- --<br>- ------- ------ --------- -- ------------ -- --- ---- -----<br>------ ---- ---- ------ ------ ------- --- ----- ---------<br>from --- -------- -------- --- --- -- ------- --- --- -----<br>-- --- ------ ------- --- --- -------- ---- --------- --<br>---------- -- -------- ----------------,571313.9049997553,571312.6300000586,570718.611,570726.1399999261,570735.341,571318.568,,29,from
screen,html.Screen,1_3_1_0_1_30,2021-04-12T10:05:06.765Z,,,,,,,,,,,,,,,,11,,,,,,,,,,,,,,956.2470001280308,,response,,,,4,A,,,,,,Space,keypress(Space),,,,silence,,,,----- -- ---- --- -- --- -------- ------------ ---------- --<br>- ------- ------ --------- -- ------------ -- --- ---- -----<br>------ ---- ---- ------ ------ ------- --- ----- ---------<br>---- the -------- -------- --- --- -- ------- --- --- -----<br>-- --- ------ ------- --- --- -------- ---- --------- --<br>---------- -- -------- ----------------,572275.8450000547,572274.815000128,571302.017,571314.18999983,571318.568,572285.059,,30,the
screen,html.Screen,1_3_1_0_1_31,2021-04-12T10:05:07.396Z,,,,,,,,,,,,,,,,11,,,,,,,,,,,,,,620.1360001157736,,response,,,,4,A,,,,,,Space,keypress(Space),,,,silence,,,,----- -- ---- --- -- --- -------- ------------ ---------- --<br>- ------- ------ --------- -- ------------ -- --- ---- -----<br>------ ---- ---- ------ ------ ------- --- ----- ---------<br>---- --- island's -------- --- --- -- ------- --- --- -----<br>-- --- ------ ------- --- --- -------- ---- --------- --<br>---------- -- -------- ----------------,572906.3149997965,572905.1950001158,572268.59,572276.109999977,572285.059,572918.508,,31,island's
screen,html.Screen,1_3_1_0_1_32,2021-04-12T10:05:07.782Z,,,,,,,,,,,,,,,,11,,,,,,,,,,,,,,372.5619998028269,,response,,,,4,A,,,,,,Space,keypress(Space),,,,silence,,,,----- -- ---- --- -- --- -------- ------------ ---------- --<br>- ------- ------ --------- -- ------------ -- --- ---- -----<br>------ ---- ---- ------ ------ ------- --- ----- ---------<br>---- --- -------- history. --- --- -- ------- --- --- -----<br>-- --- ------ ------- --- --- -------- ---- --------- --<br>---------- -- -------- ----------------,573292.2999998555,573291.0699998029,572901.825,572906.5700001083,572918.508,573301.614,,32,history.
screen,html.Screen,1_3_1_0_1_33,2021-04-12T10:05:08.512Z,,,,,,,,,,,,,,,,11,,,,,,,,,,,,,,719.4159999453695,,response,,,,4,A,,,,,,Space,keypress(Space),,,,silence,,,,----- -- ---- --- -- --- -------- ------------ ---------- --<br>- ------- ------ --------- -- ------------ -- --- ---- -----<br>------ ---- ---- ------ ------ ------- --- ----- ---------<br>---- --- -------- -------- The --- -- ------- --- --- -----<br>-- --- ------ ------- --- --- -------- ---- --------- --<br>---------- -- -------- ----------------,574022.1699997783,574021.0299999453,573285.149,573292.574999854,573301.614,574035.032,,33,The
screen,html.Screen,1_3_1_0_1_34,2021-04-12T10:05:08.879Z,,,,,,,,,,,,,,,,11,,,,,,,,,,,,,,353.9729997717077,,response,,,,4,A,,,,,,Space,keypress(Space),,,,silence,,,,----- -- ---- --- -- --- -------- ------------ ---------- --<br>- ------- ------ --------- -- ------------ -- --- ---- -----<br>------ ---- ---- ------ ------ ------- --- ----- ---------<br>---- --- -------- -------- --- art -- ------- --- --- -----<br>-- --- ------ ------- --- --- -------- ---- --------- --<br>---------- -- -------- ----------------,574390.0349996984,574389.0049997717,574018.363,574022.4649999291,574035.032,574401.614,,34,art
screen,html.Screen,1_3_1_0_1_35,2021-04-12T10:05:09.283Z,,,,,,,,,,,,,,,,11,,,,,,,,,,,,,,390.99599988770206,,response,,,,4,A,,,,,,Space,keypress(Space),,,,silence,,,,----- -- ---- --- -- --- -------- ------------ ---------- --<br>- ------- ------ --------- -- ------------ -- --- ---- -----<br>------ ---- ---- ------ ------ ------- --- ----- ---------<br>---- --- -------- -------- --- --- of ------- --- --- -----<br>-- --- ------ ------- --- --- -------- ---- --------- --<br>---------- -- -------- ----------------,574793.5899998993,574792.6099998876,574385.005,574390.2849997394,574401.614,574801.49,,35,of
screen,html.Screen,1_3_1_0_1_36,2021-04-12T10:05:09.736Z,,,,,,,,,,,,,,,,11,,,,,,,,,,,,,,444.3049998788629,,response,,,,4,A,,,,,,Space,keypress(Space),,,,silence,,,,----- -- ---- --- -- --- -------- ------------ ---------- --<br>- ------- ------ --------- -- ------------ -- --- ---- -----<br>------ ---- ---- ------ ------ ------- --- ----- ---------<br>---- --- -------- -------- --- --- -- writing --- --- -----<br>-- --- ------ ------- --- --- -------- ---- --------- --<br>---------- -- -------- ----------------,575247.0450000837,575245.7949998789,574784.95,574793.8250000589,574801.49,575251.315,,36,writing
screen,html.Screen,1_3_1_0_1_37,2021-04-12T10:05:10.169Z,,,,,,,,,,,,,,,,11,,,,,,,,,,,,,,426.93000007560477,,response,,,,4,A,,,,,,Space,keypress(Space),,,,silence,,,,----- -- ---- --- -- --- -------- ------------ ---------- --<br>- ------- ------ --------- -- ------------ -- --- ---- -----<br>------ ---- ---- ------ ------ ------- --- ----- ---------<br>---- --- -------- -------- --- --- -- ------- was --- -----<br>-- --- ------ ------- --- --- -------- ---- --------- --<br>---------- -- -------- ----------------,575679.4900000095,575678.2450000755,575234.897,575247.3349999636,575251.315,575684.544,,37,was
screen,html.Screen,1_3_1_0_1_38,2021-04-12T10:05:10.636Z,,,,,,,,,,,,,,,,11,,,,,,,,,,,,,,461.3659999629017,,response,,,,4,A,,,,,,Space,keypress(Space),,,,silence,,,,----- -- ---- --- -- --- -------- ------------ ---------- --<br>- ------- ------ --------- -- ------------ -- --- ---- -----<br>------ ---- ---- ------ ------ ------- --- ----- ---------<br>---- --- -------- -------- --- --- -- ------- --- not -----<br>-- --- ------ ------- --- --- -------- ---- --------- --<br>---------- -- -------- ----------------,576146.8949997798,576145.9099999629,575668.176,575679.8000000417,575684.544,576151.19,,38,not
