sender,sender_type,sender_id,timestamp,meta,,Blues,Classical,Country,Dance,Electronic,Folk,Gospel,Hip-Hop,Jazz,Latin,Musical/Film,New-age,Pop,Provo_ID,R&B,Rap,Reggae,Religious,Rock,Soul,Swing,Traditional,age,artist_name,correct,correctResponse,distraction,duration,education,ended_on,familiarity,gender,item,list,music_frequency,offensiveness,pleasantness,preference,response,response_action,snippet_file,song_name,song_rating,sound,text,time_commit,time_end,time_render,time_run,time_show,time_switch,url,word,word_ID
Instructions,html.Page,0_0,2021-11-12T12:41:34.910Z,"{""labjs_version"":""20.2.3"",""labjs_build"":{""flavor"":""production"",""commit"":""7ea907d66ca8aeef8054924ca5d82ffbe11e34e5""},""location"":""https://run.pavlovia.org/mvasilev/lab_music_f/"",""userAgent"":""Mozilla/5.0 (Windows NT 6.1; Win64; x64) AppleWebKit/537.36 (KHTML, like Gecko) Chrome/95.0.4638.69 Safari/537.36"",""platform"":""Win32"",""language"":""en-US"",""locale"":""en-US"",""timeZone"":""Europe/London"",""timezoneOffset"":0,""screen_width"":1920,""screen_height"":1080,""scroll_width"":1920,""scroll_height"":959,""window_innerWidth"":1920,""window_innerHeight"":1007,""devicePixelRatio"":1}",,,,,,,,,,,,,,,,,,,,,,,,,,,,,36735.13599995232,,form submission,,,,,,,,,,,,,,,,44372.19999998808,44371.299999952316,7602.834,7615.799999952316,7636.164,44367.674,{},,
Headphones,html.Page,0_1,2021-11-12T12:41:40.796Z,,,,,,,,,,,,,,,,,,,,,,,,,,,,,,5890.02599998808,,form submission,,,,,,,,,,,,,,,,50258,50257.69999998808,44350.998,44372.69999998808,44367.674,50267.383,,,
Holding screen,html.Screen,0_2_0_0,2021-11-12T12:41:50.794Z,,,,,,,,,,,,,,,,,,,,,,,,,,,,,,9998.992999999995,,timeout,,,,,,,,,,,,,,,,60253.299999952316,60249.711,50250.707,50258.5,50267.383,60266.376,,,
screen,html.Screen,0_2_0_1_0,2021-11-12T12:41:51.817Z,,,,,,,,,,,,,,,,53,,,,,,,,,,,,,,1009.0239999761616,,response,,,99,,,,,,Space,keypress(Space),,,,,When -- ----- -- ------ - ------- --- ----------<br>------------- ------ ------ ---- ---- ------- ----- -- ----<br>-------- ------- -- ---------- --- - --- ----- ----- ----<br>---- --- --- ----- --- ---- ---- ------- ----- ---- -------<br>--- --- -- ----- -- --- ---- -- --- ---- -- ------ ------<br>--- ----- -- ----,61276.39999997616,61275.39999997616,60249.711,60253.59999996424,60266.376,61283.002,,0,When
screen,html.Screen,0_2_0_1_1,2021-11-12T12:41:52.345Z,,,,,,,,,,,,,,,,53,,,,,,,,,,,,,,520.2979999523159,,response,,,99,,,,,,Space,keypress(Space),,,,,---- it ----- -- ------ - ------- --- ----------<br>------------- ------ ------ ---- ---- ------- ----- -- ----<br>-------- ------- -- ---------- --- - --- ----- ----- ----<br>---- --- --- ----- --- ---- ---- ------- ----- ---- -------<br>--- --- -- ----- -- --- ---- -- --- ---- -- ------ ------<br>--- ----- -- ----,61804,61803.299999952316,61266.337,61276.59999996424,61283.002,61816.294,,1,it
screen,html.Screen,0_2_0_1_2,2021-11-12T12:41:52.857Z,,,,,,,,,,,,,,,,53,,,,,,,,,,,,,,499.0059999523146,,response,,,99,,,,,,Space,keypress(Space),,,,,---- -- comes -- ------ - ------- --- ----------<br>------------- ------ ------ ---- ---- ------- ----- -- ----<br>-------- ------- -- ---------- --- - --- ----- ----- ----<br>---- --- --- ----- --- ---- ---- ------- ----- ---- -------<br>--- --- -- ----- -- --- ---- -- --- ---- -- ------ ------<br>--- ----- -- ----,62315.89999997616,62315.299999952316,61799.629,61804.19999998808,61816.294,62332.935,,2,comes
screen,html.Screen,0_2_0_1_3,2021-11-12T12:41:53.329Z,,,,,,,,,,,,,,,,53,,,,,,,,,,,,,,454.2649999880814,,response,,,99,,,,,,Space,keypress(Space),,,,,---- -- ----- to ------ - ------- --- ----------<br>------------- ------ ------ ---- ---- ------- ----- -- ----<br>-------- ------- -- ---------- --- - --- ----- ----- ----<br>---- --- --- ----- --- ---- ---- ------- ----- ---- -------<br>--- --- -- ----- -- --- ---- -- --- ---- -- ------ ------<br>--- ----- -- ----,62787.89999997616,62787.19999998808,62316.27,62316.09999996424,62332.935,62799.587,,3,to
screen,html.Screen,0_2_0_1_4,2021-11-12T12:41:53.793Z,,,,,,,,,,,,,,,,53,,,,,,,,,,,,,,451.71299995231675,,response,,,99,,,,,,Space,keypress(Space),,,,,---- -- ----- -- having - ------- --- ----------<br>------------- ------ ------ ---- ---- ------- ----- -- ----<br>-------- ------- -- ---------- --- - --- ----- ----- ----<br>---- --- --- ----- --- ---- ---- ------- ----- ---- -------<br>--- --- -- ----- -- --- ---- -- --- ---- -- ------ ------<br>--- ----- -- ----,63252.09999996424,63251.299999952316,62782.922,62788.299999952316,62799.587,63266.213,,4,having
screen,html.Screen,0_2_0_1_5,2021-11-12T12:41:54.209Z,,,,,,,,,,,,,,,,53,,,,,,,,,,,,,,400.9869999880757,,response,,,99,,,,,,Space,keypress(Space),,,,,---- -- ----- -- ------ a ------- --- ----------<br>------------- ------ ------ ---- ---- ------- ----- -- ----<br>-------- ------- -- ---------- --- - --- ----- ----- ----<br>---- --- --- ----- --- ---- ---- ------- ----- ---- -------<br>--- --- -- ----- -- --- ---- -- --- ---- -- ------ ------<br>--- ----- -- ----,63667.799999952316,63667.19999998808,63249.548,63252.299999952316,63266.213,63682.881,,5,a
screen,html.Screen,0_2_0_1_6,2021-11-12T12:41:54.649Z,,,,,,,,,,,,,,,,53,,,,,,,,,,,,,,424.31899998807785,,response,,,99,,,,,,Space,keypress(Space),,,,,---- -- ----- -- ------ - lasting --- ----------<br>------------- ------ ------ ---- ---- ------- ----- -- ----<br>-------- ------- -- ---------- --- - --- ----- ----- ----<br>---- --- --- ----- --- ---- ---- ------- ----- ---- -------<br>--- --- -- ----- -- --- ---- -- --- ---- -- ------ ------<br>--- ----- -- ----,64108,64107.19999998808,63666.215,63668.19999998808,63682.881,64116.171,,6,lasting
screen,html.Screen,0_2_0_1_7,2021-11-12T12:41:55.065Z,,,,,,,,,,,,,,,,53,,,,,,,,,,,,,,407.028999988077,,response,,,99,,,,,,Space,keypress(Space),,,,,---- -- ----- -- ------ - ------- and ----------<br>------------- ------ ------ ---- ---- ------- ----- -- ----<br>-------- ------- -- ---------- --- - --- ----- ----- ----<br>---- --- --- ----- --- ---- ---- ------- ----- ---- -------<br>--- --- -- ----- -- --- ---- -- --- ---- -- ------ ------<br>--- ----- -- ----,64523.89999997616,64523.19999998808,64099.506,64108.19999998808,64116.171,64532.74,,7,and
screen,html.Screen,0_2_0_1_8,2021-11-12T12:41:55.521Z,,,,,,,,,,,,,,,,53,,,,,,,,,,,,,,446.35999996423925,,response,,,99,,,,,,Space,keypress(Space),,,,,---- -- ----- -- ------ - ------- --- fulfilling<br>------------- ------ ------ ---- ---- ------- ----- -- ----<br>-------- ------- -- ---------- --- - --- ----- ----- ----<br>---- --- --- ----- --- ---- ---- ------- ----- ---- -------<br>--- --- -- ----- -- --- ---- -- --- ---- -- ------ ------<br>--- ----- -- ----,64979.799999952316,64979.09999996424,64516.076,64524.09999996424,64532.74,64982.833,,8,fulfilling
screen,html.Screen,0_2_0_1_9,2021-11-12T12:41:56.065Z,,,,,,,,,,,,,,,,53,,,,,,,,,,,,,,540.2669999642385,,response,,,99,,,,,,Space,keypress(Space),,,,,"---- -- ----- -- ------ - ------- --- ----------<br>relationship, ------ ------ ---- ---- ------- ----- -- ----<br>-------- ------- -- ---------- --- - --- ----- ----- ----<br>---- --- --- ----- --- ---- ---- ------- ----- ---- -------<br>--- --- -- ----- -- --- ---- -- --- ---- -- ------ ------<br>--- ----- -- ----",65523.799999952316,65523.09999996424,64966.167,64980.09999996424,64982.833,65532.652,,9,"relationship,"
screen,html.Screen,0_2_0_1_10,2021-11-12T12:41:56.753Z,,,,,,,,,,,,,,,,53,,,,,,,,,,,,,,678.6479999523144,,response,,,99,,,,,,Space,keypress(Space),,,,,---- -- ----- -- ------ - ------- --- ----------<br>------------- common ------ ---- ---- ------- ----- -- ----<br>-------- ------- -- ---------- --- - --- ----- ----- ----<br>---- --- --- ----- --- ---- ---- ------- ----- ---- -------<br>--- --- -- ----- -- --- ---- -- --- ---- -- ------ ------<br>--- ----- -- ----,66211.89999997616,66211.29999995232,65515.988,65524,65532.652,66216.001,,10,common
screen,html.Screen,0_2_0_1_11,2021-11-12T12:41:57.377Z,,,,,,,,,,,,,,,,53,,,,,,,,,,,,,,619.0989999642334,,response,,,99,,,,,,Space,keypress(Space),,,,,---- -- ----- -- ------ - ------- --- ----------<br>------------- ------ wisdom ---- ---- ------- ----- -- ----<br>-------- ------- -- ---------- --- - --- ----- ----- ----<br>---- --- --- ----- --- ---- ---- ------- ----- ---- -------<br>--- --- -- ----- -- --- ---- -- --- ---- -- ------ ------<br>--- ----- -- ----,66835.69999998808,66835.09999996424,66199.336,66212.09999996424,66216.001,66849.214,,11,wisdom
screen,html.Screen,0_2_0_1_12,2021-11-12T12:41:58.017Z,,,,,,,,,,,,,,,,53,,,,,,,,,,,,,,625.7859999999928,,response,,,99,,,,,,Space,keypress(Space),,,,,---- -- ----- -- ------ - ------- --- ----------<br>------------- ------ ------ says ---- ------- ----- -- ----<br>-------- ------- -- ---------- --- - --- ----- ----- ----<br>---- --- --- ----- --- ---- ---- ------- ----- ---- -------<br>--- --- -- ----- -- --- ---- -- --- ---- -- ------ ------<br>--- ----- -- ----,67475.59999996424,67475,66832.55,66835.89999997616,66849.214,67482.697,,12,says
screen,html.Screen,0_2_0_1_13,2021-11-12T12:41:58.601Z,,,,,,,,,,,,,,,,53,,,,,,,,,,,,,,576.3029999999999,,response,,,99,,,,,,Space,keypress(Space),,,,,---- -- ----- -- ------ - ------- --- ----------<br>------------- ------ ------ ---- that ------- ----- -- ----<br>-------- ------- -- ---------- --- - --- ----- ----- ----<br>---- --- --- ----- --- ---- ---- ------- ----- ---- -------<br>--- --- -- ----- -- --- ---- -- --- ---- -- ------ ------<br>--- ----- -- ----,68059.5,68059,67466.031,67475.89999997616,67482.697,68065.915,,13,that
screen,html.Screen,0_2_0_1_14,2021-11-12T12:41:59.257Z,,,,,,,,,,,,,,,,53,,,,,,,,,,,,,,648.9849999761645,,response,,,99,,,,,,Space,keypress(Space),,,,,---- -- ----- -- ------ - ------- --- ----------<br>------------- ------ ------ ---- ---- feeling ----- -- ----<br>-------- ------- -- ---------- --- - --- ----- ----- ----<br>---- --- --- ----- --- ---- ---- ------- ----- ---- -------<br>--- --- -- ----- -- --- ---- -- --- ---- -- ------ ------<br>--- ----- -- ----,68715.5,68714.89999997616,68049.25,68059.69999998808,68065.915,68732.537,,14,feeling
screen,html.Screen,0_2_0_1_15,2021-11-12T12:41:59.865Z,,,,,,,,,,,,,,,,53,,,,,,,,,,,,,,590.3629999761615,,response,,,99,,,,,,Space,keypress(Space),,,,,---- -- ----- -- ------ - ------- --- ----------<br>------------- ------ ------ ---- ---- ------- close -- ----<br>-------- ------- -- ---------- --- - --- ----- ----- ----<br>---- --- --- ----- --- ---- ---- ------- ----- ---- -------<br>--- --- -- ----- -- --- ---- -- --- ---- -- ------ ------<br>--- ----- -- ----,69323.5,69322.89999997616,68715.872,68715.69999998808,68732.537,69332.502,,15,close
screen,html.Screen,0_2_0_1_16,2021-11-12T12:42:00.521Z,,,,,,,,,,,,,,,,53,,,,,,,,,,,,,,646.2979999523232,,response,,,99,,,,,,Space,keypress(Space),,,,,---- -- ----- -- ------ - ------- --- ----------<br>------------- ------ ------ ---- ---- ------- ----- to ----<br>-------- ------- -- ---------- --- - --- ----- ----- ----<br>---- --- --- ----- --- ---- ---- ------- ----- ---- -------<br>--- --- -- ----- -- --- ---- -- --- ---- -- ------ ------<br>--- ----- -- ----,69979.59999996424,69978.79999995232,69315.837,69323.69999998808,69332.502,69982.462,,16,to
screen,html.Screen,0_2_0_1_17,2021-11-12T12:42:01.120Z,,,,,,,,,,,,,,,,53,,,,,,,,,,,,,,596.3379999523167,,response,,,99,,,,,,Space,keypress(Space),,,,,---- -- ----- -- ------ - ------- --- ----------<br>------------- ------ ------ ---- ---- ------- ----- -- your<br>-------- ------- -- ---------- --- - --- ----- ----- ----<br>---- --- --- ----- --- ---- ---- ------- ----- ---- -------<br>--- --- -- ----- -- --- ---- -- --- ---- -- ------ ------<br>--- ----- -- ----,70579.39999997616,70578.79999995232,69965.797,69979.69999998808,69982.462,70582.425,,17,your
screen,html.Screen,0_2_0_1_18,2021-11-12T12:42:01.688Z,,,,,,,,,,,,,,,,53,,,,,,,,,,,,,,564.2749999880762,,response,,,99,,,,,,Space,keypress(Space),,,,,---- -- ----- -- ------ - ------- --- ----------<br>------------- ------ ------ ---- ---- ------- ----- -- ----<br>romantic ------- -- ---------- --- - --- ----- ----- ----<br>---- --- --- ----- --- ---- ---- ------- ----- ---- -------<br>--- --- -- ----- -- --- ---- -- --- ---- -- ------ ------<br>--- ----- -- ----,71147.39999997616,71146.69999998808,70565.76,70579.59999996424,70582.425,71149.057,,18,romantic
screen,html.Screen,0_2_0_1_19,2021-11-12T12:42:02.296Z,,,,,,,,,,,,,,,,53,,,,,,,,,,,,,,605.6429999880784,,response,,,99,,,,,,Space,keypress(Space),,,,,---- -- ----- -- ------ - ------- --- ----------<br>------------- ------ ------ ---- ---- ------- ----- -- ----<br>-------- partner -- ---------- --- - --- ----- ----- ----<br>---- --- --- ----- --- ---- ---- ------- ----- ---- -------<br>--- --- -- ----- -- --- ---- -- --- ---- -- ------ ------<br>--- ----- -- ----,71755.29999995232,71754.69999998808,71132.392,71147.5,71149.057,71765.685,,19,partner
screen,html.Screen,0_2_0_1_20,2021-11-12T12:42:02.944Z,,,,,,,,,,,,,,,,53,,,,,,,,,,,,,,636.9149999642395,,response,,,99,,,,,,Space,keypress(Space),,,,,---- -- ----- -- ------ - ------- --- ----------<br>------------- ------ ------ ---- ---- ------- ----- -- ----<br>-------- ------- is ---------- --- - --- ----- ----- ----<br>---- --- --- ----- --- ---- ---- ------- ----- ---- -------<br>--- --- -- ----- -- --- ---- -- --- ---- -- ------ ------<br>--- ----- -- ----,72403.29999995232,72402.59999996424,71749.02,71755.5,71765.685,72415.643,,20,is
screen,html.Screen,0_2_0_1_21,2021-11-12T12:42:03.688Z,,,,,,,,,,,,,,,,53,,,,,,,,,,,,,,730.9569999642408,,response,,,99,,,,,,Space,keypress(Space),,,,,---- -- ----- -- ------ - ------- --- ----------<br>------------- ------ ------ ---- ---- ------- ----- -- ----<br>-------- ------- -- paramount. --- - --- ----- ----- ----<br>---- --- --- ----- --- ---- ---- ------- ----- ---- -------<br>--- --- -- ----- -- --- ---- -- --- ---- -- ------ ------<br>--- ----- -- ----,73147.29999995232,73146.59999996424,72398.978,72403.5,72415.643,73148.945,,21,paramount.
screen,html.Screen,0_2_0_1_22,2021-11-12T12:42:04.376Z,,,,,,,,,,,,,,,,53,,,,,,,,,,,,,,685.6549999642302,,response,,,99,,,,,,Space,keypress(Space),,,,,---- -- ----- -- ------ - ------- --- ----------<br>------------- ------ ------ ---- ---- ------- ----- -- ----<br>-------- ------- -- ---------- But - --- ----- ----- ----<br>---- --- --- ----- --- ---- ---- ------- ----- ---- -------<br>--- --- -- ----- -- --- ---- -- --- ---- -- ------ ------<br>--- ----- -- ----,73835.19999998808,73834.59999996424,73132.28,73147.59999996424,73148.945,73848.891,,22,But
screen,html.Screen,0_2_0_1_23,2021-11-12T12:42:05.064Z,,,,,,,,,,,,,,,,53,,,,,,,,,,,,,,673.708999964234,,response,,,99,,,,,,Space,keypress(Space),,,,,---- -- ----- -- ------ - ------- --- ----------<br>------------- ------ ------ ---- ---- ------- ----- -- ----<br>-------- ------- -- ---------- --- a --- ----- ----- ----<br>---- --- --- ----- --- ---- ---- ------- ----- ---- -------<br>--- --- -- ----- -- --- ---- -- --- ---- -- ------ ------<br>--- ----- -- ----,74523.19999998808,74522.59999996424,73832.226,73835.39999997616,73848.891,74532.18,,23,a
screen,html.Screen,0_2_0_1_24,2021-11-12T12:42:05.776Z,,,,,,,,,,,,,,,,53,,,,,,,,,,,,,,702.320000000007,,response,,,99,,,,,,Space,keypress(Space),,,,,---- -- ----- -- ------ - ------- --- ----------<br>------------- ------ ------ ---- ---- ------- ----- -- ----<br>-------- ------- -- ---------- --- - new ----- ----- ----<br>---- --- --- ----- --- ---- ---- ------- ----- ---- -------<br>--- --- -- ----- -- --- ---- -- --- ---- -- ------ ------<br>--- ----- -- ----,75235.09999996424,75234.5,74515.515,74523.39999997616,74532.18,75248.802,,24,new
screen,html.Screen,0_2_0_1_25,2021-11-12T12:42:06.448Z,,,,,,,,,,,,,,,,53,,,,,,,,,,,,,,657.698000000004,,response,,,99,,,,,,Space,keypress(Space),,,,,---- -- ----- -- ------ - ------- --- ----------<br>------------- ------ ------ ---- ---- ------- ----- -- ----<br>-------- ------- -- ---------- --- - --- study ----- ----<br>---- --- --- ----- --- ---- ---- ------- ----- ---- -------<br>--- --- -- ----- -- --- ---- -- --- ---- -- ------ ------<br>--- ----- -- ----,75907.19999998808,75906.5,75232.137,75235.29999995232,75248.802,75915.427,,25,study
screen,html.Screen,0_2_0_1_26,2021-11-12T12:42:07.040Z,,,,,,,,,,,,,,,,53,,,,,,,,,,,,,,583.272999988083,,response,,,99,,,,,,Space,keypress(Space),,,,,---- -- ----- -- ------ - ------- --- ----------<br>------------- ------ ------ ---- ---- ------- ----- -- ----<br>-------- ------- -- ---------- --- - --- ----- finds ----<br>---- --- --- ----- --- ---- ---- ------- ----- ---- -------<br>--- --- -- ----- -- --- ---- -- --- ---- -- ------ ------<br>--- ----- -- ----,76499.29999995232,76498.69999998808,75898.762,75907.29999995232,75915.427,76515.365,,26,finds
screen,html.Screen,0_2_0_1_27,2021-11-12T12:42:07.600Z,,,,,,,,,,,,,,,,53,,,,,,,,,,,,,,543.0349999761529,,response,,,99,,,,,,Space,keypress(Space),,,,,---- -- ----- -- ------ - ------- --- ----------<br>------------- ------ ------ ---- ---- ------- ----- -- ----<br>-------- ------- -- ---------- --- - --- ----- ----- that<br>---- --- --- ----- --- ---- ---- ------- ----- ---- -------<br>--- --- -- ----- -- --- ---- -- --- ---- -- ------ ------<br>--- ----- -- ----,77059,77058.39999997616,76498.7,76499.5,76515.365,77065.422,,27,that
screen,html.Screen,0_2_0_1_28,2021-11-12T12:42:08.152Z,,,,,,,,,,,,,,,,53,,,,,,,,,,,,,,544.8779999523103,,response,,,99,,,,,,Space,keypress(Space),,,,,---- -- ----- -- ------ - ------- --- ----------<br>------------- ------ ------ ---- ---- ------- ----- -- ----<br>-------- ------- -- ---------- --- - --- ----- ----- ----<br>it's --- --- ----- --- ---- ---- ------- ----- ---- -------<br>--- --- -- ----- -- --- ---- -- --- ---- -- ------ ------<br>--- ----- -- ----,77610.89999997616,77610.29999995232,77048.756,77059.19999998808,77065.422,77615.335,,28,it's
screen,html.Screen,0_2_0_1_29,2021-11-12T12:42:08.656Z,,,,,,,,,,,,,,,,53,,,,,,,,,,,,,,498.9649999523099,,response,,,99,,,,,,Space,keypress(Space),,,,,---- -- ----- -- ------ - ------- --- ----------<br>------------- ------ ------ ---- ---- ------- ----- -- ----<br>-------- ------- -- ---------- --- - --- ----- ----- ----<br>---- not --- ----- --- ---- ---- ------- ----- ---- -------<br>--- --- -- ----- -- --- ---- -- --- ---- -- ------ ------<br>--- ----- -- ----,78115,78114.29999995232,77598.67,77611.09999996424,77615.335,78131.972,,29,not
screen,html.Screen,0_2_0_1_30,2021-11-12T12:42:09.032Z,,,,,,,,,,,,,,,,53,,,,,,,,,,,,,,358.2279999880848,,response,,,99,,,,,,Space,keypress(Space),,,,,---- -- ----- -- ------ - ------- --- ----------<br>------------- ------ ------ ---- ---- ------- ----- -- ----<br>-------- ------- -- ---------- --- - --- ----- ----- ----<br>---- --- how ----- --- ---- ---- ------- ----- ---- -------<br>--- --- -- ----- -- --- ---- -- --- ---- -- ------ ------<br>--- ----- -- ----,78490.89999997616,78490.19999998808,78115.307,78115.19999998808,78131.972,78498.622,,30,how
screen,html.Screen,0_2_0_1_31,2021-11-12T12:42:09.488Z,,,,,,,,,,,,,,,,53,,,,,,,,,,,,,,447.67799995231326,,response,,,99,,,,,,Space,keypress(Space),,,,,---- -- ----- -- ------ - ------- --- ----------<br>------------- ------ ------ ---- ---- ------- ----- -- ----<br>-------- ------- -- ---------- --- - --- ----- ----- ----<br>---- --- --- close --- ---- ---- ------- ----- ---- -------<br>--- --- -- ----- -- --- ---- -- --- ---- -- ------ ------<br>--- ----- -- ----,78946.79999995232,78946.29999995232,78481.957,78491,78498.622,78948.595,,31,close
screen,html.Screen,0_2_0_1_32,2021-11-12T12:42:09.904Z,,,,,,,,,,,,,,,,53,,,,,,,,,,,,,,413.6049999880779,,response,,,99,,,,,,Space,keypress(Space),,,,,---- -- ----- -- ------ - ------- --- ----------<br>------------- ------ ------ ---- ---- ------- ----- -- ----<br>-------- ------- -- ---------- --- - --- ----- ----- ----<br>---- --- --- ----- you ---- ---- ------- ----- ---- -------<br>--- --- -- ----- -- --- ---- -- --- ---- -- ------ ------<br>--- ----- -- ----,79362.79999995232,79362.19999998808,78931.93,78947,78948.595,79365.234,,32,you
screen,html.Screen,0_2_0_1_33,2021-11-12T12:42:10.280Z,,,,,,,,,,,,,,,,53,,,,,,,,,,,,,,372.96599998808233,,response,,,99,,,,,,Space,keypress(Space),,,,,---- -- ----- -- ------ - ------- --- ----------<br>------------- ------ ------ ---- ---- ------- ----- -- ----<br>-------- ------- -- ---------- --- - --- ----- ----- ----<br>---- --- --- ----- --- feel ---- ------- ----- ---- -------<br>--- --- -- ----- -- --- ---- -- --- ---- -- ------ ------<br>--- ----- -- ----,79738.89999997616,79738.19999998808,79348.569,79362.89999997616,79365.234,79748.549,,33,feel
screen,html.Screen,0_2_0_1_34,2021-11-12T12:42:10.712Z,,,,,,,,,,,,,,,,53,,,,,,,,,,,,,,421.65099998808,,response,,,99,,,,,,Space,keypress(Space),,,,,---- -- ----- -- ------ - ------- --- ----------<br>------------- ------ ------ ---- ---- ------- ----- -- ----<br>-------- ------- -- ---------- --- - --- ----- ----- ----<br>---- --- --- ----- --- ---- that ------- ----- ---- -------<br>--- --- -- ----- -- --- ---- -- --- ---- -- ------ ------<br>--- ----- -- ----,80170.79999995232,80170.19999998808,79731.884,79739.09999996424,79748.549,80181.843,,34,that
screen,html.Screen,0_2_0_1_35,2021-11-12T12:42:11.184Z,,,,,,,,,,,,,,,,53,,,,,,,,,,,,,,460.3569999880856,,response,,,99,,,,,,Space,keypress(Space),,,,,---- -- ----- -- ------ - ------- --- ----------<br>------------- ------ ------ ---- ---- ------- ----- -- ----<br>-------- ------- -- ---------- --- - --- ----- ----- ----<br>---- --- --- ----- --- ---- ---- matters ----- ---- -------<br>--- --- -- ----- -- --- ---- -- --- ---- -- ------ ------<br>--- ----- -- ----,80642.79999995232,80642.19999998808,80165.178,80171,80181.843,80648.499,,35,matters
screen,html.Screen,0_2_0_1_36,2021-11-12T12:42:11.656Z,,,,,,,,,,,,,,,,53,,,,,,,,,,,,,,465.60099996424105,,response,,,99,,,,,,Space,keypress(Space),,,,,"---- -- ----- -- ------ - ------- --- ----------<br>------------- ------ ------ ---- ---- ------- ----- -- ----<br>-------- ------- -- ---------- --- - --- ----- ----- ----<br>---- --- --- ----- --- ---- ---- ------- most, ---- -------<br>--- --- -- ----- -- --- ---- -- --- ---- -- ------ ------<br>--- ----- -- ----",81114.69999998808,81114.09999996424,80631.834,80642.89999997616,80648.499,81131.715,,36,"most,"
screen,html.Screen,0_2_0_1_37,2021-11-12T12:42:12.120Z,,,,,,,,,,,,,,,,53,,,,,,,,,,,,,,446.3849999642407,,response,,,99,,,,,,Space,keypress(Space),,,,,---- -- ----- -- ------ - ------- --- ----------<br>------------- ------ ------ ---- ---- ------- ----- -- ----<br>-------- ------- -- ---------- --- - --- ----- ----- ----<br>---- --- --- ----- --- ---- ---- ------- ----- it's -------<br>--- --- -- ----- -- --- ---- -- --- ---- -- ------ ------<br>--- ----- -- ----,81578.69999998808,81578.09999996424,81115.051,81114.89999997616,81131.715,81581.818,,37,it's
screen,html.Screen,0_2_0_1_38,2021-11-12T12:42:12.584Z,,,,,,,,,,,,,,,,53,,,,,,,,,,,,,,460.1820000000007,,response,,,99,,,,,,Space,keypress(Space),,,,,---- -- ----- -- ------ - ------- --- ----------<br>------------- ------ ------ ---- ---- ------- ----- -- ----<br>-------- ------- -- ---------- --- - --- ----- ----- ----<br>---- --- --- ----- --- ---- ---- ------- ----- ---- whether<br>--- --- -- ----- -- --- ---- -- --- ---- -- ------ ------<br>--- ----- -- ----,82042.69999998808,82042,81565.152,81578.79999995232,81581.818,82048.386,,38,whether
screen,html.Screen,0_2_0_1_39,2021-11-12T12:42:13.024Z,,,,,,,,,,,,,,,,53,,,,,,,,,,,,,,433.6140000000014,,response,,,99,,,,,,Space,keypress(Space),,,,,---- -- ----- -- ------ - ------- --- ----------<br>------------- ------ ------ ---- ---- ------- ----- -- ----<br>-------- ------- -- ---------- --- - --- ----- ----- ----<br>---- --- --- ----- --- ---- ---- ------- ----- ---- -------<br>you --- -- ----- -- --- ---- -- --- ---- -- ------ ------<br>--- ----- -- ----,82482.69999998808,82482,82031.721,82042.89999997616,82048.386,82498.27,,39,you
screen,html.Screen,0_2_0_1_40,2021-11-12T12:42:13.440Z,,,,,,,,,,,,,,,,53,,,,,,,,,,,,,,399.7299999999959,,response,,,99,,,,,,Space,keypress(Space),,,,,---- -- ----- -- ------ - ------- --- ----------<br>------------- ------ ------ ---- ---- ------- ----- -- ----<br>-------- ------- -- ---------- --- - --- ----- ----- ----<br>---- --- --- ----- --- ---- ---- ------- ----- ---- -------<br>--- are -- ----- -- --- ---- -- --- ---- -- ------ ------<br>--- ----- -- ----,82898.5,82898,82481.606,82482.89999997616,82498.27,82915.043,,40,are
screen,html.Screen,0_2_0_1_41,2021-11-12T12:42:13.824Z,,,,,,,,,,,,,,,,53,,,,,,,,,,,,,,367.0569999642321,,response,,,99,,,,,,Space,keypress(Space),,,,,---- -- ----- -- ------ - ------- --- ----------<br>------------- ------ ------ ---- ---- ------- ----- -- ----<br>-------- ------- -- ---------- --- - --- ----- ----- ----<br>---- --- --- ----- --- ---- ---- ------- ----- ---- -------<br>--- --- as ----- -- --- ---- -- --- ---- -- ------ ------<br>--- ----- -- ----,83282.89999997616,83282.09999996424,82898.377,82898.69999998808,82915.043,83298.266,,41,as
screen,html.Screen,0_2_0_1_42,2021-11-12T12:42:14.232Z,,,,,,,,,,,,,,,,53,,,,,,,,,,,,,,391.6339999761549,,response,,,99,,,,,,Space,keypress(Space),,,,,---- -- ----- -- ------ - ------- --- ----------<br>------------- ------ ------ ---- ---- ------- ----- -- ----<br>-------- ------- -- ---------- --- - --- ----- ----- ----<br>---- --- --- ----- --- ---- ---- ------- ----- ---- -------<br>--- --- -- close -- --- ---- -- --- ---- -- ------ ------<br>--- ----- -- ----,83690.5,83689.89999997616,83281.602,83283.09999996424,83298.266,83698.293,,42,close
screen,html.Screen,0_2_0_1_43,2021-11-12T12:42:14.640Z,,,,,,,,,,,,,,,,53,,,,,,,,,,,,,,399.7069999999949,,response,,,99,,,,,,Space,keypress(Space),,,,,---- -- ----- -- ------ - ------- --- ----------<br>------------- ------ ------ ---- ---- ------- ----- -- ----<br>-------- ------- -- ---------- --- - --- ----- ----- ----<br>---- --- --- ----- --- ---- ---- ------- ----- ---- -------<br>--- --- -- ----- as --- ---- -- --- ---- -- ------ ------<br>--- ----- -- ----,84098.59999996424,84098,83681.628,83690.69999998808,83698.293,84114.965,,43,as
screen,html.Screen,0_2_0_1_44,2021-11-12T12:42:15.055Z,,,,,,,,,,,,,,,,53,,,,,,,,,,,,,,398.93499997616163,,response,,,99,,,,,,Space,keypress(Space),,,,,---- -- ----- -- ------ - ------- --- ----------<br>------------- ------ ------ ---- ---- ------- ----- -- ----<br>-------- ------- -- ---------- --- - --- ----- ----- ----<br>---- --- --- ----- --- ---- ---- ------- ----- ---- -------<br>--- --- -- ----- -- you ---- -- --- ---- -- ------ ------<br>--- ----- -- ----,84514.5,84513.89999997616,84098.299,84098.69999998808,84114.965,84531.578,,44,you
screen,html.Screen,0_2_0_1_45,2021-11-12T12:42:15.439Z,,,,,,,,,,,,,,,,53,,,,,,,,,,,,,,366.3219999761641,,response,,,99,,,,,,Space,keypress(Space),,,,,---- -- ----- -- ------ - ------- --- ----------<br>------------- ------ ------ ---- ---- ------- ----- -- ----<br>-------- ------- -- ---------- --- - --- ----- ----- ----<br>---- --- --- ----- --- ---- ---- ------- ----- ---- -------<br>--- --- -- ----- -- --- want -- --- ---- -- ------ ------<br>--- ----- -- ----,84898.5,84897.89999997616,84514.913,84514.69999998808,84531.578,84914.901,,45,want
screen,html.Screen,0_2_0_1_46,2021-11-12T12:42:15.855Z,,,,,,,,,,,,,,,,53,,,,,,,,,,,,,,398.89899995231826,,response,,,99,,,,,,Space,keypress(Space),,,,,---- -- ----- -- ------ - ------- --- ----------<br>------------- ------ ------ ---- ---- ------- ----- -- ----<br>-------- ------- -- ---------- --- - --- ----- ----- ----<br>---- --- --- ----- --- ---- ---- ------- ----- ---- -------<br>--- --- -- ----- -- --- ---- to --- ---- -- ------ ------<br>--- ----- -- ----,85314.39999997616,85313.79999995232,84898.236,84898.69999998808,84914.901,85331.467,,46,to
screen,html.Screen,0_2_0_1_47,2021-11-12T12:42:16.287Z,,,,,,,,,,,,,,,,53,,,,,,,,,,,,,,414.3329999523121,,response,,,99,,,,,,Space,keypress(Space),,,,,"---- -- ----- -- ------ - ------- --- ----------<br>------------- ------ ------ ---- ---- ------- ----- -- ----<br>-------- ------- -- ---------- --- - --- ----- ----- ----<br>---- --- --- ----- --- ---- ---- ------- ----- ---- -------<br>--- --- -- ----- -- --- ---- -- be, ---- -- ------ ------<br>--- ----- -- ----",85746.39999997616,85745.79999995232,85314.803,85314.5,85331.467,85748.162,,47,"be,"
screen,html.Screen,0_2_0_1_48,2021-11-12T12:42:16.751Z,,,,,,,,,,,,,,,,53,,,,,,,,,,,,,,461.7379999761615,,response,,,99,,,,,,Space,keypress(Space),,,,,---- -- ----- -- ------ - ------- --- ----------<br>------------- ------ ------ ---- ---- ------- ----- -- ----<br>-------- ------- -- ---------- --- - --- ----- ----- ----<br>---- --- --- ----- --- ---- ---- ------- ----- ---- -------<br>--- --- -- ----- -- --- ---- -- --- even -- ------ ------<br>--- ----- -- ----,86210.5,86209.89999997616,85731.497,85746.59999996424,85748.162,86214.847,,48,even
screen,html.Screen,0_2_0_1_49,2021-11-12T12:42:17.192Z,,,,,,,,,,,,,,,,53,,,,,,,,,,,,,,435.1530000000057,,response,,,99,,,,,,Space,keypress(Space),,,,,---- -- ----- -- ------ - ------- --- ----------<br>------------- ------ ------ ---- ---- ------- ----- -- ----<br>-------- ------- -- ---------- --- - --- ----- ----- ----<br>---- --- --- ----- --- ---- ---- ------- ----- ---- -------<br>--- --- -- ----- -- --- ---- -- --- ---- if ------ ------<br>--- ----- -- ----,86650.59999996424,86650,86198.181,86210.69999998808,86214.847,86664.829,,49,if
screen,html.Screen,0_2_0_1_50,2021-11-12T12:42:17.631Z,,,,,,,,,,,,,,,,53,,,,,,,,,,,,,,424.87099998808117,,response,,,99,,,,,,Space,keypress(Space),,,,,---- -- ----- -- ------ - ------- --- ----------<br>------------- ------ ------ ---- ---- ------- ----- -- ----<br>-------- ------- -- ---------- --- - --- ----- ----- ----<br>---- --- --- ----- --- ---- ---- ------- ----- ---- -------<br>--- --- -- ----- -- --- ---- -- --- ---- -- that's ------<br>--- ----- -- ----,87090.5,87089.69999998808,86648.163,86650.79999995232,86664.829,87097.941,,50,that's
screen,html.Screen,0_2_0_1_51,2021-11-12T12:42:18.039Z,,,,,,,,,,,,,,,,53,,,,,,,,,,,,,,399.7589999880729,,response,,,99,,,,,,Space,keypress(Space),,,,,---- -- ----- -- ------ - ------- --- ----------<br>------------- ------ ------ ---- ---- ------- ----- -- ----<br>-------- ------- -- ---------- --- - --- ----- ----- ----<br>---- --- --- ----- --- ---- ---- ------- ----- ---- -------<br>--- --- -- ----- -- --- ---- -- --- ---- -- ------ really<br>--- ----- -- ----,87498.5,87497.69999998808,87081.278,87090.69999998808,87097.941,87514.77,,51,really
screen,html.Screen,0_2_0_1_52,2021-11-12T12:42:18.439Z,,,,,,,,,,,,,,,,53,,,,,,,,,,,,,,382.929999988075,,response,,,99,,,,,,Space,keypress(Space),,,,,---- -- ----- -- ------ - ------- --- ----------<br>------------- ------ ------ ---- ---- ------- ----- -- ----<br>-------- ------- -- ---------- --- - --- ----- ----- ----<br>---- --- --- ----- --- ---- ---- ------- ----- ---- -------<br>--- --- -- ----- -- --- ---- -- --- ---- -- ------ ------<br>not ----- -- ----,87898.29999995232,87897.69999998808,87498.104,87498.69999998808,87514.77,87914.738,,52,not
screen,html.Screen,0_2_0_1_53,2021-11-12T12:42:18.831Z,,,,,,,,,,,,,,,,53,,,,,,,,,,,,,,374.86199996423966,,response,,,99,,,,,,Space,keypress(Space),,,,,---- -- ----- -- ------ - ------- --- ----------<br>------------- ------ ------ ---- ---- ------- ----- -- ----<br>-------- ------- -- ---------- --- - --- ----- ----- ----<br>---- --- --- ----- --- ---- ---- ------- ----- ---- -------<br>--- --- -- ----- -- --- ---- -- --- ---- -- ------ ------<br>--- close -- ----,88290.29999995232,88289.59999996424,87898.072,87898.69999998808,87914.738,88298.029,,53,close
screen,html.Screen,0_2_0_1_54,2021-11-12T12:42:19.335Z,,,,,,,,,,,,,,,,53,,,,,,,,,,,,,,495.6709999880841,,response,,,99,,,,,,Space,keypress(Space),,,,,---- -- ----- -- ------ - ------- --- ----------<br>------------- ------ ------ ---- ---- ------- ----- -- ----<br>-------- ------- -- ---------- --- - --- ----- ----- ----<br>---- --- --- ----- --- ---- ---- ------- ----- ---- -------<br>--- --- -- ----- -- --- ---- -- --- ---- -- ------ ------<br>--- ----- at ----,88794.19999998808,88793.69999998808,88281.364,88290.39999997616,88298.029,88797.997,,54,at
screen,html.Screen,0_2_0_1_55,2021-11-12T12:42:20.111Z,,,,,,,,,,,,,,,,53,,,,,,,,,,,,,,771.6029999642342,,response,,,99,,,,,,Space,keypress(Space),,,,,---- -- ----- -- ------ - ------- --- ----------<br>------------- ------ ------ ---- ---- ------- ----- -- ----<br>-------- ------- -- ---------- --- - --- ----- ----- ----<br>---- --- --- ----- --- ---- ---- ------- ----- ---- -------<br>--- --- -- ----- -- --- ---- -- --- ---- -- ------ ------<br>--- ----- -- all.,89570.29999995232,89569.59999996424,88781.332,88794.39999997616,88797.997,89581.246,,55,all.
Item 99,flow.Loop,0_2_0_1,2021-11-12T12:42:20.115Z,,,,,,,,,,,,,,,,,,,,,,,,,,,,,,29303.22399996424,,completion,,,,F,,,,,,,,,,silence,,89573.69999998808,89569.59999996424,60249.711,60253.5,60266.376,89581.246,,,
Question 1,html.Screen,0_2_0_2,2021-11-12T12:42:24.802Z,,,,,,,,,,,,,,,,,,,,,,,,,,,true,FALSE,,4678.95399998808,,response,,,99,F,,,,,FALSE,click #choice-2,,,,silence,,94261.29999995232,94260.19999998808,89564.581,89574,89581.246,94280.964,,,
Question 2,html.Screen,0_2_0_3,2021-11-12T12:42:30.346Z,,,,,,,,,,,,,,,,,,,,,,,,,,,true,TRUE,,5523.335999952309,,response,,,99,F,,,,,TRUE,click #choice-1,,,,silence,,99805.29999995232,99804.29999995232,94264.299,94261.5,94280.964,99814.028,,,
Item 99,flow.Sequence,0_2_0,2021-11-12T12:42:30.347Z,,,,,,,,,,,,,,,,,,,,,,,,,,,,,,49536.916999952315,,completion,,,,,,,,,,,,,,,,99805.59999996424,99804.29999995232,50250.707,50258.39999997616,50267.383,99814.028,,,
Holding screen,html.Screen,0_2_1_0,2021-11-12T12:42:40.339Z,,,,,,,,,,,,,,,,,,,,,,,,,,,,,,9999.307,,timeout,,,,,,,,,,,,,,,,109797.89999997616,109796.67,99797.362,99805.89999997616,99814.028,109813.335,,,
screen,html.Screen,0_2_1_1_0,2021-11-12T12:42:41.262Z,,,,,,,,,,,,,,,,54,,,,,,,,,,,,,,907.2649999642308,,response,,,100,,,,,,Space,keypress(Space),,,,,At --- ---- --- ------ ----- ------- ---- -- --- ------- --<br>------- ---------- ------ -- ----- -- ----- -- ---- ------<br>--- ----- --- --- ------ -------- ----- --- ------ ----- --<br>----- ----- ---------- --- --- ------ ------ ---- -- ------<br>------- --- ------ ----- --- ---- ------- -- ---- --- --<br>------- ------,110721.29999995232,110720.59999996424,109796.67,109798.09999996424,109813.335,110729.948,,0,At
screen,html.Screen,0_2_1_1_1,2021-11-12T12:42:41.622Z,,,,,,,,,,,,,,,,54,,,,,,,,,,,,,,350.3519999523123,,response,,,100,,,,,,Space,keypress(Space),,,,,-- the ---- --- ------ ----- ------- ---- -- --- ------- --<br>------- ---------- ------ -- ----- -- ----- -- ---- ------<br>--- ----- --- --- ------ -------- ----- --- ------ ----- --<br>----- ----- ---------- --- --- ------ ------ ---- -- ------<br>------- --- ------ ----- --- ---- ------- -- ---- --- --<br>------- ------,111080.79999995232,111080.29999995232,110713.283,110721.5,110729.948,111096.616,,1,the
screen,html.Screen,0_2_1_1_2,2021-11-12T12:42:41.998Z,,,,,,,,,,,,,,,,54,,,,,,,,,,,,,,359.58399998808454,,response,,,100,,,,,,Space,keypress(Space),,,,,-- --- time --- ------ ----- ------- ---- -- --- ------- --<br>------- ---------- ------ -- ----- -- ----- -- ---- ------<br>--- ----- --- --- ------ -------- ----- --- ------ ----- --<br>----- ----- ---------- --- --- ------ ------ ---- -- ------<br>------- --- ------ ----- --- ---- ------- -- ---- --- --<br>------- ------,111456.89999997616,111456.19999998808,111079.951,111081,111096.616,111463.255,,2,time
screen,html.Screen,0_2_1_1_3,2021-11-12T12:42:42.350Z,,,,,,,,,,,,,,,,54,,,,,,,,,,,,,,344.9449999880744,,response,,,100,,,,,,Space,keypress(Space),,,,,-- --- ---- the ------ ----- ------- ---- -- --- ------- --<br>------- ---------- ------ -- ----- -- ----- -- ---- ------<br>--- ----- --- --- ------ -------- ----- --- ------ ----- --<br>----- ----- ---------- --- --- ------ ------ ---- -- ------<br>------- --- ------ ----- --- ---- ------- -- ---- --- --<br>------- ------,111808.79999995232,111808.19999998808,111446.59,111457.09999996424,111463.255,111813.264,,3,the
screen,html.Screen,0_2_1_1_4,2021-11-12T12:42:42.750Z,,,,,,,,,,,,,,,,54,,,,,,,,,,,,,,395.0359999523207,,response,,,100,,,,,,Space,keypress(Space),,,,,-- --- ---- --- French ----- ------- ---- -- --- ------- --<br>------- ---------- ------ -- ----- -- ----- -- ---- ------<br>--- ----- --- --- ------ -------- ----- --- ------ ----- --<br>----- ----- ---------- --- --- ------ ------ ---- -- ------<br>------- --- ------ ----- --- ---- ------- -- ---- --- --<br>------- ------,112208.79999995232,112208.29999995232,111796.598,111809,111813.264,112213.221,,4,French
screen,html.Screen,0_2_1_1_5,2021-11-12T12:42:43.134Z,,,,,,,,,,,,,,,,54,,,,,,,,,,,,,,378.97899998807407,,response,,,100,,,,,,Space,keypress(Space),,,,,-- --- ---- --- ------ crown ------- ---- -- --- ------- --<br>------- ---------- ------ -- ----- -- ----- -- ---- ------<br>--- ----- --- --- ------ -------- ----- --- ------ ----- --<br>----- ----- ---------- --- --- ------ ------ ---- -- ------<br>------- --- ------ ----- --- ---- ------- -- ---- --- --<br>------- ------,112592.69999998808,112592.19999998808,112196.556,112209.09999996424,112213.221,112596.468,,5,crown
screen,html.Screen,0_2_1_1_6,2021-11-12T12:42:43.502Z,,,,,,,,,,,,,,,,54,,,,,,,,,,,,,,363.63199996424373,,response,,,100,,,,,,Space,keypress(Space),,,,,-- --- ---- --- ------ ----- secured ---- -- --- ------- --<br>------- ---------- ------ -- ----- -- ----- -- ---- ------<br>--- ----- --- --- ------ -------- ----- --- ------ ----- --<br>----- ----- ---------- --- --- ------ ------ ---- -- ------<br>------- --- ------ ----- --- ---- ------- -- ---- --- --<br>------- ------,112960.69999998808,112960.09999996424,112579.804,112592.89999997616,112596.468,112963.179,,6,secured
screen,html.Screen,0_2_1_1_7,2021-11-12T12:42:43.950Z,,,,,,,,,,,,,,,,54,,,,,,,,,,,,,,445.02099998807535,,response,,,100,,,,,,Space,keypress(Space),,,,,-- --- ---- --- ------ ----- ------- much -- --- ------- --<br>------- ---------- ------ -- ----- -- ----- -- ---- ------<br>--- ----- --- --- ------ -------- ----- --- ------ ----- --<br>----- ----- ---------- --- --- ------ ------ ---- -- ------<br>------- --- ------ ----- --- ---- ------- -- ---- --- --<br>------- ------,113408.69999998808,113408.19999998808,112946.513,112960.89999997616,112963.179,113413.14,,7,much
screen,html.Screen,0_2_1_1_8,2021-11-12T12:42:44.342Z,,,,,,,,,,,,,,,,54,,,,,,,,,,,,,,386.9599999642378,,response,,,100,,,,,,Space,keypress(Space),,,,,-- --- ---- --- ------ ----- ------- ---- of --- ------- --<br>------- ---------- ------ -- ----- -- ----- -- ---- ------<br>--- ----- --- --- ------ -------- ----- --- ------ ----- --<br>----- ----- ---------- --- --- ------ ------ ---- -- ------<br>------- --- ------ ----- --- ---- ------- -- ---- --- --<br>------- ------,113800.69999998808,113800.09999996424,113396.475,113408.89999997616,113413.14,113813.127,,8,of
screen,html.Screen,0_2_1_1_9,2021-11-12T12:42:44.710Z,,,,,,,,,,,,,,,,54,,,,,,,,,,,,,,354.9729999642441,,response,,,100,,,,,,Space,keypress(Space),,,,,-- --- ---- --- ------ ----- ------- ---- -- its ------- --<br>------- ---------- ------ -- ----- -- ----- -- ---- ------<br>--- ----- --- --- ------ -------- ----- --- ------ ----- --<br>----- ----- ---------- --- --- ------ ------ ---- -- ------<br>------- --- ------ ----- --- ---- ------- -- ---- --- --<br>------- ------,114168.69999998808,114168.09999996424,113796.462,113800.89999997616,113813.127,114179.761,,9,its
screen,html.Screen,0_2_1_1_10,2021-11-12T12:42:45.102Z,,,,,,,,,,,,,,,,54,,,,,,,,,,,,,,380.2390000000014,,response,,,100,,,,,,Space,keypress(Space),,,,,-- --- ---- --- ------ ----- ------- ---- -- --- revenue --<br>------- ---------- ------ -- ----- -- ----- -- ---- ------<br>--- ----- --- --- ------ -------- ----- --- ------ ----- --<br>----- ----- ---------- --- --- ------ ------ ---- -- ------<br>------- --- ------ ----- --- ---- ------- -- ---- --- --<br>------- ------,114560.59999996424,114560,114163.096,114168.79999995232,114179.761,114563.071,,10,revenue
screen,html.Screen,0_2_1_1_11,2021-11-12T12:42:45.502Z,,,,,,,,,,,,,,,,54,,,,,,,,,,,,,,396.9290000000037,,response,,,100,,,,,,Space,keypress(Space),,,,,-- --- ---- --- ------ ----- ------- ---- -- --- ------- by<br>------- ---------- ------ -- ----- -- ----- -- ---- ------<br>--- ----- --- --- ------ -------- ----- --- ------ ----- --<br>----- ----- ---------- --- --- ------ ------ ---- -- ------<br>------- --- ------ ----- --- ---- ------- -- ---- --- --<br>------- ------,114960.59999996424,114960,114546.406,114560.79999995232,114563.071,114963.044,,11,by
screen,html.Screen,0_2_1_1_12,2021-11-12T12:42:45.886Z,,,,,,,,,,,,,,,,54,,,,,,,,,,,,,,380.9560000000056,,response,,,100,,,,,,Space,keypress(Space),,,,,-- --- ---- --- ------ ----- ------- ---- -- --- ------- --<br>issuing ---------- ------ -- ----- -- ----- -- ---- ------<br>--- ----- --- --- ------ -------- ----- --- ------ ----- --<br>----- ----- ---------- --- --- ------ ------ ---- -- ------<br>------- --- ------ ----- --- ---- ------- -- ---- --- --<br>------- ------,115344.5,115344,114946.379,114960.69999998808,114963.044,115346.363,,12,issuing
screen,html.Screen,0_2_1_1_13,2021-11-12T12:42:46.270Z,,,,,,,,,,,,,,,,54,,,,,,,,,,,,,,381.63700000000244,,response,,,100,,,,,,Space,keypress(Space),,,,,-- --- ---- --- ------ ----- ------- ---- -- --- ------- --<br>------- government ------ -- ----- -- ----- -- ---- ------<br>--- ----- --- --- ------ -------- ----- --- ------ ----- --<br>----- ----- ---------- --- --- ------ ------ ---- -- ------<br>------- --- ------ ----- --- ---- ------- -- ---- --- --<br>------- ------,115728.59999996424,115728,115329.698,115344.79999995232,115346.363,115729.666,,13,government
screen,html.Screen,0_2_1_1_14,2021-11-12T12:42:46.710Z,,,,,,,,,,,,,,,,54,,,,,,,,,,,,,,438.2339999761607,,response,,,100,,,,,,Space,keypress(Space),,,,,-- --- ---- --- ------ ----- ------- ---- -- --- ------- --<br>------- ---------- bonds. -- ----- -- ----- -- ---- ------<br>--- ----- --- --- ------ -------- ----- --- ------ ----- --<br>----- ----- ---------- --- --- ------ ------ ---- -- ------<br>------- --- ------ ----- --- ---- ------- -- ---- --- --<br>------- ------,116168.59999996424,116167.89999997616,115713.001,115728.69999998808,115729.666,116179.577,,14,bonds.
screen,html.Screen,0_2_1_1_15,2021-11-12T12:42:47.149Z,,,,,,,,,,,,,,,,54,,,,,,,,,,,,,,428.32299997615337,,response,,,100,,,,,,Space,keypress(Space),,,,,-- --- ---- --- ------ ----- ------- ---- -- --- ------- --<br>------- ---------- ------ In ----- -- ----- -- ---- ------<br>--- ----- --- --- ------ -------- ----- --- ------ ----- --<br>----- ----- ---------- --- --- ------ ------ ---- -- ------<br>------- --- ------ ----- --- ---- ------- -- ---- --- --<br>------- ------,116608.5,116607.89999997616,116162.913,116168.69999998808,116179.577,116612.994,,15,In
screen,html.Screen,0_2_1_1_16,2021-11-12T12:42:47.590Z,,,,,,,,,,,,,,,,54,,,,,,,,,,,,,,434.9059999761521,,response,,,100,,,,,,Space,keypress(Space),,,,,"-- --- ---- --- ------ ----- ------- ---- -- --- ------- --<br>------- ---------- ------ -- 1727, -- ----- -- ---- ------<br>--- ----- --- --- ------ -------- ----- --- ------ ----- --<br>----- ----- ---------- --- --- ------ ------ ---- -- ------<br>------- --- ------ ----- --- ---- ------- -- ---- --- --<br>------- ------",117048.5,117047.89999997616,116596.328,116608.69999998808,116612.994,117062.916,,16,"1727,"
screen,html.Screen,0_2_1_1_17,2021-11-12T12:42:48.398Z,,,,,,,,,,,,,,,,54,,,,,,,,,,,,,,792.9839999761607,,response,,,100,,,,,,Space,keypress(Space),,,,,-- --- ---- --- ------ ----- ------- ---- -- --- ------- --<br>------- ---------- ------ -- ----- in ----- -- ---- ------<br>--- ----- --- --- ------ -------- ----- --- ------ ----- --<br>----- ----- ---------- --- --- ------ ------ ---- -- ------<br>------- --- ------ ----- --- ---- ------- -- ---- --- --<br>------- ------,117856.5,117855.89999997616,117046.251,117048.69999998808,117062.916,117862.757,,17,in
screen,html.Screen,0_2_1_1_18,2021-11-12T12:42:48.821Z,,,,,,,,,,,,,,,,54,,,,,,,,,,,,,,417.0429999523185,,response,,,100,,,,,,Space,keypress(Space),,,,,-- --- ---- --- ------ ----- ------- ---- -- --- ------- --<br>------- ---------- ------ -- ----- -- order -- ---- ------<br>--- ----- --- --- ------ -------- ----- --- ------ ----- --<br>----- ----- ---------- --- --- ------ ------ ---- -- ------<br>------- --- ------ ----- --- ---- ------- -- ---- --- --<br>------- ------,118280.39999997616,118279.79999995232,117846.093,117856.69999998808,117862.757,118296.209,,18,order
screen,html.Screen,0_2_1_1_19,2021-11-12T12:42:49.445Z,,,,,,,,,,,,,,,,54,,,,,,,,,,,,,,607.5909999523137,,response,,,100,,,,,,Space,keypress(Space),,,,,-- --- ---- --- ------ ----- ------- ---- -- --- ------- --<br>------- ---------- ------ -- ----- -- ----- to ---- ------<br>--- ----- --- --- ------ -------- ----- --- ------ ----- --<br>----- ----- ---------- --- --- ------ ------ ---- -- ------<br>------- --- ------ ----- --- ---- ------- -- ---- --- --<br>------- ------,118904.39999997616,118903.79999995232,118279.543,118280.59999996424,118296.209,118912.793,,19,to
screen,html.Screen,0_2_1_1_20,2021-11-12T12:42:49.901Z,,,,,,,,,,,,,,,,54,,,,,,,,,,,,,,446.90699998807395,,response,,,100,,,,,,Space,keypress(Space),,,,,-- --- ---- --- ------ ----- ------- ---- -- --- ------- --<br>------- ---------- ------ -- ----- -- ----- -- save ------<br>--- ----- --- --- ------ -------- ----- --- ------ ----- --<br>----- ----- ---------- --- --- ------ ------ ---- -- ------<br>------- --- ------ ----- --- ---- ------- -- ---- --- --<br>------- ------,119360.29999995232,119359.69999998808,118896.128,118904.59999996424,118912.793,119362.782,,20,save
screen,html.Screen,0_2_1_1_21,2021-11-12T12:42:50.325Z,,,,,,,,,,,,,,,,54,,,,,,,,,,,,,,421.01799995230976,,response,,,100,,,,,,Space,keypress(Space),,,,,"-- --- ---- --- ------ ----- ------- ---- -- --- ------- --<br>------- ---------- ------ -- ----- -- ----- -- ---- money,<br>--- ----- --- --- ------ -------- ----- --- ------ ----- --<br>----- ----- ---------- --- --- ------ ------ ---- -- ------<br>------- --- ------ ----- --- ---- ------- -- ---- --- --<br>------- ------",119784.39999997616,119783.79999995232,119346.117,119360.5,119362.782,119796.097,,21,"money,"
screen,html.Screen,0_2_1_1_22,2021-11-12T12:42:50.817Z,,,,,,,,,,,,,,,,54,,,,,,,,,,,,,,475.6029999880848,,response,,,100,,,,,,Space,keypress(Space),,,,,-- --- ---- --- ------ ----- ------- ---- -- --- ------- --<br>------- ---------- ------ -- ----- -- ----- -- ---- ------<br>the ----- --- --- ------ -------- ----- --- ------ ----- --<br>----- ----- ---------- --- --- ------ ------ ---- -- ------<br>------- --- ------ ----- --- ---- ------- -- ---- --- --<br>------- ------,120272.29999995232,120271.69999998808,119779.432,119784.59999996424,119796.097,120279.388,,22,the
screen,html.Screen,0_2_1_1_23,2021-11-12T12:42:51.249Z,,,,,,,,,,,,,,,,54,,,,,,,,,,,,,,424.2119999642309,,response,,,100,,,,,,Space,keypress(Space),,,,,-- --- ---- --- ------ ----- ------- ---- -- --- ------- --<br>------- ---------- ------ -- ----- -- ----- -- ---- ------<br>--- state --- --- ------ -------- ----- --- ------ ----- --<br>----- ----- ---------- --- --- ------ ------ ---- -- ------<br>------- --- ------ ----- --- ---- ------- -- ---- --- --<br>------- ------,120704.29999995232,120703.59999996424,120262.723,120272.39999997616,120279.388,120712.693,,23,state
screen,html.Screen,0_2_1_1_24,2021-11-12T12:42:51.641Z,,,,,,,,,,,,,,,,54,,,,,,,,,,,,,,383.20699997615884,,response,,,100,,,,,,Space,keypress(Space),,,,,-- --- ---- --- ------ ----- ------- ---- -- --- ------- --<br>------- ---------- ------ -- ----- -- ----- -- ---- ------<br>--- ----- cut --- ------ -------- ----- --- ------ ----- --<br>----- ----- ---------- --- --- ------ ------ ---- -- ------<br>------- --- ------ ----- --- ---- ------- -- ---- --- --<br>------- ------,121096.5,121095.89999997616,120696.028,120704.39999997616,120712.693,121112.668,,24,cut
screen,html.Screen,0_2_1_1_25,2021-11-12T12:42:52.065Z,,,,,,,,,,,,,,,,54,,,,,,,,,,,,,,406.9319999642321,,response,,,100,,,,,,Space,keypress(Space),,,,,-- --- ---- --- ------ ----- ------- ---- -- --- ------- --<br>------- ---------- ------ -- ----- -- ----- -- ---- ------<br>--- ----- --- the ------ -------- ----- --- ------ ----- --<br>----- ----- ---------- --- --- ------ ------ ---- -- ------<br>------- --- ------ ----- --- ---- ------- -- ---- --- --<br>------- ------,121520.19999998808,121519.59999996424,121096.003,121096.59999996424,121112.668,121529.322,,25,the
screen,html.Screen,0_2_1_1_26,2021-11-12T12:42:52.473Z,,,,,,,,,,,,,,,,54,,,,,,,,,,,,,,398.2779999642371,,response,,,100,,,,,,Space,keypress(Space),,,,,-- --- ---- --- ------ ----- ------- ---- -- --- ------- --<br>------- ---------- ------ -- ----- -- ----- -- ---- ------<br>--- ----- --- --- bonds' -------- ----- --- ------ ----- --<br>----- ----- ---------- --- --- ------ ------ ---- -- ------<br>------- --- ------ ----- --- ---- ------- -- ---- --- --<br>------- ------,121928.29999995232,121927.59999996424,121512.657,121520.39999997616,121529.322,121929.29,,26,bonds'
screen,html.Screen,0_2_1_1_27,2021-11-12T12:42:52.865Z,,,,,,,,,,,,,,,,54,,,,,,,,,,,,,,390.3099999642436,,response,,,100,,,,,,Space,keypress(Space),,,,,-- --- ---- --- ------ ----- ------- ---- -- --- ------- --<br>------- ---------- ------ -- ----- -- ----- -- ---- ------<br>--- ----- --- --- ------ interest ----- --- ------ ----- --<br>----- ----- ---------- --- --- ------ ------ ---- -- ------<br>------- --- ------ ----- --- ---- ------- -- ---- --- --<br>------- ------,122320.09999996424,122319.59999996424,121912.625,121928.39999997616,121929.29,122329.261,,27,interest
screen,html.Screen,0_2_1_1_28,2021-11-12T12:42:53.353Z,,,,,,,,,,,,,,,,54,,,,,,,,,,,,,,478.3389999642386,,response,,,100,,,,,,Space,keypress(Space),,,,,-- --- ---- --- ------ ----- ------- ---- -- --- ------- --<br>------- ---------- ------ -- ----- -- ----- -- ---- ------<br>--- ----- --- --- ------ -------- rate. --- ------ ----- --<br>----- ----- ---------- --- --- ------ ------ ---- -- ------<br>------- --- ------ ----- --- ---- ------- -- ---- --- --<br>------- ------,122808.19999998808,122807.59999996424,122312.596,122320.29999995232,122329.261,122812.561,,28,rate.
screen,html.Screen,0_2_1_1_29,2021-11-12T12:42:53.801Z,,,,,,,,,,,,,,,,54,,,,,,,,,,,,,,443.0389999642357,,response,,,100,,,,,,Space,keypress(Space),,,,,-- --- ---- --- ------ ----- ------- ---- -- --- ------- --<br>------- ---------- ------ -- ----- -- ----- -- ---- ------<br>--- ----- --- --- ------ -------- ----- The ------ ----- --<br>----- ----- ---------- --- --- ------ ------ ---- -- ------<br>------- --- ------ ----- --- ---- ------- -- ---- --- --<br>------- ------,123256.29999995232,123255.59999996424,122795.896,122808.39999997616,122812.561,123262.533,,29,The
screen,html.Screen,0_2_1_1_30,2021-11-12T12:42:54.201Z,,,,,,,,,,,,,,,,54,,,,,,,,,,,,,,392.9670000000042,,response,,,100,,,,,,Space,keypress(Space),,,,,-- --- ---- --- ------ ----- ------- ---- -- --- ------- --<br>------- ---------- ------ -- ----- -- ----- -- ---- ------<br>--- ----- --- --- ------ -------- ----- --- market ----- --<br>----- ----- ---------- --- --- ------ ------ ---- -- ------<br>------- --- ------ ----- --- ---- ------- -- ---- --- --<br>------- ------,123656.09999996424,123655.5,123245.868,123256.5,123262.533,123662.524,,30,market
screen,html.Screen,0_2_1_1_31,2021-11-12T12:42:54.585Z,,,,,,,,,,,,,,,,54,,,,,,,,,,,,,,376.9759999999951,,response,,,100,,,,,,Space,keypress(Space),,,,,-- --- ---- --- ------ ----- ------- ---- -- --- ------- --<br>------- ---------- ------ -- ----- -- ----- -- ---- ------<br>--- ----- --- --- ------ -------- ----- --- ------ value --<br>----- ----- ---------- --- --- ------ ------ ---- -- ------<br>------- --- ------ ----- --- ---- ------- -- ---- --- --<br>------- ------,124040.19999998808,124039.5,123645.859,123656.19999998808,123662.524,124045.828,,31,value
screen,html.Screen,0_2_1_1_32,2021-11-12T12:42:55.009Z,,,,,,,,,,,,,,,,54,,,,,,,,,,,,,,417.67200000000594,,response,,,100,,,,,,Space,keypress(Space),,,,,-- --- ---- --- ------ ----- ------- ---- -- --- ------- --<br>------- ---------- ------ -- ----- -- ----- -- ---- ------<br>--- ----- --- --- ------ -------- ----- --- ------ ----- of<br>----- ----- ---------- --- --- ------ ------ ---- -- ------<br>------- --- ------ ----- --- ---- ------- -- ---- --- --<br>------- ------,124464.09999996424,124463.5,124029.163,124040.29999995232,124045.828,124479.133,,32,of
screen,html.Screen,0_2_1_1_33,2021-11-12T12:42:55.425Z,,,,,,,,,,,,,,,,54,,,,,,,,,,,,,,400.2669999761565,,response,,,100,,,,,,Space,keypress(Space),,,,,-- --- ---- --- ------ ----- ------- ---- -- --- ------- --<br>------- ---------- ------ -- ----- -- ----- -- ---- ------<br>--- ----- --- --- ------ -------- ----- --- ------ ----- --<br>these ----- ---------- --- --- ------ ------ ---- -- ------<br>------- --- ------ ----- --- ---- ------- -- ---- --- --<br>------- ------,124880,124879.39999997616,124462.468,124464.19999998808,124479.133,124895.703,,33,these
screen,html.Screen,0_2_1_1_34,2021-11-12T12:42:55.793Z,,,,,,,,,,,,,,,,54,,,,,,,,,,,,,,351.5969999523222,,response,,,100,,,,,,Space,keypress(Space),,,,,-- --- ---- --- ------ ----- ------- ---- -- --- ------- --<br>------- ---------- ------ -- ----- -- ----- -- ---- ------<br>--- ----- --- --- ------ -------- ----- --- ------ ----- --<br>----- bonds ---------- --- --- ------ ------ ---- -- ------<br>------- --- ------ ----- --- ---- ------- -- ---- --- --<br>------- ------,125248.09999996424,125247.29999995232,124879.039,124880.19999998808,124895.703,125262.459,,34,bonds
screen,html.Screen,0_2_1_1_35,2021-11-12T12:42:56.233Z,,,,,,,,,,,,,,,,54,,,,,,,,,,,,,,424.9409999761556,,response,,,100,,,,,,Space,keypress(Space),,,,,"-- --- ---- --- ------ ----- ------- ---- -- --- ------- --<br>------- ---------- ------ -- ----- -- ----- -- ---- ------<br>--- ----- --- --- ------ -------- ----- --- ------ ----- --<br>----- ----- plummeted, --- --- ------ ------ ---- -- ------<br>------- --- ------ ----- --- ---- ------- -- ---- --- --<br>------- ------",125688,125687.39999997616,125245.793,125248.29999995232,125262.459,125695.768,,35,"plummeted,"
screen,html.Screen,0_2_1_1_36,2021-11-12T12:42:56.705Z,,,,,,,,,,,,,,,,54,,,,,,,,,,,,,,463.63199997616175,,response,,,100,,,,,,Space,keypress(Space),,,,,-- --- ---- --- ------ ----- ------- ---- -- --- ------- --<br>------- ---------- ------ -- ----- -- ----- -- ---- ------<br>--- ----- --- --- ------ -------- ----- --- ------ ----- --<br>----- ----- ---------- and --- ------ ------ ---- -- ------<br>------- --- ------ ----- --- ---- ------- -- ---- --- --<br>------- ------,126160,126159.39999997616,125679.102,125688.29999995232,125695.768,126162.361,,36,and
screen,html.Screen,0_2_1_1_37,2021-11-12T12:42:57.129Z,,,,,,,,,,,,,,,,54,,,,,,,,,,,,,,420.93899995231186,,response,,,100,,,,,,Space,keypress(Space),,,,,-- --- ---- --- ------ ----- ------- ---- -- --- ------- --<br>------- ---------- ------ -- ----- -- ----- -- ---- ------<br>--- ----- --- --- ------ -------- ----- --- ------ ----- --<br>----- ----- ---------- --- the ------ ------ ---- -- ------<br>------- --- ------ ----- --- ---- ------- -- ---- --- --<br>------- ------,126583.89999997616,126583.29999995232,126145.696,126160.29999995232,126162.361,126595.684,,37,the
screen,html.Screen,0_2_1_1_38,2021-11-12T12:42:57.537Z,,,,,,,,,,,,,,,,54,,,,,,,,,,,,,,395.61599995232245,,response,,,100,,,,,,Space,keypress(Space),,,,,-- --- ---- --- ------ ----- ------- ---- -- --- ------- --<br>------- ---------- ------ -- ----- -- ----- -- ---- ------<br>--- ----- --- --- ------ -------- ----- --- ------ ----- --<br>----- ----- ---------- --- --- market ------ ---- -- ------<br>------- --- ------ ----- --- ---- ------- -- ---- --- --<br>------- ------,126991.89999997616,126991.29999995232,126579.019,126585.39999997616,126595.684,126995.646,,38,market
screen,html.Screen,0_2_1_1_39,2021-11-12T12:42:57.977Z,,,,,,,,,,,,,,,,54,,,,,,,,,,,,,,435.6539999523229,,response,,,100,,,,,,Space,keypress(Space),,,,,-- --- ---- --- ------ ----- ------- ---- -- --- ------- --<br>------- ---------- ------ -- ----- -- ----- -- ---- ------<br>--- ----- --- --- ------ -------- ----- --- ------ ----- --<br>----- ----- ---------- --- --- ------ became ---- -- ------<br>------- --- ------ ----- --- ---- ------- -- ---- --- --<br>------- ------,127431.89999997616,127431.29999995232,126978.981,126992.09999996424,126995.646,127445.628,,39,became
screen,html.Screen,0_2_1_1_40,2021-11-12T12:42:58.393Z,,,,,,,,,,,,,,,,54,,,,,,,,,,,,,,401.6719999523193,,response,,,100,,,,,,Space,keypress(Space),,,,,-- --- ---- --- ------ ----- ------- ---- -- --- ------- --<br>------- ---------- ------ -- ----- -- ----- -- ---- ------<br>--- ----- --- --- ------ -------- ----- --- ------ ----- --<br>----- ----- ---------- --- --- ------ ------ wary -- ------<br>------- --- ------ ----- --- ---- ------- -- ---- --- --<br>------- ------,127847.79999995232,127847.29999995232,127428.963,127432.09999996424,127445.628,127862.264,,40,wary
screen,html.Screen,0_2_1_1_41,2021-11-12T12:42:58.945Z,,,,,,,,,,,,,,,,54,,,,,,,,,,,,,,536.9359999880835,,response,,,100,,,,,,Space,keypress(Space),,,,,-- --- ---- --- ------ ----- ------- ---- -- --- ------- --<br>------- ---------- ------ -- ----- -- ----- -- ---- ------<br>--- ----- --- --- ------ -------- ----- --- ------ ----- --<br>----- ----- ---------- --- --- ------ ------ ---- of ------<br>------- --- ------ ----- --- ---- ------- -- ---- --- --<br>------- ------,128399.79999995232,128399.19999998808,127845.599,127848,127862.264,128412.208,,41,of
screen,html.Screen,0_2_1_1_42,2021-11-12T12:42:59.385Z,,,,,,,,,,,,,,,,54,,,,,,,,,,,,,,426.99199998808035,,response,,,100,,,,,,Space,keypress(Space),,,,,-- --- ---- --- ------ ----- ------- ---- -- --- ------- --<br>------- ---------- ------ -- ----- -- ----- -- ---- ------<br>--- ----- --- --- ------ -------- ----- --- ------ ----- --<br>----- ----- ---------- --- --- ------ ------ ---- -- French<br>------- --- ------ ----- --- ---- ------- -- ---- --- --<br>------- ------,128839.79999995232,128839.19999998808,128395.543,128399.89999997616,128412.208,128845.538,,42,French
screen,html.Screen,0_2_1_1_43,2021-11-12T12:42:59.865Z,,,,,,,,,,,,,,,,54,,,,,,,,,,,,,,473.56199996423675,,response,,,100,,,,,,Space,keypress(Space),,,,,-- --- ---- --- ------ ----- ------- ---- -- --- ------- --<br>------- ---------- ------ -- ----- -- ----- -- ---- ------<br>--- ----- --- --- ------ -------- ----- --- ------ ----- --<br>----- ----- ---------- --- --- ------ ------ ---- -- ------<br>credit. --- ------ ----- --- ---- ------- -- ---- --- --<br>------- ------,129319.69999998808,129319.09999996424,128828.873,128840,128845.538,129328.827,,43,credit.
screen,html.Screen,0_2_1_1_44,2021-11-12T12:43:00.297Z,,,,,,,,,,,,,,,,54,,,,,,,,,,,,,,422.27299996423244,,response,,,100,,,,,,Space,keypress(Space),,,,,-- --- ---- --- ------ ----- ------- ---- -- --- ------- --<br>------- ---------- ------ -- ----- -- ----- -- ---- ------<br>--- ----- --- --- ------ -------- ----- --- ------ ----- --<br>----- ----- ---------- --- --- ------ ------ ---- -- ------<br>------- The ------ ----- --- ---- ------- -- ---- --- --<br>------- ------,129751.69999998808,129751.09999996424,129312.162,129319.89999997616,129328.827,129762.146,,44,The
screen,html.Screen,0_2_1_1_45,2021-11-12T12:43:00.745Z,,,,,,,,,,,,,,,,54,,,,,,,,,,,,,,436.95399996424385,,response,,,100,,,,,,Space,keypress(Space),,,,,-- --- ---- --- ------ ----- ------- ---- -- --- ------- --<br>------- ---------- ------ -- ----- -- ----- -- ---- ------<br>--- ----- --- --- ------ -------- ----- --- ------ ----- --<br>----- ----- ---------- --- --- ------ ------ ---- -- ------<br>------- --- French ----- --- ---- ------- -- ---- --- --<br>------- ------,130199.79999995232,130199.09999996424,129745.481,129751.79999995232,129762.146,130212.12,,45,French
screen,html.Screen,0_2_1_1_46,2021-11-12T12:43:01.169Z,,,,,,,,,,,,,,,,54,,,,,,,,,,,,,,410.97999996424187,,response,,,100,,,,,,Space,keypress(Space),,,,,-- --- ---- --- ------ ----- ------- ---- -- --- ------- --<br>------- ---------- ------ -- ----- -- ----- -- ---- ------<br>--- ----- --- --- ------ -------- ----- --- ------ ----- --<br>----- ----- ---------- --- --- ------ ------ ---- -- ------<br>------- --- ------ state --- ---- ------- -- ---- --- --<br>------- ------,130623.69999998808,130623.09999996424,130195.455,130200,130212.12,130628.752,,46,state
screen,html.Screen,0_2_1_1_47,2021-11-12T12:43:01.601Z,,,,,,,,,,,,,,,,54,,,,,,,,,,,,,,426.3479999642441,,response,,,100,,,,,,Space,keypress(Space),,,,,-- --- ---- --- ------ ----- ------- ---- -- --- ------- --<br>------- ---------- ------ -- ----- -- ----- -- ---- ------<br>--- ----- --- --- ------ -------- ----- --- ------ ----- --<br>----- ----- ---------- --- --- ------ ------ ---- -- ------<br>------- --- ------ ----- was ---- ------- -- ---- --- --<br>------- ------,131055.79999995232,131055.09999996424,130612.087,130623.89999997616,130628.752,131062.058,,47,was
screen,html.Screen,0_2_1_1_48,2021-11-12T12:43:02.025Z,,,,,,,,,,,,,,,,54,,,,,,,,,,,,,,417.24199995231174,,response,,,100,,,,,,Space,keypress(Space),,,,,-- --- ---- --- ------ ----- ------- ---- -- --- ------- --<br>------- ---------- ------ -- ----- -- ----- -- ---- ------<br>--- ----- --- --- ------ -------- ----- --- ------ ----- --<br>----- ----- ---------- --- --- ------ ------ ---- -- ------<br>------- --- ------ ----- --- left ------- -- ---- --- --<br>------- ------,131479.89999997616,131479.29999995232,131045.393,131056,131062.058,131495.36,,48,left
screen,html.Screen,0_2_1_1_49,2021-11-12T12:43:02.440Z,,,,,,,,,,,,,,,,54,,,,,,,,,,,,,,399.5399999761721,,response,,,100,,,,,,Space,keypress(Space),,,,,-- --- ---- --- ------ ----- ------- ---- -- --- ------- --<br>------- ---------- ------ -- ----- -- ----- -- ---- ------<br>--- ----- --- --- ------ -------- ----- --- ------ ----- --<br>----- ----- ---------- --- --- ------ ------ ---- -- ------<br>------- --- ------ ----- --- ---- without -- ---- --- --<br>------- ------,131895.59999996424,131894.89999997616,131478.695,131480.09999996424,131495.36,131911.98,,49,without
screen,html.Screen,0_2_1_1_50,2021-11-12T12:43:02.872Z,,,,,,,,,,,,,,,,54,,,,,,,,,,,,,,415.0199999999895,,response,,,100,,,,,,Space,keypress(Space),,,,,-- --- ---- --- ------ ----- ------- ---- -- --- ------- --<br>------- ---------- ------ -- ----- -- ----- -- ---- ------<br>--- ----- --- --- ------ -------- ----- --- ------ ----- --<br>----- ----- ---------- --- --- ------ ------ ---- -- ------<br>------- --- ------ ----- --- ---- ------- an ---- --- --<br>------- ------,132327.5,132327,131895.315,131895.69999998808,131911.98,132328.627,,50,an
screen,html.Screen,0_2_1_1_51,2021-11-12T12:43:03.313Z,,,,,,,,,,,,,,,,54,,,,,,,,,,,,,,438.27299997615046,,response,,,100,,,,,,Space,keypress(Space),,,,,-- --- ---- --- ------ ----- ------- ---- -- --- ------- --<br>------- ---------- ------ -- ----- -- ----- -- ---- ------<br>--- ----- --- --- ------ -------- ----- --- ------ ----- --<br>----- ----- ---------- --- --- ------ ------ ---- -- ------<br>------- --- ------ ----- --- ---- ------- -- easy --- --<br>------- ------,132767.59999996424,132766.89999997616,132311.962,132327.69999998808,132328.627,132778.645,,51,easy
screen,html.Screen,0_2_1_1_52,2021-11-12T12:43:03.760Z,,,,,,,,,,,,,,,,54,,,,,,,,,,,,,,436.2549999761686,,response,,,100,,,,,,Space,keypress(Space),,,,,-- --- ---- --- ------ ----- ------- ---- -- --- ------- --<br>------- ---------- ------ -- ----- -- ----- -- ---- ------<br>--- ----- --- --- ------ -------- ----- --- ------ ----- --<br>----- ----- ---------- --- --- ------ ------ ---- -- ------<br>------- --- ------ ----- --- ---- ------- -- ---- way --<br>------- ------,133215.59999996424,133214.89999997616,132761.979,132767.79999995232,132778.645,133228.587,,52,way
screen,html.Screen,0_2_1_1_53,2021-11-12T12:43:04.704Z,,,,,,,,,,,,,,,,54,,,,,,,,,,,,,,930.3129999761586,,response,,,100,,,,,,Space,keypress(Space),,,,,-- --- ---- --- ------ ----- ------- ---- -- --- ------- --<br>------- ---------- ------ -- ----- -- ----- -- ---- ------<br>--- ----- --- --- ------ -------- ----- --- ------ ----- --<br>----- ----- ---------- --- --- ------ ------ ---- -- ------<br>------- --- ------ ----- --- ---- ------- -- ---- --- of<br>------- ------,134159.59999996424,134158.89999997616,133211.922,133215.79999995232,133228.587,134161.843,,53,of
screen,html.Screen,0_2_1_1_54,2021-11-12T12:43:05.208Z,,,,,,,,,,,,,,,,54,,,,,,,,,,,,,,501.05699997616466,,response,,,100,,,,,,Space,keypress(Space),,,,,-- --- ---- --- ------ ----- ------- ---- -- --- ------- --<br>------- ---------- ------ -- ----- -- ----- -- ---- ------<br>--- ----- --- --- ------ -------- ----- --- ------ ----- --<br>----- ----- ---------- --- --- ------ ------ ---- -- ------<br>------- --- ------ ----- --- ---- ------- -- ---- --- --<br>raising ------,134663.39999997616,134662.89999997616,134145.178,134159.79999995232,134161.843,134678.507,,54,raising
screen,html.Screen,0_2_1_1_55,2021-11-12T12:43:05.880Z,,,,,,,,,,,,,,,,54,,,,,,,,,,,,,,656.292999952304,,response,,,100,,,,,,Space,keypress(Space),,,,,-- --- ---- --- ------ ----- ------- ---- -- --- ------- --<br>------- ---------- ------ -- ----- -- ----- -- ---- ------<br>--- ----- --- --- ------ -------- ----- --- ------ ----- --<br>----- ----- ---------- --- --- ------ ------ ---- -- ------<br>------- --- ------ ----- --- ---- ------- -- ---- --- --<br>------- money.,135335.5,135334.79999995232,134661.842,134663.69999998808,134678.507,135345.133,,55,money.
Item 100,flow.Loop,0_2_1_1,2021-11-12T12:43:05.881Z,,,,,,,,,,,,,,,,,,,,,,,,,,,,,,25521.46499995231,,completion,,,,F,,,,,,,,,,silence,,135335.69999998808,135334.79999995232,109796.67,109798,109813.335,135345.133,,,
Question 1,html.Screen,0_2_1_2,2021-11-12T12:43:09.604Z,,,,,,,,,,,,,,,,,,,,,,,,,,,true,TRUE,,3713.2669999761565,,response,,,100,F,,,,,TRUE,click #choice-1,,,,silence,,139059.19999998808,139058.39999997616,135328.468,135335.89999997616,135345.133,139060.913,,,
Question 2,html.Screen,0_2_1_3,2021-11-12T12:43:12.949Z,,,,,,,,,,,,,,,,,,,,,,,,,,,true,FALSE,,3342.1869999642367,,response,,,100,F,,,,,FALSE,click #choice-2,,,,silence,,142404,142403.09999996424,139044.274,139059.39999997616,139060.913,142412.149,,,
Item 100,flow.Sequence,0_2_1,2021-11-12T12:43:12.949Z,,,,,,,,,,,,,,,,,,,,,,,,,,,,,,42589.07199996423,,completion,,,,,,,,,,,,,,,,142404.29999995232,142403.09999996424,99797.362,99805.79999995232,99814.028,142412.149,,,
End of Practice,html.Page,0_2_2,2021-11-12T12:43:17.854Z,,,,,,,,,,,,,,,,,,,,,,,,,,,,,,4896.850999999995,,form submission,,,,,,,,,,,,,,,,147309.39999997616,147309,142395.447,142404.5,142412.149,147310.82,,,
Practice,flow.Sequence,0_2,2021-11-12T12:43:17.855Z,,,,,,,,,,,,,,,,,,,,,,,,,,,,,,97041.617,,completion,,,,,,,,,,,,,,,,147309.59999996424,147309,50250.707,50258.299999952316,50267.383,147310.82,,,
Trap_instruction,html.Page,0_3_0,2021-11-12T12:43:22.446Z,,,,,,,,,,,,,,,,,,,,,,,,,,,,,,4590.27999996423,,form submission,,,,,,,,,,,,,,,,151901.39999997616,151901.09999996424,147294.16,147309.89999997616,147310.82,151910.282,,,
trap_trial,html.Screen,0_3_1,2021-11-12T12:43:25.174Z,,,,,,,,,,,,,,,,,,,,,,,,,,,true,1,,2717.6179999761516,,response,,,,,,,,,1,click #choice-1,,,,,,154628.69999998808,154627.89999997616,151893.618,151901.59999996424,151910.282,154643.82,,,
end of trap trial,html.Page,0_3_2,2021-11-12T12:43:28.023Z,,,,,,,,,,,,,,,,,,,,,,,,,,,,,,2834.179999999993,,form submission,,,,,,,,,,,,,,,,157478.39999997616,157478,154627.155,154629,154643.82,157507.233,,,
Trap 1,flow.Sequence,0_3,2021-11-12T12:43:28.023Z,,,,,,,,,,,,,,,,,,,,,,,,,,,,,,10167.179999999993,,completion,,,,,,,,,,,,,,,,157478.59999996424,157478,147294.16,147309.79999995232,147310.82,157507.233,,,
Standby,html.Page,0_4_0,2021-11-12T12:43:36.045Z,,,,,,,,,,,,,,,,,,,,,,,,,,,,,,8007.875,,timeout,,,,,,,,,,,,,,,,165500.09999996424,165498.562,157490.671,157478.79999995232,157507.233,165515.108,,,
Holding screen,html.Screen,0_4_1_0_0,2021-11-12T12:43:43.039Z,,,,,,,,,,,,,,,,,,,,,,,,,,,,,,6994.438999999984,,timeout,,,,,,,,,,,,,,,,172493.89999997616,172492.881,165498.562,165500.29999995232,165515.108,172509.547,,,
screen,html.Screen,0_4_1_0_1_0,2021-11-12T12:43:44.110Z,,,,,,,,,,,,,,,,2,,,,,,,,,,,,,,1055.1529999880877,,response,,,1,F,,,,,Space,keypress(Space),,,,instrumental,Two ---- ------ --- ------- ---------- ------- ----------<br>--- --------- --- ----------- ------- ----- ------- ---<br>--------- ---- -- --- ---- -- --------- -- ---- -------<br>-- --------- ------ --- ----- ------ ---- --- --------- --<br>------ - ---- -- --- ----------- ------- ---- ----- -----<br>--- -------- - ------ ---- -- ----- ---- --- --- -----------<br>-- -------,173565.5,173564.69999998808,172492.881,172494.19999998808,172509.547,173576.102,,0,Two
screen,html.Screen,0_4_1_0_1_1,2021-11-12T12:43:44.590Z,,,,,,,,,,,,,,,,2,,,,,,,,,,,,,,468.3979999999865,,response,,,1,F,,,,,Space,keypress(Space),,,,instrumental,--- days ------ --- ------- ---------- ------- ----------<br>--- --------- --- ----------- ------- ----- ------- ---<br>--------- ---- -- --- ---- -- --------- -- ---- -------<br>-- --------- ------ --- ----- ------ ---- --- --------- --<br>------ - ---- -- --- ----------- ------- ---- ----- -----<br>--- -------- - ------ ---- -- ----- ---- --- --- -----------<br>-- -------,174045.19999998808,174044.5,173559.437,173565.59999996424,173576.102,174059.409,,1,days
screen,html.Screen,0_4_1_0_1_2,2021-11-12T12:43:45.046Z,,,,,,,,,,,,,,,,2,,,,,,,,,,,,,,440.99099997614394,,response,,,1,F,,,,,Space,keypress(Space),,,,instrumental,"--- ---- later, --- ------- ---------- ------- ----------<br>--- --------- --- ----------- ------- ----- ------- ---<br>--------- ---- -- --- ---- -- --------- -- ---- -------<br>-- --------- ------ --- ----- ------ ---- --- --------- --<br>------ - ---- -- --- ----------- ------- ---- ----- -----<br>--- -------- - ------ ---- -- ----- ---- --- --- -----------<br>-- -------",174501.09999996424,174500.39999997616,174042.744,174045.29999995232,174059.409,174509.349,,2,"later,"
screen,html.Screen,0_4_1_0_1_3,2021-11-12T12:43:45.518Z,,,,,,,,,,,,,,,,2,,,,,,,,,,,,,,463.0509999761707,,response,,,1,F,,,,,Space,keypress(Space),,,,instrumental,--- ---- ------ the ------- ---------- ------- ----------<br>--- --------- --- ----------- ------- ----- ------- ---<br>--------- ---- -- --- ---- -- --------- -- ---- -------<br>-- --------- ------ --- ----- ------ ---- --- --------- --<br>------ - ---- -- --- ----------- ------- ---- ----- -----<br>--- -------- - ------ ---- -- ----- ---- --- --- -----------<br>-- -------,174973.09999996424,174972.39999997616,174492.684,174501.19999998808,174509.349,174976.075,,3,the
screen,html.Screen,0_4_1_0_1_4,2021-11-12T12:43:46.006Z,,,,,,,,,,,,,,,,2,,,,,,,,,,,,,,484.22499995230464,,response,,,1,F,,,,,Space,keypress(Space),,,,instrumental,--- ---- ------ --- British ---------- ------- ----------<br>--- --------- --- ----------- ------- ----- ------- ---<br>--------- ---- -- --- ---- -- --------- -- ---- -------<br>-- --------- ------ --- ----- ------ ---- --- --------- --<br>------ - ---- -- --- ----------- ------- ---- ----- -----<br>--- -------- - ------ ---- -- ----- ---- --- --- -----------<br>-- -------,175461.5,175460.29999995232,174959.409,174973.19999998808,174976.075,175475.985,,4,British
screen,html.Screen,0_4_1_0_1_5,2021-11-12T12:43:46.550Z,,,,,,,,,,,,,,,,2,,,,,,,,,,,,,,528.3149999523303,,response,,,1,F,,,,,Space,keypress(Space),,,,instrumental,--- ---- ------ --- ------- astronomer ------- ----------<br>--- --------- --- ----------- ------- ----- ------- ---<br>--------- ---- -- --- ---- -- --------- -- ---- -------<br>-- --------- ------ --- ----- ------ ---- --- --------- --<br>------ - ---- -- --- ----------- ------- ---- ----- -----<br>--- -------- - ------ ---- -- ----- ---- --- --- -----------<br>-- -------,176004.89999997616,176004.29999995232,175459.32,175461.59999996424,175475.985,176009.136,,5,astronomer
screen,html.Screen,0_4_1_0_1_6,2021-11-12T12:43:47.182Z,,,,,,,,,,,,,,,,2,,,,,,,,,,,,,,627.1639999523177,,response,,,1,F,,,,,Space,keypress(Space),,,,instrumental,--- ---- ------ --- ------- ---------- Richard ----------<br>--- --------- --- ----------- ------- ----- ------- ---<br>--------- ---- -- --- ---- -- --------- -- ---- -------<br>-- --------- ------ --- ----- ------ ---- --- --------- --<br>------ - ---- -- --- ----------- ------- ---- ----- -----<br>--- -------- - ------ ---- -- ----- ---- --- --- -----------<br>-- -------,176636.89999997616,176636.29999995232,175992.473,176005.19999998808,176009.136,176642.624,,6,Richard
screen,html.Screen,0_4_1_0_1_7,2021-11-12T12:43:47.774Z,,,,,,,,,,,,,,,,2,,,,,,,,,,,,,,585.6759999523056,,response,,,1,F,,,,,Space,keypress(Space),,,,instrumental,--- ---- ------ --- ------- ---------- ------- Carrington<br>--- --------- --- ----------- ------- ----- ------- ---<br>--------- ---- -- --- ---- -- --------- -- ---- -------<br>-- --------- ------ --- ----- ------ ---- --- --------- --<br>------ - ---- -- --- ----------- ------- ---- ----- -----<br>--- -------- - ------ ---- -- ----- ---- --- --- -----------<br>-- -------,177228.79999995232,177228.29999995232,176625.958,176637,176642.624,177242.584,,7,Carrington
screen,html.Screen,0_4_1_0_1_8,2021-11-12T12:43:48.270Z,,,,,,,,,,,,,,,,2,,,,,,,,,,,,,,481.6159999880765,,response,,,1,F,,,,,Space,keypress(Space),,,,instrumental,--- ---- ------ --- ------- ---------- ------- ----------<br>was --------- --- ----------- ------- ----- ------- ---<br>--------- ---- -- --- ---- -- --------- -- ---- -------<br>-- --------- ------ --- ----- ------ ---- --- --------- --<br>------ - ---- -- --- ----------- ------- ---- ----- -----<br>--- -------- - ------ ---- -- ----- ---- --- --- -----------<br>-- -------,177724.79999995232,177724.19999998808,177225.918,177229,177242.584,177725.826,,8,was
screen,html.Screen,0_4_1_0_1_9,2021-11-12T12:43:48.886Z,,,,,,,,,,,,,,,,2,,,,,,,,,,,,,,614.2739999642363,,response,,,1,F,,,,,Space,keypress(Space),,,,instrumental,--- ---- ------ --- ------- ---------- ------- ----------<br>--- observing --- ----------- ------- ----- ------- ---<br>--------- ---- -- --- ---- -- --------- -- ---- -------<br>-- --------- ------ --- ----- ------ ---- --- --------- --<br>------ - ---- -- --- ----------- ------- ---- ----- -----<br>--- -------- - ------ ---- -- ----- ---- --- --- -----------<br>-- -------,178340.79999995232,178340.09999996424,177709.161,177725,177725.826,178342.538,,9,observing
screen,html.Screen,0_4_1_0_1_10,2021-11-12T12:43:49.358Z,,,,,,,,,,,,,,,,2,,,,,,,,,,,,,,469.56199996423675,,response,,,1,F,,,,,Space,keypress(Space),,,,instrumental,--- ---- ------ --- ------- ---------- ------- ----------<br>--- --------- the ----------- ------- ----- ------- ---<br>--------- ---- -- --- ---- -- --------- -- ---- -------<br>-- --------- ------ --- ----- ------ ---- --- --------- --<br>------ - ---- -- --- ----------- ------- ---- ----- -----<br>--- -------- - ------ ---- -- ----- ---- --- --- -----------<br>-- -------,178812.59999996424,178812.09999996424,178325.872,178341,178342.538,178825.636,,10,the
screen,html.Screen,0_4_1_0_1_11,2021-11-12T12:43:49.830Z,,,,,,,,,,,,,,,,2,,,,,,,,,,,,,,458.4639999642386,,response,,,1,F,,,,,Space,keypress(Space),,,,instrumental,--- ---- ------ --- ------- ---------- ------- ----------<br>--- --------- --- interesting ------- ----- ------- ---<br>--------- ---- -- --- ---- -- --------- -- ---- -------<br>-- --------- ------ --- ----- ------ ---- --- --------- --<br>------ - ---- -- --- ----------- ------- ---- ----- -----<br>--- -------- - ------ ---- -- ----- ---- --- --- -----------<br>-- -------,179284.69999998808,179284.09999996424,178808.973,178812.79999995232,178825.636,179292.405,,11,interesting
screen,html.Screen,0_4_1_0_1_12,2021-11-12T12:43:50.334Z,,,,,,,,,,,,,,,,2,,,,,,,,,,,,,,495.6949999642384,,response,,,1,F,,,,,Space,keypress(Space),,,,instrumental,--- ---- ------ --- ------- ---------- ------- ----------<br>--- --------- --- ----------- sunspot ----- ------- ---<br>--------- ---- -- --- ---- -- --------- -- ---- -------<br>-- --------- ------ --- ----- ------ ---- --- --------- --<br>------ - ---- -- --- ----------- ------- ---- ----- -----<br>--- -------- - ------ ---- -- ----- ---- --- --- -----------<br>-- -------,179788.79999995232,179788.09999996424,179275.74,179284.89999997616,179292.405,179792.346,,12,sunspot
screen,html.Screen,0_4_1_0_1_13,2021-11-12T12:43:50.841Z,,,,,,,,,,,,,,,,2,,,,,,,,,,,,,,499.75399996424676,,response,,,1,F,,,,,Space,keypress(Space),,,,instrumental,--- ---- ------ --- ------- ---------- ------- ----------<br>--- --------- --- ----------- ------- group ------- ---<br>--------- ---- -- --- ---- -- --------- -- ---- -------<br>-- --------- ------ --- ----- ------ ---- --- --------- --<br>------ - ---- -- --- ----------- ------- ---- ----- -----<br>--- -------- - ------ ---- -- ----- ---- --- --- -----------<br>-- -------,180292.69999998808,180292.09999996424,179775.681,179788.89999997616,179792.346,180309.068,,13,group
screen,html.Screen,0_4_1_0_1_14,2021-11-12T12:43:51.320Z,,,,,,,,,,,,,,,,2,,,,,,,,,,,,,,462.9320000000007,,response,,,1,F,,,,,Space,keypress(Space),,,,instrumental,--- ---- ------ --- ------- ---------- ------- ----------<br>--- --------- --- ----------- ------- ----- through ---<br>--------- ---- -- --- ---- -- --------- -- ---- -------<br>-- --------- ------ --- ----- ------ ---- --- --------- --<br>------ - ---- -- --- ----------- ------- ---- ----- -----<br>--- -------- - ------ ---- -- ----- ---- --- --- -----------<br>-- -------,180772.59999996424,180772,180292.402,180292.79999995232,180309.068,180775.708,,14,through
screen,html.Screen,0_4_1_0_1_15,2021-11-12T12:43:51.849Z,,,,,,,,,,,,,,,,2,,,,,,,,,,,,,,524.2919999999867,,response,,,1,F,,,,,Space,keypress(Space),,,,instrumental,--- ---- ------ --- ------- ---------- ------- ----------<br>--- --------- --- ----------- ------- ----- ------- his<br>--------- ---- -- --- ---- -- --------- -- ---- -------<br>-- --------- ------ --- ----- ------ ---- --- --------- --<br>------ - ---- -- --- ----------- ------- ---- ----- -----<br>--- -------- - ------ ---- -- ----- ---- --- --- -----------<br>-- -------,181300.59999996424,181300,180759.042,180772.69999998808,180775.708,181308.902,,15,his
screen,html.Screen,0_4_1_0_1_16,2021-11-12T12:43:52.520Z,,,,,,,,,,,,,,,,2,,,,,,,,,,,,,,663.0979999999981,,response,,,1,F,,,,,Space,keypress(Space),,,,instrumental,--- ---- ------ --- ------- ---------- ------- ----------<br>--- --------- --- ----------- ------- ----- ------- ---<br>telescope ---- -- --- ---- -- --------- -- ---- -------<br>-- --------- ------ --- ----- ------ ---- --- --------- --<br>------ - ---- -- --- ----------- ------- ---- ----- -----<br>--- -------- - ------ ---- -- ----- ---- --- --- -----------<br>-- -------,181972.59999996424,181972,181292.238,181300.79999995232,181308.902,181975.569,,16,telescope
screen,html.Screen,0_4_1_0_1_17,2021-11-12T12:43:53.009Z,,,,,,,,,,,,,,,,2,,,,,,,,,,,,,,484.33099997616955,,response,,,1,F,,,,,Space,keypress(Space),,,,instrumental,--- ---- ------ --- ------- ---------- ------- ----------<br>--- --------- --- ----------- ------- ----- ------- ---<br>--------- when -- --- ---- -- --------- -- ---- -------<br>-- --------- ------ --- ----- ------ ---- --- --------- --<br>------ - ---- -- --- ----------- ------- ---- ----- -----<br>--- -------- - ------ ---- -- ----- ---- --- --- -----------<br>-- -------,182460.59999996424,182459.89999997616,181958.904,181972.79999995232,181975.569,182475.618,,17,when
screen,html.Screen,0_4_1_0_1_18,2021-11-12T12:43:53.464Z,,,,,,,,,,,,,,,,2,,,,,,,,,,,,,,440.2819999761705,,response,,,1,F,,,,,Space,keypress(Space),,,,instrumental,--- ---- ------ --- ------- ---------- ------- ----------<br>--- --------- --- ----------- ------- ----- ------- ---<br>--------- ---- he --- ---- -- --------- -- ---- -------<br>-- --------- ------ --- ----- ------ ---- --- --------- --<br>------ - ---- -- --- ----------- ------- ---- ----- -----<br>--- -------- - ------ ---- -- ----- ---- --- --- -----------<br>-- -------,182916.5,182915.89999997616,182458.952,182460.89999997616,182475.618,182925.516,,18,he
screen,html.Screen,0_4_1_0_1_19,2021-11-12T12:43:53.912Z,,,,,,,,,,,,,,,,2,,,,,,,,,,,,,,438.283999952313,,response,,,1,F,,,,,Space,keypress(Space),,,,instrumental,--- ---- ------ --- ------- ---------- ------- ----------<br>--- --------- --- ----------- ------- ----- ------- ---<br>--------- ---- -- saw ---- -- --------- -- ---- -------<br>-- --------- ------ --- ----- ------ ---- --- --------- --<br>------ - ---- -- --- ----------- ------- ---- ----- -----<br>--- -------- - ------ ---- -- ----- ---- --- --- -----------<br>-- -------,183364.39999997616,183363.79999995232,182908.851,182916.79999995232,182925.516,183375.493,,19,saw
screen,html.Screen,0_4_1_0_1_20,2021-11-12T12:43:54.400Z,,,,,,,,,,,,,,,,2,,,,,,,,,,,,,,476.50700000001234,,response,,,1,F,,,,,Space,keypress(Space),,,,instrumental,--- ---- ------ --- ------- ---------- ------- ----------<br>--- --------- --- ----------- ------- ----- ------- ---<br>--------- ---- -- --- what -- --------- -- ---- -------<br>-- --------- ------ --- ----- ------ ---- --- --------- --<br>------ - ---- -- --- ----------- ------- ---- ----- -----<br>--- -------- - ------ ---- -- ----- ---- --- --- -----------<br>-- -------,183852.59999996424,183852,183358.828,183364.69999998808,183375.493,183858.731,,20,what
screen,html.Screen,0_4_1_0_1_21,2021-11-12T12:43:54.848Z,,,,,,,,,,,,,,,,2,,,,,,,,,,,,,,441.0689999523165,,response,,,1,F,,,,,Space,keypress(Space),,,,instrumental,--- ---- ------ --- ------- ---------- ------- ----------<br>--- --------- --- ----------- ------- ----- ------- ---<br>--------- ---- -- --- ---- he --------- -- ---- -------<br>-- --------- ------ --- ----- ------ ---- --- --------- --<br>------ - ---- -- --- ----------- ------- ---- ----- -----<br>--- -------- - ------ ---- -- ----- ---- --- --- -----------<br>-- -------,184300.5,184299.79999995232,183842.067,183852.69999998808,183858.731,184308.728,,21,he
screen,html.Screen,0_4_1_0_1_22,2021-11-12T12:43:55.456Z,,,,,,,,,,,,,,,,2,,,,,,,,,,,,,,599.0719999523135,,response,,,1,F,,,,,Space,keypress(Space),,,,instrumental,--- ---- ------ --- ------- ---------- ------- ----------<br>--- --------- --- ----------- ------- ----- ------- ---<br>--------- ---- -- --- ---- -- described -- ---- -------<br>-- --------- ------ --- ----- ------ ---- --- --------- --<br>------ - ---- -- --- ----------- ------- ---- ----- -----<br>--- -------- - ------ ---- -- ----- ---- --- --- -----------<br>-- -------,184908.39999997616,184907.79999995232,184292.063,184300.69999998808,184308.728,184925.356,,22,described
screen,html.Screen,0_4_1_0_1_23,2021-11-12T12:43:55.920Z,,,,,,,,,,,,,,,,2,,,,,,,,,,,,,,446.3439999880793,,response,,,1,F,,,,,Space,keypress(Space),,,,instrumental,--- ---- ------ --- ------- ---------- ------- ----------<br>--- --------- --- ----------- ------- ----- ------- ---<br>--------- ---- -- --- ---- -- --------- as ---- -------<br>-- --------- ------ --- ----- ------ ---- --- --------- --<br>------ - ---- -- --- ----------- ------- ---- ----- -----<br>--- -------- - ------ ---- -- ----- ---- --- --- -----------<br>-- -------,185372.29999995232,185371.69999998808,184908.691,184908.59999996424,184925.356,185375.488,,23,as
screen,html.Screen,0_4_1_0_1_24,2021-11-12T12:43:56.384Z,,,,,,,,,,,,,,,,2,,,,,,,,,,,,,,460.21199998806696,,response,,,1,F,,,,,Space,keypress(Space),,,,instrumental,"--- ---- ------ --- ------- ---------- ------- ----------<br>--- --------- --- ----------- ------- ----- ------- ---<br>--------- ---- -- --- ---- -- --------- -- ""two -------<br>-- --------- ------ --- ----- ------ ---- --- --------- --<br>------ - ---- -- --- ----------- ------- ---- ----- -----<br>--- -------- - ------ ---- -- ----- ---- --- --- -----------<br>-- -------",185836.29999995232,185835.69999998808,185358.821,185372.39999997616,185375.488,185842.075,,24,"""two"
screen,html.Screen,0_4_1_0_1_25,2021-11-12T12:43:56.928Z,,,,,,,,,,,,,,,,2,,,,,,,,,,,,,,537.5249999642256,,response,,,1,F,,,,,Space,keypress(Space),,,,instrumental,--- ---- ------ --- ------- ---------- ------- ----------<br>--- --------- --- ----------- ------- ----- ------- ---<br>--------- ---- -- --- ---- -- --------- -- ---- patches<br>-- --------- ------ --- ----- ------ ---- --- --------- --<br>------ - ---- -- --- ----------- ------- ---- ----- -----<br>--- -------- - ------ ---- -- ----- ---- --- --- -----------<br>-- -------,186380.29999995232,186379.59999996424,185825.409,185836.5,185842.075,186391.909,,25,patches
screen,html.Screen,0_4_1_0_1_26,2021-11-12T12:43:57.368Z,,,,,,,,,,,,,,,,2,,,,,,,,,,,,,,427.79099998806487,,response,,,1,F,,,,,Space,keypress(Space),,,,instrumental,--- ---- ------ --- ------- ---------- ------- ----------<br>--- --------- --- ----------- ------- ----- ------- ---<br>--------- ---- -- --- ---- -- --------- -- ---- -------<br>of --------- ------ --- ----- ------ ---- --- --------- --<br>------ - ---- -- --- ----------- ------- ---- ----- -----<br>--- -------- - ------ ---- -- ----- ---- --- --- -----------<br>-- -------,186820.19999998808,186819.69999998808,186375.245,186380.39999997616,186391.909,186825.257,,26,of
screen,html.Screen,0_4_1_0_1_27,2021-11-12T12:43:57.824Z,,,,,,,,,,,,,,,,2,,,,,,,,,,,,,,450.3429999642249,,response,,,1,F,,,,,Space,keypress(Space),,,,instrumental,--- ---- ------ --- ------- ---------- ------- ----------<br>--- --------- --- ----------- ------- ----- ------- ---<br>--------- ---- -- --- ---- -- --------- -- ---- -------<br>-- intensely ------ --- ----- ------ ---- --- --------- --<br>------ - ---- -- --- ----------- ------- ---- ----- -----<br>--- -------- - ------ ---- -- ----- ---- --- --- -----------<br>-- -------,187276.19999998808,187275.59999996424,186808.592,186820.39999997616,186825.257,187291.967,,27,intensely
screen,html.Screen,0_4_1_0_1_28,2021-11-12T12:43:58.408Z,,,,,,,,,,,,,,,,2,,,,,,,,,,,,,,567.632999964233,,response,,,1,F,,,,,Space,keypress(Space),,,,instrumental,--- ---- ------ --- ------- ---------- ------- ----------<br>--- --------- --- ----------- ------- ----- ------- ---<br>--------- ---- -- --- ---- -- --------- -- ---- -------<br>-- --------- bright --- ----- ------ ---- --- --------- --<br>------ - ---- -- --- ----------- ------- ---- ----- -----<br>--- -------- - ------ ---- -- ----- ---- --- --- -----------<br>-- -------,187860.29999995232,187859.59999996424,187275.301,187276.39999997616,187291.967,187875.131,,28,bright
screen,html.Screen,0_4_1_0_1_29,2021-11-12T12:43:58.864Z,,,,,,,,,,,,,,,,2,,,,,,,,,,,,,,440.36900000000605,,response,,,1,F,,,,,Space,keypress(Space),,,,instrumental,--- ---- ------ --- ------- ---------- ------- ----------<br>--- --------- --- ----------- ------- ----- ------- ---<br>--------- ---- -- --- ---- -- --------- -- ---- -------<br>-- --------- ------ and ----- ------ ---- --- --------- --<br>------ - ---- -- --- ----------- ------- ---- ----- -----<br>--- -------- - ------ ---- -- ----- ---- --- --- -----------<br>-- -------,188316.09999996424,188315.5,187858.467,187860.39999997616,187875.131,188325.246,,29,and
screen,html.Screen,0_4_1_0_1_30,2021-11-12T12:43:59.408Z,,,,,,,,,,,,,,,,2,,,,,,,,,,,,,,534.2539999999863,,response,,,1,F,,,,,Space,keypress(Space),,,,instrumental,--- ---- ------ --- ------- ---------- ------- ----------<br>--- --------- --- ----------- ------- ----- ------- ---<br>--------- ---- -- --- ---- -- --------- -- ---- -------<br>-- --------- ------ --- white ------ ---- --- --------- --<br>------ - ---- -- --- ----------- ------- ---- ----- -----<br>--- -------- - ------ ---- -- ----- ---- --- --- -----------<br>-- -------,188860.19999998808,188859.5,188308.58,188316.39999997616,188325.246,188875.083,,30,white
screen,html.Screen,0_4_1_0_1_31,2021-11-12T12:43:59.912Z,,,,,,,,,,,,,,,,2,,,,,,,,,,,,,,488.716999952303,,response,,,1,F,,,,,Space,keypress(Space),,,,instrumental,"--- ---- ------ --- ------- ---------- ------- ----------<br>--- --------- --- ----------- ------- ----- ------- ---<br>--------- ---- -- --- ---- -- --------- -- ---- -------<br>-- --------- ------ --- ----- light"" ---- --- --------- --<br>------ - ---- -- --- ----------- ------- ---- ----- -----<br>--- -------- - ------ ---- -- ----- ---- --- --- -----------<br>-- -------",189364.39999997616,189363.79999995232,188858.419,188860.39999997616,188875.083,189375.078,,31,"light"""
screen,html.Screen,0_4_1_0_1_32,2021-11-12T12:44:00.392Z,,,,,,,,,,,,,,,,2,,,,,,,,,,,,,,468.4219999999914,,response,,,1,F,,,,,Space,keypress(Space),,,,instrumental,--- ---- ------ --- ------- ---------- ------- ----------<br>--- --------- --- ----------- ------- ----- ------- ---<br>--------- ---- -- --- ---- -- --------- -- ---- -------<br>-- --------- ------ --- ----- ------ over --- --------- --<br>------ - ---- -- --- ----------- ------- ---- ----- -----<br>--- -------- - ------ ---- -- ----- ---- --- --- -----------<br>-- -------,189844,189843.5,189358.413,189364.5,189375.078,189858.453,,32,over
screen,html.Screen,0_4_1_0_1_33,2021-11-12T12:44:00.856Z,,,,,,,,,,,,,,,,2,,,,,,,,,,,,,,448.9469999761495,,response,,,1,F,,,,,Space,keypress(Space),,,,instrumental,--- ---- ------ --- ------- ---------- ------- ----------<br>--- --------- --- ----------- ------- ----- ------- ---<br>--------- ---- -- --- ---- -- --------- -- ---- -------<br>-- --------- ------ --- ----- ------ ---- the --------- --<br>------ - ---- -- --- ----------- ------- ---- ----- -----<br>--- -------- - ------ ---- -- ----- ---- --- --- -----------<br>-- -------,190307.89999997616,190307.39999997616,189841.787,189844.29999995232,189858.453,190325.057,,33,the
screen,html.Screen,0_4_1_0_1_34,2021-11-12T12:44:01.376Z,,,,,,,,,,,,,,,,2,,,,,,,,,,,,,,502.34299997615744,,response,,,1,F,,,,,Space,keypress(Space),,,,instrumental,--- ---- ------ --- ------- ---------- ------- ----------<br>--- --------- --- ----------- ------- ----- ------- ---<br>--------- ---- -- --- ---- -- --------- -- ---- -------<br>-- --------- ------ --- ----- ------ ---- --- sunspots. --<br>------ - ---- -- --- ----------- ------- ---- ----- -----<br>--- -------- - ------ ---- -- ----- ---- --- --- -----------<br>-- -------,190828,190827.39999997616,190308.392,190308.19999998808,190325.057,190841.757,,34,sunspots.
screen,html.Screen,0_4_1_0_1_35,2021-11-12T12:44:01.896Z,,,,,,,,,,,,,,,,2,,,,,,,,,,,,,,505.54299995230394,,response,,,1,F,,,,,Space,keypress(Space),,,,instrumental,--- ---- ------ --- ------- ---------- ------- ----------<br>--- --------- --- ----------- ------- ----- ------- ---<br>--------- ---- -- --- ---- -- --------- -- ---- -------<br>-- --------- ------ --- ----- ------ ---- --- --------- He<br>------ - ---- -- --- ----------- ------- ---- ----- -----<br>--- -------- - ------ ---- -- ----- ---- --- --- -----------<br>-- -------,191348,191347.29999995232,190825.091,190828.19999998808,190841.757,191358.195,,35,He
screen,html.Screen,0_4_1_0_1_36,2021-11-12T12:44:02.568Z,,,,,,,,,,,,,,,,2,,,,,,,,,,,,,,661.2049999761512,,response,,,1,F,,,,,Space,keypress(Space),,,,instrumental,--- ---- ------ --- ------- ---------- ------- ----------<br>--- --------- --- ----------- ------- ----- ------- ---<br>--------- ---- -- --- ---- -- --------- -- ---- -------<br>-- --------- ------ --- ----- ------ ---- --- --------- --<br>jotted - ---- -- --- ----------- ------- ---- ----- -----<br>--- -------- - ------ ---- -- ----- ---- --- --- -----------<br>-- -------,192019.89999997616,192019.39999997616,191341.532,191348.09999996424,191358.195,192025.032,,36,jotted
screen,html.Screen,0_4_1_0_1_37,2021-11-12T12:44:03.000Z,,,,,,,,,,,,,,,,2,,,,,,,,,,,,,,426.26799995230976,,response,,,1,F,,,,,Space,keypress(Space),,,,instrumental,--- ---- ------ --- ------- ---------- ------- ----------<br>--- --------- --- ----------- ------- ----- ------- ---<br>--------- ---- -- --- ---- -- --------- -- ---- -------<br>-- --------- ------ --- ----- ------ ---- --- --------- --<br>------ a ---- -- --- ----------- ------- ---- ----- -----<br>--- -------- - ------ ---- -- ----- ---- --- --- -----------<br>-- -------,192451.79999995232,192451.29999995232,192008.366,192020.19999998808,192025.032,192458.267,,37,a
screen,html.Screen,0_4_1_0_1_38,2021-11-12T12:44:03.448Z,,,,,,,,,,,,,,,,2,,,,,,,,,,,,,,441.03299995232373,,response,,,1,F,,,,,Space,keypress(Space),,,,instrumental,--- ---- ------ --- ------- ---------- ------- ----------<br>--- --------- --- ----------- ------- ----- ------- ---<br>--------- ---- -- --- ---- -- --------- -- ---- -------<br>-- --------- ------ --- ----- ------ ---- --- --------- --<br>------ - note -- --- ----------- ------- ---- ----- -----<br>--- -------- - ------ ---- -- ----- ---- --- --- -----------<br>-- -------,192899.89999997616,192899.29999995232,192441.602,192452,192458.267,192908.214,,38,note
screen,html.Screen,0_4_1_0_1_39,2021-11-12T12:44:03.872Z,,,,,,,,,,,,,,,,2,,,,,,,,,,,,,,414.98599998807185,,response,,,1,F,,,,,Space,keypress(Space),,,,instrumental,--- ---- ------ --- ------- ---------- ------- ----------<br>--- --------- --- ----------- ------- ----- ------- ---<br>--------- ---- -- --- ---- -- --------- -- ---- -------<br>-- --------- ------ --- ----- ------ ---- --- --------- --<br>------ - ---- in --- ----------- ------- ---- ----- -----<br>--- -------- - ------ ---- -- ----- ---- --- --- -----------<br>-- -------,193323.79999995232,193323.19999998808,192891.549,192900.09999996424,192908.214,193324.926,,39,in
screen,html.Screen,0_4_1_0_1_40,2021-11-12T12:44:04.264Z,,,,,,,,,,,,,,,,2,,,,,,,,,,,,,,390.2739999880723,,response,,,1,F,,,,,Space,keypress(Space),,,,instrumental,--- ---- ------ --- ------- ---------- ------- ----------<br>--- --------- --- ----------- ------- ----- ------- ---<br>--------- ---- -- --- ---- -- --------- -- ---- -------<br>-- --------- ------ --- ----- ------ ---- --- --------- --<br>------ - ---- -- his ----------- ------- ---- ----- -----<br>--- -------- - ------ ---- -- ----- ---- --- --- -----------<br>-- -------,193715.79999995232,193715.19999998808,193308.26,193324,193324.926,193724.859,,40,his
screen,html.Screen,0_4_1_0_1_41,2021-11-12T12:44:04.824Z,,,,,,,,,,,,,,,,2,,,,,,,,,,,,,,550.5409999761614,,response,,,1,F,,,,,Space,keypress(Space),,,,instrumental,--- ---- ------ --- ------- ---------- ------- ----------<br>--- --------- --- ----------- ------- ----- ------- ---<br>--------- ---- -- --- ---- -- --------- -- ---- -------<br>-- --------- ------ --- ----- ------ ---- --- --------- --<br>------ - ---- -- --- painstaking ------- ---- ----- -----<br>--- -------- - ------ ---- -- ----- ---- --- --- -----------<br>-- -------,194276.09999996424,194275.39999997616,193708.194,193716,193724.859,194291.413,,41,painstaking
screen,html.Screen,0_4_1_0_1_42,2021-11-12T12:44:05.352Z,,,,,,,,,,,,,,,,2,,,,,,,,,,,,,,511.7869999880786,,response,,,1,F,,,,,Space,keypress(Space),,,,instrumental,--- ---- ------ --- ------- ---------- ------- ----------<br>--- --------- --- ----------- ------- ----- ------- ---<br>--------- ---- -- --- ---- -- --------- -- ---- -------<br>-- --------- ------ --- ----- ------ ---- --- --------- --<br>------ - ---- -- --- ----------- record. ---- ----- -----<br>--- -------- - ------ ---- -- ----- ---- --- --- -----------<br>-- -------,194803.79999995232,194803.19999998808,194274.749,194276.19999998808,194291.413,194808.099,,42,record.
screen,html.Screen,0_4_1_0_1_43,2021-11-12T12:44:05.864Z,,,,,,,,,,,,,,,,2,,,,,,,,,,,,,,507.0009999642498,,response,,,1,F,,,,,Space,keypress(Space),,,,instrumental,--- ---- ------ --- ------- ---------- ------- ----------<br>--- --------- --- ----------- ------- ----- ------- ---<br>--------- ---- -- --- ---- -- --------- -- ---- -------<br>-- --------- ------ --- ----- ------ ---- --- --------- --<br>------ - ---- -- --- ----------- ------- That ----- -----<br>--- -------- - ------ ---- -- ----- ---- --- --- -----------<br>-- -------,195315.69999998808,195315.09999996424,194791.434,194803.89999997616,194808.099,195324.805,,43,That
screen,html.Screen,0_4_1_0_1_44,2021-11-12T12:44:06.424Z,,,,,,,,,,,,,,,,2,,,,,,,,,,,,,,550.394999988086,,response,,,1,F,,,,,Space,keypress(Space),,,,instrumental,--- ---- ------ --- ------- ---------- ------- ----------<br>--- --------- --- ----------- ------- ----- ------- ---<br>--------- ---- -- --- ---- -- --------- -- ---- -------<br>-- --------- ------ --- ----- ------ ---- --- --------- --<br>------ - ---- -- --- ----------- ------- ---- night -----<br>--- -------- - ------ ---- -- ----- ---- --- --- -----------<br>-- -------,195875.79999995232,195875.19999998808,195308.139,195315.89999997616,195324.805,195891.314,,44,night
screen,html.Screen,0_4_1_0_1_45,2021-11-12T12:44:06.959Z,,,,,,,,,,,,,,,,2,,,,,,,,,,,,,,519.685999999987,,response,,,1,F,,,,,Space,keypress(Space),,,,instrumental,--- ---- ------ --- ------- ---------- ------- ----------<br>--- --------- --- ----------- ------- ----- ------- ---<br>--------- ---- -- --- ---- -- --------- -- ---- -------<br>-- --------- ------ --- ----- ------ ---- --- --------- --<br>------ - ---- -- --- ----------- ------- ---- ----- there<br>--- -------- - ------ ---- -- ----- ---- --- --- -----------<br>-- -------,196411.59999996424,196411,195874.65,195875.89999997616,195891.314,196424.665,,45,there
screen,html.Screen,0_4_1_0_1_46,2021-11-12T12:44:07.431Z,,,,,,,,,,,,,,,,2,,,,,,,,,,,,,,458.33499999999185,,response,,,1,F,,,,,Space,keypress(Space),,,,instrumental,--- ---- ------ --- ------- ---------- ------- ----------<br>--- --------- --- ----------- ------- ----- ------- ---<br>--------- ---- -- --- ---- -- --------- -- ---- -------<br>-- --------- ------ --- ----- ------ ---- --- --------- --<br>------ - ---- -- --- ----------- ------- ---- ----- -----<br>was -------- - ------ ---- -- ----- ---- --- --- -----------<br>-- -------,196883.59999996424,196883,196408,196411.69999998808,196424.665,196891.392,,46,was
screen,html.Screen,0_4_1_0_1_47,2021-11-12T12:44:07.919Z,,,,,,,,,,,,,,,,2,,,,,,,,,,,,,,479.5079999761656,,response,,,1,F,,,,,Space,keypress(Space),,,,instrumental,--- ---- ------ --- ------- ---------- ------- ----------<br>--- --------- --- ----------- ------- ----- ------- ---<br>--------- ---- -- --- ---- -- --------- -- ---- -------<br>-- --------- ------ --- ----- ------ ---- --- --------- --<br>------ - ---- -- --- ----------- ------- ---- ----- -----<br>--- scarcely - ------ ---- -- ----- ---- --- --- -----------<br>-- -------,197371.59999996424,197370.89999997616,196874.726,196883.79999995232,196891.392,197374.568,,47,scarcely
screen,html.Screen,0_4_1_0_1_48,2021-11-12T12:44:08.511Z,,,,,,,,,,,,,,,,2,,,,,,,,,,,,,,588.3319999761588,,response,,,1,F,,,,,Space,keypress(Space),,,,instrumental,--- ---- ------ --- ------- ---------- ------- ----------<br>--- --------- --- ----------- ------- ----- ------- ---<br>--------- ---- -- --- ---- -- --------- -- ---- -------<br>-- --------- ------ --- ----- ------ ---- --- --------- --<br>------ - ---- -- --- ----------- ------- ---- ----- -----<br>--- -------- a ------ ---- -- ----- ---- --- --- -----------<br>-- -------,197963.5,197962.89999997616,197357.904,197371.69999998808,197374.568,197974.658,,48,a
