sender,sender_type,sender_id,timestamp,meta,,Blues,Classical,Country,Dance,Electronic,Folk,Gospel,Hip-Hop,Jazz,Latin,Musical/Film,New-age,Pop,Provo_ID,R&B,Rap,Reggae,Religious,Rock,Soul,Swing,Traditional,age,artist_name,correct,correctResponse,distraction,duration,education,ended_on,familiarity,gender,item,list,music_frequency,offensiveness,pleasantness,preference,response,response_action,snippet_file,song_name,song_rating,sound,text,time_commit,time_end,time_render,time_run,time_show,time_switch,url,word,word_ID
Instructions,html.Page,0_0,2021-12-03T12:04:22.811Z,"{""labjs_version"":""20.2.3"",""labjs_build"":{""flavor"":""production"",""commit"":""7ea907d66ca8aeef8054924ca5d82ffbe11e34e5""},""location"":""https://run.pavlovia.org/mvasilev/lab_music_c/"",""userAgent"":""Mozilla/5.0 (Windows NT 6.1; Win64; x64) AppleWebKit/537.36 (KHTML, like Gecko) Chrome/96.0.4664.45 Safari/537.36"",""platform"":""Win32"",""language"":""en-US"",""locale"":""en-US"",""timeZone"":""Europe/London"",""timezoneOffset"":0,""screen_width"":1920,""screen_height"":1080,""scroll_width"":1920,""scroll_height"":959,""window_innerWidth"":1920,""window_innerHeight"":1007,""devicePixelRatio"":1}",,,,,,,,,,,,,,,,,,,,,,,,,,,,,52569.583,,form submission,,,,,,,,,,,,,,,,61771.20000000298,61770,9167.179,9182.70000000298,9200.417,61773.115,{},,
Headphones,html.Page,0_1,2021-12-03T12:04:25.669Z,,,,,,,,,,,,,,,,,,,,,,,,,,,,,,2855.2850000059625,,form submission,,,,,,,,,,,,,,,,64628.90000000596,64628.40000000596,61756.448,61771.79999999702,61773.115,64634.231,,,
Holding screen,html.Screen,0_2_0_0,2021-12-03T12:04:35.668Z,,,,,,,,,,,,,,,,,,,,,,,,,,,,,,10003.536000000007,,timeout,,,,,,,,,,,,,,,,74628.59999999404,74621.098,64617.566,64629.5,64634.231,74637.767,,,
screen,html.Screen,0_2_0_1_0,2021-12-03T12:04:36.620Z,,,,,,,,,,,,,,,,53,,,,,,,,,,,,,,941.1330000059534,,response,,,99,,,,,,Space,keypress(Space),,,,,When -- ----- -- ------ - ------- --- ----------<br>------------- ------ ------ ---- ---- ------- ----- -- ----<br>-------- ------- -- ---------- --- - --- ----- ----- ----<br>---- --- --- ----- --- ---- ---- ------- ----- ---- -------<br>--- --- -- ----- -- --- ---- -- --- ---- -- ------ ------<br>--- ----- -- ----,75580.29999999702,75578.90000000596,74621.098,74629.09999999404,74637.767,75588.346,,0,When
screen,html.Screen,0_2_0_1_1,2021-12-03T12:04:37.164Z,,,,,,,,,,,,,,,,53,,,,,,,,,,,,,,534.4539999970148,,response,,,99,,,,,,Space,keypress(Space),,,,,---- it ----- -- ------ - ------- --- ----------<br>------------- ------ ------ ---- ---- ------- ----- -- ----<br>-------- ------- -- ---------- --- - --- ----- ----- ----<br>---- --- --- ----- --- ---- ---- ------- ----- ---- -------<br>--- --- -- ----- -- --- ---- -- --- ---- -- ------ ------<br>--- ----- -- ----,76123.70000000298,76122.79999999702,75571.675,75580.70000000298,75588.346,76138.328,,1,it
screen,html.Screen,0_2_0_1_2,2021-12-03T12:04:37.652Z,,,,,,,,,,,,,,,,53,,,,,,,,,,,,,,472.4719999970257,,response,,,99,,,,,,Space,keypress(Space),,,,,---- -- comes -- ------ - ------- --- ----------<br>------------- ------ ------ ---- ---- ------- ----- -- ----<br>-------- ------- -- ---------- --- - --- ----- ----- ----<br>---- --- --- ----- --- ---- ---- ------- ----- ---- -------<br>--- --- -- ----- -- --- ---- -- --- ---- -- ------ ------<br>--- ----- -- ----,76611.70000000298,76610.79999999702,76121.658,76124,76138.328,76621.956,,2,comes
screen,html.Screen,0_2_0_1_3,2021-12-03T12:04:38.076Z,,,,,,,,,,,,,,,,53,,,,,,,,,,,,,,412.74400000297464,,response,,,99,,,,,,Space,keypress(Space),,,,,---- -- ----- to ------ - ------- --- ----------<br>------------- ------ ------ ---- ---- ------- ----- -- ----<br>-------- ------- -- ---------- --- - --- ----- ----- ----<br>---- --- --- ----- --- ---- ---- ------- ----- ---- -------<br>--- --- -- ----- -- --- ---- -- --- ---- -- ------ ------<br>--- ----- -- ----,77035.79999999702,77034.70000000298,76605.285,76612,76621.956,77038.682,,3,to
screen,html.Screen,0_2_0_1_4,2021-12-03T12:04:38.476Z,,,,,,,,,,,,,,,,53,,,,,,,,,,,,,,396.11799999701907,,response,,,99,,,,,,Space,keypress(Space),,,,,---- -- ----- -- having - ------- --- ----------<br>------------- ------ ------ ---- ---- ------- ----- -- ----<br>-------- ------- -- ---------- --- - --- ----- ----- ----<br>---- --- --- ----- --- ---- ---- ------- ----- ---- -------<br>--- --- -- ----- -- --- ---- -- --- ---- -- ------ ------<br>--- ----- -- ----,77435.90000000596,77434.79999999702,77022.012,77036.20000000298,77038.682,77438.791,,4,having
screen,html.Screen,0_2_0_1_5,2021-12-03T12:04:38.891Z,,,,,,,,,,,,,,,,53,,,,,,,,,,,,,,412.00899999702233,,response,,,99,,,,,,Space,keypress(Space),,,,,---- -- ----- -- ------ a ------- --- ----------<br>------------- ------ ------ ---- ---- ------- ----- -- ----<br>-------- ------- -- ---------- --- - --- ----- ----- ----<br>---- --- --- ----- --- ---- ---- ------- ----- ---- -------<br>--- --- -- ----- -- --- ---- -- --- ---- -- ------ ------<br>--- ----- -- ----,77851.59999999404,77850.79999999702,77422.121,77436.20000000298,77438.791,77855.553,,5,a
screen,html.Screen,0_2_0_1_6,2021-12-03T12:04:39.300Z,,,,,,,,,,,,,,,,53,,,,,,,,,,,,,,403.14700000298035,,response,,,99,,,,,,Space,keypress(Space),,,,,---- -- ----- -- ------ - lasting --- ----------<br>------------- ------ ------ ---- ---- ------- ----- -- ----<br>-------- ------- -- ---------- --- - --- ----- ----- ----<br>---- --- --- ----- --- ---- ---- ------- ----- ---- -------<br>--- --- -- ----- -- --- ---- -- --- ---- -- ------ ------<br>--- ----- -- ----,78259.70000000298,78258.70000000298,77838.883,77852.09999999404,77855.553,78272.339,,6,lasting
screen,html.Screen,0_2_0_1_7,2021-12-03T12:04:39.740Z,,,,,,,,,,,,,,,,53,,,,,,,,,,,,,,426.361000002973,,response,,,99,,,,,,Space,keypress(Space),,,,,---- -- ----- -- ------ - ------- and ----------<br>------------- ------ ------ ---- ---- ------- ----- -- ----<br>-------- ------- -- ---------- --- - --- ----- ----- ----<br>---- --- --- ----- --- ---- ---- ------- ----- ---- -------<br>--- --- -- ----- -- --- ---- -- --- ---- -- ------ ------<br>--- ----- -- ----,78699.70000000298,78698.70000000298,78255.669,78259.90000000596,78272.339,78705.823,,7,and
screen,html.Screen,0_2_0_1_8,2021-12-03T12:04:40.220Z,,,,,,,,,,,,,,,,53,,,,,,,,,,,,,,472.8770000029763,,response,,,99,,,,,,Space,keypress(Space),,,,,---- -- ----- -- ------ - ------- --- fulfilling<br>------------- ------ ------ ---- ---- ------- ----- -- ----<br>-------- ------- -- ---------- --- - --- ----- ----- ----<br>---- --- --- ----- --- ---- ---- ------- ----- ---- -------<br>--- --- -- ----- -- --- ---- -- --- ---- -- ------ ------<br>--- ----- -- ----,79179.70000000298,79178.70000000298,78689.152,78700,78705.823,79189.238,,8,fulfilling
screen,html.Screen,0_2_0_1_9,2021-12-03T12:04:40.651Z,,,,,,,,,,,,,,,,53,,,,,,,,,,,,,,421.4620000029827,,response,,,99,,,,,,Space,keypress(Space),,,,,"---- -- ----- -- ------ - ------- --- ----------<br>relationship, ------ ------ ---- ---- ------- ----- -- ----<br>-------- ------- -- ---------- --- - --- ----- ----- ----<br>---- --- --- ----- --- ---- ---- ------- ----- ---- -------<br>--- --- -- ----- -- --- ---- -- --- ---- -- ------ ------<br>--- ----- -- ----",79611.59999999404,79610.70000000298,79172.568,79180,79189.238,79622.67,,9,"relationship,"
screen,html.Screen,0_2_0_1_10,2021-12-03T12:04:41.083Z,,,,,,,,,,,,,,,,53,,,,,,,,,,,,,,419.83000000000175,,response,,,99,,,,,,Space,keypress(Space),,,,,---- -- ----- -- ------ - ------- --- ----------<br>------------- common ------ ---- ---- ------- ----- -- ----<br>-------- ------- -- ---------- --- - --- ----- ----- ----<br>---- --- --- ----- --- ---- ---- ------- ----- ---- -------<br>--- --- -- ----- -- --- ---- -- --- ---- -- ------ ------<br>--- ----- -- ----,80043.5,80042.5,79606,79611.79999999702,79622.67,80056.148,,10,common
screen,html.Screen,0_2_0_1_11,2021-12-03T12:04:41.475Z,,,,,,,,,,,,,,,,53,,,,,,,,,,,,,,378.4519999940385,,response,,,99,,,,,,Space,keypress(Space),,,,,---- -- ----- -- ------ - ------- --- ----------<br>------------- ------ wisdom ---- ---- ------- ----- -- ----<br>-------- ------- -- ---------- --- - --- ----- ----- ----<br>---- --- --- ----- --- ---- ---- ------- ----- ---- -------<br>--- --- -- ----- -- --- ---- -- --- ---- -- ------ ------<br>--- ----- -- ----,80435.5,80434.59999999404,80039.478,80043.70000000298,80056.148,80439.621,,11,wisdom
screen,html.Screen,0_2_0_1_12,2021-12-03T12:04:41.867Z,,,,,,,,,,,,,,,,53,,,,,,,,,,,,,,386.97899999404035,,response,,,99,,,,,,Space,keypress(Space),,,,,---- -- ----- -- ------ - ------- --- ----------<br>------------- ------ ------ says ---- ------- ----- -- ----<br>-------- ------- -- ---------- --- - --- ----- ----- ----<br>---- --- --- ----- --- ---- ---- ------- ----- ---- -------<br>--- --- -- ----- -- --- ---- -- --- ---- -- ------ ------<br>--- ----- -- ----,80827.40000000596,80826.59999999404,80422.95,80435.79999999702,80439.621,80839.656,,12,says
screen,html.Screen,0_2_0_1_13,2021-12-03T12:04:42.267Z,,,,,,,,,,,,,,,,53,,,,,,,,,,,,,,386.8439999999973,,response,,,99,,,,,,Space,keypress(Space),,,,,---- -- ----- -- ------ - ------- --- ----------<br>------------- ------ ------ ---- that ------- ----- -- ----<br>-------- ------- -- ---------- --- - --- ----- ----- ----<br>---- --- --- ----- --- ---- ---- ------- ----- ---- -------<br>--- --- -- ----- -- --- ---- -- --- ---- -- ------ ------<br>--- ----- -- ----,81227.29999999702,81226.5,80822.986,80827.70000000298,80839.656,81239.847,,13,that
screen,html.Screen,0_2_0_1_14,2021-12-03T12:04:42.651Z,,,,,,,,,,,,,,,,53,,,,,,,,,,,,,,370.6530000000057,,response,,,99,,,,,,Space,keypress(Space),,,,,---- -- ----- -- ------ - ------- --- ----------<br>------------- ------ ------ ---- ---- feeling ----- -- ----<br>-------- ------- -- ---------- --- - --- ----- ----- ----<br>---- --- --- ----- --- ---- ---- ------- ----- ---- -------<br>--- --- -- ----- -- --- ---- -- --- ---- -- ------ ------<br>--- ----- -- ----,81611.29999999702,81610.5,81223.176,81227.59999999404,81239.847,81623.216,,14,feeling
screen,html.Screen,0_2_0_1_15,2021-12-03T12:04:43.075Z,,,,,,,,,,,,,,,,53,,,,,,,,,,,,,,411.28399999999965,,response,,,99,,,,,,Space,keypress(Space),,,,,---- -- ----- -- ------ - ------- --- ----------<br>------------- ------ ------ ---- ---- ------- close -- ----<br>-------- ------- -- ---------- --- - --- ----- ----- ----<br>---- --- --- ----- --- ---- ---- ------- ----- ---- -------<br>--- --- -- ----- -- --- ---- -- --- ---- -- ------ ------<br>--- ----- -- ----,82035.40000000596,82034.5,81606.546,81611.59999999404,81623.216,82040.042,,15,close
screen,html.Screen,0_2_0_1_16,2021-12-03T12:04:43.523Z,,,,,,,,,,,,,,,,53,,,,,,,,,,,,,,442.65800000297895,,response,,,99,,,,,,Space,keypress(Space),,,,,---- -- ----- -- ------ - ------- --- ----------<br>------------- ------ ------ ---- ---- ------- ----- to ----<br>-------- ------- -- ---------- --- - --- ----- ----- ----<br>---- --- --- ----- --- ---- ---- ------- ----- ---- -------<br>--- --- -- ----- -- --- ---- -- --- ---- -- ------ ------<br>--- ----- -- ----,82483.59999999404,82482.70000000298,82023.371,82035.59999999404,82040.042,82490.113,,16,to
screen,html.Screen,0_2_0_1_17,2021-12-03T12:04:44.075Z,,,,,,,,,,,,,,,,53,,,,,,,,,,,,,,544.2870000059629,,response,,,99,,,,,,Space,keypress(Space),,,,,---- -- ----- -- ------ - ------- --- ----------<br>------------- ------ ------ ---- ---- ------- ----- -- your<br>-------- ------- -- ---------- --- - --- ----- ----- ----<br>---- --- --- ----- --- ---- ---- ------- ----- ---- -------<br>--- --- -- ----- -- --- ---- -- --- ---- -- ------ ------<br>--- ----- -- ----,83035.29999999702,83034.40000000596,82473.443,82483.79999999702,82490.113,83040.32,,17,your
screen,html.Screen,0_2_0_1_18,2021-12-03T12:04:44.731Z,,,,,,,,,,,,,,,,53,,,,,,,,,,,,,,650.0800000059535,,response,,,99,,,,,,Space,keypress(Space),,,,,---- -- ----- -- ------ - ------- --- ----------<br>------------- ------ ------ ---- ---- ------- ----- -- ----<br>romantic ------- -- ---------- --- - --- ----- ----- ----<br>---- --- --- ----- --- ---- ---- ------- ----- ---- -------<br>--- --- -- ----- -- --- ---- -- --- ---- -- ------ ------<br>--- ----- -- ----,83691.40000000596,83690.40000000596,83023.649,83035.5,83040.32,83707.107,,18,romantic
screen,html.Screen,0_2_0_1_19,2021-12-03T12:04:45.211Z,,,,,,,,,,,,,,,,53,,,,,,,,,,,,,,463.29300000595686,,response,,,99,,,,,,Space,keypress(Space),,,,,---- -- ----- -- ------ - ------- --- ----------<br>------------- ------ ------ ---- ---- ------- ----- -- ----<br>-------- partner -- ---------- --- - --- ----- ----- ----<br>---- --- --- ----- --- ---- ---- ------- ----- ---- -------<br>--- --- -- ----- -- --- ---- -- --- ---- -- ------ ------<br>--- ----- -- ----,84171.20000000298,84170.40000000596,83690.437,83691.59999999404,83707.107,84173.907,,19,partner
screen,html.Screen,0_2_0_1_20,2021-12-03T12:04:45.747Z,,,,,,,,,,,,,,,,53,,,,,,,,,,,,,,532.5929999999935,,response,,,99,,,,,,Space,keypress(Space),,,,,---- -- ----- -- ------ - ------- --- ----------<br>------------- ------ ------ ---- ---- ------- ----- -- ----<br>-------- ------- is ---------- --- - --- ----- ----- ----<br>---- --- --- ----- --- ---- ---- ------- ----- ---- -------<br>--- --- -- ----- -- --- ---- -- --- ---- -- ------ ------<br>--- ----- -- ----,84707.29999999702,84706.5,84157.237,84171.5,84173.907,84723.988,,20,is
screen,html.Screen,0_2_0_1_21,2021-12-03T12:04:46.795Z,,,,,,,,,,,,,,,,53,,,,,,,,,,,,,,1030.3119999970222,,response,,,99,,,,,,Space,keypress(Space),,,,,---- -- ----- -- ------ - ------- --- ----------<br>------------- ------ ------ ---- ---- ------- ----- -- ----<br>-------- ------- -- paramount. --- - --- ----- ----- ----<br>---- --- --- ----- --- ---- ---- ------- ----- ---- -------<br>--- --- -- ----- -- --- ---- -- --- ---- -- ------ ------<br>--- ----- -- ----,85755.20000000298,85754.29999999702,84707.318,84707.5,84723.988,85757.785,,21,paramount.
screen,html.Screen,0_2_0_1_22,2021-12-03T12:04:47.371Z,,,,,,,,,,,,,,,,53,,,,,,,,,,,,,,572.4150000029767,,response,,,99,,,,,,Space,keypress(Space),,,,,---- -- ----- -- ------ - ------- --- ----------<br>------------- ------ ------ ---- ---- ------- ----- -- ----<br>-------- ------- -- ---------- But - --- ----- ----- ----<br>---- --- --- ----- --- ---- ---- ------- ----- ---- -------<br>--- --- -- ----- -- --- ---- -- --- ---- -- ------ ------<br>--- ----- -- ----,86331.09999999404,86330.20000000298,85741.113,85755.59999999404,85757.785,86341.13,,22,But
screen,html.Screen,0_2_0_1_23,2021-12-03T12:04:47.795Z,,,,,,,,,,,,,,,,53,,,,,,,,,,,,,,413.2700000059558,,response,,,99,,,,,,Space,keypress(Space),,,,,---- -- ----- -- ------ - ------- --- ----------<br>------------- ------ ------ ---- ---- ------- ----- -- ----<br>-------- ------- -- ---------- --- a --- ----- ----- ----<br>---- --- --- ----- --- ---- ---- ------- ----- ---- -------<br>--- --- -- ----- -- --- ---- -- --- ---- -- ------ ------<br>--- ----- -- ----,86755.20000000298,86754.40000000596,86324.46,86331.5,86341.13,86757.803,,23,a
screen,html.Screen,0_2_0_1_24,2021-12-03T12:04:48.243Z,,,,,,,,,,,,,,,,53,,,,,,,,,,,,,,444.4969999970199,,response,,,99,,,,,,Space,keypress(Space),,,,,---- -- ----- -- ------ - ------- --- ----------<br>------------- ------ ------ ---- ---- ------- ----- -- ----<br>-------- ------- -- ---------- --- - new ----- ----- ----<br>---- --- --- ----- --- ---- ---- ------- ----- ---- -------<br>--- --- -- ----- -- --- ---- -- --- ---- -- ------ ------<br>--- ----- -- ----,87203,87202.29999999702,86741.134,86755.40000000596,86757.803,87208.181,,24,new
screen,html.Screen,0_2_0_1_25,2021-12-03T12:04:48.643Z,,,,,,,,,,,,,,,,53,,,,,,,,,,,,,,394.0190000029834,,response,,,99,,,,,,Space,keypress(Space),,,,,---- -- ----- -- ------ - ------- --- ----------<br>------------- ------ ------ ---- ---- ------- ----- -- ----<br>-------- ------- -- ---------- --- - --- study ----- ----<br>---- --- --- ----- --- ---- ---- ------- ----- ---- -------<br>--- --- -- ----- -- --- ---- -- --- ---- -- ------ ------<br>--- ----- -- ----,87603.09999999404,87602.20000000298,87191.508,87203.20000000298,87208.181,87608.15,,25,study
screen,html.Screen,0_2_0_1_26,2021-12-03T12:04:49.051Z,,,,,,,,,,,,,,,,53,,,,,,,,,,,,,,402.05000000298605,,response,,,99,,,,,,Space,keypress(Space),,,,,---- -- ----- -- ------ - ------- --- ----------<br>------------- ------ ------ ---- ---- ------- ----- -- ----<br>-------- ------- -- ---------- --- - --- ----- finds ----<br>---- --- --- ----- --- ---- ---- ------- ----- ---- -------<br>--- --- -- ----- -- --- ---- -- --- ---- -- ------ ------<br>--- ----- -- ----,88011.09999999404,88010.20000000298,87591.48,87603.40000000596,87608.15,88024.924,,26,finds
screen,html.Screen,0_2_0_1_27,2021-12-03T12:04:49.531Z,,,,,,,,,,,,,,,,53,,,,,,,,,,,,,,465.27600000298116,,response,,,99,,,,,,Space,keypress(Space),,,,,---- -- ----- -- ------ - ------- --- ----------<br>------------- ------ ------ ---- ---- ------- ----- -- ----<br>-------- ------- -- ---------- --- - --- ----- ----- that<br>---- --- --- ----- --- ---- ---- ------- ----- ---- -------<br>--- --- -- ----- -- --- ---- -- --- ---- -- ------ ------<br>--- ----- -- ----,88491,88490.20000000298,88008.254,88011.29999999702,88024.924,88508.428,,27,that
screen,html.Screen,0_2_0_1_28,2021-12-03T12:04:50.339Z,,,,,,,,,,,,,,,,53,,,,,,,,,,,,,,789.7720000029803,,response,,,99,,,,,,Space,keypress(Space),,,,,---- -- ----- -- ------ - ------- --- ----------<br>------------- ------ ------ ---- ---- ------- ----- -- ----<br>-------- ------- -- ---------- --- - --- ----- ----- ----<br>it's --- --- ----- --- ---- ---- ------- ----- ---- -------<br>--- --- -- ----- -- --- ---- -- --- ---- -- ------ ------<br>--- ----- -- ----,89299,89298.20000000298,88491.757,88491.29999999702,88508.428,89308.57,,28,it's
screen,html.Screen,0_2_0_1_29,2021-12-03T12:04:51.003Z,,,,,,,,,,,,,,,,53,,,,,,,,,,,,,,653.5299999940326,,response,,,99,,,,,,Space,keypress(Space),,,,,---- -- ----- -- ------ - ------- --- ----------<br>------------- ------ ------ ---- ---- ------- ----- -- ----<br>-------- ------- -- ---------- --- - --- ----- ----- ----<br>---- not --- ----- --- ---- ---- ------- ----- ---- -------<br>--- --- -- ----- -- --- ---- -- --- ---- -- ------ ------<br>--- ----- -- ----,89962.79999999702,89962.09999999404,89291.9,89299.20000000298,89308.57,89975.28,,29,not
screen,html.Screen,0_2_0_1_30,2021-12-03T12:04:51.451Z,,,,,,,,,,,,,,,,53,,,,,,,,,,,,,,434.8199999940407,,response,,,99,,,,,,Space,keypress(Space),,,,,---- -- ----- -- ------ - ------- --- ----------<br>------------- ------ ------ ---- ---- ------- ----- -- ----<br>-------- ------- -- ---------- --- - --- ----- ----- ----<br>---- --- how ----- --- ---- ---- ------- ----- ---- -------<br>--- --- -- ----- -- --- ---- -- --- ---- -- ------ ------<br>--- ----- -- ----,90411.09999999404,90410.09999999404,89958.611,89963.20000000298,89975.28,90425.606,,30,how
screen,html.Screen,0_2_0_1_31,2021-12-03T12:04:51.867Z,,,,,,,,,,,,,,,,53,,,,,,,,,,,,,,400.49399999403977,,response,,,99,,,,,,Space,keypress(Space),,,,,---- -- ----- -- ------ - ------- --- ----------<br>------------- ------ ------ ---- ---- ------- ----- -- ----<br>-------- ------- -- ---------- --- - --- ----- ----- ----<br>---- --- --- close --- ---- ---- ------- ----- ---- -------<br>--- --- -- ----- -- --- ---- -- --- ---- -- ------ ------<br>--- ----- -- ----,90826.90000000596,90826.09999999404,90408.935,90411.29999999702,90425.606,90842.242,,31,close
screen,html.Screen,0_2_0_1_32,2021-12-03T12:04:52.659Z,,,,,,,,,,,,,,,,53,,,,,,,,,,,,,,775.9580000029819,,response,,,99,,,,,,Space,keypress(Space),,,,,---- -- ----- -- ------ - ------- --- ----------<br>------------- ------ ------ ---- ---- ------- ----- -- ----<br>-------- ------- -- ---------- --- - --- ----- ----- ----<br>---- --- --- ----- you ---- ---- ------- ----- ---- -------<br>--- --- -- ----- -- --- ---- -- --- ---- -- ------ ------<br>--- ----- -- ----,91618.90000000596,91618.20000000298,90825.573,90827.20000000298,90842.242,91625.876,,32,you
screen,html.Screen,0_2_0_1_33,2021-12-03T12:04:53.067Z,,,,,,,,,,,,,,,,53,,,,,,,,,,,,,,400.2239999940357,,response,,,99,,,,,,Space,keypress(Space),,,,,---- -- ----- -- ------ - ------- --- ----------<br>------------- ------ ------ ---- ---- ------- ----- -- ----<br>-------- ------- -- ---------- --- - --- ----- ----- ----<br>---- --- --- ----- --- feel ---- ------- ----- ---- -------<br>--- --- -- ----- -- --- ---- -- --- ---- -- ------ ------<br>--- ----- -- ----,92026.79999999702,92026.09999999404,91609.205,91619.09999999404,91625.876,92042.69,,33,feel
screen,html.Screen,0_2_0_1_34,2021-12-03T12:04:53.443Z,,,,,,,,,,,,,,,,53,,,,,,,,,,,,,,359.3099999999977,,response,,,99,,,,,,Space,keypress(Space),,,,,---- -- ----- -- ------ - ------- --- ----------<br>------------- ------ ------ ---- ---- ------- ----- -- ----<br>-------- ------- -- ---------- --- - --- ----- ----- ----<br>---- --- --- ----- --- ---- that ------- ----- ---- -------<br>--- --- -- ----- -- --- ---- -- --- ---- -- ------ ------<br>--- ----- -- ----,92402.79999999702,92402,92026.019,92027.09999999404,92042.69,92409.467,,34,that
screen,html.Screen,0_2_0_1_35,2021-12-03T12:04:53.859Z,,,,,,,,,,,,,,,,53,,,,,,,,,,,,,,408.9330000059563,,response,,,99,,,,,,Space,keypress(Space),,,,,---- -- ----- -- ------ - ------- --- ----------<br>------------- ------ ------ ---- ---- ------- ----- -- ----<br>-------- ------- -- ---------- --- - --- ----- ----- ----<br>---- --- --- ----- --- ---- ---- matters ----- ---- -------<br>--- --- -- ----- -- --- ---- -- --- ---- -- ------ ------<br>--- ----- -- ----,92819.09999999404,92818.40000000596,92392.796,92403,92409.467,92826.243,,35,matters
screen,html.Screen,0_2_0_1_36,2021-12-03T12:04:54.203Z,,,,,,,,,,,,,,,,53,,,,,,,,,,,,,,335.7569999999978,,response,,,99,,,,,,Space,keypress(Space),,,,,"---- -- ----- -- ------ - ------- --- ----------<br>------------- ------ ------ ---- ---- ------- ----- -- ----<br>-------- ------- -- ---------- --- - --- ----- ----- ----<br>---- --- --- ----- --- ---- ---- ------- most, ---- -------<br>--- --- -- ----- -- --- ---- -- --- ---- -- ------ ------<br>--- ----- -- ----",93163.09999999404,93162,92809.572,92819.29999999702,92826.243,93176.336,,36,"most,"
screen,html.Screen,0_2_0_1_37,2021-12-03T12:04:54.803Z,,,,,,,,,,,,,,,,53,,,,,,,,,,,,,,585.6640000000043,,response,,,99,,,,,,Space,keypress(Space),,,,,---- -- ----- -- ------ - ------- --- ----------<br>------------- ------ ------ ---- ---- ------- ----- -- ----<br>-------- ------- -- ---------- --- - --- ----- ----- ----<br>---- --- --- ----- --- ---- ---- ------- ----- it's -------<br>--- --- -- ----- -- --- ---- -- --- ---- -- ------ ------<br>--- ----- -- ----,93762.79999999702,93762,93159.665,93163.29999999702,93176.336,93776.447,,37,it's
screen,html.Screen,0_2_0_1_38,2021-12-03T12:04:55.979Z,,,,,,,,,,,,,,,,53,,,,,,,,,,,,,,1161.5529999999999,,response,,,99,,,,,,Space,keypress(Space),,,,,---- -- ----- -- ------ - ------- --- ----------<br>------------- ------ ------ ---- ---- ------- ----- -- ----<br>-------- ------- -- ---------- --- - --- ----- ----- ----<br>---- --- --- ----- --- ---- ---- ------- ----- ---- whether<br>--- --- -- ----- -- --- ---- -- --- ---- -- ------ ------<br>--- ----- -- ----,94938.70000000298,94938,93759.777,93763,93776.447,94943.476,,38,whether
screen,html.Screen,0_2_0_1_39,2021-12-03T12:04:56.547Z,,,,,,,,,,,,,,,,53,,,,,,,,,,,,,,562.5240000000049,,response,,,99,,,,,,Space,keypress(Space),,,,,---- -- ----- -- ------ - ------- --- ----------<br>------------- ------ ------ ---- ---- ------- ----- -- ----<br>-------- ------- -- ---------- --- - --- ----- ----- ----<br>---- --- --- ----- --- ---- ---- ------- ----- ---- -------<br>you --- -- ----- -- --- ---- -- --- ---- -- ------ ------<br>--- ----- -- ----,95506.70000000298,95506,94926.805,94939,94943.476,95510.253,,39,you
screen,html.Screen,0_2_0_1_40,2021-12-03T12:04:57.107Z,,,,,,,,,,,,,,,,53,,,,,,,,,,,,,,555.6470000059635,,response,,,99,,,,,,Space,keypress(Space),,,,,---- -- ----- -- ------ - ------- --- ----------<br>------------- ------ ------ ---- ---- ------- ----- -- ----<br>-------- ------- -- ---------- --- - --- ----- ----- ----<br>---- --- --- ----- --- ---- ---- ------- ----- ---- -------<br>--- are -- ----- -- --- ---- -- --- ---- -- ------ ------<br>--- ----- -- ----,96066.70000000298,96065.90000000596,95493.582,95507.09999999404,95510.253,96076.919,,40,are
screen,html.Screen,0_2_0_1_41,2021-12-03T12:04:58.115Z,,,,,,,,,,,,,,,,53,,,,,,,,,,,,,,996.981000005966,,response,,,99,,,,,,Space,keypress(Space),,,,,---- -- ----- -- ------ - ------- --- ----------<br>------------- ------ ------ ---- ---- ------- ----- -- ----<br>-------- ------- -- ---------- --- - --- ----- ----- ----<br>---- --- --- ----- --- ---- ---- ------- ----- ---- -------<br>--- --- as ----- -- --- ---- -- --- ---- -- ------ ------<br>--- ----- -- ----,97074.70000000298,97073.90000000596,96060.25,96067,96076.919,97077.51,,41,as
screen,html.Screen,0_2_0_1_42,2021-12-03T12:04:58.547Z,,,,,,,,,,,,,,,,53,,,,,,,,,,,,,,428.3900000059657,,response,,,99,,,,,,Space,keypress(Space),,,,,---- -- ----- -- ------ - ------- --- ----------<br>------------- ------ ------ ---- ---- ------- ----- -- ----<br>-------- ------- -- ---------- --- - --- ----- ----- ----<br>---- --- --- ----- --- ---- ---- ------- ----- ---- -------<br>--- --- -- close -- --- ---- -- --- ---- -- ------ ------<br>--- ----- -- ----,97506.59999999404,97505.90000000596,97060.837,97075,97077.51,97510.767,,42,close
screen,html.Screen,0_2_0_1_43,2021-12-03T12:04:58.986Z,,,,,,,,,,,,,,,,53,,,,,,,,,,,,,,435.03299999701267,,response,,,99,,,,,,Space,keypress(Space),,,,,---- -- ----- -- ------ - ------- --- ----------<br>------------- ------ ------ ---- ---- ------- ----- -- ----<br>-------- ------- -- ---------- --- - --- ----- ----- ----<br>---- --- --- ----- --- ---- ---- ------- ----- ---- -------<br>--- --- -- ----- as --- ---- -- --- ---- -- ------ ------<br>--- ----- -- ----,97946.5,97945.79999999702,97494.097,97506.90000000596,97510.767,97960.907,,43,as
screen,html.Screen,0_2_0_1_44,2021-12-03T12:04:59.523Z,,,,,,,,,,,,,,,,53,,,,,,,,,,,,,,520.7930000029737,,response,,,99,,,,,,Space,keypress(Space),,,,,---- -- ----- -- ------ - ------- --- ----------<br>------------- ------ ------ ---- ---- ------- ----- -- ----<br>-------- ------- -- ---------- --- - --- ----- ----- ----<br>---- --- --- ----- --- ---- ---- ------- ----- ---- -------<br>--- --- -- ----- -- you ---- -- --- ---- -- ------ ------<br>--- ----- -- ----,98482.79999999702,98481.70000000298,97944.237,97946.79999999702,97960.907,98494.363,,44,you
screen,html.Screen,0_2_0_1_45,2021-12-03T12:04:59.914Z,,,,,,,,,,,,,,,,53,,,,,,,,,,,,,,379.4369999970222,,response,,,99,,,,,,Space,keypress(Space),,,,,---- -- ----- -- ------ - ------- --- ----------<br>------------- ------ ------ ---- ---- ------- ----- -- ----<br>-------- ------- -- ---------- --- - --- ----- ----- ----<br>---- --- --- ----- --- ---- ---- ------- ----- ---- -------<br>--- --- -- ----- -- --- want -- --- ---- -- ------ ------<br>--- ----- -- ----,98874.5,98873.79999999702,98477.693,98482.90000000596,98494.363,98877.818,,45,want
screen,html.Screen,0_2_0_1_46,2021-12-03T12:05:00.298Z,,,,,,,,,,,,,,,,53,,,,,,,,,,,,,,379.88200000298093,,response,,,99,,,,,,Space,keypress(Space),,,,,---- -- ----- -- ------ - ------- --- ----------<br>------------- ------ ------ ---- ---- ------- ----- -- ----<br>-------- ------- -- ---------- --- - --- ----- ----- ----<br>---- --- --- ----- --- ---- ---- ------- ----- ---- -------<br>--- --- -- ----- -- --- ---- to --- ---- -- ------ ------<br>--- ----- -- ----,99258.59999999404,99257.70000000298,98861.148,98874.70000000298,98877.818,99261.253,,46,to
screen,html.Screen,0_2_0_1_47,2021-12-03T12:05:00.698Z,,,,,,,,,,,,,,,,53,,,,,,,,,,,,,,396.44700000298326,,response,,,99,,,,,,Space,keypress(Space),,,,,"---- -- ----- -- ------ - ------- --- ----------<br>------------- ------ ------ ---- ---- ------- ----- -- ----<br>-------- ------- -- ---------- --- - --- ----- ----- ----<br>---- --- --- ----- --- ---- ---- ------- ----- ---- -------<br>--- --- -- ----- -- --- ---- -- be, ---- -- ------ ------<br>--- ----- -- ----",99658.59999999404,99657.70000000298,99244.583,99258.79999999702,99261.253,99661.395,,47,"be,"
screen,html.Screen,0_2_0_1_48,2021-12-03T12:05:01.130Z,,,,,,,,,,,,,,,,53,,,,,,,,,,,,,,428.30500000297616,,response,,,99,,,,,,Space,keypress(Space),,,,,---- -- ----- -- ------ - ------- --- ----------<br>------------- ------ ------ ---- ---- ------- ----- -- ----<br>-------- ------- -- ---------- --- - --- ----- ----- ----<br>---- --- --- ----- --- ---- ---- ------- ----- ---- -------<br>--- --- -- ----- -- --- ---- -- --- even -- ------ ------<br>--- ----- -- ----,100090.5,100089.70000000298,99644.724,99658.90000000596,99661.395,100094.719,,48,even
screen,html.Screen,0_2_0_1_49,2021-12-03T12:05:01.490Z,,,,,,,,,,,,,,,,53,,,,,,,,,,,,,,354.9810000029829,,response,,,99,,,,,,Space,keypress(Space),,,,,---- -- ----- -- ------ - ------- --- ----------<br>------------- ------ ------ ---- ---- ------- ----- -- ----<br>-------- ------- -- ---------- --- - --- ----- ----- ----<br>---- --- --- ----- --- ---- ---- ------- ----- ---- -------<br>--- --- -- ----- -- --- ---- -- --- ---- if ------ ------<br>--- ----- -- ----,100450.5,100449.70000000298,100078.05,100090.70000000298,100094.719,100461.649,,49,if
screen,html.Screen,0_2_0_1_50,2021-12-03T12:05:01.874Z,,,,,,,,,,,,,,,,53,,,,,,,,,,,,,,372.05100000297534,,response,,,99,,,,,,Space,keypress(Space),,,,,---- -- ----- -- ------ - ------- --- ----------<br>------------- ------ ------ ---- ---- ------- ----- -- ----<br>-------- ------- -- ---------- --- - --- ----- ----- ----<br>---- --- --- ----- --- ---- ---- ------- ----- ---- -------<br>--- --- -- ----- -- --- ---- -- --- ---- -- that's ------<br>--- ----- -- ----,100834.5,100833.70000000298,100444.977,100450.70000000298,100461.649,100845.049,,50,that's
screen,html.Screen,0_2_0_1_51,2021-12-03T12:05:02.386Z,,,,,,,,,,,,,,,,53,,,,,,,,,,,,,,500.65100000298116,,response,,,99,,,,,,Space,keypress(Space),,,,,---- -- ----- -- ------ - ------- --- ----------<br>------------- ------ ------ ---- ---- ------- ----- -- ----<br>-------- ------- -- ---------- --- - --- ----- ----- ----<br>---- --- --- ----- --- ---- ---- ------- ----- ---- -------<br>--- --- -- ----- -- --- ---- -- --- ---- -- ------ really<br>--- ----- -- ----,101346.40000000596,101345.70000000298,100828.378,100834.70000000298,100845.049,101361.815,,51,really
screen,html.Screen,0_2_0_1_52,2021-12-03T12:05:02.826Z,,,,,,,,,,,,,,,,53,,,,,,,,,,,,,,423.8850000029779,,response,,,99,,,,,,Space,keypress(Space),,,,,---- -- ----- -- ------ - ------- --- ----------<br>------------- ------ ------ ---- ---- ------- ----- -- ----<br>-------- ------- -- ---------- --- - --- ----- ----- ----<br>---- --- --- ----- --- ---- ---- ------- ----- ---- -------<br>--- --- -- ----- -- --- ---- -- --- ---- -- ------ ------<br>not ----- -- ----,101786.40000000596,101785.70000000298,101345.145,101346.59999999404,101361.815,101795.253,,52,not
screen,html.Screen,0_2_0_1_53,2021-12-03T12:05:03.210Z,,,,,,,,,,,,,,,,53,,,,,,,,,,,,,,374.34699999404256,,response,,,99,,,,,,Space,keypress(Space),,,,,---- -- ----- -- ------ - ------- --- ----------<br>------------- ------ ------ ---- ---- ------- ----- -- ----<br>-------- ------- -- ---------- --- - --- ----- ----- ----<br>---- --- --- ----- --- ---- ---- ------- ----- ---- -------<br>--- --- -- ----- -- --- ---- -- --- ---- -- ------ ------<br>--- close -- ----,102170.29999999702,102169.59999999404,101778.583,101786.59999999404,101795.253,102178.585,,53,close
screen,html.Screen,0_2_0_1_54,2021-12-03T12:05:03.626Z,,,,,,,,,,,,,,,,53,,,,,,,,,,,,,,406.9149999999936,,response,,,99,,,,,,Space,keypress(Space),,,,,---- -- ----- -- ------ - ------- --- ----------<br>------------- ------ ------ ---- ---- ------- ----- -- ----<br>-------- ------- -- ---------- --- - --- ----- ----- ----<br>---- --- --- ----- --- ---- ---- ------- ----- ---- -------<br>--- --- -- ----- -- --- ---- -- --- ---- -- ------ ------<br>--- ----- at ----,102586.40000000596,102585.5,102161.916,102170.59999999404,102178.585,102595.541,,54,at
screen,html.Screen,0_2_0_1_55,2021-12-03T12:05:04.099Z,,,,,,,,,,,,,,,,53,,,,,,,,,,,,,,462.359000005963,,response,,,99,,,,,,Space,keypress(Space),,,,,---- -- ----- -- ------ - ------- --- ----------<br>------------- ------ ------ ---- ---- ------- ----- -- ----<br>-------- ------- -- ---------- --- - --- ----- ----- ----<br>---- --- --- ----- --- ---- ---- ------- ----- ---- -------<br>--- --- -- ----- -- --- ---- -- --- ---- -- ------ ------<br>--- ----- -- all.,103058.70000000298,103057.90000000596,102578.869,102586.59999999404,102595.541,103078.967,,55,all.
Item 99,flow.Loop,0_2_0_1,2021-12-03T12:05:04.103Z,,,,,,,,,,,,,,,,,,,,,,,,,,,,,,28420.133000005953,,completion,,,,C,,,,,,,,,,silence,,103063.59999999404,103057.90000000596,74621.098,74629,74637.767,103078.967,,,
Question 1,html.Screen,0_2_0_2,2021-12-03T12:05:17.130Z,,,,,,,,,,,,,,,,,,,,,,,,,,,false,FALSE,,13009.733000002976,,response,,,99,C,,,,,TRUE,click #choice-1,,,,silence,,116090.20000000298,116088.70000000298,103062.296,103063.90000000596,103078.967,116098.902,,,
Question 2,html.Screen,0_2_0_3,2021-12-03T12:05:24.549Z,,,,,,,,,,,,,,,,,,,,,,,,,,,false,TRUE,,7405.397999997018,,response,,,99,C,,,,,FALSE,click #choice-2,,,,silence,,123505.70000000298,123504.29999999702,116082.384,116090.40000000596,116098.902,123517.643,,,
Item 99,flow.Sequence,0_2_0,2021-12-03T12:05:24.550Z,,,,,,,,,,,,,,,,,,,,,,,,,,,,,,58870.06899999702,,completion,,,,,,,,,,,,,,,,123506.20000000298,123504.29999999702,64617.566,64629.29999999702,64634.231,123517.643,,,
Holding screen,html.Screen,0_2_1_0,2021-12-03T12:05:34.548Z,,,,,,,,,,,,,,,,,,,,,,,,,,,,,,10002.558999999994,,timeout,,,,,,,,,,,,,,,,133504.5,133503.532,123500.973,123506.70000000298,123517.643,133520.202,,,
screen,html.Screen,0_2_1_1_0,2021-12-03T12:05:35.477Z,,,,,,,,,,,,,,,,54,,,,,,,,,,,,,,912.2980000000098,,response,,,100,,,,,,Space,keypress(Space),,,,,At --- ---- --- ------ ----- ------- ---- -- --- ------- --<br>------- ---------- ------ -- ----- -- ----- -- ---- ------<br>--- ----- --- --- ------ -------- ----- --- ------ ----- --<br>----- ----- ---------- --- --- ------ ------ ---- -- ------<br>------- --- ------ ----- --- ---- ------- -- ---- --- --<br>------- ------,134433.59999999404,134432.5,133503.532,133504.79999999702,133520.202,134437.288,,0,At
screen,html.Screen,0_2_1_1_1,2021-12-03T12:05:35.908Z,,,,,,,,,,,,,,,,54,,,,,,,,,,,,,,426.71199999999953,,response,,,100,,,,,,Space,keypress(Space),,,,,-- the ---- --- ------ ----- ------- ---- -- --- ------- --<br>------- ---------- ------ -- ----- -- ----- -- ---- ------<br>--- ----- --- --- ------ -------- ----- --- ------ ----- --<br>----- ----- ---------- --- --- ------ ------ ---- -- ------<br>------- --- ------ ----- --- ---- ------- -- ---- --- --<br>------- ------,134865,134864,134420.617,134433.90000000596,134437.288,134870.711,,1,the
screen,html.Screen,0_2_1_1_2,2021-12-03T12:05:36.292Z,,,,,,,,,,,,,,,,54,,,,,,,,,,,,,,377.28899999998976,,response,,,100,,,,,,Space,keypress(Space),,,,,-- --- time --- ------ ----- ------- ---- -- --- ------- --<br>------- ---------- ------ -- ----- -- ----- -- ---- ------<br>--- ----- --- --- ------ -------- ----- --- ------ ----- --<br>----- ----- ---------- --- --- ------ ------ ---- -- ------<br>------- --- ------ ----- --- ---- ------- -- ---- --- --<br>------- ------,135248.90000000596,135248,134854.041,134865.20000000298,134870.711,135254.162,,2,time
screen,html.Screen,0_2_1_1_3,2021-12-03T12:05:36.732Z,,,,,,,,,,,,,,,,54,,,,,,,,,,,,,,433.93799999402836,,response,,,100,,,,,,Space,keypress(Space),,,,,-- --- ---- the ------ ----- ------- ---- -- --- ------- --<br>------- ---------- ------ -- ----- -- ----- -- ---- ------<br>--- ----- --- --- ------ -------- ----- --- ------ ----- --<br>----- ----- ---------- --- --- ------ ------ ---- -- ------<br>------- --- ------ ----- --- ---- ------- -- ---- --- --<br>------- ------,135688.79999999702,135688.09999999404,135237.492,135249.20000000298,135254.162,135704.262,,3,the
screen,html.Screen,0_2_1_1_4,2021-12-03T12:05:37.332Z,,,,,,,,,,,,,,,,54,,,,,,,,,,,,,,583.7380000000121,,response,,,100,,,,,,Space,keypress(Space),,,,,-- --- ---- --- French ----- ------- ---- -- --- ------- --<br>------- ---------- ------ -- ----- -- ----- -- ---- ------<br>--- ----- --- --- ------ -------- ----- --- ------ ----- --<br>----- ----- ---------- --- --- ------ ------ ---- -- ------<br>------- --- ------ ----- --- ---- ------- -- ---- --- --<br>------- ------,136288.79999999702,136288,135687.592,135690.79999999702,135704.262,136304.468,,4,French
screen,html.Screen,0_2_1_1_5,2021-12-03T12:05:37.828Z,,,,,,,,,,,,,,,,54,,,,,,,,,,,,,,479.5320000000065,,response,,,100,,,,,,Space,keypress(Space),,,,,-- --- ---- --- ------ crown ------- ---- -- --- ------- --<br>------- ---------- ------ -- ----- -- ----- -- ---- ------<br>--- ----- --- --- ------ -------- ----- --- ------ ----- --<br>----- ----- ---------- --- --- ------ ------ ---- -- ------<br>------- --- ------ ----- --- ---- ------- -- ---- --- --<br>------- ------,136785.09999999404,136784,136287.797,136289,136304.468,136787.878,,5,crown
screen,html.Screen,0_2_1_1_6,2021-12-03T12:05:38.660Z,,,,,,,,,,,,,,,,54,,,,,,,,,,,,,,828.0220000059635,,response,,,100,,,,,,Space,keypress(Space),,,,,-- --- ---- --- ------ ----- secured ---- -- --- ------- --<br>------- ---------- ------ -- ----- -- ----- -- ---- ------<br>--- ----- --- --- ------ -------- ----- --- ------ ----- --<br>----- ----- ---------- --- --- ------ ------ ---- -- ------<br>------- --- ------ ----- --- ---- ------- -- ---- --- --<br>------- ------,137616.79999999702,137615.90000000596,136771.208,136785.20000000298,136787.878,137621.489,,6,secured
screen,html.Screen,0_2_1_1_7,2021-12-03T12:05:39.740Z,,,,,,,,,,,,,,,,54,,,,,,,,,,,,,,1074.411000005959,,response,,,100,,,,,,Space,keypress(Space),,,,,-- --- ---- --- ------ ----- ------- much -- --- ------- --<br>------- ---------- ------ -- ----- -- ----- -- ---- ------<br>--- ----- --- --- ------ -------- ----- --- ------ ----- --<br>----- ----- ---------- --- --- ------ ------ ---- -- ------<br>------- --- ------ ----- --- ---- ------- -- ---- --- --<br>------- ------,138696.70000000298,138695.90000000596,137604.818,137617,137621.489,138705.008,,7,much
screen,html.Screen,0_2_1_1_8,2021-12-03T12:05:40.252Z,,,,,,,,,,,,,,,,54,,,,,,,,,,,,,,502.89200000595883,,response,,,100,,,,,,Space,keypress(Space),,,,,-- --- ---- --- ------ ----- ------- ---- of --- ------- --<br>------- ---------- ------ -- ----- -- ----- -- ---- ------<br>--- ----- --- --- ------ -------- ----- --- ------ ----- --<br>----- ----- ---------- --- --- ------ ------ ---- -- ------<br>------- --- ------ ----- --- ---- ------- -- ---- --- --<br>------- ------,139208.70000000298,139207.90000000596,138688.338,138696.90000000596,138705.008,139221.79,,8,of
screen,html.Screen,0_2_1_1_9,2021-12-03T12:05:40.804Z,,,,,,,,,,,,,,,,54,,,,,,,,,,,,,,538.1100000059523,,response,,,100,,,,,,Space,keypress(Space),,,,,-- --- ---- --- ------ ----- ------- ---- -- its ------- --<br>------- ---------- ------ -- ----- -- ----- -- ---- ------<br>--- ----- --- --- ------ -------- ----- --- ------ ----- --<br>----- ----- ---------- --- --- ------ ------ ---- -- ------<br>------- --- ------ ----- --- ---- ------- -- ---- --- --<br>------- ------,139760.59999999404,139759.90000000596,139205.12,139208.90000000596,139221.79,139772.056,,9,its
screen,html.Screen,0_2_1_1_10,2021-12-03T12:05:42.556Z,,,,,,,,,,,,,,,,54,,,,,,,,,,,,,,1739.7439999970084,,response,,,100,,,,,,Space,keypress(Space),,,,,-- --- ---- --- ------ ----- ------- ---- -- --- revenue --<br>------- ---------- ------ -- ----- -- ----- -- ---- ------<br>--- ----- --- --- ------ -------- ----- --- ------ ----- --<br>----- ----- ---------- --- --- ------ ------ ---- -- ------<br>------- --- ------ ----- --- ---- ------- -- ---- --- --<br>------- ------,141512.59999999404,141511.79999999702,139755.385,139760.90000000596,139772.056,141522.385,,10,revenue
screen,html.Screen,0_2_1_1_11,2021-12-03T12:05:43.052Z,,,,,,,,,,,,,,,,54,,,,,,,,,,,,,,485.41499999701045,,response,,,100,,,,,,Space,keypress(Space),,,,,-- --- ---- --- ------ ----- ------- ---- -- --- ------- by<br>------- ---------- ------ -- ----- -- ----- -- ---- ------<br>--- ----- --- --- ------ -------- ----- --- ------ ----- --<br>----- ----- ---------- --- --- ------ ------ ---- -- ------<br>------- --- ------ ----- --- ---- ------- -- ---- --- --<br>------- ------,142008.59999999404,142007.79999999702,141505.715,141512.79999999702,141522.385,142022.526,,11,by
screen,html.Screen,0_2_1_1_12,2021-12-03T12:05:43.916Z,,,,,,,,,,,,,,,,54,,,,,,,,,,,,,,849.1740000029677,,response,,,100,,,,,,Space,keypress(Space),,,,,-- --- ---- --- ------ ----- ------- ---- -- --- ------- --<br>issuing ---------- ------ -- ----- -- ----- -- ---- ------<br>--- ----- --- --- ------ -------- ----- --- ------ ----- --<br>----- ----- ---------- --- --- ------ ------ ---- -- ------<br>------- --- ------ ----- --- ---- ------- -- ---- --- --<br>------- ------,142872.70000000298,142871.70000000298,142005.856,142008.79999999702,142022.526,142889.425,,12,issuing
screen,html.Screen,0_2_1_1_13,2021-12-03T12:05:44.548Z,,,,,,,,,,,,,,,,54,,,,,,,,,,,,,,614.2750000029919,,response,,,100,,,,,,Space,keypress(Space),,,,,-- --- ---- --- ------ ----- ------- ---- -- --- ------- --<br>------- government ------ -- ----- -- ----- -- ---- ------<br>--- ----- --- --- ------ -------- ----- --- ------ ----- --<br>----- ----- ---------- --- --- ------ ------ ---- -- ------<br>------- --- ------ ----- --- ---- ------- -- ---- --- --<br>------- ------,143504.59999999404,143503.70000000298,142872.755,142872.90000000596,142889.425,143506.509,,13,government
screen,html.Screen,0_2_1_1_14,2021-12-03T12:05:44.948Z,,,,,,,,,,,,,,,,54,,,,,,,,,,,,,,397.1910000029893,,response,,,100,,,,,,Space,keypress(Space),,,,,-- --- ---- --- ------ ----- ------- ---- -- --- ------- --<br>------- ---------- bonds. -- ----- -- ----- -- ---- ------<br>--- ----- --- --- ------ -------- ----- --- ------ ----- --<br>----- ----- ---------- --- --- ------ ------ ---- -- ------<br>------- --- ------ ----- --- ---- ------- -- ---- --- --<br>------- ------,143904.40000000596,143903.70000000298,143489.836,143505,143506.509,143906.458,,14,bonds.
screen,html.Screen,0_2_1_1_15,2021-12-03T12:05:45.484Z,,,,,,,,,,,,,,,,54,,,,,,,,,,,,,,533.5419999999867,,response,,,100,,,,,,Space,keypress(Space),,,,,-- --- ---- --- ------ ----- ------- ---- -- --- ------- --<br>------- ---------- ------ In ----- -- ----- -- ---- ------<br>--- ----- --- --- ------ -------- ----- --- ------ ----- --<br>----- ----- ---------- --- --- ------ ------ ---- -- ------<br>------- --- ------ ----- --- ---- ------- -- ---- --- --<br>------- ------,144440.79999999702,144440,143889.788,143904.70000000298,143906.458,144456.594,,15,In
screen,html.Screen,0_2_1_1_16,2021-12-03T12:05:45.948Z,,,,,,,,,,,,,,,,54,,,,,,,,,,,,,,447.10600000296836,,response,,,100,,,,,,Space,keypress(Space),,,,,"-- --- ---- --- ------ ----- ------- ---- -- --- ------- --<br>------- ---------- ------ -- 1727, -- ----- -- ---- ------<br>--- ----- --- --- ------ -------- ----- --- ------ ----- --<br>----- ----- ---------- --- --- ------ ------ ---- -- ------<br>------- --- ------ ----- --- ---- ------- -- ---- --- --<br>------- ------",144904.5,144903.70000000298,144439.924,144441,144456.594,144906.611,,16,"1727,"
screen,html.Screen,0_2_1_1_17,2021-12-03T12:05:46.860Z,,,,,,,,,,,,,,,,54,,,,,,,,,,,,,,908.8889999999956,,response,,,100,,,,,,Space,keypress(Space),,,,,-- --- ---- --- ------ ----- ------- ---- -- --- ------- --<br>------- ---------- ------ -- ----- in ----- -- ---- ------<br>--- ----- --- --- ------ -------- ----- --- ------ ----- --<br>----- ----- ---------- --- --- ------ ------ ---- -- ------<br>------- --- ------ ----- --- ---- ------- -- ---- --- --<br>------- ------,145816.20000000298,145815.5,144889.942,144904.70000000298,144906.611,145823.742,,17,in
screen,html.Screen,0_2_1_1_18,2021-12-03T12:05:47.492Z,,,,,,,,,,,,,,,,54,,,,,,,,,,,,,,623.7580000000016,,response,,,100,,,,,,Space,keypress(Space),,,,,-- --- ---- --- ------ ----- ------- ---- -- --- ------- --<br>------- ---------- ------ -- ----- -- order -- ---- ------<br>--- ----- --- --- ------ -------- ----- --- ------ ----- --<br>----- ----- ---------- --- --- ------ ------ ---- -- ------<br>------- --- ------ ----- --- ---- ------- -- ---- --- --<br>------- ------,146448.29999999702,146447.5,145807.07,145816.5,145823.742,146457.101,,18,order
screen,html.Screen,0_2_1_1_19,2021-12-03T12:05:47.940Z,,,,,,,,,,,,,,,,54,,,,,,,,,,,,,,438.3990000000049,,response,,,100,,,,,,Space,keypress(Space),,,,,-- --- ---- --- ------ ----- ------- ---- -- --- ------- --<br>------- ---------- ------ -- ----- -- ----- to ---- ------<br>--- ----- --- --- ------ -------- ----- --- ------ ----- --<br>----- ----- ---------- --- --- ------ ------ ---- -- ------<br>------- --- ------ ----- --- ---- ------- -- ---- --- --<br>------- ------,146896.20000000298,146895.5,146440.431,146448.5,146457.101,146907.217,,19,to
screen,html.Screen,0_2_1_1_20,2021-12-03T12:05:48.380Z,,,,,,,,,,,,,,,,54,,,,,,,,,,,,,,428.1830000059563,,response,,,100,,,,,,Space,keypress(Space),,,,,-- --- ---- --- ------ ----- ------- ---- -- --- ------- --<br>------- ---------- ------ -- ----- -- ----- -- save ------<br>--- ----- --- --- ------ -------- ----- --- ------ ----- --<br>----- ----- ---------- --- --- ------ ------ ---- -- ------<br>------- --- ------ ----- --- ---- ------- -- ---- --- --<br>------- ------,147336.29999999702,147335.40000000596,146890.547,146896.5,146907.217,147340.707,,20,save
screen,html.Screen,0_2_1_1_21,2021-12-03T12:05:49.140Z,,,,,,,,,,,,,,,,54,,,,,,,,,,,,,,754.7930000000051,,response,,,100,,,,,,Space,keypress(Space),,,,,"-- --- ---- --- ------ ----- ------- ---- -- --- ------- --<br>------- ---------- ------ -- ----- -- ----- -- ---- money,<br>--- ----- --- --- ------ -------- ----- --- ------ ----- --<br>----- ----- ---------- --- --- ------ ------ ---- -- ------<br>------- --- ------ ----- --- ---- ------- -- ---- --- --<br>------- ------",148096.20000000298,148095.5,147324.037,147336.40000000596,147340.707,148107.527,,21,"money,"
screen,html.Screen,0_2_1_1_22,2021-12-03T12:05:49.756Z,,,,,,,,,,,,,,,,54,,,,,,,,,,,,,,603.8730000059586,,response,,,100,,,,,,Space,keypress(Space),,,,,-- --- ---- --- ------ ----- ------- ---- -- --- ------- --<br>------- ---------- ------ -- ----- -- ----- -- ---- ------<br>the ----- --- --- ------ -------- ----- --- ------ ----- --<br>----- ----- ---------- --- --- ------ ------ ---- -- ------<br>------- --- ------ ----- --- ---- ------- -- ---- --- --<br>------- ------,148712.20000000298,148711.40000000596,148090.857,148096.5,148107.527,148724.383,,22,the
screen,html.Screen,0_2_1_1_23,2021-12-03T12:05:50.220Z,,,,,,,,,,,,,,,,54,,,,,,,,,,,,,,451.01700000595883,,response,,,100,,,,,,Space,keypress(Space),,,,,-- --- ---- --- ------ ----- ------- ---- -- --- ------- --<br>------- ---------- ------ -- ----- -- ----- -- ---- ------<br>--- state --- --- ------ -------- ----- --- ------ ----- --<br>----- ----- ---------- --- --- ------ ------ ---- -- ------<br>------- --- ------ ----- --- ---- ------- -- ---- --- --<br>------- ------,149176.20000000298,149175.40000000596,148707.713,148712.5,148724.383,149191.233,,23,state
screen,html.Screen,0_2_1_1_24,2021-12-03T12:05:50.708Z,,,,,,,,,,,,,,,,54,,,,,,,,,,,,,,472.167000005953,,response,,,100,,,,,,Space,keypress(Space),,,,,-- --- ---- --- ------ ----- ------- ---- -- --- ------- --<br>------- ---------- ------ -- ----- -- ----- -- ---- ------<br>--- ----- cut --- ------ -------- ----- --- ------ ----- --<br>----- ----- ---------- --- --- ------ ------ ---- -- ------<br>------- --- ------ ----- --- ---- ------- -- ---- --- --<br>------- ------,149664.20000000298,149663.40000000596,149174.562,149176.5,149191.233,149674.653,,24,cut
screen,html.Screen,0_2_1_1_25,2021-12-03T12:05:51.203Z,,,,,,,,,,,,,,,,54,,,,,,,,,,,,,,484.7470000059693,,response,,,100,,,,,,Space,keypress(Space),,,,,-- --- ---- --- ------ ----- ------- ---- -- --- ------- --<br>------- ---------- ------ -- ----- -- ----- -- ---- ------<br>--- ----- --- the ------ -------- ----- --- ------ ----- --<br>----- ----- ---------- --- --- ------ ------ ---- -- ------<br>------- --- ------ ----- --- ---- ------- -- ---- --- --<br>------- ------,150160.20000000298,150159.40000000596,149657.983,149664.40000000596,149674.653,150174.75,,25,the
screen,html.Screen,0_2_1_1_26,2021-12-03T12:05:51.883Z,,,,,,,,,,,,,,,,54,,,,,,,,,,,,,,664.6500000059605,,response,,,100,,,,,,Space,keypress(Space),,,,,-- --- ---- --- ------ ----- ------- ---- -- --- ------- --<br>------- ---------- ------ -- ----- -- ----- -- ---- ------<br>--- ----- --- --- bonds' -------- ----- --- ------ ----- --<br>----- ----- ---------- --- --- ------ ------ ---- -- ------<br>------- --- ------ ----- --- ---- ------- -- ---- --- --<br>------- ------,150840.09999999404,150839.40000000596,150158.08,150160.40000000596,150174.75,150841.688,,26,bonds'
screen,html.Screen,0_2_1_1_27,2021-12-03T12:05:52.356Z,,,,,,,,,,,,,,,,54,,,,,,,,,,,,,,469.6119999970251,,response,,,100,,,,,,Space,keypress(Space),,,,,-- --- ---- --- ------ ----- ------- ---- -- --- ------- --<br>------- ---------- ------ -- ----- -- ----- -- ---- ------<br>--- ----- --- --- ------ interest ----- --- ------ ----- --<br>----- ----- ---------- --- --- ------ ------ ---- -- ------<br>------- --- ------ ----- --- ---- ------- -- ---- --- --<br>------- ------,151312.29999999702,151311.29999999702,150825.017,150840.40000000596,150841.688,151325.08,,27,interest
screen,html.Screen,0_2_1_1_28,2021-12-03T12:05:52.819Z,,,,,,,,,,,,,,,,54,,,,,,,,,,,,,,450.2199999970326,,response,,,100,,,,,,Space,keypress(Space),,,,,-- --- ---- --- ------ ----- ------- ---- -- --- ------- --<br>------- ---------- ------ -- ----- -- ----- -- ---- ------<br>--- ----- --- --- ------ -------- rate. --- ------ ----- --<br>----- ----- ---------- --- --- ------ ------ ---- -- ------<br>------- --- ------ ----- --- ---- ------- -- ---- --- --<br>------- ------,151776.09999999404,151775.29999999702,151308.41,151312.59999999404,151325.08,151791.88,,28,rate.
screen,html.Screen,0_2_1_1_29,2021-12-03T12:05:53.275Z,,,,,,,,,,,,,,,,54,,,,,,,,,,,,,,439.4199999970151,,response,,,100,,,,,,Space,keypress(Space),,,,,-- --- ---- --- ------ ----- ------- ---- -- --- ------- --<br>------- ---------- ------ -- ----- -- ----- -- ---- ------<br>--- ----- --- --- ------ -------- ----- The ------ ----- --<br>----- ----- ---------- --- --- ------ ------ ---- -- ------<br>------- --- ------ ----- --- ---- ------- -- ---- --- --<br>------- ------,152232,152231.29999999702,151775.21,151776.40000000596,151791.88,152242.052,,29,The
screen,html.Screen,0_2_1_1_30,2021-12-03T12:05:53.755Z,,,,,,,,,,,,,,,,54,,,,,,,,,,,,,,469.1480000029842,,response,,,100,,,,,,Space,keypress(Space),,,,,-- --- ---- --- ------ ----- ------- ---- -- --- ------- --<br>------- ---------- ------ -- ----- -- ----- -- ---- ------<br>--- ----- --- --- ------ -------- ----- --- market ----- --<br>----- ----- ---------- --- --- ------ ------ ---- -- ------<br>------- --- ------ ----- --- ---- ------- -- ---- --- --<br>------- ------,152712,152711.20000000298,152225.381,152232.20000000298,152242.052,152725.459,,30,market
screen,html.Screen,0_2_1_1_31,2021-12-03T12:05:55.299Z,,,,,,,,,,,,,,,,54,,,,,,,,,,,,,,1529.7410000029777,,response,,,100,,,,,,Space,keypress(Space),,,,,-- --- ---- --- ------ ----- ------- ---- -- --- ------- --<br>------- ---------- ------ -- ----- -- ----- -- ---- ------<br>--- ----- --- --- ------ -------- ----- --- ------ value --<br>----- ----- ---------- --- --- ------ ------ ---- -- ------<br>------- --- ------ ----- --- ---- ------- -- ---- --- --<br>------- ------,154255.90000000596,154255.20000000298,152708.789,152712.29999999702,152725.459,154259.14,,31,value
screen,html.Screen,0_2_1_1_32,2021-12-03T12:05:56.116Z,,,,,,,,,,,,,,,,54,,,,,,,,,,,,,,812.4599999940256,,response,,,100,,,,,,Space,keypress(Space),,,,,-- --- ---- --- ------ ----- ------- ---- -- --- ------- --<br>------- ---------- ------ -- ----- -- ----- -- ---- ------<br>--- ----- --- --- ------ -------- ----- --- ------ ----- of<br>----- ----- ---------- --- --- ------ ------ ---- -- ------<br>------- --- ------ ----- --- ---- ------- -- ---- --- --<br>------- ------,155072.29999999702,155071.59999999404,154242.47,154256.20000000298,154259.14,155075.994,,32,of
screen,html.Screen,0_2_1_1_33,2021-12-03T12:05:56.667Z,,,,,,,,,,,,,,,,54,,,,,,,,,,,,,,547.1059999940335,,response,,,100,,,,,,Space,keypress(Space),,,,,-- --- ---- --- ------ ----- ------- ---- -- --- ------- --<br>------- ---------- ------ -- ----- -- ----- -- ---- ------<br>--- ----- --- --- ------ -------- ----- --- ------ ----- --<br>these ----- ---------- --- --- ------ ------ ---- -- ------<br>------- --- ------ ----- --- ---- ------- -- ---- --- --<br>------- ------,155623.90000000596,155623.09999999404,155059.324,155072.59999999404,155075.994,155626.174,,33,these
screen,html.Screen,0_2_1_1_34,2021-12-03T12:05:57.059Z,,,,,,,,,,,,,,,,54,,,,,,,,,,,,,,388.92599999404047,,response,,,100,,,,,,Space,keypress(Space),,,,,-- --- ---- --- ------ ----- ------- ---- -- --- ------- --<br>------- ---------- ------ -- ----- -- ----- -- ---- ------<br>--- ----- --- --- ------ -------- ----- --- ------ ----- --<br>----- bonds ---------- --- --- ------ ------ ---- -- ------<br>------- --- ------ ----- --- ---- ------- -- ---- --- --<br>------- ------,156015.90000000596,156015.09999999404,155609.504,155624.20000000298,155626.174,156026.345,,34,bonds
screen,html.Screen,0_2_1_1_35,2021-12-03T12:05:57.787Z,,,,,,,,,,,,,,,,54,,,,,,,,,,,,,,716.6549999999988,,response,,,100,,,,,,Space,keypress(Space),,,,,"-- --- ---- --- ------ ----- ------- ---- -- --- ------- --<br>------- ---------- ------ -- ----- -- ----- -- ---- ------<br>--- ----- --- --- ------ -------- ----- --- ------ ----- --<br>----- ----- plummeted, --- --- ------ ------ ---- -- ------<br>------- --- ------ ----- --- ---- ------- -- ---- --- --<br>------- ------",156743.90000000596,156743,156009.675,156016.09999999404,156026.345,156759.853,,35,"plummeted,"
screen,html.Screen,0_2_1_1_36,2021-12-03T12:05:58.211Z,,,,,,,,,,,,,,,,54,,,,,,,,,,,,,,407.1469999999972,,response,,,100,,,,,,Space,keypress(Space),,,,,-- --- ---- --- ------ ----- ------- ---- -- --- ------- --<br>------- ---------- ------ -- ----- -- ----- -- ---- ------<br>--- ----- --- --- ------ -------- ----- --- ------ ----- --<br>----- ----- ---------- and --- ------ ------ ---- -- ------<br>------- --- ------ ----- --- ---- ------- -- ---- --- --<br>------- ------,157167.79999999702,157167,156743.183,156744.09999999404,156759.853,157176.614,,36,and
screen,html.Screen,0_2_1_1_37,2021-12-03T12:05:58.627Z,,,,,,,,,,,,,,,,54,,,,,,,,,,,,,,406.48599999403814,,response,,,100,,,,,,Space,keypress(Space),,,,,-- --- ---- --- ------ ----- ------- ---- -- --- ------- --<br>------- ---------- ------ -- ----- -- ----- -- ---- ------<br>--- ----- --- --- ------ -------- ----- --- ------ ----- --<br>----- ----- ---------- --- the ------ ------ ---- -- ------<br>------- --- ------ ----- --- ---- ------- -- ---- --- --<br>------- ------,157583.79999999702,157583.09999999404,157159.944,157168,157176.614,157593.464,,37,the
screen,html.Screen,0_2_1_1_38,2021-12-03T12:05:59.091Z,,,,,,,,,,,,,,,,54,,,,,,,,,,,,,,453.5359999999928,,response,,,100,,,,,,Space,keypress(Space),,,,,-- --- ---- --- ------ ----- ------- ---- -- --- ------- --<br>------- ---------- ------ -- ----- -- ----- -- ---- ------<br>--- ----- --- --- ------ -------- ----- --- ------ ----- --<br>----- ----- ---------- --- --- market ------ ---- -- ------<br>------- --- ------ ----- --- ---- ------- -- ---- --- --<br>------- ------,158047.70000000298,158047,157576.793,157584,157593.464,158060.207,,38,market
screen,html.Screen,0_2_1_1_39,2021-12-03T12:05:59.539Z,,,,,,,,,,,,,,,,54,,,,,,,,,,,,,,434.7930000000051,,response,,,100,,,,,,Space,keypress(Space),,,,,-- --- ---- --- ------ ----- ------- ---- -- --- ------- --<br>------- ---------- ------ -- ----- -- ----- -- ---- ------<br>--- ----- --- --- ------ -------- ----- --- ------ ----- --<br>----- ----- ---------- --- --- ------ became ---- -- ------<br>------- --- ------ ----- --- ---- ------- -- ---- --- --<br>------- ------,158495.90000000596,158495,158043.537,158047.90000000596,158060.207,158510.214,,39,became
screen,html.Screen,0_2_1_1_40,2021-12-03T12:05:59.955Z,,,,,,,,,,,,,,,,54,,,,,,,,,,,,,,400.7859999999928,,response,,,100,,,,,,Space,keypress(Space),,,,,-- --- ---- --- ------ ----- ------- ---- -- --- ------- --<br>------- ---------- ------ -- ----- -- ----- -- ---- ------<br>--- ----- --- --- ------ -------- ----- --- ------ ----- --<br>----- ----- ---------- --- --- ------ ------ wary -- ------<br>------- --- ------ ----- --- ---- ------- -- ---- --- --<br>------- ------,158911.70000000298,158911,158493.545,158496.09999999404,158510.214,158927.111,,40,wary
screen,html.Screen,0_2_1_1_41,2021-12-03T12:06:00.451Z,,,,,,,,,,,,,,,,54,,,,,,,,,,,,,,479.8889999999956,,response,,,100,,,,,,Space,keypress(Space),,,,,-- --- ---- --- ------ ----- ------- ---- -- --- ------- --<br>------- ---------- ------ -- ----- -- ----- -- ---- ------<br>--- ----- --- --- ------ -------- ----- --- ------ ----- --<br>----- ----- ---------- --- --- ------ ------ ---- of ------<br>------- --- ------ ----- --- ---- ------- -- ---- --- --<br>------- ------,159407.70000000298,159407,158910.44,158911.90000000596,158927.111,159410.611,,41,of
screen,html.Screen,0_2_1_1_42,2021-12-03T12:06:00.971Z,,,,,,,,,,,,,,,,54,,,,,,,,,,,,,,516.289000005956,,response,,,100,,,,,,Space,keypress(Space),,,,,-- --- ---- --- ------ ----- ------- ---- -- --- ------- --<br>------- ---------- ------ -- ----- -- ----- -- ---- ------<br>--- ----- --- --- ------ -------- ----- --- ------ ----- --<br>----- ----- ---------- --- --- ------ ------ ---- -- French<br>------- --- ------ ----- --- ---- ------- -- ---- --- --<br>------- ------,159927.59999999404,159926.90000000596,159393.94,159407.90000000596,159410.611,159944.096,,42,French
screen,html.Screen,0_2_1_1_43,2021-12-03T12:06:01.659Z,,,,,,,,,,,,,,,,54,,,,,,,,,,,,,,670.80400000597,,response,,,100,,,,,,Space,keypress(Space),,,,,-- --- ---- --- ------ ----- ------- ---- -- --- ------- --<br>------- ---------- ------ -- ----- -- ----- -- ---- ------<br>--- ----- --- --- ------ -------- ----- --- ------ ----- --<br>----- ----- ---------- --- --- ------ ------ ---- -- ------<br>credit. --- ------ ----- --- ---- ------- -- ---- --- --<br>------- ------,160615.59999999404,160614.90000000596,159927.425,159927.90000000596,159944.096,160627.409,,43,credit.
screen,html.Screen,0_2_1_1_44,2021-12-03T12:06:02.131Z,,,,,,,,,,,,,,,,54,,,,,,,,,,,,,,459.49100000594626,,response,,,100,,,,,,Space,keypress(Space),,,,,-- --- ---- --- ------ ----- ------- ---- -- --- ------- --<br>------- ---------- ------ -- ----- -- ----- -- ---- ------<br>--- ----- --- --- ------ -------- ----- --- ------ ----- --<br>----- ----- ---------- --- --- ------ ------ ---- -- ------<br>------- The ------ ----- --- ---- ------- -- ---- --- --<br>------- ------,161087.59999999404,161086.90000000596,160610.74,160615.90000000596,160627.409,161094.464,,44,The
screen,html.Screen,0_2_1_1_45,2021-12-03T12:06:02.539Z,,,,,,,,,,,,,,,,54,,,,,,,,,,,,,,400.33599999701255,,response,,,100,,,,,,Space,keypress(Space),,,,,-- --- ---- --- ------ ----- ------- ---- -- --- ------- --<br>------- ---------- ------ -- ----- -- ----- -- ---- ------<br>--- ----- --- --- ------ -------- ----- --- ------ ----- --<br>----- ----- ---------- --- --- ------ ------ ---- -- ------<br>------- --- French ----- --- ---- ------- -- ---- --- --<br>------- ------,161495.59999999404,161494.79999999702,161077.792,161087.90000000596,161094.464,161511.131,,45,French
screen,html.Screen,0_2_1_1_46,2021-12-03T12:06:02.915Z,,,,,,,,,,,,,,,,54,,,,,,,,,,,,,,359.7690000059665,,response,,,100,,,,,,Space,keypress(Space),,,,,-- --- ---- --- ------ ----- ------- ---- -- --- ------- --<br>------- ---------- ------ -- ----- -- ----- -- ---- ------<br>--- ----- --- --- ------ -------- ----- --- ------ ----- --<br>----- ----- ---------- --- --- ------ ------ ---- -- ------<br>------- --- ------ state --- ---- ------- -- ---- --- --<br>------- ------,161871.59999999404,161870.90000000596,161494.461,161495.90000000596,161511.131,161877.902,,46,state
screen,html.Screen,0_2_1_1_47,2021-12-03T12:06:03.339Z,,,,,,,,,,,,,,,,54,,,,,,,,,,,,,,416.8979999970179,,response,,,100,,,,,,Space,keypress(Space),,,,,-- --- ---- --- ------ ----- ------- ---- -- --- ------- --<br>------- ---------- ------ -- ----- -- ----- -- ---- ------<br>--- ----- --- --- ------ -------- ----- --- ------ ----- --<br>----- ----- ---------- --- --- ------ ------ ---- -- ------<br>------- --- ------ ----- was ---- ------- -- ---- --- --<br>------- ------,162295.59999999404,162294.79999999702,161861.232,161871.79999999702,161877.902,162311.337,,47,was
screen,html.Screen,0_2_1_1_48,2021-12-03T12:06:03.747Z,,,,,,,,,,,,,,,,54,,,,,,,,,,,,,,391.46299999702023,,response,,,100,,,,,,Space,keypress(Space),,,,,-- --- ---- --- ------ ----- ------- ---- -- --- ------- --<br>------- ---------- ------ -- ----- -- ----- -- ---- ------<br>--- ----- --- --- ------ -------- ----- --- ------ ----- --<br>----- ----- ---------- --- --- ------ ------ ---- -- ------<br>------- --- ------ ----- --- left ------- -- ---- --- --<br>------- ------,162703.5,162702.79999999702,162294.667,162295.79999999702,162311.337,162711.491,,48,left
screen,html.Screen,0_2_1_1_49,2021-12-03T12:06:04.147Z,,,,,,,,,,,,,,,,54,,,,,,,,,,,,,,391.3089999970107,,response,,,100,,,,,,Space,keypress(Space),,,,,-- --- ---- --- ------ ----- ------- ---- -- --- ------- --<br>------- ---------- ------ -- ----- -- ----- -- ---- ------<br>--- ----- --- --- ------ -------- ----- --- ------ ----- --<br>----- ----- ---------- --- --- ------ ------ ---- -- ------<br>------- --- ------ ----- --- ---- without -- ---- --- --<br>------- ------,163103.59999999404,163102.79999999702,162694.82,162703.70000000298,162711.491,163111.542,,49,without
screen,html.Screen,0_2_1_1_50,2021-12-03T12:06:04.547Z,,,,,,,,,,,,,,,,54,,,,,,,,,,,,,,391.1580000029935,,response,,,100,,,,,,Space,keypress(Space),,,,,-- --- ---- --- ------ ----- ------- ---- -- --- ------- --<br>------- ---------- ------ -- ----- -- ----- -- ---- ------<br>--- ----- --- --- ------ -------- ----- --- ------ ----- --<br>----- ----- ---------- --- --- ------ ------ ---- -- ------<br>------- --- ------ ----- --- ---- ------- an ---- --- --<br>------- ------,163503.5,163502.70000000298,163094.872,163103.70000000298,163111.542,163511.64,,50,an
screen,html.Screen,0_2_1_1_51,2021-12-03T12:06:04.939Z,,,,,,,,,,,,,,,,54,,,,,,,,,,,,,,383.06000000296626,,response,,,100,,,,,,Space,keypress(Space),,,,,-- --- ---- --- ------ ----- ------- ---- -- --- ------- --<br>------- ---------- ------ -- ----- -- ----- -- ---- ------<br>--- ----- --- --- ------ -------- ----- --- ------ ----- --<br>----- ----- ---------- --- --- ------ ------ ---- -- ------<br>------- --- ------ ----- --- ---- ------- -- easy --- --<br>------- ------,163895.5,163894.70000000298,163494.97,163503.79999999702,163511.64,163911.8,,51,easy
screen,html.Screen,0_2_1_1_52,2021-12-03T12:06:05.443Z,,,,,,,,,,,,,,,,54,,,,,,,,,,,,,,486.9000000029919,,response,,,100,,,,,,Space,keypress(Space),,,,,-- --- ---- --- ------ ----- ------- ---- -- --- ------- --<br>------- ---------- ------ -- ----- -- ----- -- ---- ------<br>--- ----- --- --- ------ -------- ----- --- ------ ----- --<br>----- ----- ---------- --- --- ------ ------ ---- -- ------<br>------- --- ------ ----- --- ---- ------- -- ---- way --<br>------- ------,164399.40000000596,164398.70000000298,163895.129,163895.70000000298,163911.8,164411.889,,52,way
screen,html.Screen,0_2_1_1_53,2021-12-03T12:06:06.003Z,,,,,,,,,,,,,,,,54,,,,,,,,,,,,,,546.6110000000044,,response,,,100,,,,,,Space,keypress(Space),,,,,-- --- ---- --- ------ ----- ------- ---- -- --- ------- --<br>------- ---------- ------ -- ----- -- ----- -- ---- ------<br>--- ----- --- --- ------ -------- ----- --- ------ ----- --<br>----- ----- ---------- --- --- ------ ------ ---- -- ------<br>------- --- ------ ----- --- ---- ------- -- ---- --- of<br>------- ------,164959.40000000596,164958.5,164395.219,164399.70000000298,164411.889,164962.105,,53,of
screen,html.Screen,0_2_1_1_54,2021-12-03T12:06:06.443Z,,,,,,,,,,,,,,,,54,,,,,,,,,,,,,,436.8949999999895,,response,,,100,,,,,,Space,keypress(Space),,,,,-- --- ---- --- ------ ----- ------- ---- -- --- ------- --<br>------- ---------- ------ -- ----- -- ----- -- ---- ------<br>--- ----- --- --- ------ -------- ----- --- ------ ----- --<br>----- ----- ---------- --- --- ------ ------ ---- -- ------<br>------- --- ------ ----- --- ---- ------- -- ---- --- --<br>raising ------,165399.79999999702,165399,164945.434,164959.59999999404,164962.105,165412.048,,54,raising
screen,html.Screen,0_2_1_1_55,2021-12-03T12:06:06.971Z,,,,,,,,,,,,,,,,54,,,,,,,,,,,,,,514.5519999940298,,response,,,100,,,,,,Space,keypress(Space),,,,,-- --- ---- --- ------ ----- ------- ---- -- --- ------- --<br>------- ---------- ------ -- ----- -- ----- -- ---- ------<br>--- ----- --- --- ------ -------- ----- --- ------ ----- --<br>----- ----- ---------- --- --- ------ ------ ---- -- ------<br>------- --- ------ ----- --- ---- ------- -- ---- --- --<br>------- money.,165927.40000000596,165926.59999999404,165395.379,165400,165412.048,165945.687,,55,money.
Item 100,flow.Loop,0_2_1_1,2021-12-03T12:06:06.971Z,,,,,,,,,,,,,,,,,,,,,,,,,,,,,,32406.39799999405,,completion,,,,C,,,,,,,,,,silence,,165928,165926.59999999404,133503.532,133504.70000000298,133520.202,165945.687,,,
Question 1,html.Screen,0_2_1_2,2021-12-03T12:06:10.763Z,,,,,,,,,,,,,,,,,,,,,,,,,,,true,TRUE,,3772.513000002975,,response,,,100,C,,,,,TRUE,click #choice-1,,,,silence,,169719.29999999702,169718.20000000298,165929.016,165928.20000000298,165945.687,169729.973,,,
Question 2,html.Screen,0_2_1_3,2021-12-03T12:06:13.187Z,,,,,,,,,,,,,,,,,,,,,,,,,,,true,FALSE,,2412.1269999940414,,response,,,100,C,,,,,FALSE,click #choice-2,,,,silence,,172143.29999999702,172142.09999999404,169713.303,169719.70000000298,169729.973,172147.307,,,
Item 100,flow.Sequence,0_2_1,2021-12-03T12:06:13.187Z,,,,,,,,,,,,,,,,,,,,,,,,,,,,,,48624.45699999404,,completion,,,,,,,,,,,,,,,,172143.70000000298,172142.09999999404,123500.973,123506.5,123517.643,172147.307,,,
End of Practice,html.Page,0_2_2,2021-12-03T12:06:16.556Z,,,,,,,,,,,,,,,,,,,,,,,,,,,,,,3364.3930000029795,,form submission,,,,,,,,,,,,,,,,175512.20000000298,175511.70000000298,172130.637,172143.79999999702,172147.307,175514.222,,,
Practice,flow.Sequence,0_2,2021-12-03T12:06:16.556Z,,,,,,,,,,,,,,,,,,,,,,,,,,,,,,110877.46900000298,,completion,,,,,,,,,,,,,,,,175512.70000000298,175511.70000000298,64617.566,64629.20000000298,64634.231,175514.222,,,
Trap_instruction,html.Page,0_3_0,2021-12-03T12:06:19.259Z,,,,,,,,,,,,,,,,,,,,,,,,,,,,,,2701.077999997011,,form submission,,,,,,,,,,,,,,,,178215.79999999702,178215.29999999702,175497.554,175513,175514.222,178232.023,,,
trap_trial,html.Screen,0_3_1,2021-12-03T12:06:25.749Z,,,,,,,,,,,,,,,,,,,,,,,,,,,true,1,,6469.4770000000135,,response,,,,,,,,,1,click #choice-1,,,,,,184702.70000000298,184701.5,178198.683,178216,178232.023,184716.848,,,
end of trap trial,html.Page,0_3_2,2021-12-03T12:06:27.709Z,,,,,,,,,,,,,,,,,,,,,,,,,,,,,,1946.0520000059623,,form submission,,,,,,,,,,,,,,,,186663.40000000596,186662.90000000596,184700.178,184703,184716.848,186667.751,,,
Trap 1,flow.Sequence,0_3,2021-12-03T12:06:27.710Z,,,,,,,,,,,,,,,,,,,,,,,,,,,,,,11148.678000005952,,completion,,,,,,,,,,,,,,,,186663.79999999702,186662.90000000596,175497.554,175512.90000000596,175514.222,186667.751,,,
Standby,html.Page,0_4_0,2021-12-03T12:06:35.700Z,,,,,,,,,,,,,,,,,,,,,,,,,,,,,,8002.198000000004,,timeout,,,,,,,,,,,,,,,,194654.40000000596,194653.278,186651.081,186664.09999999404,186667.751,194669.949,,,
Holding screen,html.Screen,0_4_1_0_0,2021-12-03T12:06:42.702Z,,,,,,,,,,,,,,,,,,,,,,,,,,,,,,7001.752999999997,,timeout,,,,,,,,,,,,,,,,201656.09999999404,201655.032,194653.278,194654.79999999702,194669.949,201671.702,,,
screen,html.Screen,0_4_1_0_1_0,2021-12-03T12:06:43.612Z,,,,,,,,,,,,,,,,51,,,,,,,,,,,,,,893.5979999970295,,response,,,13,C,,,,,Space,keypress(Space),,,,instrumental,American -------- --- --- ---- --- --- ------ -- --------<br>---- --------- --- ------- ------------ ---------- ---------<br>--- ---------- ------- ---------- ------- -- -------- ----<br>---- --- ------ ----- ------ -- ---- --- ----- -- - -------<br>-------- -- --- --- -- ----- ----------- ----- -----------<br>---- --- ---------- --- ---- --- -- ----------,202566.29999999702,202565.29999999702,201655.032,201656.40000000596,201671.702,202571.903,,0,American
screen,html.Screen,0_4_1_0_1_1,2021-12-03T12:06:44.084Z,,,,,,,,,,,,,,,,51,,,,,,,,,,,,,,464.9970000059693,,response,,,13,C,,,,,Space,keypress(Space),,,,instrumental,-------- industry --- --- ---- --- --- ------ -- --------<br>---- --------- --- ------- ------------ ---------- ---------<br>--- ---------- ------- ---------- ------- -- -------- ----<br>---- --- ------ ----- ------ -- ---- --- ----- -- - -------<br>-------- -- --- --- -- ----- ----------- ----- -----------<br>---- --- ---------- --- ---- --- -- ----------,203037.70000000298,203036.90000000596,202555.233,202566.59999999404,202571.903,203038.899,,1,industry
screen,html.Screen,0_4_1_0_1_2,2021-12-03T12:06:44.668Z,,,,,,,,,,,,,,,,51,,,,,,,,,,,,,,582.0010000059556,,response,,,13,C,,,,,Space,keypress(Space),,,,instrumental,-------- -------- may --- ---- --- --- ------ -- --------<br>---- --------- --- ------- ------------ ---------- ---------<br>--- ---------- ------- ---------- ------- -- -------- ----<br>---- --- ------ ----- ------ -- ---- --- ----- -- - -------<br>-------- -- --- --- -- ----- ----------- ----- -----------<br>---- --- ---------- --- ---- --- -- ----------,203621.79999999702,203620.90000000596,203022.228,203038,203038.899,203638.986,,2,may
screen,html.Screen,0_4_1_0_1_3,2021-12-03T12:06:45.084Z,,,,,,,,,,,,,,,,51,,,,,,,,,,,,,,397.91400000595604,,response,,,13,C,,,,,Space,keypress(Space),,,,instrumental,-------- -------- --- not ---- --- --- ------ -- --------<br>---- --------- --- ------- ------------ ---------- ---------<br>--- ---------- ------- ---------- ------- -- -------- ----<br>---- --- ------ ----- ------ -- ---- --- ----- -- - -------<br>-------- -- --- --- -- ----- ----------- ----- -----------<br>---- --- ---------- --- ---- --- -- ----------,204037.70000000298,204036.90000000596,203622.316,203622.09999999404,203638.986,204038.986,,3,not
screen,html.Screen,0_4_1_0_1_4,2021-12-03T12:06:45.444Z,,,,,,,,,,,,,,,,51,,,,,,,,,,,,,,357.91400000595604,,response,,,13,C,,,,,Space,keypress(Space),,,,instrumental,-------- -------- --- --- know --- --- ------ -- --------<br>---- --------- --- ------- ------------ ---------- ---------<br>--- ---------- ------- ---------- ------- -- -------- ----<br>---- --- ------ ----- ------ -- ---- --- ----- -- - -------<br>-------- -- --- --- -- ----- ----------- ----- -----------<br>---- --- ---------- --- ---- --- -- ----------,204397.70000000298,204396.90000000596,204022.317,204037.90000000596,204038.986,204405.956,,4,know
screen,html.Screen,0_4_1_0_1_5,2021-12-03T12:06:45.788Z,,,,,,,,,,,,,,,,51,,,,,,,,,,,,,,334.9440000059549,,response,,,13,C,,,,,Space,keypress(Space),,,,instrumental,"-------- -------- --- --- ---- it, --- ------ -- --------<br>---- --------- --- ------- ------------ ---------- ---------<br>--- ---------- ------- ---------- ------- -- -------- ----<br>---- --- ------ ----- ------ -- ---- --- ----- -- - -------<br>-------- -- --- --- -- ----- ----------- ----- -----------<br>---- --- ---------- --- ---- --- -- ----------",204741.59999999404,204740.90000000596,204389.284,204398,204405.956,204755.819,,5,"it,"
screen,html.Screen,0_4_1_0_1_6,2021-12-03T12:06:46.396Z,,,,,,,,,,,,,,,,51,,,,,,,,,,,,,,592.9809999970312,,response,,,13,C,,,,,Space,keypress(Space),,,,instrumental,-------- -------- --- --- ---- --- but ------ -- --------<br>---- --------- --- ------- ------------ ---------- ---------<br>--- ---------- ------- ---------- ------- -- -------- ----<br>---- --- ------ ----- ------ -- ---- --- ----- -- - -------<br>-------- -- --- --- -- ----- ----------- ----- -----------<br>---- --- ---------- --- ---- --- -- ----------,205349.59999999404,205348.79999999702,204739.151,204741.79999999702,204755.819,205356.209,,6,but
screen,html.Screen,0_4_1_0_1_7,2021-12-03T12:06:46.715Z,,,,,,,,,,,,,,,,51,,,,,,,,,,,,,,312.5909999970172,,response,,,13,C,,,,,Space,keypress(Space),,,,instrumental,-------- -------- --- --- ---- --- --- debate -- --------<br>---- --------- --- ------- ------------ ---------- ---------<br>--- ---------- ------- ---------- ------- -- -------- ----<br>---- --- ------ ----- ------ -- ---- --- ----- -- - -------<br>-------- -- --- --- -- ----- ----------- ----- -----------<br>---- --- ---------- --- ---- --- -- ----------,205669.40000000596,205668.79999999702,205339.537,205349.90000000596,205356.209,205672.689,,7,debate
screen,html.Screen,0_4_1_0_1_8,2021-12-03T12:06:47.124Z,,,,,,,,,,,,,,,,51,,,,,,,,,,,,,,404.0110000029672,,response,,,13,C,,,,,Space,keypress(Space),,,,instrumental,-------- -------- --- --- ---- --- --- ------ in --------<br>---- --------- --- ------- ------------ ---------- ---------<br>--- ---------- ------- ---------- ------- -- -------- ----<br>---- --- ------ ----- ------ -- ---- --- ----- -- - -------<br>-------- -- --- --- -- ----- ----------- ----- -----------<br>---- --- ---------- --- ---- --- -- ----------,206077.59999999404,206076.70000000298,205656.021,205669.70000000298,205672.689,206089.723,,8,in
screen,html.Screen,0_4_1_0_1_9,2021-12-03T12:06:47.779Z,,,,,,,,,,,,,,,,51,,,,,,,,,,,,,,642.8769999940414,,response,,,13,C,,,,,Space,keypress(Space),,,,instrumental,-------- -------- --- --- ---- --- --- ------ -- Congress<br>---- --------- --- ------- ------------ ---------- ---------<br>--- ---------- ------- ---------- ------- -- -------- ----<br>---- --- ------ ----- ------ -- ---- --- ----- -- - -------<br>-------- -- --- --- -- ----- ----------- ----- -----------<br>---- --- ---------- --- ---- --- -- ----------,206733.29999999702,206732.59999999404,206073.051,206077.79999999702,206089.723,206739.708,,9,Congress
screen,html.Screen,0_4_1_0_1_10,2021-12-03T12:06:48.307Z,,,,,,,,,,,,,,,,51,,,,,,,,,,,,,,520.992000002967,,response,,,13,C,,,,,Space,keypress(Space),,,,instrumental,-------- -------- --- --- ---- --- --- ------ -- --------<br>over --------- --- ------- ------------ ---------- ---------<br>--- ---------- ------- ---------- ------- -- -------- ----<br>---- --- ------ ----- ------ -- ---- --- ----- -- - -------<br>-------- -- --- --- -- ----- ----------- ----- -----------<br>---- --- ---------- --- ---- --- -- ----------,207261.40000000596,207260.70000000298,206723.039,206733.59999999404,206739.708,207273.392,,10,over
screen,html.Screen,0_4_1_0_1_11,2021-12-03T12:06:49.443Z,,,,,,,,,,,,,,,,51,,,,,,,,,,,,,,1123.207999994047,,response,,,13,C,,,,,Space,keypress(Space),,,,instrumental,-------- -------- --- --- ---- --- --- ------ -- --------<br>---- reforming --- ------- ------------ ---------- ---------<br>--- ---------- ------- ---------- ------- -- -------- ----<br>---- --- ------ ----- ------ -- ---- --- ----- -- - -------<br>-------- -- --- --- -- ----- ----------- ----- -----------<br>---- --- ---------- --- ---- --- -- ----------,208397.29999999702,208396.59999999404,207256.72,207261.70000000298,207273.392,208406.885,,11,reforming
screen,html.Screen,0_4_1_0_1_12,2021-12-03T12:06:50.787Z,,,,,,,,,,,,,,,,51,,,,,,,,,,,,,,1333.7149999940302,,response,,,13,C,,,,,Space,keypress(Space),,,,instrumental,-------- -------- --- --- ---- --- --- ------ -- --------<br>---- --------- the ------- ------------ ---------- ---------<br>--- ---------- ------- ---------- ------- -- -------- ----<br>---- --- ------ ----- ------ -- ---- --- ----- -- - -------<br>-------- -- --- --- -- ----- ----------- ----- -----------<br>---- --- ---------- --- ---- --- -- ----------,209741.40000000596,209740.59999999404,208390.215,208397.5,208406.885,209757.032,,12,the
screen,html.Screen,0_4_1_0_1_13,2021-12-03T12:06:51.531Z,,,,,,,,,,,,,,,,51,,,,,,,,,,,,,,727.567999994033,,response,,,13,C,,,,,Space,keypress(Space),,,,instrumental,-------- -------- --- --- ---- --- --- ------ -- --------<br>---- --------- --- federal ------------ ---------- ---------<br>--- ---------- ------- ---------- ------- -- -------- ----<br>---- --- ------ ----- ------ -- ---- --- ----- -- - -------<br>-------- -- --- --- -- ----- ----------- ----- -----------<br>---- --- ---------- --- ---- --- -- ----------,210485.29999999702,210484.59999999404,209740.363,209741.70000000298,209757.032,210490.857,,13,federal
screen,html.Screen,0_4_1_0_1_14,2021-12-03T12:06:52.531Z,,,,,,,,,,,,,,,,51,,,,,,,,,,,,,,993.5430000059714,,response,,,13,C,,,,,Space,keypress(Space),,,,instrumental,-------- -------- --- --- ---- --- --- ------ -- --------<br>---- --------- --- ------- government's ---------- ---------<br>--- ---------- ------- ---------- ------- -- -------- ----<br>---- --- ------ ----- ------ -- ---- --- ----- -- - -------<br>-------- -- --- --- -- ----- ----------- ----- -----------<br>---- --- ---------- --- ---- --- -- ----------,211485.09999999404,211484.40000000596,210474.186,210485.59999999404,210490.857,211490.983,,14,government's
screen,html.Screen,0_4_1_0_1_15,2021-12-03T12:06:53.475Z,,,,,,,,,,,,,,,,51,,,,,,,,,,,,,,937.5169999999925,,response,,,13,C,,,,,Space,keypress(Space),,,,instrumental,-------- -------- --- --- ---- --- --- ------ -- --------<br>---- --------- --- ------- ------------ regulatory ---------<br>--- ---------- ------- ---------- ------- -- -------- ----<br>---- --- ------ ----- ------ -- ---- --- ----- -- - -------<br>-------- -- --- --- -- ----- ----------- ----- -----------<br>---- --- ---------- --- ---- --- -- ----------,212429.20000000298,212428.5,211474.313,211485.40000000596,211490.983,212441.196,,15,regulatory
screen,html.Screen,0_4_1_0_1_16,2021-12-03T12:06:54.099Z,,,,,,,,,,,,,,,,51,,,,,,,,,,,,,,611.4039999940433,,response,,,13,C,,,,,Space,keypress(Space),,,,instrumental,-------- -------- --- --- ---- --- --- ------ -- --------<br>---- --------- --- ------- ------------ ---------- apparatus<br>--- ---------- ------- ---------- ------- -- -------- ----<br>---- --- ------ ----- ------ -- ---- --- ----- -- - -------<br>-------- -- --- --- -- ----- ----------- ----- -----------<br>---- --- ---------- --- ---- --- -- ----------,213053.5,213052.59999999404,212424.526,212429.40000000596,212441.196,213058.234,,16,apparatus
screen,html.Screen,0_4_1_0_1_17,2021-12-03T12:06:54.571Z,,,,,,,,,,,,,,,,51,,,,,,,,,,,,,,466.1660000059637,,response,,,13,C,,,,,Space,keypress(Space),,,,instrumental,-------- -------- --- --- ---- --- --- ------ -- --------<br>---- --------- --- ------- ------------ ---------- ---------<br>may ---------- ------- ---------- ------- -- -------- ----<br>---- --- ------ ----- ------ -- ---- --- ----- -- - -------<br>-------- -- --- --- -- ----- ----------- ----- -----------<br>---- --- ---------- --- ---- --- -- ----------,213525.29999999702,213524.40000000596,213041.563,213053.70000000298,213058.234,213541.612,,17,may
screen,html.Screen,0_4_1_0_1_18,2021-12-03T12:06:54.739Z,,,,,,,,,,,,,,,,51,,,,,,,,,,,,,,150.78800000596675,,response,,,13,C,,,,,Space,keypress(Space),,,,instrumental,-------- -------- --- --- ---- --- --- ------ -- --------<br>---- --------- --- ------- ------------ ---------- ---------<br>--- profoundly ------- ---------- ------- -- -------- ----<br>---- --- ------ ----- ------ -- ---- --- ----- -- - -------<br>-------- -- --- --- -- ----- ----------- ----- -----------<br>---- --- ---------- --- ---- --- -- ----------,213693,213692.40000000596,213524.942,213525.5,213541.612,213708.271,,18,profoundly
screen,html.Screen,0_4_1_0_1_19,2021-12-03T12:06:56.027Z,,,,,,,,,,,,,,,,51,,,,,,,,,,,,,,1272.1290000059525,,response,,,13,C,,,,,Space,keypress(Space),,,,instrumental,-------- -------- --- --- ---- --- --- ------ -- --------<br>---- --------- --- ------- ------------ ---------- ---------<br>--- ---------- improve ---------- ------- -- -------- ----<br>---- --- ------ ----- ------ -- ---- --- ----- -- - -------<br>-------- -- --- --- -- ----- ----------- ----- -----------<br>---- --- ---------- --- ---- --- -- ----------,214981.09999999404,214980.40000000596,213691.602,213693.29999999702,213708.271,214992.126,,19,improve
screen,html.Screen,0_4_1_0_1_20,2021-12-03T12:06:56.555Z,,,,,,,,,,,,,,,,51,,,,,,,,,,,,,,516.1739999970305,,response,,,13,C,,,,,Space,keypress(Space),,,,instrumental,-------- -------- --- --- ---- --- --- ------ -- --------<br>---- --------- --- ------- ------------ ---------- ---------<br>--- ---------- ------- companies' ------- -- -------- ----<br>---- --- ------ ----- ------ -- ---- --- ----- -- - -------<br>-------- -- --- --- -- ----- ----------- ----- -----------<br>---- --- ---------- --- ---- --- -- ----------,215509.09999999404,215508.29999999702,214975.454,214981.29999999702,214992.126,215525.452,,20,companies'
screen,html.Screen,0_4_1_0_1_21,2021-12-03T12:06:57.203Z,,,,,,,,,,,,,,,,51,,,,,,,,,,,,,,630.8479999970295,,response,,,13,C,,,,,Space,keypress(Space),,,,instrumental,-------- -------- --- --- ---- --- --- ------ -- --------<br>---- --------- --- ------- ------------ ---------- ---------<br>--- ---------- ------- ---------- ability -- -------- ----<br>---- --- ------ ----- ------ -- ---- --- ----- -- - -------<br>-------- -- --- --- -- ----- ----------- ----- -----------<br>---- --- ---------- --- ---- --- -- ----------,216157.09999999404,216156.29999999702,215508.782,215509.29999999702,215525.452,216158.968,,21,ability
screen,html.Screen,0_4_1_0_1_22,2021-12-03T12:06:57.763Z,,,,,,,,,,,,,,,,51,,,,,,,,,,,,,,557.2320000029868,,response,,,13,C,,,,,Space,keypress(Space),,,,instrumental,-------- -------- --- --- ---- --- --- ------ -- --------<br>---- --------- --- ------- ------------ ---------- ---------<br>--- ---------- ------- ---------- ------- to -------- ----<br>---- --- ------ ----- ------ -- ---- --- ----- -- - -------<br>-------- -- --- --- -- ----- ----------- ----- -----------<br>---- --- ---------- --- ---- --- -- ----------,216717,216716.20000000298,216142.298,216157.29999999702,216158.968,216725.677,,22,to
screen,html.Screen,0_4_1_0_1_23,2021-12-03T12:06:58.299Z,,,,,,,,,,,,,,,,51,,,,,,,,,,,,,,526.4229999940435,,response,,,13,C,,,,,Space,keypress(Space),,,,instrumental,-------- -------- --- --- ---- --- --- ------ -- --------<br>---- --------- --- ------- ------------ ---------- ---------<br>--- ---------- ------- ---------- ------- -- survive. ----<br>---- --- ------ ----- ------ -- ---- --- ----- -- - -------<br>-------- -- --- --- -- ----- ----------- ----- -----------<br>---- --- ---------- --- ---- --- -- ----------,217252.79999999702,217252.09999999404,216709.008,216717.29999999702,216725.677,217259.311,,23,survive.
screen,html.Screen,0_4_1_0_1_24,2021-12-03T12:06:58.827Z,,,,,,,,,,,,,,,,51,,,,,,,,,,,,,,520.9889999970328,,response,,,13,C,,,,,Space,keypress(Space),,,,instrumental,-------- -------- --- --- ---- --- --- ------ -- --------<br>---- --------- --- ------- ------------ ---------- ---------<br>--- ---------- ------- ---------- ------- -- -------- This<br>---- --- ------ ----- ------ -- ---- --- ----- -- - -------<br>-------- -- --- --- -- ----- ----------- ----- -----------<br>---- --- ---------- --- ---- --- -- ----------,217781,217780.29999999702,217242.64,217253,217259.311,217792.677,,24,This
screen,html.Screen,0_4_1_0_1_25,2021-12-03T12:06:59.403Z,,,,,,,,,,,,,,,,51,,,,,,,,,,,,,,563.5230000029842,,response,,,13,C,,,,,Space,keypress(Space),,,,instrumental,-------- -------- --- --- ---- --- --- ------ -- --------<br>---- --------- --- ------- ------------ ---------- ---------<br>--- ---------- ------- ---------- ------- -- -------- ----<br>week --- ------ ----- ------ -- ---- --- ----- -- - -------<br>-------- -- --- --- -- ----- ----------- ----- -----------<br>---- --- ---------- --- ---- --- -- ----------,218356.90000000596,218356.20000000298,217776.007,217781.29999999702,217792.677,218359.612,,25,week
screen,html.Screen,0_4_1_0_1_26,2021-12-03T12:06:59.899Z,,,,,,,,,,,,,,,,51,,,,,,,,,,,,,,492.4879999940458,,response,,,13,C,,,,,Space,keypress(Space),,,,instrumental,-------- -------- --- --- ---- --- --- ------ -- --------<br>---- --------- --- ------- ------------ ---------- ---------<br>--- ---------- ------- ---------- ------- -- -------- ----<br>---- the ------ ----- ------ -- ---- --- ----- -- - -------<br>-------- -- --- --- -- ----- ----------- ----- -----------<br>---- --- ---------- --- ---- --- -- ----------,218852.90000000596,218852.09999999404,218342.941,218357.09999999404,218359.612,218859.759,,26,the
screen,html.Screen,0_4_1_0_1_27,2021-12-03T12:07:00.331Z,,,,,,,,,,,,,,,,51,,,,,,,,,,,,,,424.4410000029893,,response,,,13,C,,,,,Space,keypress(Space),,,,instrumental,-------- -------- --- --- ---- --- --- ------ -- --------<br>---- --------- --- ------- ------------ ---------- ---------<br>--- ---------- ------- ---------- ------- -- -------- ----<br>---- --- Senate ----- ------ -- ---- --- ----- -- - -------<br>-------- -- --- --- -- ----- ----------- ----- -----------<br>---- --- ---------- --- ---- --- -- ----------,219285,219284.20000000298,218843.088,218853.20000000298,218859.759,219293.127,,27,Senate
screen,html.Screen,0_4_1_0_1_28,2021-12-03T12:07:00.867Z,,,,,,,,,,,,,,,,51,,,,,,,,,,,,,,526.9729999940319,,response,,,13,C,,,,,Space,keypress(Space),,,,instrumental,-------- -------- --- --- ---- --- --- ------ -- --------<br>---- --------- --- ------- ------------ ---------- ---------<br>--- ---------- ------- ---------- ------- -- -------- ----<br>---- --- ------ seems ------ -- ---- --- ----- -- - -------<br>-------- -- --- --- -- ----- ----------- ----- -----------<br>---- --- ---------- --- ---- --- -- ----------,219821,219820.09999999404,219276.457,219285.20000000298,219293.127,219826.624,,28,seems
screen,html.Screen,0_4_1_0_1_29,2021-12-03T12:07:01.699Z,,,,,,,,,,,,,,,,51,,,,,,,,,,,,,,825.2760000059498,,response,,,13,C,,,,,Space,keypress(Space),,,,instrumental,-------- -------- --- --- ---- --- --- ------ -- --------<br>---- --------- --- ------- ------------ ---------- ---------<br>--- ---------- ------- ---------- ------- -- -------- ----<br>---- --- ------ ----- poised -- ---- --- ----- -- - -------<br>-------- -- --- --- -- ----- ----------- ----- -----------<br>---- --- ---------- --- ---- --- -- ----------,220652.79999999702,220651.90000000596,219809.954,219821.09999999404,219826.624,220660.114,,29,poised
screen,html.Screen,0_4_1_0_1_30,2021-12-03T12:07:02.275Z,,,,,,,,,,,,,,,,51,,,,,,,,,,,,,,567.8859999999986,,response,,,13,C,,,,,Space,keypress(Space),,,,instrumental,-------- -------- --- --- ---- --- --- ------ -- --------<br>---- --------- --- ------- ------------ ---------- ---------<br>--- ---------- ------- ---------- ------- -- -------- ----<br>---- --- ------ ----- ------ to ---- --- ----- -- - -------<br>-------- -- --- --- -- ----- ----------- ----- -----------<br>---- --- ---------- --- ---- --- -- ----------,221228.90000000596,221228,220643.444,220653,220660.114,221243.7,,30,to
screen,html.Screen,0_4_1_0_1_31,2021-12-03T12:07:02.947Z,,,,,,,,,,,,,,,,51,,,,,,,,,,,,,,656.2999999999884,,response,,,13,C,,,,,Space,keypress(Space),,,,instrumental,-------- -------- --- --- ---- --- --- ------ -- --------<br>---- --------- --- ------- ------------ ---------- ---------<br>--- ---------- ------- ---------- ------- -- -------- ----<br>---- --- ------ ----- ------ -- join --- ----- -- - -------<br>-------- -- --- --- -- ----- ----------- ----- -----------<br>---- --- ---------- --- ---- --- -- ----------,221900.90000000596,221900,221227.029,221229,221243.7,221910.487,,31,join
screen,html.Screen,0_4_1_0_1_32,2021-12-03T12:07:03.531Z,,,,,,,,,,,,,,,,51,,,,,,,,,,,,,,573.4130000059668,,response,,,13,C,,,,,Space,keypress(Space),,,,instrumental,-------- -------- --- --- ---- --- --- ------ -- --------<br>---- --------- --- ------- ------------ ---------- ---------<br>--- ---------- ------- ---------- ------- -- -------- ----<br>---- --- ------ ----- ------ -- ---- the ----- -- - -------<br>-------- -- --- --- -- ----- ----------- ----- -----------<br>---- --- ---------- --- ---- --- -- ----------,222484.70000000298,222483.90000000596,221893.817,221901.09999999404,221910.487,222493.989,,32,the
screen,html.Screen,0_4_1_0_1_33,2021-12-03T12:07:04.107Z,,,,,,,,,,,,,,,,51,,,,,,,,,,,,,,566.3109999970184,,response,,,13,C,,,,,Space,keypress(Space),,,,instrumental,-------- -------- --- --- ---- --- --- ------ -- --------<br>---- --------- --- ------- ------------ ---------- ---------<br>--- ---------- ------- ---------- ------- -- -------- ----<br>---- --- ------ ----- ------ -- ---- --- House -- - -------<br>-------- -- --- --- -- ----- ----------- ----- -----------<br>---- --- ---------- --- ---- --- -- ----------,223061.09999999404,223060.29999999702,222477.319,222484.90000000596,222493.989,223077.527,,33,House
screen,html.Screen,0_4_1_0_1_34,2021-12-03T12:07:04.627Z,,,,,,,,,,,,,,,,51,,,,,,,,,,,,,,502.47299999999814,,response,,,13,C,,,,,Space,keypress(Space),,,,instrumental,-------- -------- --- --- ---- --- --- ------ -- --------<br>---- --------- --- ------- ------------ ---------- ---------<br>--- ---------- ------- ---------- ------- -- -------- ----<br>---- --- ------ ----- ------ -- ---- --- ----- in - -------<br>-------- -- --- --- -- ----- ----------- ----- -----------<br>---- --- ---------- --- ---- --- -- ----------,223580.79999999702,223580,223060.856,223061.29999999702,223077.527,223594.171,,34,in
screen,html.Screen,0_4_1_0_1_35,2021-12-03T12:07:05.036Z,,,,,,,,,,,,,,,,51,,,,,,,,,,,,,,393.72900000595837,,response,,,13,C,,,,,Space,keypress(Space),,,,instrumental,-------- -------- --- --- ---- --- --- ------ -- --------<br>---- --------- --- ------- ------------ ---------- ---------<br>--- ---------- ------- ---------- ------- -- -------- ----<br>---- --- ------ ----- ------ -- ---- --- ----- -- a -------<br>-------- -- --- --- -- ----- ----------- ----- -----------<br>---- --- ---------- --- ---- --- -- ----------,223989.90000000596,223987.90000000596,223577.502,223580.90000000596,223594.171,223994.519,,35,a
screen,html.Screen,0_4_1_0_1_36,2021-12-03T12:07:05.603Z,,,,,,,,,,,,,,,,51,,,,,,,,,,,,,,561.3810000059602,,response,,,13,C,,,,,Space,keypress(Space),,,,instrumental,-------- -------- --- --- ---- --- --- ------ -- --------<br>---- --------- --- ------- ------------ ---------- ---------<br>--- ---------- ------- ---------- ------- -- -------- ----<br>---- --- ------ ----- ------ -- ---- --- ----- -- - massive<br>-------- -- --- --- -- ----- ----------- ----- -----------<br>---- --- ---------- --- ---- --- -- ----------,224556.70000000298,224555.90000000596,223977.847,223990.20000000298,223994.519,224561.058,,36,massive
screen,html.Screen,0_4_1_0_1_37,2021-12-03T12:07:06.283Z,,,,,,,,,,,,,,,,51,,,,,,,,,,,,,,674.8420000059705,,response,,,13,C,,,,,Space,keypress(Space),,,,instrumental,-------- -------- --- --- ---- --- --- ------ -- --------<br>---- --------- --- ------- ------------ ---------- ---------<br>--- ---------- ------- ---------- ------- -- -------- ----<br>---- --- ------ ----- ------ -- ---- --- ----- -- - -------<br>overhaul -- --- --- -- ----- ----------- ----- -----------<br>---- --- ---------- --- ---- --- -- ----------,225236.70000000298,225235.90000000596,224544.39,224556.90000000596,224561.058,225244.842,,37,overhaul
screen,html.Screen,0_4_1_0_1_38,2021-12-03T12:07:06.787Z,,,,,,,,,,,,,,,,51,,,,,,,,,,,,,,494.9579999970156,,response,,,13,C,,,,,Space,keypress(Space),,,,instrumental,-------- -------- --- --- ---- --- --- ------ -- --------<br>---- --------- --- ------- ------------ ---------- ---------<br>--- ---------- ------- ---------- ------- -- -------- ----<br>---- --- ------ ----- ------ -- ---- --- ----- -- - -------<br>-------- of --- --- -- ----- ----------- ----- -----------<br>---- --- ---------- --- ---- --- -- ----------,225740.59999999404,225739.79999999702,225228.17,225236.90000000596,225244.842,225744.829,,38,of
screen,html.Screen,0_4_1_0_1_39,2021-12-03T12:07:07.138Z,,,,,,,,,,,,,,,,51,,,,,,,,,,,,,,346.77099999404163,,response,,,13,C,,,,,Space,keypress(Space),,,,instrumental,-------- -------- --- --- ---- --- --- ------ -- --------<br>---- --------- --- ------- ------------ ---------- ---------<br>--- ---------- ------- ---------- ------- -- -------- ----<br>---- --- ------ ----- ------ -- ---- --- ----- -- - -------<br>-------- -- the --- -- ----- ----------- ----- -----------<br>---- --- ---------- --- ---- --- -- ----------,226092.40000000596,226091.59999999404,225728.159,225740.90000000596,225744.829,226095.015,,39,the
screen,html.Screen,0_4_1_0_1_40,2021-12-03T12:07:07.547Z,,,,,,,,,,,,,,,,51,,,,,,,,,,,,,,404.7849999970058,,response,,,13,C,,,,,Space,keypress(Space),,,,instrumental,-------- -------- --- --- ---- --- --- ------ -- --------<br>---- --------- --- ------- ------------ ---------- ---------<br>--- ---------- ------- ---------- ------- -- -------- ----<br>---- --- ------ ----- ------ -- ---- --- ----- -- - -------<br>-------- -- --- way -- ----- ----------- ----- -----------<br>---- --- ---------- --- ---- --- -- ----------,226500.70000000298,226499.79999999702,226078.344,226092.70000000298,226095.015,226511.68,,40,way
screen,html.Screen,0_4_1_0_1_41,2021-12-03T12:07:08.035Z,,,,,,,,,,,,,,,,51,,,,,,,,,,,,,,476.11999999702675,,response,,,13,C,,,,,Space,keypress(Space),,,,instrumental,-------- -------- --- --- ---- --- --- ------ -- --------<br>---- --------- --- ------- ------------ ---------- ---------<br>--- ---------- ------- ---------- ------- -- -------- ----<br>---- --- ------ ----- ------ -- ---- --- ----- -- - -------<br>-------- -- --- --- in ----- ----------- ----- -----------<br>---- --- ---------- --- ---- --- -- ----------,226988.59999999404,226987.79999999702,226495.011,226500.90000000596,226511.68,226995.238,,41,in
screen,html.Screen,0_4_1_0_1_42,2021-12-03T12:07:08.538Z,,,,,,,,,,,,,,,,51,,,,,,,,,,,,,,496.3619999940274,,response,,,13,C,,,,,Space,keypress(Space),,,,instrumental,-------- -------- --- --- ---- --- --- ------ -- --------<br>---- --------- --- ------- ------------ ---------- ---------<br>--- ---------- ------- ---------- ------- -- -------- ----<br>---- --- ------ ----- ------ -- ---- --- ----- -- - -------<br>-------- -- --- --- -- which ----------- ----- -----------<br>---- --- ---------- --- ---- --- -- ----------,227492.5,227491.59999999404,226978.567,226988.79999999702,226995.238,227495.301,,42,which
screen,html.Screen,0_4_1_0_1_43,2021-12-03T12:07:09.346Z,,,,,,,,,,,,,,,,51,,,,,,,,,,,,,,804.3990000029735,,response,,,13,C,,,,,Space,keypress(Space),,,,instrumental,-------- -------- --- --- ---- --- --- ------ -- --------<br>---- --------- --- ------- ------------ ---------- ---------<br>--- ---------- ------- ---------- ------- -- -------- ----<br>---- --- ------ ----- ------ -- ---- --- ----- -- - -------<br>-------- -- --- --- -- ----- bureaucrats ----- -----------<br>---- --- ---------- --- ---- --- -- ----------,228300.5,228299.70000000298,227478.631,227492.59999999404,227495.301,228312.196,,43,bureaucrats
screen,html.Screen,0_4_1_0_1_44,2021-12-03T12:07:09.898Z,,,,,,,,,,,,,,,,51,,,,,,,,,,,,,,539.3040000000037,,response,,,13,C,,,,,Space,keypress(Space),,,,instrumental,-------- -------- --- --- ---- --- --- ------ -- --------<br>---- --------- --- ------- ------------ ---------- ---------<br>--- ---------- ------- ---------- ------- -- -------- ----<br>---- --- ------ ----- ------ -- ---- --- ----- -- - -------<br>-------- -- --- --- -- ----- ----------- enact -----------<br>---- --- ---------- --- ---- --- -- ----------,228852.29999999702,228851.5,228295.526,228300.70000000298,228312.196,228862.357,,44,enact
screen,html.Screen,0_4_1_0_1_45,2021-12-03T12:07:11.706Z,,,,,,,,,,,,,,,,51,,,,,,,,,,,,,,1797.3430000029912,,response,,,13,C,,,,,Space,keypress(Space),,,,instrumental,-------- -------- --- --- ---- --- --- ------ -- --------<br>---- --------- --- ------- ------------ ---------- ---------<br>--- ---------- ------- ---------- ------- -- -------- ----<br>---- --- ------ ----- ------ -- ---- --- ----- -- - -------<br>-------- -- --- --- -- ----- ----------- ----- regulations<br>---- --- ---------- --- ---- --- -- ----------,230660.40000000596,230659.70000000298,228845.687,228852.5,228862.357,230662.754,,45,regulations
screen,html.Screen,0_4_1_0_1_46,2021-12-03T12:07:13.794Z,,,,,,,,,,,,,,,,51,,,,,,,,,,,,,,2084.7460000000137,,response,,,13,C,,,,,Space,keypress(Space),,,,instrumental,-------- -------- --- --- ---- --- --- ------ -- --------<br>---- --------- --- ------- ------------ ---------- ---------<br>--- ---------- ------- ---------- ------- -- -------- ----<br>---- --- ------ ----- ------ -- ---- --- ----- -- - -------<br>-------- -- --- --- -- ----- ----------- ----- -----------<br>that --- ---------- --- ---- --- -- ----------,232748.29999999702,232747.5,230646.084,230660.59999999404,230662.754,232763.166,,46,that
screen,html.Screen,0_4_1_0_1_47,2021-12-03T12:07:14.411Z,,,,,,,,,,,,,,,,51,,,,,,,,,,,,,,600.734000005963,,response,,,13,C,,,,,Space,keypress(Space),,,,instrumental,-------- -------- --- --- ---- --- --- ------ -- --------<br>---- --------- --- ------- ------------ ---------- ---------<br>--- ---------- ------- ---------- ------- -- -------- ----<br>---- --- ------ ----- ------ -- ---- --- ----- -- - -------<br>-------- -- --- --- -- ----- ----------- ----- -----------<br>---- are ---------- --- ---- --- -- ----------,233364.59999999404,233363.90000000596,232746.496,232748.5,232763.166,233380.127,,47,are
screen,html.Screen,0_4_1_0_1_48,2021-12-03T12:07:15.562Z,,,,,,,,,,,,,,,,51,,,,,,,,,,,,,,1135.3729999999923,,response,,,13,C,,,,,Space,keypress(Space),,,,instrumental,-------- -------- --- --- ---- --- --- ------ -- --------<br>---- --------- --- ------- ------------ ---------- ---------<br>--- ---------- ------- ---------- ------- -- -------- ----<br>---- --- ------ ----- ------ -- ---- --- ----- -- - -------<br>-------- -- --- --- -- ----- ----------- ----- -----------<br>---- --- strangling --- ---- --- -- ----------,234516.29999999702,234515.5,233363.457,233364.90000000596,233380.127,234530.438,,48,strangling
screen,html.Screen,0_4_1_0_1_49,2021-12-03T12:07:16.378Z,,,,,,,,,,,,,,,,51,,,,,,,,,,,,,,800.8619999970251,,response,,,13,C,,,,,Space,keypress(Space),,,,instrumental,-------- -------- --- --- ---- --- --- ------ -- --------<br>---- --------- --- ------- ------------ ---------- ---------<br>--- ---------- ------- ---------- ------- -- -------- ----<br>---- --- ------ ----- ------ -- ---- --- ----- -- - -------<br>-------- -- --- --- -- ----- ----------- ----- -----------<br>---- --- ---------- the ---- --- -- ----------,235332.09999999404,235331.29999999702,234513.768,234516.40000000596,234530.438,235347.42,,49,the
