sender,sender_type,sender_id,timestamp,meta,,Blues,Classical,Country,Dance,Electronic,Folk,Gospel,Hip-Hop,Jazz,Latin,Musical/Film,New-age,Pop,Provo_ID,R&B,Rap,Reggae,Religious,Rock,Soul,Swing,Traditional,age,artist_name,correct,correctResponse,distraction,duration,education,ended_on,familiarity,gender,item,list,music_frequency,offensiveness,pleasantness,preference,response,response_action,snippet_file,song_name,song_rating,sound,text,time_commit,time_end,time_render,time_run,time_show,time_switch,url,word,word_ID
Instructions,html.Page,0_0,2021-11-19T10:46:04.083Z,"{""labjs_version"":""20.2.3"",""labjs_build"":{""flavor"":""production"",""commit"":""7ea907d66ca8aeef8054924ca5d82ffbe11e34e5""},""location"":""https://run.pavlovia.org/mvasilev/lab_music_c/"",""userAgent"":""Mozilla/5.0 (Windows NT 6.1; Win64; x64) AppleWebKit/537.36 (KHTML, like Gecko) Chrome/96.0.4664.45 Safari/537.36"",""platform"":""Win32"",""language"":""en-US"",""locale"":""en-US"",""timeZone"":""Europe/London"",""timezoneOffset"":0,""screen_width"":1920,""screen_height"":1080,""scroll_width"":1920,""scroll_height"":959,""window_innerWidth"":1920,""window_innerHeight"":1007,""devicePixelRatio"":1}",,,,,,,,,,,,,,,,,,,,,,,,,,,,,23882.029999976156,,form submission,,,,,,,,,,,,,,,,33871.10000002384,33869.89999997616,9954.53,9974.199999928474,9987.87,33871.102,{},,
Headphones,html.Page,0_1,2021-11-19T10:46:04.242Z,,,,,,,,,,,,,,,,,,,,,,,,,,,,,,158.09799992847547,,form submission,,,,,,,,,,,,,,,,34029.699999928474,34029.199999928474,33854.437,33871.89999997616,33871.102,34044.428,,,
Holding screen,html.Screen,0_2_0_0,2021-11-19T10:46:14.249Z,,,,,,,,,,,,,,,,,,,,,,,,,,,,,,10002.417999999998,,timeout,,,,,,,,,,,,,,,,44036.5,44030.176,34027.758,34030.199999928474,34044.428,44046.846,,,
screen,html.Screen,0_2_0_1_0,2021-11-19T10:46:16.144Z,,,,,,,,,,,,,,,,53,,,,,,,,,,,,,,1883.7540000238441,,response,,,99,,,,,,Space,keypress(Space),,,,,When -- ----- -- ------ - ------- --- ----------<br>------------- ------ ------ ---- ---- ------- ----- -- ----<br>-------- ------- -- ---------- --- - --- ----- ----- ----<br>---- --- --- ----- --- ---- ---- ------- ----- ---- -------<br>--- --- -- ----- -- --- ---- -- --- ---- -- ------ ------<br>--- ----- -- ----,45932.10000002384,45930.60000002384,44030.176,44036.89999997616,44046.846,45947.558,,0,When
screen,html.Screen,0_2_0_1_1,2021-11-19T10:46:16.959Z,,,,,,,,,,,,,,,,53,,,,,,,,,,,,,,798.6419999284772,,response,,,99,,,,,,Space,keypress(Space),,,,,---- it ----- -- ------ - ------- --- ----------<br>------------- ------ ------ ---- ---- ------- ----- -- ----<br>-------- ------- -- ---------- --- - --- ----- ----- ----<br>---- --- --- ----- --- ---- ---- ------- ----- ---- -------<br>--- --- -- ----- -- --- ---- -- --- ---- -- ------ ------<br>--- ----- -- ----,46747.10000002384,46746.199999928474,45930.887,45932.39999997616,45947.558,46764.323,,1,it
screen,html.Screen,0_2_0_1_2,2021-11-19T10:46:17.391Z,,,,,,,,,,,,,,,,53,,,,,,,,,,,,,,413.7770000238452,,response,,,99,,,,,,Space,keypress(Space),,,,,---- -- comes -- ------ - ------- --- ----------<br>------------- ------ ------ ---- ---- ------- ----- -- ----<br>-------- ------- -- ---------- --- - --- ----- ----- ----<br>---- --- --- ----- --- ---- ---- ------- ----- ---- -------<br>--- --- -- ----- -- --- ---- -- --- ---- -- ------ ------<br>--- ----- -- ----,47179.10000002384,47178.10000002384,46747.653,46747.299999952316,46764.323,47181.13,,2,comes
screen,html.Screen,0_2_0_1_3,2021-11-19T10:46:17.895Z,,,,,,,,,,,,,,,,53,,,,,,,,,,,,,,500.9700000238445,,response,,,99,,,,,,Space,keypress(Space),,,,,---- -- ----- to ------ - ------- --- ----------<br>------------- ------ ------ ---- ---- ------- ----- -- ----<br>-------- ------- -- ---------- --- - --- ----- ----- ----<br>---- --- --- ----- --- ---- ---- ------- ----- ---- -------<br>--- --- -- ----- -- --- ---- -- --- ---- -- ------ ------<br>--- ----- -- ----,47683.10000002384,47682.10000002384,47164.46,47179.299999952316,47181.13,47697.914,,3,to
screen,html.Screen,0_2_0_1_4,2021-11-19T10:46:18.255Z,,,,,,,,,,,,,,,,53,,,,,,,,,,,,,,344.1860000238448,,response,,,99,,,,,,Space,keypress(Space),,,,,---- -- ----- -- having - ------- --- ----------<br>------------- ------ ------ ---- ---- ------- ----- -- ----<br>-------- ------- -- ---------- --- - --- ----- ----- ----<br>---- --- --- ----- --- ---- ---- ------- ----- ---- -------<br>--- --- -- ----- -- --- ---- -- --- ---- -- ------ ------<br>--- ----- -- ----,48043.199999928474,48042.10000002384,47681.244,47683.60000002384,47697.914,48048.071,,4,having
screen,html.Screen,0_2_0_1_5,2021-11-19T10:46:18.607Z,,,,,,,,,,,,,,,,53,,,,,,,,,,,,,,345.92899999999645,,response,,,99,,,,,,Space,keypress(Space),,,,,---- -- ----- -- ------ a ------- --- ----------<br>------------- ------ ------ ---- ---- ------- ----- -- ----<br>-------- ------- -- ---------- --- - --- ----- ----- ----<br>---- --- --- ----- --- ---- ---- ------- ----- ---- -------<br>--- --- -- ----- -- --- ---- -- --- ---- -- ------ ------<br>--- ----- -- ----,48395,48394,48031.4,48043.60000002384,48048.071,48398.017,,5,a
screen,html.Screen,0_2_0_1_6,2021-11-19T10:46:18.983Z,,,,,,,,,,,,,,,,53,,,,,,,,,,,,,,372.08300002384203,,response,,,99,,,,,,Space,keypress(Space),,,,,---- -- ----- -- ------ - lasting --- ----------<br>------------- ------ ------ ---- ---- ------- ----- -- ----<br>-------- ------- -- ---------- --- - --- ----- ----- ----<br>---- --- --- ----- --- ---- ---- ------- ----- ---- -------<br>--- --- -- ----- -- --- ---- -- --- ---- -- ------ ------<br>--- ----- -- ----,48771,48770.10000002384,48381.348,48395.60000002384,48398.017,48781.539,,6,lasting
screen,html.Screen,0_2_0_1_7,2021-11-19T10:46:19.343Z,,,,,,,,,,,,,,,,53,,,,,,,,,,,,,,348.46100000000297,,response,,,99,,,,,,Space,keypress(Space),,,,,---- -- ----- -- ------ - ------- and ----------<br>------------- ------ ------ ---- ---- ------- ----- -- ----<br>-------- ------- -- ---------- --- - --- ----- ----- ----<br>---- --- --- ----- --- ---- ---- ------- ----- ---- -------<br>--- --- -- ----- -- --- ---- -- --- ---- -- ------ ------<br>--- ----- -- ----,49130.89999997616,49130,48764.868,48771.299999952316,48781.539,49148.431,,7,and
screen,html.Screen,0_2_0_1_8,2021-11-19T10:46:19.871Z,,,,,,,,,,,,,,,,53,,,,,,,,,,,,,,509.56900000000314,,response,,,99,,,,,,Space,keypress(Space),,,,,---- -- ----- -- ------ - ------- --- fulfilling<br>------------- ------ ------ ---- ---- ------- ----- -- ----<br>-------- ------- -- ---------- --- - --- ----- ----- ----<br>---- --- --- ----- --- ---- ---- ------- ----- ---- -------<br>--- --- -- ----- -- --- ---- -- --- ---- -- ------ ------<br>--- ----- -- ----,49659.10000002384,49658,49131.758,49131.199999928474,49148.431,49665.02,,8,fulfilling
screen,html.Screen,0_2_0_1_9,2021-11-19T10:46:20.359Z,,,,,,,,,,,,,,,,53,,,,,,,,,,,,,,480.9800000000032,,response,,,99,,,,,,Space,keypress(Space),,,,,"---- -- ----- -- ------ - ------- --- ----------<br>relationship, ------ ------ ---- ---- ------- ----- -- ----<br>-------- ------- -- ---------- --- - --- ----- ----- ----<br>---- --- --- ----- --- ---- ---- ------- ----- ---- -------<br>--- --- -- ----- -- --- ---- -- --- ---- -- ------ ------<br>--- ----- -- ----",50146.89999997616,50146,49648.351,49659.39999997616,49665.02,50148.582,,9,"relationship,"
screen,html.Screen,0_2_0_1_10,2021-11-19T10:46:21.543Z,,,,,,,,,,,,,,,,53,,,,,,,,,,,,,,1181.317999976156,,response,,,99,,,,,,Space,keypress(Space),,,,,---- -- ----- -- ------ - ------- --- ----------<br>------------- common ------ ---- ---- ------- ----- -- ----<br>-------- ------- -- ---------- --- - --- ----- ----- ----<br>---- --- --- ----- --- ---- ---- ------- ----- ---- -------<br>--- --- -- ----- -- --- ---- -- --- ---- -- ------ ------<br>--- ----- -- ----,51330.799999952316,51329.89999997616,50131.911,50147.199999928474,50148.582,51332.251,,10,common
screen,html.Screen,0_2_0_1_11,2021-11-19T10:46:22.415Z,,,,,,,,,,,,,,,,53,,,,,,,,,,,,,,869.6489999761616,,response,,,99,,,,,,Space,keypress(Space),,,,,---- -- ----- -- ------ - ------- --- ----------<br>------------- ------ wisdom ---- ---- ------- ----- -- ----<br>-------- ------- -- ---------- --- - --- ----- ----- ----<br>---- --- --- ----- --- ---- ---- ------- ----- ---- -------<br>--- --- -- ----- -- --- ---- -- --- ---- -- ------ ------<br>--- ----- -- ----,52202.799999952316,52201.89999997616,51315.58,51331.199999928474,51332.251,52215.568,,11,wisdom
screen,html.Screen,0_2_0_1_12,2021-11-19T10:46:22.831Z,,,,,,,,,,,,,,,,53,,,,,,,,,,,,,,402.1319999284751,,response,,,99,,,,,,Space,keypress(Space),,,,,---- -- ----- -- ------ - ------- --- ----------<br>------------- ------ ------ says ---- ------- ----- -- ----<br>-------- ------- -- ---------- --- - --- ----- ----- ----<br>---- --- --- ----- --- ---- ---- ------- ----- ---- -------<br>--- --- -- ----- -- --- ---- -- --- ---- -- ------ ------<br>--- ----- -- ----,52618.699999928474,52617.699999928474,52198.899,52203,52215.568,52632.573,,12,says
screen,html.Screen,0_2_0_1_13,2021-11-19T10:46:23.159Z,,,,,,,,,,,,,,,,53,,,,,,,,,,,,,,313.2269999523196,,response,,,99,,,,,,Space,keypress(Space),,,,,---- -- ----- -- ------ - ------- --- ----------<br>------------- ------ ------ ---- that ------- ----- -- ----<br>-------- ------- -- ---------- --- - --- ----- ----- ----<br>---- --- --- ----- --- ---- ---- ------- ----- ---- -------<br>--- --- -- ----- -- --- ---- -- --- ---- -- ------ ------<br>--- ----- -- ----,52946.699999928474,52945.799999952316,52615.902,52618.89999997616,52632.573,52949.326,,13,that
screen,html.Screen,0_2_0_1_14,2021-11-19T10:46:23.495Z,,,,,,,,,,,,,,,,53,,,,,,,,,,,,,,332.47399995231535,,response,,,99,,,,,,Space,keypress(Space),,,,,---- -- ----- -- ------ - ------- --- ----------<br>------------- ------ ------ ---- ---- feeling ----- -- ----<br>-------- ------- -- ---------- --- - --- ----- ----- ----<br>---- --- --- ----- --- ---- ---- ------- ----- ---- -------<br>--- --- -- ----- -- --- ---- -- --- ---- -- ------ ------<br>--- ----- -- ----,53282.60000002384,53281.799999952316,52932.655,52946.89999997616,52949.326,53299.377,,14,feeling
screen,html.Screen,0_2_0_1_15,2021-11-19T10:46:23.790Z,,,,,,,,,,,,,,,,53,,,,,,,,,,,,,,278.322999928474,,response,,,99,,,,,,Space,keypress(Space),,,,,---- -- ----- -- ------ - ------- --- ----------<br>------------- ------ ------ ---- ---- ------- close -- ----<br>-------- ------- -- ---------- --- - --- ----- ----- ----<br>---- --- --- ----- --- ---- ---- ------- ----- ---- -------<br>--- --- -- ----- -- --- ---- -- --- ---- -- ------ ------<br>--- ----- -- ----,53578.5,53577.699999928474,53282.707,53282.799999952316,53299.377,53582.819,,15,close
screen,html.Screen,0_2_0_1_16,2021-11-19T10:46:24.175Z,,,,,,,,,,,,,,,,53,,,,,,,,,,,,,,378.98099995231314,,response,,,99,,,,,,Space,keypress(Space),,,,,---- -- ----- -- ------ - ------- --- ----------<br>------------- ------ ------ ---- ---- ------- ----- to ----<br>-------- ------- -- ---------- --- - --- ----- ----- ----<br>---- --- --- ----- --- ---- ---- ------- ----- ---- -------<br>--- --- -- ----- -- --- ---- -- --- ---- -- ------ ------<br>--- ----- -- ----,53962.5,53961.799999952316,53566.148,53578.799999952316,53582.819,53966.201,,16,to
screen,html.Screen,0_2_0_1_17,2021-11-19T10:46:24.678Z,,,,,,,,,,,,,,,,53,,,,,,,,,,,,,,499.4989999284735,,response,,,99,,,,,,Space,keypress(Space),,,,,---- -- ----- -- ------ - ------- --- ----------<br>------------- ------ ------ ---- ---- ------- ----- -- your<br>-------- ------- -- ---------- --- - --- ----- ----- ----<br>---- --- --- ----- --- ---- ---- ------- ----- ---- -------<br>--- --- -- ----- -- --- ---- -- --- ---- -- ------ ------<br>--- ----- -- ----,54466.5,54465.699999928474,53949.531,53962.799999952316,53966.201,54483.006,,17,your
screen,html.Screen,0_2_0_1_18,2021-11-19T10:46:25.454Z,,,,,,,,,,,,,,,,53,,,,,,,,,,,,,,758.5940000238406,,response,,,99,,,,,,Space,keypress(Space),,,,,---- -- ----- -- ------ - ------- --- ----------<br>------------- ------ ------ ---- ---- ------- ----- -- ----<br>romantic ------- -- ---------- --- - --- ----- ----- ----<br>---- --- --- ----- --- ---- ---- ------- ----- ---- -------<br>--- --- -- ----- -- --- ---- -- --- ---- -- ------ ------<br>--- ----- -- ----,55242.5,55241.60000002384,54466.336,54466.699999928474,54483.006,55249.919,,18,romantic
screen,html.Screen,0_2_0_1_19,2021-11-19T10:46:27.407Z,,,,,,,,,,,,,,,,53,,,,,,,,,,,,,,1944.0809999999983,,response,,,99,,,,,,Space,keypress(Space),,,,,---- -- ----- -- ------ - ------- --- ----------<br>------------- ------ ------ ---- ---- ------- ----- -- ----<br>-------- partner -- ---------- --- - --- ----- ----- ----<br>---- --- --- ----- --- ---- ---- ------- ----- ---- -------<br>--- --- -- ----- -- --- ---- -- --- ---- -- ------ ------<br>--- ----- -- ----,57194.799999952316,57194,55233.248,55242.699999928474,55249.919,57200.275,,19,partner
screen,html.Screen,0_2_0_1_20,2021-11-19T10:46:27.854Z,,,,,,,,,,,,,,,,53,,,,,,,,,,,,,,441.22499999999854,,response,,,99,,,,,,Space,keypress(Space),,,,,---- -- ----- -- ------ - ------- --- ----------<br>------------- ------ ------ ---- ---- ------- ----- -- ----<br>-------- ------- is ---------- --- - --- ----- ----- ----<br>---- --- --- ----- --- ---- ---- ------- ----- ---- -------<br>--- --- -- ----- -- --- ---- -- --- ---- -- ------ ------<br>--- ----- -- ----,57642.299999952316,57641.5,57183.605,57195.10000002384,57200.275,57650.384,,20,is
screen,html.Screen,0_2_0_1_21,2021-11-19T10:46:28.174Z,,,,,,,,,,,,,,,,53,,,,,,,,,,,,,,311.1160000000018,,response,,,99,,,,,,Space,keypress(Space),,,,,---- -- ----- -- ------ - ------- --- ----------<br>------------- ------ ------ ---- ---- ------- ----- -- ----<br>-------- ------- -- paramount. --- - --- ----- ----- ----<br>---- --- --- ----- --- ---- ---- ------- ----- ---- -------<br>--- --- -- ----- -- --- ---- -- --- ---- -- ------ ------<br>--- ----- -- ----,57962.299999952316,57961.5,57633.714,57642.60000002384,57650.384,57967.174,,21,paramount.
screen,html.Screen,0_2_0_1_22,2021-11-19T10:46:28.702Z,,,,,,,,,,,,,,,,53,,,,,,,,,,,,,,522.3260000000009,,response,,,99,,,,,,Space,keypress(Space),,,,,---- -- ----- -- ------ - ------- --- ----------<br>------------- ------ ------ ---- ---- ------- ----- -- ----<br>-------- ------- -- ---------- But - --- ----- ----- ----<br>---- --- --- ----- --- ---- ---- ------- ----- ---- -------<br>--- --- -- ----- -- --- ---- -- --- ---- -- ------ ------<br>--- ----- -- ----,58490.199999928474,58489.5,57950.504,57962.799999952316,57967.174,58500.866,,22,But
screen,html.Screen,0_2_0_1_23,2021-11-19T10:46:29.206Z,,,,,,,,,,,,,,,,53,,,,,,,,,,,,,,492.6339999999982,,response,,,99,,,,,,Space,keypress(Space),,,,,---- -- ----- -- ------ - ------- --- ----------<br>------------- ------ ------ ---- ---- ------- ----- -- ----<br>-------- ------- -- ---------- --- a --- ----- ----- ----<br>---- --- --- ----- --- ---- ---- ------- ----- ---- -------<br>--- --- -- ----- -- --- ---- -- --- ---- -- ------ ------<br>--- ----- -- ----,58994.199999928474,58993.5,58484.192,58490.60000002384,58500.866,59000.846,,23,a
screen,html.Screen,0_2_0_1_24,2021-11-19T10:46:29.462Z,,,,,,,,,,,,,,,,53,,,,,,,,,,,,,,248.5539999761604,,response,,,99,,,,,,Space,keypress(Space),,,,,---- -- ----- -- ------ - ------- --- ----------<br>------------- ------ ------ ---- ---- ------- ----- -- ----<br>-------- ------- -- ---------- --- - new ----- ----- ----<br>---- --- --- ----- --- ---- ---- ------- ----- ---- -------<br>--- --- -- ----- -- --- ---- -- --- ---- -- ------ ------<br>--- ----- -- ----,59250.299999952316,59249.39999997616,58984.176,58994.5,59000.846,59267.583,,24,new
screen,html.Screen,0_2_0_1_25,2021-11-19T10:46:29.734Z,,,,,,,,,,,,,,,,53,,,,,,,,,,,,,,253.81699997615942,,response,,,99,,,,,,Space,keypress(Space),,,,,---- -- ----- -- ------ - ------- --- ----------<br>------------- ------ ------ ---- ---- ------- ----- -- ----<br>-------- ------- -- ---------- --- - --- study ----- ----<br>---- --- --- ----- --- ---- ---- ------- ----- ---- -------<br>--- --- -- ----- -- --- ---- -- --- ---- -- ------ ------<br>--- ----- -- ----,59522.199999928474,59521.39999997616,59250.913,59250.5,59267.583,59534.316,,25,study
screen,html.Screen,0_2_0_1_26,2021-11-19T10:46:30.078Z,,,,,,,,,,,,,,,,53,,,,,,,,,,,,,,331.08399997615925,,response,,,99,,,,,,Space,keypress(Space),,,,,---- -- ----- -- ------ - ------- --- ----------<br>------------- ------ ------ ---- ---- ------- ----- -- ----<br>-------- ------- -- ---------- --- - --- ----- finds ----<br>---- --- --- ----- --- ---- ---- ------- ----- ---- -------<br>--- --- -- ----- -- --- ---- -- --- ---- -- ------ ------<br>--- ----- -- ----,59866.299999952316,59865.39999997616,59517.646,59522.39999997616,59534.316,59867.735,,26,finds
screen,html.Screen,0_2_0_1_27,2021-11-19T10:46:30.401Z,,,,,,,,,,,,,,,,53,,,,,,,,,,,,,,317.66499997615756,,response,,,99,,,,,,Space,keypress(Space),,,,,---- -- ----- -- ------ - ------- --- ----------<br>------------- ------ ------ ---- ---- ------- ----- -- ----<br>-------- ------- -- ---------- --- - --- ----- ----- that<br>---- --- --- ----- --- ---- ---- ------- ----- ---- -------<br>--- --- -- ----- -- --- ---- -- --- ---- -- ------ ------<br>--- ----- -- ----,60186.199999928474,60185.39999997616,59851.065,59866.5,59867.735,60201.133,,27,that
screen,html.Screen,0_2_0_1_28,2021-11-19T10:46:30.729Z,,,,,,,,,,,,,,,,53,,,,,,,,,,,,,,312.2669999761565,,response,,,99,,,,,,Space,keypress(Space),,,,,---- -- ----- -- ------ - ------- --- ----------<br>------------- ------ ------ ---- ---- ------- ----- -- ----<br>-------- ------- -- ---------- --- - --- ----- ----- ----<br>it's --- --- ----- --- ---- ---- ------- ----- ---- -------<br>--- --- -- ----- -- --- ---- -- --- ---- -- ------ ------<br>--- ----- -- ----,60514.199999928474,60513.39999997616,60184.463,60186.39999997616,60201.133,60517.925,,28,it's
screen,html.Screen,0_2_0_1_29,2021-11-19T10:46:31.010Z,,,,,,,,,,,,,,,,53,,,,,,,,,,,,,,275.3749999523134,,response,,,99,,,,,,Space,keypress(Space),,,,,---- -- ----- -- ------ - ------- --- ----------<br>------------- ------ ------ ---- ---- ------- ----- -- ----<br>-------- ------- -- ---------- --- - --- ----- ----- ----<br>---- not --- ----- --- ---- ---- ------- ----- ---- -------<br>--- --- -- ----- -- --- ---- -- --- ---- -- ------ ------<br>--- ----- -- ----,60794.299999952316,60793.299999952316,60501.254,60514.39999997616,60517.925,60801.347,,29,not
screen,html.Screen,0_2_0_1_30,2021-11-19T10:46:31.353Z,,,,,,,,,,,,,,,,53,,,,,,,,,,,,,,335.9529999523147,,response,,,99,,,,,,Space,keypress(Space),,,,,---- -- ----- -- ------ - ------- --- ----------<br>------------- ------ ------ ---- ---- ------- ----- -- ----<br>-------- ------- -- ---------- --- - --- ----- ----- ----<br>---- --- how ----- --- ---- ---- ------- ----- ---- -------<br>--- --- -- ----- -- --- ---- -- --- ---- -- ------ ------<br>--- ----- -- ----,61138.199999928474,61137.299999952316,60784.676,60794.5,60801.347,61151.395,,30,how
screen,html.Screen,0_2_0_1_31,2021-11-19T10:46:31.729Z,,,,,,,,,,,,,,,,53,,,,,,,,,,,,,,362.00499997616134,,response,,,99,,,,,,Space,keypress(Space),,,,,---- -- ----- -- ------ - ------- --- ----------<br>------------- ------ ------ ---- ---- ------- ----- -- ----<br>-------- ------- -- ---------- --- - --- ----- ----- ----<br>---- --- --- close --- ---- ---- ------- ----- ---- -------<br>--- --- -- ----- -- --- ---- -- --- ---- -- ------ ------<br>--- ----- -- ----,61514.10000002384,61513.39999997616,61134.725,61138.39999997616,61151.395,61518.194,,31,close
screen,html.Screen,0_2_0_1_32,2021-11-19T10:46:32.049Z,,,,,,,,,,,,,,,,53,,,,,,,,,,,,,,315.10599995231314,,response,,,99,,,,,,Space,keypress(Space),,,,,---- -- ----- -- ------ - ------- --- ----------<br>------------- ------ ------ ---- ---- ------- ----- -- ----<br>-------- ------- -- ---------- --- - --- ----- ----- ----<br>---- --- --- ----- you ---- ---- ------- ----- ---- -------<br>--- --- -- ----- -- --- ---- -- --- ---- -- ------ ------<br>--- ----- -- ----,61834,61833.299999952316,61501.523,61514.299999952316,61518.194,61851.514,,32,you
screen,html.Screen,0_2_0_1_33,2021-11-19T10:46:32.369Z,,,,,,,,,,,,,,,,53,,,,,,,,,,,,,,301.78599995231343,,response,,,99,,,,,,Space,keypress(Space),,,,,---- -- ----- -- ------ - ------- --- ----------<br>------------- ------ ------ ---- ---- ------- ----- -- ----<br>-------- ------- -- ---------- --- - --- ----- ----- ----<br>---- --- --- ----- --- feel ---- ------- ----- ---- -------<br>--- --- -- ----- -- --- ---- -- --- ---- -- ------ ------<br>--- ----- -- ----,62154.10000002384,62153.299999952316,61834.845,61834.299999952316,61851.514,62168.368,,33,feel
screen,html.Screen,0_2_0_1_34,2021-11-19T10:46:32.665Z,,,,,,,,,,,,,,,,53,,,,,,,,,,,,,,280.73200002383965,,response,,,99,,,,,,Space,keypress(Space),,,,,---- -- ----- -- ------ - ------- --- ----------<br>------------- ------ ------ ---- ---- ------- ----- -- ----<br>-------- ------- -- ---------- --- - --- ----- ----- ----<br>---- --- --- ----- --- ---- that ------- ----- ---- -------<br>--- --- -- ----- -- --- ---- -- --- ---- -- ------ ------<br>--- ----- -- ----,62450,62449.10000002384,62151.697,62154.299999952316,62168.368,62468.281,,34,that
screen,html.Screen,0_2_0_1_35,2021-11-19T10:46:33.009Z,,,,,,,,,,,,,,,,53,,,,,,,,,,,,,,325.0189999523136,,response,,,99,,,,,,Space,keypress(Space),,,,,---- -- ----- -- ------ - ------- --- ----------<br>------------- ------ ------ ---- ---- ------- ----- -- ----<br>-------- ------- -- ---------- --- - --- ----- ----- ----<br>---- --- --- ----- --- ---- ---- matters ----- ---- -------<br>--- --- -- ----- -- --- ---- -- --- ---- -- ------ ------<br>--- ----- -- ----,62794.10000002384,62793.299999952316,62451.613,62450.299999952316,62468.281,62801.783,,35,matters
screen,html.Screen,0_2_0_1_36,2021-11-19T10:46:33.337Z,,,,,,,,,,,,,,,,53,,,,,,,,,,,,,,319.41699992847134,,response,,,99,,,,,,Space,keypress(Space),,,,,"---- -- ----- -- ------ - ------- --- ----------<br>------------- ------ ------ ---- ---- ------- ----- -- ----<br>-------- ------- -- ---------- --- - --- ----- ----- ----<br>---- --- --- ----- --- ---- ---- ------- most, ---- -------<br>--- --- -- ----- -- --- ---- -- --- ---- -- ------ ------<br>--- ----- -- ----",63122.10000002384,63121.199999928474,62785.113,62794.299999952316,62801.783,63151.991,,36,"most,"
screen,html.Screen,0_2_0_1_37,2021-11-19T10:46:34.225Z,,,,,,,,,,,,,,,,53,,,,,,,,,,,,,,857.2089999284726,,response,,,99,,,,,,Space,keypress(Space),,,,,---- -- ----- -- ------ - ------- --- ----------<br>------------- ------ ------ ---- ---- ------- ----- -- ----<br>-------- ------- -- ---------- --- - --- ----- ----- ----<br>---- --- --- ----- --- ---- ---- ------- ----- it's -------<br>--- --- -- ----- -- --- ---- -- --- ---- -- ------ ------<br>--- ----- -- ----,64009.89999997616,64009.199999928474,63135.319,63122.299999952316,63151.991,64018.844,,37,it's
screen,html.Screen,0_2_0_1_38,2021-11-19T10:46:34.561Z,,,,,,,,,,,,,,,,53,,,,,,,,,,,,,,326.25600002384454,,response,,,99,,,,,,Space,keypress(Space),,,,,---- -- ----- -- ------ - ------- --- ----------<br>------------- ------ ------ ---- ---- ------- ----- -- ----<br>-------- ------- -- ---------- --- - --- ----- ----- ----<br>---- --- --- ----- --- ---- ---- ------- ----- ---- whether<br>--- --- -- ----- -- --- ---- -- --- ---- -- ------ ------<br>--- ----- -- ----,64345.89999997616,64345.10000002384,64002.173,64010.199999928474,64018.844,64352.186,,38,whether
screen,html.Screen,0_2_0_1_39,2021-11-19T10:46:34.897Z,,,,,,,,,,,,,,,,53,,,,,,,,,,,,,,328.91400002384034,,response,,,99,,,,,,Space,keypress(Space),,,,,---- -- ----- -- ------ - ------- --- ----------<br>------------- ------ ------ ---- ---- ------- ----- -- ----<br>-------- ------- -- ---------- --- - --- ----- ----- ----<br>---- --- --- ----- --- ---- ---- ------- ----- ---- -------<br>you --- -- ----- -- --- ---- -- --- ---- -- ------ ------<br>--- ----- -- ----,64681.89999997616,64681.10000002384,64335.516,64346.199999928474,64352.186,64685.641,,39,you
screen,html.Screen,0_2_0_1_40,2021-11-19T10:46:35.297Z,,,,,,,,,,,,,,,,53,,,,,,,,,,,,,,395.4590000238386,,response,,,99,,,,,,Space,keypress(Space),,,,,---- -- ----- -- ------ - ------- --- ----------<br>------------- ------ ------ ---- ---- ------- ----- -- ----<br>-------- ------- -- ---------- --- - --- ----- ----- ----<br>---- --- --- ----- --- ---- ---- ------- ----- ---- -------<br>--- are -- ----- -- --- ---- -- --- ---- -- ------ ------<br>--- ----- -- ----,65082,65081.10000002384,64668.971,64682.10000002384,64685.641,65085.745,,40,are
screen,html.Screen,0_2_0_1_41,2021-11-19T10:46:35.617Z,,,,,,,,,,,,,,,,53,,,,,,,,,,,,,,315.35500002383924,,response,,,99,,,,,,Space,keypress(Space),,,,,---- -- ----- -- ------ - ------- --- ----------<br>------------- ------ ------ ---- ---- ------- ----- -- ----<br>-------- ------- -- ---------- --- - --- ----- ----- ----<br>---- --- --- ----- --- ---- ---- ------- ----- ---- -------<br>--- --- as ----- -- --- ---- -- --- ---- -- ------ ------<br>--- ----- -- ----,65401.89999997616,65401.10000002384,65069.075,65082.299999952316,65085.745,65419.045,,41,as
screen,html.Screen,0_2_0_1_42,2021-11-19T10:46:35.929Z,,,,,,,,,,,,,,,,53,,,,,,,,,,,,,,294.0550000238436,,response,,,99,,,,,,Space,keypress(Space),,,,,---- -- ----- -- ------ - ------- --- ----------<br>------------- ------ ------ ---- ---- ------- ----- -- ----<br>-------- ------- -- ---------- --- - --- ----- ----- ----<br>---- --- --- ----- --- ---- ---- ------- ----- ---- -------<br>--- --- -- close -- --- ---- -- --- ---- -- ------ ------<br>--- ----- -- ----,65713.89999997616,65713.10000002384,65402.377,65402.199999928474,65419.045,65719.297,,42,close
screen,html.Screen,0_2_0_1_43,2021-11-19T10:46:36.257Z,,,,,,,,,,,,,,,,53,,,,,,,,,,,,,,321.8030000238359,,response,,,99,,,,,,Space,keypress(Space),,,,,---- -- ----- -- ------ - ------- --- ----------<br>------------- ------ ------ ---- ---- ------- ----- -- ----<br>-------- ------- -- ---------- --- - --- ----- ----- ----<br>---- --- --- ----- --- ---- ---- ------- ----- ---- -------<br>--- --- -- ----- as --- ---- -- --- ---- -- ------ ------<br>--- ----- -- ----,66041.89999997616,66041.10000002384,65702.625,65714.10000002384,65719.297,66052.708,,43,as
screen,html.Screen,0_2_0_1_44,2021-11-19T10:46:36.569Z,,,,,,,,,,,,,,,,53,,,,,,,,,,,,,,300.2920000000013,,response,,,99,,,,,,Space,keypress(Space),,,,,---- -- ----- -- ------ - ------- --- ----------<br>------------- ------ ------ ---- ---- ------- ----- -- ----<br>-------- ------- -- ---------- --- - --- ----- ----- ----<br>---- --- --- ----- --- ---- ---- ------- ----- ---- -------<br>--- --- -- ----- -- you ---- -- --- ---- -- ------ ------<br>--- ----- -- ----,66353.79999995232,66353,66036.037,66042.10000002384,66052.708,66369.423,,44,you
screen,html.Screen,0_2_0_1_45,2021-11-19T10:46:36.913Z,,,,,,,,,,,,,,,,53,,,,,,,,,,,,,,327.5770000000048,,response,,,99,,,,,,Space,keypress(Space),,,,,---- -- ----- -- ------ - ------- --- ----------<br>------------- ------ ------ ---- ---- ------- ----- -- ----<br>-------- ------- -- ---------- --- - --- ----- ----- ----<br>---- --- --- ----- --- ---- ---- ------- ----- ---- -------<br>--- --- -- ----- -- --- want -- --- ---- -- ------ ------<br>--- ----- -- ----,66697.79999995232,66697,66352.753,66354.10000002384,66369.423,66702.823,,45,want
screen,html.Screen,0_2_0_1_46,2021-11-19T10:46:37.377Z,,,,,,,,,,,,,,,,53,,,,,,,,,,,,,,458.0769999761542,,response,,,99,,,,,,Space,keypress(Space),,,,,---- -- ----- -- ------ - ------- --- ----------<br>------------- ------ ------ ---- ---- ------- ----- -- ----<br>-------- ------- -- ---------- --- - --- ----- ----- ----<br>---- --- --- ----- --- ---- ---- ------- ----- ---- -------<br>--- --- -- ----- -- --- ---- to --- ---- -- ------ ------<br>--- ----- -- ----,67161.69999992847,67160.89999997616,66686.153,66698.10000002384,66702.823,67169.592,,46,to
screen,html.Screen,0_2_0_1_47,2021-11-19T10:46:38.001Z,,,,,,,,,,,,,,,,53,,,,,,,,,,,,,,615.807999976154,,response,,,99,,,,,,Space,keypress(Space),,,,,"---- -- ----- -- ------ - ------- --- ----------<br>------------- ------ ------ ---- ---- ------- ----- -- ----<br>-------- ------- -- ---------- --- - --- ----- ----- ----<br>---- --- --- ----- --- ---- ---- ------- ----- ---- -------<br>--- --- -- ----- -- --- ---- -- be, ---- -- ------ ------<br>--- ----- -- ----",67786.19999992847,67785.39999997616,67152.922,67161.89999997616,67169.592,67803.155,,47,"be,"
screen,html.Screen,0_2_0_1_48,2021-11-19T10:46:38.913Z,,,,,,,,,,,,,,,,53,,,,,,,,,,,,,,893.8450000000012,,response,,,99,,,,,,Space,keypress(Space),,,,,---- -- ----- -- ------ - ------- --- ----------<br>------------- ------ ------ ---- ---- ------- ----- -- ----<br>-------- ------- -- ---------- --- - --- ----- ----- ----<br>---- --- --- ----- --- ---- ---- ------- ----- ---- -------<br>--- --- -- ----- -- --- ---- -- --- even -- ------ ------<br>--- ----- -- ----,68697.69999992847,68697,67786.484,67786.5,67803.155,68703.148,,48,even
screen,html.Screen,0_2_0_1_49,2021-11-19T10:46:39.329Z,,,,,,,,,,,,,,,,53,,,,,,,,,,,,,,409.7519999761571,,response,,,99,,,,,,Space,keypress(Space),,,,,---- -- ----- -- ------ - ------- --- ----------<br>------------- ------ ------ ---- ---- ------- ----- -- ----<br>-------- ------- -- ---------- --- - --- ----- ----- ----<br>---- --- --- ----- --- ---- ---- ------- ----- ---- -------<br>--- --- -- ----- -- --- ---- -- --- ---- if ------ ------<br>--- ----- -- ----,69113.69999992847,69112.89999997616,68686.479,68698.10000002384,68703.148,69120.213,,49,if
screen,html.Screen,0_2_0_1_50,2021-11-19T10:46:39.681Z,,,,,,,,,,,,,,,,53,,,,,,,,,,,,,,344.68699997615477,,response,,,99,,,,,,Space,keypress(Space),,,,,---- -- ----- -- ------ - ------- --- ----------<br>------------- ------ ------ ---- ---- ------- ----- -- ----<br>-------- ------- -- ---------- --- - --- ----- ----- ----<br>---- --- --- ----- --- ---- ---- ------- ----- ---- -------<br>--- --- -- ----- -- --- ---- -- --- ---- -- that's ------<br>--- ----- -- ----,69466,69464.89999997616,69103.541,69114,69120.213,69470.206,,50,that's
screen,html.Screen,0_2_0_1_51,2021-11-19T10:46:39.993Z,,,,,,,,,,,,,,,,53,,,,,,,,,,,,,,306.5939999523107,,response,,,99,,,,,,Space,keypress(Space),,,,,---- -- ----- -- ------ - ------- --- ----------<br>------------- ------ ------ ---- ---- ------- ----- -- ----<br>-------- ------- -- ---------- --- - --- ----- ----- ----<br>---- --- --- ----- --- ---- ---- ------- ----- ---- -------<br>--- --- -- ----- -- --- ---- -- --- ---- -- ------ really<br>--- ----- -- ----,69777.60000002384,69776.79999995232,69453.536,69466.39999997616,69470.206,69786.961,,51,really
screen,html.Screen,0_2_0_1_52,2021-11-19T10:46:40.337Z,,,,,,,,,,,,,,,,53,,,,,,,,,,,,,,333.8389999523206,,response,,,99,,,,,,Space,keypress(Space),,,,,---- -- ----- -- ------ - ------- --- ----------<br>------------- ------ ------ ---- ---- ------- ----- -- ----<br>-------- ------- -- ---------- --- - --- ----- ----- ----<br>---- --- --- ----- --- ---- ---- ------- ----- ---- -------<br>--- --- -- ----- -- --- ---- -- --- ---- -- ------ ------<br>not ----- -- ----,70121.69999992847,70120.79999995232,69770.291,69777.89999997616,69786.961,70137.037,,52,not
screen,html.Screen,0_2_0_1_53,2021-11-19T10:46:40.697Z,,,,,,,,,,,,,,,,53,,,,,,,,,,,,,,343.76299995231966,,response,,,99,,,,,,Space,keypress(Space),,,,,---- -- ----- -- ------ - ------- --- ----------<br>------------- ------ ------ ---- ---- ------- ----- -- ----<br>-------- ------- -- ---------- --- - --- ----- ----- ----<br>---- --- --- ----- --- ---- ---- ------- ----- ---- -------<br>--- --- -- ----- -- --- ---- -- --- ---- -- ------ ------<br>--- close -- ----,70481.60000002384,70480.79999995232,70120.367,70121.89999997616,70137.037,70487.131,,53,close
screen,html.Screen,0_2_0_1_54,2021-11-19T10:46:41.089Z,,,,,,,,,,,,,,,,53,,,,,,,,,,,,,,385.7689999761642,,response,,,99,,,,,,Space,keypress(Space),,,,,---- -- ----- -- ------ - ------- --- ----------<br>------------- ------ ------ ---- ---- ------- ----- -- ----<br>-------- ------- -- ---------- --- - --- ----- ----- ----<br>---- --- --- ----- --- ---- ---- ------- ----- ---- -------<br>--- --- -- ----- -- --- ---- -- --- ---- -- ------ ------<br>--- ----- at ----,70873.60000002384,70872.89999997616,70470.461,70481.89999997616,70487.131,70887.233,,54,at
screen,html.Screen,0_2_0_1_55,2021-11-19T10:46:41.497Z,,,,,,,,,,,,,,,,53,,,,,,,,,,,,,,393.5669999523234,,response,,,99,,,,,,Space,keypress(Space),,,,,---- -- ----- -- ------ - ------- --- ----------<br>------------- ------ ------ ---- ---- ------- ----- -- ----<br>-------- ------- -- ---------- --- - --- ----- ----- ----<br>---- --- --- ----- --- ---- ---- ------- ----- ---- -------<br>--- --- -- ----- -- --- ---- -- --- ---- -- ------ ------<br>--- ----- -- all.,71281.60000002384,71280.79999995232,70870.563,70873.89999997616,70887.233,71304.007,,55,all.
Item 99,flow.Loop,0_2_0_1,2021-11-19T10:46:41.501Z,,,,,,,,,,,,,,,,,,,,,,,,,,,,,,27233.95399995232,,completion,,,,C,,,,,,,,,,silence,,71286.19999992847,71280.79999995232,44030.176,44036.799999952316,44046.846,71304.007,,,
Question 1,html.Screen,0_2_0_2,2021-11-19T10:46:45.282Z,,,,,,,,,,,,,,,,,,,,,,,,,,,false,FALSE,,3761.3929999761604,,response,,,99,C,,,,,TRUE,click #choice-1,,,,silence,,75066.79999995232,75065.39999997616,71287.337,71286.5,71304.007,75071.618,,,
Question 2,html.Screen,0_2_0_3,2021-11-19T10:46:50.600Z,,,,,,,,,,,,,,,,,,,,,,,,,,,false,TRUE,,5311.98200002384,,response,,,99,C,,,,,FALSE,click #choice-2,,,,silence,,80384.79999995232,80383.60000002384,75054.948,75067.10000002384,75071.618,80389.578,,,
Item 99,flow.Sequence,0_2_0,2021-11-19T10:46:50.601Z,,,,,,,,,,,,,,,,,,,,,,,,,,,,,,46339.17200002384,,completion,,,,,,,,,,,,,,,,80385.19999992847,80383.60000002384,34027.758,34030.199999928474,34044.428,80389.578,,,
Holding screen,html.Screen,0_2_1_0,2021-11-19T10:47:00.592Z,,,,,,,,,,,,,,,,,,,,,,,,,,,,,,10002.523000000001,,timeout,,,,,,,,,,,,,,,,90376.79999995232,90375.431,80372.909,80385.5,80389.578,90392.101,,,
screen,html.Screen,0_2_1_1_0,2021-11-19T10:47:01.416Z,,,,,,,,,,,,,,,,54,,,,,,,,,,,,,,807.9990000238467,,response,,,100,,,,,,Space,keypress(Space),,,,,At --- ---- --- ------ ----- ------- ---- -- --- ------- --<br>------- ---------- ------ -- ----- -- ----- -- ---- ------<br>--- ----- --- --- ------ -------- ----- --- ------ ----- --<br>----- ----- ---------- --- --- ------ ------ ---- -- ------<br>------- --- ------ ----- --- ---- ------- -- ---- --- --<br>------- ------,91201,91200.10000002384,90375.431,90377.19999992847,90392.101,91209.274,,0,At
screen,html.Screen,0_2_1_1_1,2021-11-19T10:47:01.840Z,,,,,,,,,,,,,,,,54,,,,,,,,,,,,,,414.32600002383697,,response,,,100,,,,,,Space,keypress(Space),,,,,-- the ---- --- ------ ----- ------- ---- -- --- ------- --<br>------- ---------- ------ -- ----- -- ----- -- ---- ------<br>--- ----- --- --- ------ -------- ----- --- ------ ----- --<br>----- ----- ---------- --- --- ------ ------ ---- -- ------<br>------- --- ------ ----- --- ---- ------- -- ---- --- --<br>------- ------,91624.29999995232,91623.60000002384,91192.602,91201.29999995232,91209.274,91625.864,,1,the
screen,html.Screen,0_2_1_1_2,2021-11-19T10:47:02.200Z,,,,,,,,,,,,,,,,54,,,,,,,,,,,,,,357.73600002384046,,response,,,100,,,,,,Space,keypress(Space),,,,,-- --- time --- ------ ----- ------- ---- -- --- ------- --<br>------- ---------- ------ -- ----- -- ----- -- ---- ------<br>--- ----- --- --- ------ -------- ----- --- ------ ----- --<br>----- ----- ---------- --- --- ------ ------ ---- -- ------<br>------- --- ------ ----- --- ---- ------- -- ---- --- --<br>------- ------,91984.39999997616,91983.60000002384,91609.194,91624.60000002384,91625.864,91992.67,,2,time
screen,html.Screen,0_2_1_1_3,2021-11-19T10:47:02.536Z,,,,,,,,,,,,,,,,54,,,,,,,,,,,,,,326.9300000238436,,response,,,100,,,,,,Space,keypress(Space),,,,,-- --- ---- the ------ ----- ------- ---- -- --- ------- --<br>------- ---------- ------ -- ----- -- ----- -- ---- ------<br>--- ----- --- --- ------ -------- ----- --- ------ ----- --<br>----- ----- ---------- --- --- ------ ------ ---- -- ------<br>------- --- ------ ----- --- ---- ------- -- ---- --- --<br>------- ------,92320.29999995232,92319.60000002384,91976,91984.60000002384,91992.67,92326.073,,3,the
screen,html.Screen,0_2_1_1_4,2021-11-19T10:47:02.792Z,,,,,,,,,,,,,,,,54,,,,,,,,,,,,,,249.42699999999604,,response,,,100,,,,,,Space,keypress(Space),,,,,-- --- ---- --- French ----- ------- ---- -- --- ------- --<br>------- ---------- ------ -- ----- -- ----- -- ---- ------<br>--- ----- --- --- ------ -------- ----- --- ------ ----- --<br>----- ----- ---------- --- --- ------ ------ ---- -- ------<br>------- --- ------ ----- --- ---- ------- -- ---- --- --<br>------- ------,92576.39999997616,92575.5,92309.403,92320.69999992847,92326.073,92592.718,,4,French
screen,html.Screen,0_2_1_1_5,2021-11-19T10:47:03.016Z,,,,,,,,,,,,,,,,54,,,,,,,,,,,,,,206.78200000000652,,response,,,100,,,,,,Space,keypress(Space),,,,,-- --- ---- --- ------ crown ------- ---- -- --- ------- --<br>------- ---------- ------ -- ----- -- ----- -- ---- ------<br>--- ----- --- --- ------ -------- ----- --- ------ ----- --<br>----- ----- ---------- --- --- ------ ------ ---- -- ------<br>------- --- ------ ----- --- ---- ------- -- ---- --- --<br>------- ------,92800.5,92799.5,92576.05,92576.5,92592.718,92809.628,,5,crown
screen,html.Screen,0_2_1_1_6,2021-11-19T10:47:03.592Z,,,,,,,,,,,,,,,,54,,,,,,,,,,,,,,565.9720000238449,,response,,,100,,,,,,Space,keypress(Space),,,,,-- --- ---- --- ------ ----- secured ---- -- --- ------- --<br>------- ---------- ------ -- ----- -- ----- -- ---- ------<br>--- ----- --- --- ------ -------- ----- --- ------ ----- --<br>----- ----- ---------- --- --- ------ ------ ---- -- ------<br>------- --- ------ ----- --- ---- ------- -- ---- --- --<br>------- ------,93376.29999995232,93375.60000002384,92792.955,92800.69999992847,92809.628,93392.941,,6,secured
screen,html.Screen,0_2_1_1_7,2021-11-19T10:47:03.832Z,,,,,,,,,,,,,,,,54,,,,,,,,,,,,,,222.55899999999383,,response,,,100,,,,,,Space,keypress(Space),,,,,-- --- ---- --- ------ ----- ------- much -- --- ------- --<br>------- ---------- ------ -- ----- -- ----- -- ---- ------<br>--- ----- --- --- ------ -------- ----- --- ------ ----- --<br>----- ----- ---------- --- --- ------ ------ ---- -- ------<br>------- --- ------ ----- --- ---- ------- -- ---- --- --<br>------- ------,93616.29999995232,93615.5,93376.272,93376.5,93392.941,93626.521,,7,much
screen,html.Screen,0_2_1_1_8,2021-11-19T10:47:04.736Z,,,,,,,,,,,,,,,,54,,,,,,,,,,,,,,892.9790000000066,,response,,,100,,,,,,Space,keypress(Space),,,,,-- --- ---- --- ------ ----- ------- ---- of --- ------- --<br>------- ---------- ------ -- ----- -- ----- -- ---- ------<br>--- ----- --- --- ------ -------- ----- --- ------ ----- --<br>----- ----- ---------- --- --- ------ ------ ---- -- ------<br>------- --- ------ ----- --- ---- ------- -- ---- --- --<br>------- ------,94520.29999995232,94519.5,93609.848,93616.60000002384,93626.521,94526.625,,8,of
screen,html.Screen,0_2_1_1_9,2021-11-19T10:47:05.760Z,,,,,,,,,,,,,,,,54,,,,,,,,,,,,,,1016.7749999761581,,response,,,100,,,,,,Space,keypress(Space),,,,,-- --- ---- --- ------ ----- ------- ---- -- its ------- --<br>------- ---------- ------ -- ----- -- ----- -- ---- ------<br>--- ----- --- --- ------ -------- ----- --- ------ ----- --<br>----- ----- ---------- --- --- ------ ------ ---- -- ------<br>------- --- ------ ----- --- ---- ------- -- ---- --- --<br>------- ------,95544.5,95543.39999997616,94509.955,94520.5,94526.625,95560.177,,9,its
screen,html.Screen,0_2_1_1_10,2021-11-19T10:47:06.751Z,,,,,,,,,,,,,,,,54,,,,,,,,,,,,,,975.2229999761621,,response,,,100,,,,,,Space,keypress(Space),,,,,-- --- ---- --- ------ ----- ------- ---- -- --- revenue --<br>------- ---------- ------ -- ----- -- ----- -- ---- ------<br>--- ----- --- --- ------ -------- ----- --- ------ ----- --<br>----- ----- ---------- --- --- ------ ------ ---- -- ------<br>------- --- ------ ----- --- ---- ------- -- ---- --- --<br>------- ------,96536.19999992847,96535.39999997616,95543.507,95544.69999992847,95560.177,96543.734,,10,revenue
screen,html.Screen,0_2_1_1_11,2021-11-19T10:47:07.239Z,,,,,,,,,,,,,,,,54,,,,,,,,,,,,,,479.6659999761614,,response,,,100,,,,,,Space,keypress(Space),,,,,-- --- ---- --- ------ ----- ------- ---- -- --- ------- by<br>------- ---------- ------ -- ----- -- ----- -- ---- ------<br>--- ----- --- --- ------ -------- ----- --- ------ ----- --<br>----- ----- ---------- --- --- ------ ------ ---- -- ------<br>------- --- ------ ----- --- ---- ------- -- ---- --- --<br>------- ------,97024.19999992847,97023.39999997616,96527.064,96536.39999997616,96543.734,97027.356,,11,by
screen,html.Screen,0_2_1_1_12,2021-11-19T10:47:07.679Z,,,,,,,,,,,,,,,,54,,,,,,,,,,,,,,435.9439999523165,,response,,,100,,,,,,Space,keypress(Space),,,,,-- --- ---- --- ------ ----- ------- ---- -- --- ------- --<br>issuing ---------- ------ -- ----- -- ----- -- ---- ------<br>--- ----- --- --- ------ -------- ----- --- ------ ----- --<br>----- ----- ---------- --- --- ------ ------ ---- -- ------<br>------- --- ------ ----- --- ---- ------- -- ---- --- --<br>------- ------,97464.10000002384,97463.29999995232,97010.685,97024.29999995232,97027.356,97477.359,,12,issuing
screen,html.Screen,0_2_1_1_13,2021-11-19T10:47:08.311Z,,,,,,,,,,,,,,,,54,,,,,,,,,,,,,,617.9409999523195,,response,,,100,,,,,,Space,keypress(Space),,,,,-- --- ---- --- ------ ----- ------- ---- -- --- ------- --<br>------- government ------ -- ----- -- ----- -- ---- ------<br>--- ----- --- --- ------ -------- ----- --- ------ ----- --<br>----- ----- ---------- --- --- ------ ------ ---- -- ------<br>------- --- ------ ----- --- ---- ------- -- ---- --- --<br>------- ------,98096.10000002384,98095.29999995232,97460.689,97464.39999997616,97477.359,98111.002,,13,government
screen,html.Screen,0_2_1_1_14,2021-11-19T10:47:08.639Z,,,,,,,,,,,,,,,,54,,,,,,,,,,,,,,312.29799995232315,,response,,,100,,,,,,Space,keypress(Space),,,,,-- --- ---- --- ------ ----- ------- ---- -- --- ------- --<br>------- ---------- bonds. -- ----- -- ----- -- ---- ------<br>--- ----- --- --- ------ -------- ----- --- ------ ----- --<br>----- ----- ---------- --- --- ------ ------ ---- -- ------<br>------- --- ------ ----- --- ---- ------- -- ---- --- --<br>------- ------,98424.10000002384,98423.29999995232,98094.33,98096.29999995232,98111.002,98427.644,,14,bonds.
screen,html.Screen,0_2_1_1_15,2021-11-19T10:47:09.463Z,,,,,,,,,,,,,,,,54,,,,,,,,,,,,,,819.5559999284742,,response,,,100,,,,,,Space,keypress(Space),,,,,-- --- ---- --- ------ ----- ------- ---- -- --- ------- --<br>------- ---------- ------ In ----- -- ----- -- ---- ------<br>--- ----- --- --- ------ -------- ----- --- ------ ----- --<br>----- ----- ---------- --- --- ------ ------ ---- -- ------<br>------- --- ------ ----- --- ---- ------- -- ---- --- --<br>------- ------,99248.10000002384,99247.19999992847,98410.974,98424.29999995232,98427.644,99261.177,,15,In
screen,html.Screen,0_2_1_1_16,2021-11-19T10:47:10.255Z,,,,,,,,,,,,,,,,54,,,,,,,,,,,,,,778.0229999284784,,response,,,100,,,,,,Space,keypress(Space),,,,,"-- --- ---- --- ------ ----- ------- ---- -- --- ------- --<br>------- ---------- ------ -- 1727, -- ----- -- ---- ------<br>--- ----- --- --- ------ -------- ----- --- ------ ----- --<br>----- ----- ---------- --- --- ------ ------ ---- -- ------<br>------- --- ------ ----- --- ---- ------- -- ---- --- --<br>------- ------",100040,100039.19999992847,99244.507,99248.29999995232,99261.177,100044.477,,16,"1727,"
screen,html.Screen,0_2_1_1_17,2021-11-19T10:47:11.632Z,,,,,,,,,,,,,,,,54,,,,,,,,,,,,,,1371.023000000001,,response,,,100,,,,,,Space,keypress(Space),,,,,-- --- ---- --- ------ ----- ------- ---- -- --- ------- --<br>------- ---------- ------ -- ----- in ----- -- ---- ------<br>--- ----- --- --- ------ -------- ----- --- ------ ----- --<br>----- ----- ---------- --- --- ------ ------ ---- -- ------<br>------- --- ------ ----- --- ---- ------- -- ---- --- --<br>------- ------,101416.39999997616,101415.5,100027.809,100040.19999992847,100044.477,101428.501,,17,in
screen,html.Screen,0_2_1_1_18,2021-11-19T10:47:12.207Z,,,,,,,,,,,,,,,,54,,,,,,,,,,,,,,562.599000023838,,response,,,100,,,,,,Space,keypress(Space),,,,,-- --- ---- --- ------ ----- ------- ---- -- --- ------- --<br>------- ---------- ------ -- ----- -- order -- ---- ------<br>--- ----- --- --- ------ -------- ----- --- ------ ----- --<br>----- ----- ---------- --- --- ------ ------ ---- -- ------<br>------- --- ------ ----- --- ---- ------- -- ---- --- --<br>------- ------,101992,101991.10000002384,101411.83,101416.69999992847,101428.501,101995.052,,18,order
screen,html.Screen,0_2_1_1_19,2021-11-19T10:47:12.567Z,,,,,,,,,,,,,,,,54,,,,,,,,,,,,,,355.94800000000396,,response,,,100,,,,,,Space,keypress(Space),,,,,-- --- ---- --- ------ ----- ------- ---- -- --- ------- --<br>------- ---------- ------ -- ----- -- ----- to ---- ------<br>--- ----- --- --- ------ -------- ----- --- ------ ----- --<br>----- ----- ---------- --- --- ------ ------ ---- -- ------<br>------- --- ------ ----- --- ---- ------- -- ---- --- --<br>------- ------,102351.79999995232,102351,101978.383,101992.19999992847,101995.052,102362.024,,19,to
screen,html.Screen,0_2_1_1_20,2021-11-19T10:47:12.863Z,,,,,,,,,,,,,,,,54,,,,,,,,,,,,,,285.07600002383697,,response,,,100,,,,,,Space,keypress(Space),,,,,-- --- ---- --- ------ ----- ------- ---- -- --- ------- --<br>------- ---------- ------ -- ----- -- ----- -- save ------<br>--- ----- --- --- ------ -------- ----- --- ------ ----- --<br>----- ----- ---------- --- --- ------ ------ ---- -- ------<br>------- --- ------ ----- --- ---- ------- -- ---- --- --<br>------- ------,102647.89999997616,102647.10000002384,102345.353,102352,102362.024,102662.122,,20,save
screen,html.Screen,0_2_1_1_21,2021-11-19T10:47:13.151Z,,,,,,,,,,,,,,,,54,,,,,,,,,,,,,,272.877999999997,,response,,,100,,,,,,Space,keypress(Space),,,,,"-- --- ---- --- ------ ----- ------- ---- -- --- ------- --<br>------- ---------- ------ -- ----- -- ----- -- ---- money,<br>--- ----- --- --- ------ -------- ----- --- ------ ----- --<br>----- ----- ---------- --- --- ------ ------ ---- -- ------<br>------- --- ------ ----- --- ---- ------- -- ---- --- --<br>------- ------",102935.89999997616,102935,102645.451,102648.10000002384,102662.122,102945.489,,21,"money,"
screen,html.Screen,0_2_1_1_22,2021-11-19T10:47:13.711Z,,,,,,,,,,,,,,,,54,,,,,,,,,,,,,,549.5109999999986,,response,,,100,,,,,,Space,keypress(Space),,,,,-- --- ---- --- ------ ----- ------- ---- -- --- ------- --<br>------- ---------- ------ -- ----- -- ----- -- ---- ------<br>the ----- --- --- ------ -------- ----- --- ------ ----- --<br>----- ----- ---------- --- --- ------ ------ ---- -- ------<br>------- --- ------ ----- --- ---- ------- -- ---- --- --<br>------- ------,103495.79999995232,103495,102928.819,102936,102945.489,103512.281,,22,the
screen,html.Screen,0_2_1_1_23,2021-11-19T10:47:13.983Z,,,,,,,,,,,,,,,,54,,,,,,,,,,,,,,254.71899999999732,,response,,,100,,,,,,Space,keypress(Space),,,,,-- --- ---- --- ------ ----- ------- ---- -- --- ------- --<br>------- ---------- ------ -- ----- -- ----- -- ---- ------<br>--- state --- --- ------ -------- ----- --- ------ ----- --<br>----- ----- ---------- --- --- ------ ------ ---- -- ------<br>------- --- ------ ----- --- ---- ------- -- ---- --- --<br>------- ------,103767.69999992847,103767,103495.611,103496.10000002384,103512.281,103779.023,,23,state
screen,html.Screen,0_2_1_1_24,2021-11-19T10:47:14.239Z,,,,,,,,,,,,,,,,54,,,,,,,,,,,,,,243.97699999999895,,response,,,100,,,,,,Space,keypress(Space),,,,,-- --- ---- --- ------ ----- ------- ---- -- --- ------- --<br>------- ---------- ------ -- ----- -- ----- -- ---- ------<br>--- ----- cut --- ------ -------- ----- --- ------ ----- --<br>----- ----- ---------- --- --- ------ ------ ---- -- ------<br>------- --- ------ ----- --- ---- ------- -- ---- --- --<br>------- ------,104023.69999992847,104023,103762.353,103768,103779.023,104029.047,,24,cut
screen,html.Screen,0_2_1_1_25,2021-11-19T10:47:14.503Z,,,,,,,,,,,,,,,,54,,,,,,,,,,,,,,257.95299999999406,,response,,,100,,,,,,Space,keypress(Space),,,,,-- --- ---- --- ------ ----- ------- ---- -- --- ------- --<br>------- ---------- ------ -- ----- -- ----- -- ---- ------<br>--- ----- --- the ------ -------- ----- --- ------ ----- --<br>----- ----- ---------- --- --- ------ ------ ---- -- ------<br>------- --- ------ ----- --- ---- ------- -- ---- --- --<br>------- ------,104287.69999992847,104287,104012.378,104023.89999997616,104029.047,104295.906,,25,the
screen,html.Screen,0_2_1_1_26,2021-11-19T10:47:14.887Z,,,,,,,,,,,,,,,,54,,,,,,,,,,,,,,375.0939999999973,,response,,,100,,,,,,Space,keypress(Space),,,,,-- --- ---- --- ------ ----- ------- ---- -- --- ------- --<br>------- ---------- ------ -- ----- -- ----- -- ---- ------<br>--- ----- --- --- bonds' -------- ----- --- ------ ----- --<br>----- ----- ---------- --- --- ------ ------ ---- -- ------<br>------- --- ------ ----- --- ---- ------- -- ---- --- --<br>------- ------,104671.69999992847,104671,104279.234,104287.89999997616,104295.906,104679.26,,26,bonds'
screen,html.Screen,0_2_1_1_27,2021-11-19T10:47:15.263Z,,,,,,,,,,,,,,,,54,,,,,,,,,,,,,,367.6399999761634,,response,,,100,,,,,,Space,keypress(Space),,,,,-- --- ---- --- ------ ----- ------- ---- -- --- ------- --<br>------- ---------- ------ -- ----- -- ----- -- ---- ------<br>--- ----- --- --- ------ interest ----- --- ------ ----- --<br>----- ----- ---------- --- --- ------ ------ ---- -- ------<br>------- --- ------ ----- --- ---- ------- -- ---- --- --<br>------- ------,105047.60000002384,105046.89999997616,104662.59,104671.89999997616,104679.26,105062.503,,27,interest
screen,html.Screen,0_2_1_1_28,2021-11-19T10:47:15.623Z,,,,,,,,,,,,,,,,54,,,,,,,,,,,,,,344.39699997616117,,response,,,100,,,,,,Space,keypress(Space),,,,,-- --- ---- --- ------ ----- ------- ---- -- --- ------- --<br>------- ---------- ------ -- ----- -- ----- -- ---- ------<br>--- ----- --- --- ------ -------- rate. --- ------ ----- --<br>----- ----- ---------- --- --- ------ ------ ---- -- ------<br>------- --- ------ ----- --- ---- ------- -- ---- --- --<br>------- ------,105407.60000002384,105406.89999997616,105045.836,105047.79999995232,105062.503,105412.881,,28,rate.
screen,html.Screen,0_2_1_1_29,2021-11-19T10:47:16.719Z,,,,,,,,,,,,,,,,54,,,,,,,,,,,,,,1090.0189999761642,,response,,,100,,,,,,Space,keypress(Space),,,,,-- --- ---- --- ------ ----- ------- ---- -- --- ------- --<br>------- ---------- ------ -- ----- -- ----- -- ---- ------<br>--- ----- --- --- ------ -------- ----- The ------ ----- --<br>----- ----- ---------- --- --- ------ ------ ---- -- ------<br>------- --- ------ ----- --- ---- ------- -- ---- --- --<br>------- ------,106503.60000002384,106502.89999997616,105396.209,105407.89999997616,105412.881,106512.82,,29,The
screen,html.Screen,0_2_1_1_30,2021-11-19T10:47:17.023Z,,,,,,,,,,,,,,,,54,,,,,,,,,,,,,,293.87999992846744,,response,,,100,,,,,,Space,keypress(Space),,,,,-- --- ---- --- ------ ----- ------- ---- -- --- ------- --<br>------- ---------- ------ -- ----- -- ----- -- ---- ------<br>--- ----- --- --- ------ -------- ----- --- market ----- --<br>----- ----- ---------- --- --- ------ ------ ---- -- ------<br>------- --- ------ ----- --- ---- ------- -- ---- --- --<br>------- ------,106807.5,106806.69999992847,106496.152,106503.79999995232,106512.82,106813.261,,30,market
screen,html.Screen,0_2_1_1_31,2021-11-19T10:47:17.415Z,,,,,,,,,,,,,,,,54,,,,,,,,,,,,,,385.5389999523177,,response,,,100,,,,,,Space,keypress(Space),,,,,-- --- ---- --- ------ ----- ------- ---- -- --- ------- --<br>------- ---------- ------ -- ----- -- ----- -- ---- ------<br>--- ----- --- --- ------ -------- ----- --- ------ value --<br>----- ----- ---------- --- --- ------ ------ ---- -- ------<br>------- --- ------ ----- --- ---- ------- -- ---- --- --<br>------- ------,107199.60000002384,107198.79999995232,106796.589,106807.69999992847,106813.261,107213.169,,31,value
screen,html.Screen,0_2_1_1_32,2021-11-19T10:47:17.847Z,,,,,,,,,,,,,,,,54,,,,,,,,,,,,,,417.6309999523219,,response,,,100,,,,,,Space,keypress(Space),,,,,-- --- ---- --- ------ ----- ------- ---- -- --- ------- --<br>------- ---------- ------ -- ----- -- ----- -- ---- ------<br>--- ----- --- --- ------ -------- ----- --- ------ ----- of<br>----- ----- ---------- --- --- ------ ------ ---- -- ------<br>------- --- ------ ----- --- ---- ------- -- ---- --- --<br>------- ------,107631.5,107630.79999995232,107196.5,107199.79999995232,107213.169,107646.771,,32,of
screen,html.Screen,0_2_1_1_33,2021-11-19T10:47:18.191Z,,,,,,,,,,,,,,,,54,,,,,,,,,,,,,,328.0289999523229,,response,,,100,,,,,,Space,keypress(Space),,,,,-- --- ---- --- ------ ----- ------- ---- -- --- ------- --<br>------- ---------- ------ -- ----- -- ----- -- ---- ------<br>--- ----- --- --- ------ -------- ----- --- ------ ----- --<br>these ----- ---------- --- --- ------ ------ ---- -- ------<br>------- --- ------ ----- --- ---- ------- -- ---- --- --<br>------- ------,107975.5,107974.79999995232,107630.099,107631.79999995232,107646.771,107980.154,,33,these
screen,html.Screen,0_2_1_1_34,2021-11-19T10:47:18.527Z,,,,,,,,,,,,,,,,54,,,,,,,,,,,,,,330.54599992847943,,response,,,100,,,,,,Space,keypress(Space),,,,,-- --- ---- --- ------ ----- ------- ---- -- --- ------- --<br>------- ---------- ------ -- ----- -- ----- -- ---- ------<br>--- ----- --- --- ------ -------- ----- --- ------ ----- --<br>----- bonds ---------- --- --- ------ ------ ---- -- ------<br>------- --- ------ ----- --- ---- ------- -- ---- --- --<br>------- ------,108311.60000002384,108310.69999992847,107963.483,107975.69999992847,107980.154,108313.528,,34,bonds
screen,html.Screen,0_2_1_1_35,2021-11-19T10:47:18.807Z,,,,,,,,,,,,,,,,54,,,,,,,,,,,,,,277.2719999523106,,response,,,100,,,,,,Space,keypress(Space),,,,,"-- --- ---- --- ------ ----- ------- ---- -- --- ------- --<br>------- ---------- ------ -- ----- -- ----- -- ---- ------<br>--- ----- --- --- ------ -------- ----- --- ------ ----- --<br>----- ----- plummeted, --- --- ------ ------ ---- -- ------<br>------- --- ------ ----- --- ---- ------- -- ---- --- --<br>------- ------",108591.5,108590.79999995232,108296.858,108311.79999995232,108313.528,108596.943,,35,"plummeted,"
screen,html.Screen,0_2_1_1_36,2021-11-19T10:47:19.087Z,,,,,,,,,,,,,,,,54,,,,,,,,,,,,,,273.7569999284751,,response,,,100,,,,,,Space,keypress(Space),,,,,-- --- ---- --- ------ ----- ------- ---- -- --- ------- --<br>------- ---------- ------ -- ----- -- ----- -- ---- ------<br>--- ----- --- --- ------ -------- ----- --- ------ ----- --<br>----- ----- ---------- and --- ------ ------ ---- -- ------<br>------- --- ------ ----- --- ---- ------- -- ---- --- --<br>------- ------,108871.60000002384,108870.69999992847,108580.273,108593.19999992847,108596.943,108880.386,,36,and
screen,html.Screen,0_2_1_1_37,2021-11-19T10:47:19.375Z,,,,,,,,,,,,,,,,54,,,,,,,,,,,,,,278.3139999284758,,response,,,100,,,,,,Space,keypress(Space),,,,,-- --- ---- --- ------ ----- ------- ---- -- --- ------- --<br>------- ---------- ------ -- ----- -- ----- -- ---- ------<br>--- ----- --- --- ------ -------- ----- --- ------ ----- --<br>----- ----- ---------- --- the ------ ------ ---- -- ------<br>------- --- ------ ----- --- ---- ------- -- ---- --- --<br>------- ------,109159.5,109158.69999992847,108863.715,108871.79999995232,108880.386,109163.699,,37,the
screen,html.Screen,0_2_1_1_38,2021-11-19T10:47:19.647Z,,,,,,,,,,,,,,,,54,,,,,,,,,,,,,,266.9010000238486,,response,,,100,,,,,,Space,keypress(Space),,,,,-- --- ---- --- ------ ----- ------- ---- -- --- ------- --<br>------- ---------- ------ -- ----- -- ----- -- ---- ------<br>--- ----- --- --- ------ -------- ----- --- ------ ----- --<br>----- ----- ---------- --- --- market ------ ---- -- ------<br>------- --- ------ ----- --- ---- ------- -- ---- --- --<br>------- ------,109431.39999997616,109430.60000002384,109147.03,109159.69999992847,109163.699,109447.219,,38,market
screen,html.Screen,0_2_1_1_39,2021-11-19T10:47:19.903Z,,,,,,,,,,,,,,,,54,,,,,,,,,,,,,,239.38100002384454,,response,,,100,,,,,,Space,keypress(Space),,,,,-- --- ---- --- ------ ----- ------- ---- -- --- ------- --<br>------- ---------- ------ -- ----- -- ----- -- ---- ------<br>--- ----- --- --- ------ -------- ----- --- ------ ----- --<br>----- ----- ---------- --- --- ------ became ---- -- ------<br>------- --- ------ ----- --- ---- ------- -- ---- --- --<br>------- ------,109687.39999997616,109686.60000002384,109430.547,109431.69999992847,109447.219,109697.26,,39,became
screen,html.Screen,0_2_1_1_40,2021-11-19T10:47:20.143Z,,,,,,,,,,,,,,,,54,,,,,,,,,,,,,,229.43999992847966,,response,,,100,,,,,,Space,keypress(Space),,,,,-- --- ---- --- ------ ----- ------- ---- -- --- ------- --<br>------- ---------- ------ -- ----- -- ----- -- ---- ------<br>--- ----- --- --- ------ -------- ----- --- ------ ----- --<br>----- ----- ---------- --- --- ------ ------ wary -- ------<br>------- --- ------ ----- --- ---- ------- -- ---- --- --<br>------- ------,109927.5,109926.69999992847,109680.589,109687.69999992847,109697.26,109930.618,,40,wary
screen,html.Screen,0_2_1_1_41,2021-11-19T10:47:20.487Z,,,,,,,,,,,,,,,,54,,,,,,,,,,,,,,339.98200002383965,,response,,,100,,,,,,Space,keypress(Space),,,,,-- --- ---- --- ------ ----- ------- ---- -- --- ------- --<br>------- ---------- ------ -- ----- -- ----- -- ---- ------<br>--- ----- --- --- ------ -------- ----- --- ------ ----- --<br>----- ----- ---------- --- --- ------ ------ ---- of ------<br>------- --- ------ ----- --- ---- ------- -- ---- --- --<br>------- ------,110271.39999997616,110270.60000002384,109913.948,109927.79999995232,109930.618,110280.709,,41,of
screen,html.Screen,0_2_1_1_42,2021-11-19T10:47:20.911Z,,,,,,,,,,,,,,,,54,,,,,,,,,,,,,,413.99099992847187,,response,,,100,,,,,,Space,keypress(Space),,,,,-- --- ---- --- ------ ----- ------- ---- -- --- ------- --<br>------- ---------- ------ -- ----- -- ----- -- ---- ------<br>--- ----- --- --- ------ -------- ----- --- ------ ----- --<br>----- ----- ---------- --- --- ------ ------ ---- -- French<br>------- --- ------ ----- --- ---- ------- -- ---- --- --<br>------- ------,110695.39999997616,110694.69999992847,110264.039,110271.60000002384,110280.709,110697.46,,42,French
screen,html.Screen,0_2_1_1_43,2021-11-19T10:47:21.255Z,,,,,,,,,,,,,,,,54,,,,,,,,,,,,,,341.14000002383546,,response,,,100,,,,,,Space,keypress(Space),,,,,-- --- ---- --- ------ ----- ------- ---- -- --- ------- --<br>------- ---------- ------ -- ----- -- ----- -- ---- ------<br>--- ----- --- --- ------ -------- ----- --- ------ ----- --<br>----- ----- ---------- --- --- ------ ------ ---- -- ------<br>credit. --- ------ ----- --- ---- ------- -- ---- --- --<br>------- ------,111039.39999997616,111038.60000002384,110680.79,110695.69999992847,110697.46,111047.606,,43,credit.
screen,html.Screen,0_2_1_1_44,2021-11-19T10:47:21.623Z,,,,,,,,,,,,,,,,54,,,,,,,,,,,,,,358.9940000238421,,response,,,100,,,,,,Space,keypress(Space),,,,,-- --- ---- --- ------ ----- ------- ---- -- --- ------- --<br>------- ---------- ------ -- ----- -- ----- -- ---- ------<br>--- ----- --- --- ------ -------- ----- --- ------ ----- --<br>----- ----- ---------- --- --- ------ ------ ---- -- ------<br>------- The ------ ----- --- ---- ------- -- ---- --- --<br>------- ------,111407.39999997616,111406.60000002384,111030.935,111039.60000002384,111047.606,111414.312,,44,The
screen,html.Screen,0_2_1_1_45,2021-11-19T10:47:21.879Z,,,,,,,,,,,,,,,,54,,,,,,,,,,,,,,248.68799999999464,,response,,,100,,,,,,Space,keypress(Space),,,,,-- --- ---- --- ------ ----- ------- ---- -- --- ------- --<br>------- ---------- ------ -- ----- -- ----- -- ---- ------<br>--- ----- --- --- ------ -------- ----- --- ------ ----- --<br>----- ----- ---------- --- --- ------ ------ ---- -- ------<br>------- --- French ----- --- ---- ------- -- ---- --- --<br>------- ------,111663.79999995232,111663,111397.642,111407.69999992847,111414.312,111681.109,,45,French
screen,html.Screen,0_2_1_1_46,2021-11-19T10:47:22.119Z,,,,,,,,,,,,,,,,54,,,,,,,,,,,,,,221.49100002384512,,response,,,100,,,,,,Space,keypress(Space),,,,,-- --- ---- --- ------ ----- ------- ---- -- --- ------- --<br>------- ---------- ------ -- ----- -- ----- -- ---- ------<br>--- ----- --- --- ------ -------- ----- --- ------ ----- --<br>----- ----- ---------- --- --- ------ ------ ---- -- ------<br>------- --- ------ state --- ---- ------- -- ---- --- --<br>------- ------,111903.39999997616,111902.60000002384,111664.438,111664,111681.109,111914.476,,46,state
screen,html.Screen,0_2_1_1_47,2021-11-19T10:47:22.319Z,,,,,,,,,,,,,,,,54,,,,,,,,,,,,,,188.0240000000049,,response,,,100,,,,,,Space,keypress(Space),,,,,-- --- ---- --- ------ ----- ------- ---- -- --- ------- --<br>------- ---------- ------ -- ----- -- ----- -- ---- ------<br>--- ----- --- --- ------ -------- ----- --- ------ ----- --<br>----- ----- ---------- --- --- ------ ------ ---- -- ------<br>------- --- ------ ----- was ---- ------- -- ---- --- --<br>------- ------,112103.39999997616,112102.5,111897.806,111903.60000002384,111914.476,112114.53,,47,was
screen,html.Screen,0_2_1_1_48,2021-11-19T10:47:23.007Z,,,,,,,,,,,,,,,,54,,,,,,,,,,,,,,675.9700000000012,,response,,,100,,,,,,Space,keypress(Space),,,,,-- --- ---- --- ------ ----- ------- ---- -- --- ------- --<br>------- ---------- ------ -- ----- -- ----- -- ---- ------<br>--- ----- --- --- ------ -------- ----- --- ------ ----- --<br>----- ----- ---------- --- --- ------ ------ ---- -- ------<br>------- --- ------ ----- --- left ------- -- ---- --- --<br>------- ------,112791.19999992847,112790.5,112097.86,112103.60000002384,112114.53,112798.005,,48,left
screen,html.Screen,0_2_1_1_49,2021-11-19T10:47:23.335Z,,,,,,,,,,,,,,,,54,,,,,,,,,,,,,,320.49499999999534,,response,,,100,,,,,,Space,keypress(Space),,,,,-- --- ---- --- ------ ----- ------- ---- -- --- ------- --<br>------- ---------- ------ -- ----- -- ----- -- ---- ------<br>--- ----- --- --- ------ -------- ----- --- ------ ----- --<br>----- ----- ---------- --- --- ------ ------ ---- -- ------<br>------- --- ------ ----- --- ---- without -- ---- --- --<br>------- ------,113119.29999995232,113118.5,112781.335,112791.5,112798.005,113131.232,,49,without
screen,html.Screen,0_2_1_1_50,2021-11-19T10:47:23.607Z,,,,,,,,,,,,,,,,54,,,,,,,,,,,,,,259.2679999999964,,response,,,100,,,,,,Space,keypress(Space),,,,,-- --- ---- --- ------ ----- ------- ---- -- --- ------- --<br>------- ---------- ------ -- ----- -- ----- -- ---- ------<br>--- ----- --- --- ------ -------- ----- --- ------ ----- --<br>----- ----- ---------- --- --- ------ ------ ---- -- ------<br>------- --- ------ ----- --- ---- ------- an ---- --- --<br>------- ------,113391.19999992847,113390.5,113114.565,113119.60000002384,113131.232,113398.206,,50,an
screen,html.Screen,0_2_1_1_51,2021-11-19T10:47:23.854Z,,,,,,,,,,,,,,,,54,,,,,,,,,,,,,,240.19399997615255,,response,,,100,,,,,,Space,keypress(Space),,,,,-- --- ---- --- ------ ----- ------- ---- -- --- ------- --<br>------- ---------- ------ -- ----- -- ----- -- ---- ------<br>--- ----- --- --- ------ -------- ----- --- ------ ----- --<br>----- ----- ---------- --- --- ------ ------ ---- -- ------<br>------- --- ------ ----- --- ---- ------- -- easy --- --<br>------- ------,113639.19999992847,113638.39999997616,113381.535,113391.5,113398.206,113648.277,,51,easy
screen,html.Screen,0_2_1_1_52,2021-11-19T10:47:24.079Z,,,,,,,,,,,,,,,,54,,,,,,,,,,,,,,214.12299997615628,,response,,,100,,,,,,Space,keypress(Space),,,,,-- --- ---- --- ------ ----- ------- ---- -- --- ------- --<br>------- ---------- ------ -- ----- -- ----- -- ---- ------<br>--- ----- --- --- ------ -------- ----- --- ------ ----- --<br>----- ----- ---------- --- --- ------ ------ ---- -- ------<br>------- --- ------ ----- --- ---- ------- -- ---- way --<br>------- ------,113863.29999995232,113862.39999997616,113631.606,113639.5,113648.277,113864.967,,52,way
screen,html.Screen,0_2_1_1_53,2021-11-19T10:47:24.430Z,,,,,,,,,,,,,,,,54,,,,,,,,,,,,,,349.43299997615395,,response,,,100,,,,,,Space,keypress(Space),,,,,-- --- ---- --- ------ ----- ------- ---- -- --- ------- --<br>------- ---------- ------ -- ----- -- ----- -- ---- ------<br>--- ----- --- --- ------ -------- ----- --- ------ ----- --<br>----- ----- ---------- --- --- ------ ------ ---- -- ------<br>------- --- ------ ----- --- ---- ------- -- ---- --- of<br>------- ------,114215.19999992847,114214.39999997616,113848.297,113863.5,113864.967,114231.718,,53,of
screen,html.Screen,0_2_1_1_54,2021-11-19T10:47:24.782Z,,,,,,,,,,,,,,,,54,,,,,,,,,,,,,,334.68199997616466,,response,,,100,,,,,,Space,keypress(Space),,,,,-- --- ---- --- ------ ----- ------- ---- -- --- ------- --<br>------- ---------- ------ -- ----- -- ----- -- ---- ------<br>--- ----- --- --- ------ -------- ----- --- ------ ----- --<br>----- ----- ---------- --- --- ------ ------ ---- -- ------<br>------- --- ------ ----- --- ---- ------- -- ---- --- --<br>raising ------,114567.19999992847,114566.39999997616,114215.048,114215.39999997616,114231.718,114581.794,,54,raising
screen,html.Screen,0_2_1_1_55,2021-11-19T10:47:25.118Z,,,,,,,,,,,,,,,,54,,,,,,,,,,,,,,320.60599997616373,,response,,,100,,,,,,Space,keypress(Space),,,,,-- --- ---- --- ------ ----- ------- ---- -- --- ------- --<br>------- ---------- ------ -- ----- -- ----- -- ---- ------<br>--- ----- --- --- ------ -------- ----- --- ------ ----- --<br>----- ----- ---------- --- --- ------ ------ ---- -- ------<br>------- --- ------ ----- --- ---- ------- -- ---- --- --<br>------- money.,114903.10000002384,114902.39999997616,114565.124,114567.5,114581.794,114915.257,,55,money.
Item 100,flow.Loop,0_2_1_1,2021-11-19T10:47:25.119Z,,,,,,,,,,,,,,,,,,,,,,,,,,,,,,24510.298999976163,,completion,,,,C,,,,,,,,,,silence,,114903.5,114902.39999997616,90375.431,90377.10000002384,90392.101,114915.257,,,
Question 1,html.Screen,0_2_1_2,2021-11-19T10:47:29.321Z,,,,,,,,,,,,,,,,,,,,,,,,,,,false,TRUE,,4189.14299997616,,response,,,100,C,,,,,FALSE,click #choice-2,,,,silence,,119105.60000002384,119104.39999997616,114898.586,114903.69999992847,114915.257,119116.341,,,
Question 2,html.Screen,0_2_1_3,2021-11-19T10:47:29.476Z,,,,,,,,,,,,,,,,,,,,,,,,,,,true,FALSE,,142.85899992847408,,response,,,100,C,,,,,FALSE,click #choice-2,,,,silence,,119260.39999997616,119259.19999992847,119099.67,119105.89999997616,119116.341,119266.342,,,
Item 100,flow.Sequence,0_2_1,2021-11-19T10:47:29.476Z,,,,,,,,,,,,,,,,,,,,,,,,,,,,,,38869.62199992848,,completion,,,,,,,,,,,,,,,,119260.69999992847,119259.19999992847,80372.909,80385.39999997616,80389.578,119266.342,,,
End of Practice,html.Page,0_2_2,2021-11-19T10:47:33.163Z,,,,,,,,,,,,,,,,,,,,,,,,,,,,,,3677.457999952312,,form submission,,,,,,,,,,,,,,,,122944.39999997616,122943.79999995232,119249.673,119260.89999997616,119266.342,122948.142,,,
Practice,flow.Sequence,0_2,2021-11-19T10:47:33.163Z,,,,,,,,,,,,,,,,,,,,,,,,,,,,,,88899.37199995232,,completion,,,,,,,,,,,,,,,,122944.79999995232,122943.79999995232,34027.758,34030,34044.428,122948.142,,,
Trap_instruction,html.Page,0_3_0,2021-11-19T10:47:33.713Z,,,,,,,,,,,,,,,,,,,,,,,,,,,,,,546.1579999523092,,form submission,,,,,,,,,,,,,,,,123494.79999995232,123494.29999995232,122931.497,122945,122948.142,123517.516,,,
trap_trial,html.Screen,0_3_1,2021-11-19T10:47:38.327Z,,,,,,,,,,,,,,,,,,,,,,,,,,,true,1,,4589.883999976155,,response,,,,,,,,,1,click #choice-1,,,,,,128108.60000002384,128107.39999997616,123484.172,123495,123517.516,128117.791,,,
end of trap trial,html.Page,0_3_2,2021-11-19T10:47:41.101Z,,,,,,,,,,,,,,,,,,,,,,,,,,,,,,2763.908999928477,,form submission,,,,,,,,,,,,,,,,130882.29999995232,130881.69999992847,128101.123,128108.89999997616,128117.791,130885.836,,,
Trap 1,flow.Sequence,0_3,2021-11-19T10:47:41.101Z,,,,,,,,,,,,,,,,,,,,,,,,,,,,,,7933.557999928467,,completion,,,,,,,,,,,,,,,,130882.60000002384,130881.69999992847,122931.497,122944.89999997616,122948.142,130885.836,,,
Standby,html.Page,0_4_0,2021-11-19T10:47:49.092Z,,,,,,,,,,,,,,,,,,,,,,,,,,,,,,8001.751000000004,,timeout,,,,,,,,,,,,,,,,138872.89999997616,138870.917,130869.166,130882.79999995232,130885.836,138887.587,,,
Holding screen,html.Screen,0_4_1_0_0,2021-11-19T10:47:56.093Z,,,,,,,,,,,,,,,,,,,,,,,,,,,,,,7002.176999999996,,timeout,,,,,,,,,,,,,,,,145874.39999997616,145873.094,138870.917,138873.19999992847,138887.587,145889.764,,,
screen,html.Screen,0_4_1_0_1_0,2021-11-19T10:47:58.713Z,,,,,,,,,,,,,,,,48,,,,,,,,,,,,,,2603.2360000000044,,response,,,10,C,,,,,Space,keypress(Space),,,,instrumental,As -- --- ------ ------- --------- ----------- --------<br>--------- -------- --- ------- -- ------- ---- -- ------<br>-- --- -------- -------- ---------- ---- ---- ---- ------<br>-- --------- -- ---- -- --- -- --- ------- -- - -----<br>---------- -- -- -- ---- ----- -- ------ -- --- ------<br>-------,148494.19999992847,148493,145873.094,145874.79999995232,145889.764,148506.811,,0,As
screen,html.Screen,0_4_1_0_1_1,2021-11-19T10:47:59.240Z,,,,,,,,,,,,,,,,48,,,,,,,,,,,,,,513.689000000013,,response,,,10,C,,,,,Space,keypress(Space),,,,instrumental,-- in --- ------ ------- --------- ----------- --------<br>--------- -------- --- ------- -- ------- ---- -- ------<br>-- --- -------- -------- ---------- ---- ---- ---- ------<br>-- --------- -- ---- -- --- -- --- ------- -- - -----<br>---------- -- -- -- ---- ----- -- ------ -- --- ------<br>-------,149021.19999992847,149020.5,148490.142,148494.5,148506.811,149023.803,,1,in
screen,html.Screen,0_4_1_0_1_2,2021-11-19T10:47:59.640Z,,,,,,,,,,,,,,,,48,,,,,,,,,,,,,,396.5969999761437,,response,,,10,C,,,,,Space,keypress(Space),,,,instrumental,-- -- the ------ ------- --------- ----------- --------<br>--------- -------- --- ------- -- ------- ---- -- ------<br>-- --- -------- -------- ---------- ---- ---- ---- ------<br>-- --------- -- ---- -- --- -- --- ------- -- - -----<br>---------- -- -- -- ---- ----- -- ------ -- --- ------<br>-------,149421.19999992847,149420.39999997616,149007.133,149021.39999997616,149023.803,149424.057,,2,the
screen,html.Screen,0_4_1_0_1_3,2021-11-19T10:48:00.047Z,,,,,,,,,,,,,,,,48,,,,,,,,,,,,,,404.1429999284737,,response,,,10,C,,,,,Space,keypress(Space),,,,instrumental,-- -- --- United ------- --------- ----------- --------<br>--------- -------- --- ------- -- ------- ---- -- ------<br>-- --- -------- -------- ---------- ---- ---- ---- ------<br>-- --------- -- ---- -- --- -- --- ------- -- - -----<br>---------- -- -- -- ---- ----- -- ------ -- --- ------<br>-------,149828.5,149828.19999992847,149407.387,149421.5,149424.057,149840.887,,3,United
screen,html.Screen,0_4_1_0_1_4,2021-11-19T10:48:00.392Z,,,,,,,,,,,,,,,,48,,,,,,,,,,,,,,331.51299997617025,,response,,,10,C,,,,,Space,keypress(Space),,,,instrumental,"-- -- --- ------ States, --------- ----------- --------<br>--------- -------- --- ------- -- ------- ---- -- ------<br>-- --- -------- -------- ---------- ---- ---- ---- ------<br>-- --------- -- ---- -- --- -- --- ------- -- - -----<br>---------- -- -- -- ---- ----- -- ------ -- --- ------<br>-------",150173.29999995232,150172.39999997616,149824.216,149828.60000002384,149840.887,150191.038,,4,"States,"
screen,html.Screen,0_4_1_0_1_5,2021-11-19T10:48:00.792Z,,,,,,,,,,,,,,,,48,,,,,,,,,,,,,,381.3619999761577,,response,,,10,C,,,,,Space,keypress(Space),,,,instrumental,-- -- --- ------ ------- Colombian ----------- --------<br>--------- -------- --- ------- -- ------- ---- -- ------<br>-- --- -------- -------- ---------- ---- ---- ---- ------<br>-- --------- -- ---- -- --- -- --- ------- -- - -----<br>---------- -- -- -- ---- ----- -- ------ -- --- ------<br>-------,150573.19999992847,150572.39999997616,150174.366,150173.60000002384,150191.038,150574.402,,5,Colombian
screen,html.Screen,0_4_1_0_1_6,2021-11-19T10:48:01.160Z,,,,,,,,,,,,,,,,48,,,,,,,,,,,,,,365.8979999523144,,response,,,10,C,,,,,Space,keypress(Space),,,,instrumental,-- -- --- ------ ------- --------- legislation --------<br>--------- -------- --- ------- -- ------- ---- -- ------<br>-- --- -------- -------- ---------- ---- ---- ---- ------<br>-- --------- -- ---- -- --- -- --- ------- -- - -----<br>---------- -- -- -- ---- ----- -- ------ -- --- ------<br>-------,150941,150940.29999995232,150557.732,150573.5,150574.402,150957.873,,6,legislation
screen,html.Screen,0_4_1_0_1_7,2021-11-19T10:48:03.616Z,,,,,,,,,,,,,,,,48,,,,,,,,,,,,,,2438.426999952324,,response,,,10,C,,,,,Space,keypress(Space),,,,instrumental,-- -- --- ------ ------- --------- ----------- requires<br>--------- -------- --- ------- -- ------- ---- -- ------<br>-- --- -------- -------- ---------- ---- ---- ---- ------<br>-- --------- -- ---- -- --- -- --- ------- -- - -----<br>---------- -- -- -- ---- ----- -- ------ -- --- ------<br>-------,153397.10000002384,153396.29999995232,150941.202,150941.29999995232,150957.873,153408.332,,7,requires
screen,html.Screen,0_4_1_0_1_8,2021-11-19T10:48:04.648Z,,,,,,,,,,,,,,,,48,,,,,,,,,,,,,,1019.9679999523214,,response,,,10,C,,,,,Space,keypress(Space),,,,instrumental,-- -- --- ------ ------- --------- ----------- --------<br>travelers -------- --- ------- -- ------- ---- -- ------<br>-- --- -------- -------- ---------- ---- ---- ---- ------<br>-- --------- -- ---- -- --- -- --- ------- -- - -----<br>---------- -- -- -- ---- ----- -- ------ -- --- ------<br>-------,154429.10000002384,154428.29999995232,153391.662,153397.39999997616,153408.332,154441.891,,8,travelers
screen,html.Screen,0_4_1_0_1_9,2021-11-19T10:48:05.064Z,,,,,,,,,,,,,,,,48,,,,,,,,,,,,,,402.30899992847117,,response,,,10,C,,,,,Space,keypress(Space),,,,instrumental,-- -- --- ------ ------- --------- ----------- --------<br>--------- entering --- ------- -- ------- ---- -- ------<br>-- --- -------- -------- ---------- ---- ---- ---- ------<br>-- --------- -- ---- -- --- -- --- ------- -- - -----<br>---------- -- -- -- ---- ----- -- ------ -- --- ------<br>-------,154845.10000002384,154844.19999992847,154425.221,154429.29999995232,154441.891,154858.834,,9,entering
screen,html.Screen,0_4_1_0_1_10,2021-11-19T10:48:05.720Z,,,,,,,,,,,,,,,,48,,,,,,,,,,,,,,641.2660000238393,,response,,,10,C,,,,,Space,keypress(Space),,,,instrumental,-- -- --- ------ ------- --------- ----------- --------<br>--------- -------- the ------- -- ------- ---- -- ------<br>-- --- -------- -------- ---------- ---- ---- ---- ------<br>-- --------- -- ---- -- --- -- --- ------- -- - -----<br>---------- -- -- -- ---- ----- -- ------ -- --- ------<br>-------,155500.79999995232,155500.10000002384,154842.164,154845.29999995232,154858.834,155508.937,,10,the
screen,html.Screen,0_4_1_0_1_11,2021-11-19T10:48:10.848Z,,,,,,,,,,,,,,,,48,,,,,,,,,,,,,,5119.462999976153,,response,,,10,C,,,,,Space,keypress(Space),,,,instrumental,-- -- --- ------ ------- --------- ----------- --------<br>--------- -------- --- country -- ------- ---- -- ------<br>-- --- -------- -------- ---------- ---- ---- ---- ------<br>-- --------- -- ---- -- --- -- --- ------- -- - -----<br>---------- -- -- -- ---- ----- -- ------ -- --- ------<br>-------,160629.19999992847,160628.39999997616,155492.267,155501.10000002384,155508.937,160644.052,,11,country
screen,html.Screen,0_4_1_0_1_12,2021-11-19T10:48:11.511Z,,,,,,,,,,,,,,,,48,,,,,,,,,,,,,,647.6479999284784,,response,,,10,C,,,,,Space,keypress(Space),,,,instrumental,-- -- --- ------ ------- --------- ----------- --------<br>--------- -------- --- ------- to ------- ---- -- ------<br>-- --- -------- -------- ---------- ---- ---- ---- ------<br>-- --------- -- ---- -- --- -- --- ------- -- - -----<br>---------- -- -- -- ---- ----- -- ------ -- --- ------<br>-------,161292.69999992847,161291.69999992847,160627.38,160629.39999997616,160644.052,161293.698,,12,to
screen,html.Screen,0_4_1_0_1_13,2021-11-19T10:48:11.847Z,,,,,,,,,,,,,,,,48,,,,,,,,,,,,,,334.1019999523123,,response,,,10,C,,,,,Space,keypress(Space),,,,instrumental,-- -- --- ------ ------- --------- ----------- --------<br>--------- -------- --- ------- -- declare ---- -- ------<br>-- --- -------- -------- ---------- ---- ---- ---- ------<br>-- --------- -- ---- -- --- -- --- ------- -- - -----<br>---------- -- -- -- ---- ----- -- ------ -- --- ------<br>-------,161628.60000002384,161627.79999995232,161277.028,161292.89999997616,161293.698,161643.861,,13,declare
screen,html.Screen,0_4_1_0_1_14,2021-11-19T10:48:12.423Z,,,,,,,,,,,,,,,,48,,,,,,,,,,,,,,559.9389999523119,,response,,,10,C,,,,,Space,keypress(Space),,,,instrumental,-- -- --- ------ ------- --------- ----------- --------<br>--------- -------- --- ------- -- ------- cash -- ------<br>-- --- -------- -------- ---------- ---- ---- ---- ------<br>-- --------- -- ---- -- --- -- --- ------- -- - -----<br>---------- -- -- -- ---- ----- -- ------ -- --- ------<br>-------,162204.69999992847,162203.79999995232,161627.191,161628.89999997616,161643.861,162210.82,,14,cash
screen,html.Screen,0_4_1_0_1_15,2021-11-19T10:48:12.847Z,,,,,,,,,,,,,,,,48,,,,,,,,,,,,,,416.9799999523093,,response,,,10,C,,,,,Space,keypress(Space),,,,instrumental,-- -- --- ------ ------- --------- ----------- --------<br>--------- -------- --- ------- -- ------- ---- in ------<br>-- --- -------- -------- ---------- ---- ---- ---- ------<br>-- --------- -- ---- -- --- -- --- ------- -- - -----<br>---------- -- -- -- ---- ----- -- ------ -- --- ------<br>-------,162628.60000002384,162627.79999995232,162194.148,162205,162210.82,162644.248,,15,in
screen,html.Screen,0_4_1_0_1_16,2021-11-19T10:48:13.231Z,,,,,,,,,,,,,,,,48,,,,,,,,,,,,,,367.4519999284821,,response,,,10,C,,,,,Space,keypress(Space),,,,instrumental,-- -- --- ------ ------- --------- ----------- --------<br>--------- -------- --- ------- -- ------- ---- -- excess<br>-- --- -------- -------- ---------- ---- ---- ---- ------<br>-- --------- -- ---- -- --- -- --- ------- -- - -----<br>---------- -- -- -- ---- ----- -- ------ -- --- ------<br>-------,163012.5,163011.69999992847,162627.577,162628.79999995232,162644.248,163027.594,,16,excess
screen,html.Screen,0_4_1_0_1_17,2021-11-19T10:48:14.399Z,,,,,,,,,,,,,,,,48,,,,,,,,,,,,,,1152.00600002383,,response,,,10,C,,,,,Space,keypress(Space),,,,instrumental,-- -- --- ------ ------- --------- ----------- --------<br>--------- -------- --- ------- -- ------- ---- -- ------<br>of --- -------- -------- ---------- ---- ---- ---- ------<br>-- --------- -- ---- -- --- -- --- ------- -- - -----<br>---------- -- -- -- ---- ----- -- ------ -- --- ------<br>-------,164180.39999997616,164179.60000002384,163010.924,163012.69999992847,163027.594,164194.532,,17,of
screen,html.Screen,0_4_1_0_1_18,2021-11-19T10:48:14.807Z,,,,,,,,,,,,,,,,48,,,,,,,,,,,,,,393.06800002383534,,response,,,10,C,,,,,Space,keypress(Space),,,,instrumental,-- -- --- ------ ------- --------- ----------- --------<br>--------- -------- --- ------- -- ------- ---- -- ------<br>-- ten -------- -------- ---------- ---- ---- ---- ------<br>-- --------- -- ---- -- --- -- --- ------- -- - -----<br>---------- -- -- -- ---- ----- -- ------ -- --- ------<br>-------,164588.5,164587.60000002384,164177.862,164180.60000002384,164194.532,164594.726,,18,ten
screen,html.Screen,0_4_1_0_1_19,2021-11-19T10:48:15.127Z,,,,,,,,,,,,,,,,48,,,,,,,,,,,,,,312.87400002384675,,response,,,10,C,,,,,Space,keypress(Space),,,,instrumental,-- -- --- ------ ------- --------- ----------- --------<br>--------- -------- --- ------- -- ------- ---- -- ------<br>-- --- thousand -------- ---------- ---- ---- ---- ------<br>-- --------- -- ---- -- --- -- --- ------- -- - -----<br>---------- -- -- -- ---- ----- -- ------ -- --- ------<br>-------,164908.39999997616,164907.60000002384,164578.055,164588.60000002384,164594.726,164911.423,,19,thousand
screen,html.Screen,0_4_1_0_1_20,2021-11-19T10:48:15.391Z,,,,,,,,,,,,,,,,48,,,,,,,,,,,,,,260.1770000238321,,response,,,10,C,,,,,Space,keypress(Space),,,,instrumental,-- -- --- ------ ------- --------- ----------- --------<br>--------- -------- --- ------- -- ------- ---- -- ------<br>-- --- -------- dollars. ---------- ---- ---- ---- ------<br>-- --------- -- ---- -- --- -- --- ------- -- - -----<br>---------- -- -- -- ---- ----- -- ------ -- --- ------<br>-------,165172.29999995232,165171.60000002384,164894.753,164908.69999992847,164911.423,165178.061,,20,dollars.
screen,html.Screen,0_4_1_0_1_21,2021-11-19T10:48:15.847Z,,,,,,,,,,,,,,,,48,,,,,,,,,,,,,,449.5390000238549,,response,,,10,C,,,,,Space,keypress(Space),,,,instrumental,-- -- --- ------ ------- --------- ----------- --------<br>--------- -------- --- ------- -- ------- ---- -- ------<br>-- --- -------- -------- Concealing ---- ---- ---- ------<br>-- --------- -- ---- -- --- -- --- ------- -- - -----<br>---------- -- -- -- ---- ----- -- ------ -- --- ------<br>-------,165628.39999997616,165627.60000002384,165161.393,165172.60000002384,165178.061,165645.03,,21,Concealing
screen,html.Screen,0_4_1_0_1_22,2021-11-19T10:48:16.223Z,,,,,,,,,,,,,,,,48,,,,,,,,,,,,,,358.570000023843,,response,,,10,C,,,,,Space,keypress(Space),,,,instrumental,-- -- --- ------ ------- --------- ----------- --------<br>--------- -------- --- ------- -- ------- ---- -- ------<br>-- --- -------- -------- ---------- more ---- ---- ------<br>-- --------- -- ---- -- --- -- --- ------- -- - -----<br>---------- -- -- -- ---- ----- -- ------ -- --- ------<br>-------,166004.29999995232,166003.60000002384,165628.358,165628.69999992847,165645.03,166011.579,,22,more
screen,html.Screen,0_4_1_0_1_23,2021-11-19T10:48:16.519Z,,,,,,,,,,,,,,,,48,,,,,,,,,,,,,,287.82099997616024,,response,,,10,C,,,,,Space,keypress(Space),,,,instrumental,-- -- --- ------ ------- --------- ----------- --------<br>--------- -------- --- ------- -- ------- ---- -- ------<br>-- --- -------- -------- ---------- ---- than ---- ------<br>-- --------- -- ---- -- --- -- --- ------- -- - -----<br>---------- -- -- -- ---- ----- -- ------ -- --- ------<br>-------,166300.19999992847,166299.39999997616,165994.911,166004.60000002384,166011.579,166311.849,,23,than
screen,html.Screen,0_4_1_0_1_24,2021-11-19T10:48:16.735Z,,,,,,,,,,,,,,,,48,,,,,,,,,,,,,,203.65100000001257,,response,,,10,C,,,,,Space,keypress(Space),,,,instrumental,-- -- --- ------ ------- --------- ----------- --------<br>--------- -------- --- ------- -- ------- ---- -- ------<br>-- --- -------- -------- ---------- ---- ---- that ------<br>-- --------- -- ---- -- --- -- --- ------- -- - -----<br>---------- -- -- -- ---- ----- -- ------ -- --- ------<br>-------,166516.29999995232,166515.5,166295.177,166300.5,166311.849,166528.542,,24,that
screen,html.Screen,0_4_1_0_1_25,2021-11-19T10:48:16.951Z,,,,,,,,,,,,,,,,48,,,,,,,,,,,,,,202.95800000001327,,response,,,10,C,,,,,Space,keypress(Space),,,,instrumental,-- -- --- ------ ------- --------- ----------- --------<br>--------- -------- --- ------- -- ------- ---- -- ------<br>-- --- -------- -------- ---------- ---- ---- ---- amount<br>-- --------- -- ---- -- --- -- --- ------- -- - -----<br>---------- -- -- -- ---- ----- -- ------ -- --- ------<br>-------,166732.29999995232,166731.5,166511.871,166516.5,166528.542,166745.144,,25,amount
screen,html.Screen,0_4_1_0_1_26,2021-11-19T10:48:17.527Z,,,,,,,,,,,,,,,,48,,,,,,,,,,,,,,562.3559999999998,,response,,,10,C,,,,,Space,keypress(Space),,,,instrumental,-- -- --- ------ ------- --------- ----------- --------<br>--------- -------- --- ------- -- ------- ---- -- ------<br>-- --- -------- -------- ---------- ---- ---- ---- ------<br>to --------- -- ---- -- --- -- --- ------- -- - -----<br>---------- -- -- -- ---- ----- -- ------ -- --- ------<br>-------,167308.29999995232,167307.5,166728.476,166732.60000002384,166745.144,167312.156,,26,to
screen,html.Screen,0_4_1_0_1_27,2021-11-19T10:48:17.807Z,,,,,,,,,,,,,,,,48,,,,,,,,,,,,,,275.3440000000119,,response,,,10,C,,,,,Space,keypress(Space),,,,instrumental,-- -- --- ------ ------- --------- ----------- --------<br>--------- -------- --- ------- -- ------- ---- -- ------<br>-- --- -------- -------- ---------- ---- ---- ---- ------<br>-- transport -- ---- -- --- -- --- ------- -- - -----<br>---------- -- -- -- ---- ----- -- ------ -- --- ------<br>-------,167588.29999995232,167587.5,167295.483,167308.60000002384,167312.156,167595.534,,27,transport
screen,html.Screen,0_4_1_0_1_28,2021-11-19T10:48:18.079Z,,,,,,,,,,,,,,,,48,,,,,,,,,,,,,,263.86599997614394,,response,,,10,C,,,,,Space,keypress(Space),,,,instrumental,-- -- --- ------ ------- --------- ----------- --------<br>--------- -------- --- ------- -- ------- ---- -- ------<br>-- --- -------- -------- ---------- ---- ---- ---- ------<br>-- --------- it ---- -- --- -- --- ------- -- - -----<br>---------- -- -- -- ---- ----- -- ------ -- --- ------<br>-------,167860.19999992847,167859.39999997616,167578.862,167588.5,167595.534,167862.163,,28,it
screen,html.Screen,0_4_1_0_1_29,2021-11-19T10:48:18.343Z,,,,,,,,,,,,,,,,48,,,,,,,,,,,,,,261.2369999761577,,response,,,10,C,,,,,Space,keypress(Space),,,,instrumental,-- -- --- ------ ------- --------- ----------- --------<br>--------- -------- --- ------- -- ------- ---- -- ------<br>-- --- -------- -------- ---------- ---- ---- ---- ------<br>-- --------- -- into -- --- -- --- ------- -- - -----<br>---------- -- -- -- ---- ----- -- ------ -- --- ------<br>-------,168124.29999995232,168123.39999997616,167845.493,167860.5,167862.163,168128.948,,29,into
screen,html.Screen,0_4_1_0_1_30,2021-11-19T10:48:18.599Z,,,,,,,,,,,,,,,,48,,,,,,,,,,,,,,250.35199995231233,,response,,,10,C,,,,,Space,keypress(Space),,,,instrumental,-- -- --- ------ ------- --------- ----------- --------<br>--------- -------- --- ------- -- ------- ---- -- ------<br>-- --- -------- -------- ---------- ---- ---- ---- ------<br>-- --------- -- ---- or --- -- --- ------- -- - -----<br>---------- -- -- -- ---- ----- -- ------ -- --- ------<br>-------,168380.19999992847,168379.29999995232,168112.277,168124.5,168128.948,168395.682,,30,or
screen,html.Screen,0_4_1_0_1_31,2021-11-19T10:48:18.887Z,,,,,,,,,,,,,,,,48,,,,,,,,,,,,,,271.71799997615744,,response,,,10,C,,,,,Space,keypress(Space),,,,instrumental,-- -- --- ------ ------- --------- ----------- --------<br>--------- -------- --- ------- -- ------- ---- -- ------<br>-- --- -------- -------- ---------- ---- ---- ---- ------<br>-- --------- -- ---- -- out -- --- ------- -- - -----<br>---------- -- -- -- ---- ----- -- ------ -- --- ------<br>-------,168668.19999992847,168667.39999997616,168379.011,168380.5,168395.682,168679.137,,31,out
screen,html.Screen,0_4_1_0_1_32,2021-11-19T10:48:19.127Z,,,,,,,,,,,,,,,,48,,,,,,,,,,,,,,228.26299997617025,,response,,,10,C,,,,,Space,keypress(Space),,,,instrumental,-- -- --- ------ ------- --------- ----------- --------<br>--------- -------- --- ------- -- ------- ---- -- ------<br>-- --- -------- -------- ---------- ---- ---- ---- ------<br>-- --------- -- ---- -- --- of --- ------- -- - -----<br>---------- -- -- -- ---- ----- -- ------ -- --- ------<br>-------,168908.19999992847,168907.39999997616,168662.465,168668.5,168679.137,168912.424,,32,of
screen,html.Screen,0_4_1_0_1_33,2021-11-19T10:48:19.399Z,,,,,,,,,,,,,,,,48,,,,,,,,,,,,,,266.8759999523172,,response,,,10,C,,,,,Space,keypress(Space),,,,instrumental,-- -- --- ------ ------- --------- ----------- --------<br>--------- -------- --- ------- -- ------- ---- -- ------<br>-- --- -------- -------- ---------- ---- ---- ---- ------<br>-- --------- -- ---- -- --- -- the ------- -- - -----<br>---------- -- -- -- ---- ----- -- ------ -- --- ------<br>-------,169180.10000002384,169179.29999995232,168895.755,168908.5,168912.424,169195.901,,33,the
screen,html.Screen,0_4_1_0_1_34,2021-11-19T10:48:19.663Z,,,,,,,,,,,,,,,,48,,,,,,,,,,,,,,247.49899997614557,,response,,,10,C,,,,,Space,keypress(Space),,,,instrumental,-- -- --- ------ ------- --------- ----------- --------<br>--------- -------- --- ------- -- ------- ---- -- ------<br>-- --- -------- -------- ---------- ---- ---- ---- ------<br>-- --------- -- ---- -- --- -- --- country -- - -----<br>---------- -- -- -- ---- ----- -- ------ -- --- ------<br>-------,169444.10000002384,169443.39999997616,169179.23,169180.29999995232,169195.901,169445.94,,34,country
screen,html.Screen,0_4_1_0_1_35,2021-11-19T10:48:20.039Z,,,,,,,,,,,,,,,,48,,,,,,,,,,,,,,373.35999995231396,,response,,,10,C,,,,,Space,keypress(Space),,,,instrumental,-- -- --- ------ ------- --------- ----------- --------<br>--------- -------- --- ------- -- ------- ---- -- ------<br>-- --- -------- -------- ---------- ---- ---- ---- ------<br>-- --------- -- ---- -- --- -- --- ------- is - -----<br>---------- -- -- -- ---- ----- -- ------ -- --- ------<br>-------,169820.10000002384,169819.29999995232,169429.27,169444.39999997616,169445.94,169829.355,,35,is
screen,html.Screen,0_4_1_0_1_36,2021-11-19T10:48:20.319Z,,,,,,,,,,,,,,,,48,,,,,,,,,,,,,,269.84499992846395,,response,,,10,C,,,,,Space,keypress(Space),,,,instrumental,-- -- --- ------ ------- --------- ----------- --------<br>--------- -------- --- ------- -- ------- ---- -- ------<br>-- --- -------- -------- ---------- ---- ---- ---- ------<br>-- --------- -- ---- -- --- -- --- ------- -- a -----<br>---------- -- -- -- ---- ----- -- ------ -- --- ------<br>-------,170100,170099.19999992847,169812.685,169820.29999995232,169829.355,170112.722,,36,a
screen,html.Screen,0_4_1_0_1_37,2021-11-19T10:48:20.567Z,,,,,,,,,,,,,,,,48,,,,,,,,,,,,,,234.57799995230744,,response,,,10,C,,,,,Space,keypress(Space),,,,instrumental,-- -- --- ------ ------- --------- ----------- --------<br>--------- -------- --- ------- -- ------- ---- -- ------<br>-- --- -------- -------- ---------- ---- ---- ---- ------<br>-- --------- -- ---- -- --- -- --- ------- -- - crime<br>---------- -- -- -- ---- ----- -- ------ -- --- ------<br>-------,170348.10000002384,170347.29999995232,170096.053,170100.29999995232,170112.722,170362.871,,37,crime
screen,html.Screen,0_4_1_0_1_38,2021-11-19T10:48:20.831Z,,,,,,,,,,,,,,,,48,,,,,,,,,,,,,,248.42899995230255,,response,,,10,C,,,,,Space,keypress(Space),,,,instrumental,-- -- --- ------ ------- --------- ----------- --------<br>--------- -------- --- ------- -- ------- ---- -- ------<br>-- --- -------- -------- ---------- ---- ---- ---- ------<br>-- --------- -- ---- -- --- -- --- ------- -- - -----<br>punishable -- -- -- ---- ----- -- ------ -- --- ------<br>-------,170612,170611.29999995232,170346.2,170348.39999997616,170362.871,170612.895,,38,punishable
screen,html.Screen,0_4_1_0_1_39,2021-11-19T10:48:21.103Z,,,,,,,,,,,,,,,,48,,,,,,,,,,,,,,270.8049999284849,,response,,,10,C,,,,,Space,keypress(Space),,,,instrumental,-- -- --- ------ ------- --------- ----------- --------<br>--------- -------- --- ------- -- ------- ---- -- ------<br>-- --- -------- -------- ---------- ---- ---- ---- ------<br>-- --------- -- ---- -- --- -- --- ------- -- - -----<br>---------- by -- -- ---- ----- -- ------ -- --- ------<br>-------,170884.5,170883.69999992847,170596.225,170612.29999995232,170612.895,170896.307,,39,by
screen,html.Screen,0_4_1_0_1_40,2021-11-19T10:48:21.375Z,,,,,,,,,,,,,,,,48,,,,,,,,,,,,,,258.9929999523156,,response,,,10,C,,,,,Space,keypress(Space),,,,instrumental,-- -- --- ------ ------- --------- ----------- --------<br>--------- -------- --- ------- -- ------- ---- -- ------<br>-- --- -------- -------- ---------- ---- ---- ---- ------<br>-- --------- -- ---- -- --- -- --- ------- -- - -----<br>---------- -- up -- ---- ----- -- ------ -- --- ------<br>-------,171156.10000002384,171155.29999995232,170879.637,170884.79999995232,170896.307,171163.026,,40,up
screen,html.Screen,0_4_1_0_1_41,2021-11-19T10:48:21.679Z,,,,,,,,,,,,,,,,48,,,,,,,,,,,,,,296.17399992846185,,response,,,10,C,,,,,Space,keypress(Space),,,,instrumental,-- -- --- ------ ------- --------- ----------- --------<br>--------- -------- --- ------- -- ------- ---- -- ------<br>-- --- -------- -------- ---------- ---- ---- ---- ------<br>-- --------- -- ---- -- --- -- --- ------- -- - -----<br>---------- -- -- to ---- ----- -- ------ -- --- ------<br>-------,171460,171459.19999992847,171146.356,171156.29999995232,171163.026,171463.138,,41,to
screen,html.Screen,0_4_1_0_1_42,2021-11-19T10:48:21.927Z,,,,,,,,,,,,,,,,48,,,,,,,,,,,,,,244.06199992846814,,response,,,10,C,,,,,Space,keypress(Space),,,,instrumental,-- -- --- ------ ------- --------- ----------- --------<br>--------- -------- --- ------- -- ------- ---- -- ------<br>-- --- -------- -------- ---------- ---- ---- ---- ------<br>-- --------- -- ---- -- --- -- --- ------- -- - -----<br>---------- -- -- -- five ----- -- ------ -- --- ------<br>-------,171708.10000002384,171707.19999992847,171446.467,171460.19999992847,171463.138,171713.179,,42,five
screen,html.Screen,0_4_1_0_1_43,2021-11-19T10:48:22.159Z,,,,,,,,,,,,,,,,48,,,,,,,,,,,,,,225.92100002383813,,response,,,10,C,,,,,Space,keypress(Space),,,,instrumental,-- -- --- ------ ------- --------- ----------- --------<br>--------- -------- --- ------- -- ------- ---- -- ------<br>-- --- -------- -------- ---------- ---- ---- ---- ------<br>-- --------- -- ---- -- --- -- --- ------- -- - -----<br>---------- -- -- -- ---- years -- ------ -- --- ------<br>-------,171939.79999995232,171939.10000002384,171696.509,171708.29999995232,171713.179,171946.58,,43,years
screen,html.Screen,0_4_1_0_1_44,2021-11-19T10:48:22.375Z,,,,,,,,,,,,,,,,48,,,,,,,,,,,,,,208.52000002385466,,response,,,10,C,,,,,Space,keypress(Space),,,,instrumental,-- -- --- ------ ------- --------- ----------- --------<br>--------- -------- --- ------- -- ------- ---- -- ------<br>-- --- -------- -------- ---------- ---- ---- ---- ------<br>-- --------- -- ---- -- --- -- --- ------- -- - -----<br>---------- -- -- -- ---- ----- in ------ -- --- ------<br>-------,172155.89999997616,172155.10000002384,171929.91,171940.10000002384,171946.58,172163.295,,44,in
screen,html.Screen,0_4_1_0_1_45,2021-11-19T10:48:22.607Z,,,,,,,,,,,,,,,,48,,,,,,,,,,,,,,223.90499992846162,,response,,,10,C,,,,,Space,keypress(Space),,,,instrumental,-- -- --- ------ ------- --------- ----------- --------<br>--------- -------- --- ------- -- ------- ---- -- ------<br>-- --- -------- -------- ---------- ---- ---- ---- ------<br>-- --------- -- ---- -- --- -- --- ------- -- - -----<br>---------- -- -- -- ---- ----- -- prison -- --- ------<br>-------,172388,172387.19999992847,172146.625,172156.29999995232,172163.295,172396.716,,45,prison
screen,html.Screen,0_4_1_0_1_46,2021-11-19T10:48:22.823Z,,,,,,,,,,,,,,,,48,,,,,,,,,,,,,,206.48399992848863,,response,,,10,C,,,,,Space,keypress(Space),,,,instrumental,-- -- --- ------ ------- --------- ----------- --------<br>--------- -------- --- ------- -- ------- ---- -- ------<br>-- --- -------- -------- ---------- ---- ---- ---- ------<br>-- --------- -- ---- -- --- -- --- ------- -- - -----<br>---------- -- -- -- ---- ----- -- ------ in --- ------<br>-------,172603.89999997616,172603.19999992847,172380.045,172388.19999992847,172396.716,172613.411,,46,in
screen,html.Screen,0_4_1_0_1_47,2021-11-19T10:48:23.031Z,,,,,,,,,,,,,,,,48,,,,,,,,,,,,,,197.78899992848164,,response,,,10,C,,,,,Space,keypress(Space),,,,instrumental,-- -- --- ------ ------- --------- ----------- --------<br>--------- -------- --- ------- -- ------- ---- -- ------<br>-- --- -------- -------- ---------- ---- ---- ---- ------<br>-- --------- -- ---- -- --- -- --- ------- -- - -----<br>---------- -- -- -- ---- ----- -- ------ -- the ------<br>-------,172811.89999997616,172811.19999992847,172596.741,172604.19999992847,172613.411,172813.499,,47,the
screen,html.Screen,0_4_1_0_1_48,2021-11-19T10:48:23.375Z,,,,,,,,,,,,,,,,48,,,,,,,,,,,,,,341.60100002383115,,response,,,10,C,,,,,Space,keypress(Space),,,,instrumental,-- -- --- ------ ------- --------- ----------- --------<br>--------- -------- --- ------- -- ------- ---- -- ------<br>-- --- -------- -------- ---------- ---- ---- ---- ------<br>-- --------- -- ---- -- --- -- --- ------- -- - -----<br>---------- -- -- -- ---- ----- -- ------ -- --- United<br>-------,173156,173155.10000002384,172796.828,172812.19999992847,172813.499,173163.59,,48,United
screen,html.Screen,0_4_1_0_1_49,2021-11-19T10:48:23.727Z,,,,,,,,,,,,,,,,48,,,,,,,,,,,,,,343.6099999284779,,response,,,10,C,,,,,Space,keypress(Space),,,,instrumental,-- -- --- ------ ------- --------- ----------- --------<br>--------- -------- --- ------- -- ------- ---- -- ------<br>-- --- -------- -------- ---------- ---- ---- ---- ------<br>-- --------- -- ---- -- --- -- --- ------- -- - -----<br>---------- -- -- -- ---- ----- -- ------ -- --- ------<br>States.,173508,173507.19999992847,173146.919,173156.29999995232,173163.59,173513.479,,49,States.
Item 10,flow.Loop,0_4_1_0_1,2021-11-19T10:48:23.727Z,,,,,,,,,,,,,,,,,,,,,,,,,,,,,,27617.43599992848,,completion,,,,,,,,,,,,,,,,173508.39999997616,173507.19999992847,145873.094,145874.69999992847,145889.764,173513.479,,,
Question 1,html.Screen,0_4_1_0_2,2021-11-19T10:48:29.457Z,,,,,,,,,,,,,,,,,,,,,,,,,,,true,TRUE,,5723.62100002385,,response,,,10,C,,,,,TRUE,click #choice-1,,,,instrumental,,179238.29999995232,179237.10000002384,173496.812,173508.60000002384,173513.479,179248.539,,,
Question 2,html.Screen,0_4_1_0_3,2021-11-19T10:48:32.377Z,,,,,,,,,,,,,,,,,,,,,,,,,,,true,TRUE,,2904.8609999761684,,response,,,10,C,,,,,TRUE,click #choice-1,,,,instrumental,,182154.5,182153.39999997616,179231.866,179238.5,179248.539,182165.906,,,
Item 10,flow.Sequence,0_4_1_0,2021-11-19T10:48:32.378Z,,,,,,,,,,,,,,,,,,,,,,,,,,,,,,43265.81299997616,,completion,,,,,,,,,,,,,,,,182155.89999997616,182153.39999997616,138870.917,138873.19999992847,138887.587,182165.906,,,
Holding screen,html.Screen,0_4_1_1_0,2021-11-19T10:48:39.375Z,,,,,,,,,,,,,,,,,,,,,,,,,,,,,,7001.6720000000205,,timeout,,,,,,,,,,,,,,,,189152.29999995232,189150.908,182149.235,182156.29999995232,182165.906,189167.578,,,
screen,html.Screen,0_4_1_1_1_0,2021-11-19T10:48:41.169Z,,,,,,,,,,,,,,,,15,,,,,,,,,,,,,,1778.6219999284658,,response,,,7,C,,,,,Space,keypress(Space),,,,instrumental,Greg --------- ---------- - --- ------- -- --- ------------<br>----- -- -------- ------- ---- ------ - -------- ---- -----<br>--- ------- ---- -- --- -------- --- - ----- ------ ---- --<br>-------- --- -------- -------- --- -------- ---- -- ----- -<br>-------- ---- --- ---------- --------- -- ------- ------ -<br>--------- ----- -----,190947.10000002384,190946.19999992847,189150.908,189152.60000002384,189167.578,190951.342,,0,Greg
screen,html.Screen,0_4_1_1_1_1,2021-11-19T10:48:41.465Z,,,,,,,,,,,,,,,,15,,,,,,,,,,,,,,290.85799992847024,,response,,,7,C,,,,,Space,keypress(Space),,,,instrumental,"---- Anderson, ---------- - --- ------- -- --- ------------<br>----- -- -------- ------- ---- ------ - -------- ---- -----<br>--- ------- ---- -- --- -------- --- - ----- ------ ---- --<br>-------- --- -------- -------- --- -------- ---- -- ----- -<br>-------- ---- --- ---------- --------- -- ------- ------ -<br>--------- ----- -----",191243,191242.19999992847,190934.672,190947.29999995232,190951.342,191251.525,,1,"Anderson,"
screen,html.Screen,0_4_1_1_1_2,2021-11-19T10:48:42.930Z,,,,,,,,,,,,,,,,15,,,,,,,,,,,,,,1454.9750000000058,,response,,,7,C,,,,,Space,keypress(Space),,,,instrumental,---- --------- considered - --- ------- -- --- ------------<br>----- -- -------- ------- ---- ------ - -------- ---- -----<br>--- ------- ---- -- --- -------- --- - ----- ------ ---- --<br>-------- --- -------- -------- --- -------- ---- -- ----- -<br>-------- ---- --- ---------- --------- -- ------- ------ -<br>--------- ----- -----,192707.29999995232,192706.5,191234.855,191243.29999995232,191251.525,192718.515,,2,considered
