sender,sender_type,sender_id,timestamp,meta,,Blues,Classical,Country,Dance,Electronic,Folk,Gospel,Hip-Hop,Jazz,Latin,Musical/Film,New-age,Pop,Provo_ID,R&B,Rap,Reggae,Religious,Rock,Soul,Swing,Traditional,age,artist_name,correct,correctResponse,distraction,duration,education,ended_on,familiarity,gender,item,list,music_frequency,offensiveness,pleasantness,preference,response,response_action,snippet_file,song_name,song_rating,sound,text,time_commit,time_end,time_render,time_run,time_show,time_switch,url,word,word_ID
Instructions,html.Page,0_0,2021-12-03T12:39:48.573Z,"{""labjs_version"":""20.2.3"",""labjs_build"":{""flavor"":""production"",""commit"":""7ea907d66ca8aeef8054924ca5d82ffbe11e34e5""},""location"":""https://run.pavlovia.org/mvasilev/lab_music_b/"",""userAgent"":""Mozilla/5.0 (Windows NT 6.1; Win64; x64) AppleWebKit/537.36 (KHTML, like Gecko) Chrome/96.0.4664.45 Safari/537.36"",""platform"":""Win32"",""language"":""en-US"",""locale"":""en-US"",""timeZone"":""Europe/London"",""timezoneOffset"":0,""screen_width"":1920,""screen_height"":1080,""scroll_width"":1920,""scroll_height"":959,""window_innerWidth"":1920,""window_innerHeight"":1007,""devicePixelRatio"":1}",,,,,,,,,,,,,,,,,,,,,,,,,,,,,18537.82099999702,,form submission,,,,,,,,,,,,,,,,28961.5,28960.29999999702,10389.139,10401.20000000298,10422.479,28961.437,{},,
Headphones,html.Page,0_1,2021-12-03T12:39:52.095Z,,,,,,,,,,,,,,,,,,,,,,,,,,,,,,3521.862999997018,,form submission,,,,,,,,,,,,,,,,32483.70000000298,32483.29999999702,28944.76,28962.20000000298,28961.437,32495.479,,,
Holding screen,html.Screen,0_2_0_0,2021-12-03T12:40:02.099Z,,,,,,,,,,,,,,,,,,,,,,,,,,,,,,10002.411,,timeout,,,,,,,,,,,,,,,,42487.59999999404,42481.221,32478.808,32484.20000000298,32495.479,42497.89,,,
screen,html.Screen,0_2_0_1_0,2021-12-03T12:40:02.830Z,,,,,,,,,,,,,,,,53,,,,,,,,,,,,,,719.6100000000006,,response,,,99,,,,,,Space,keypress(Space),,,,,When -- ----- -- ------ - ------- --- ----------<br>------------- ------ ------ ---- ---- ------- ----- -- ----<br>-------- ------- -- ---------- --- - --- ----- ----- ----<br>---- --- --- ----- --- ---- ---- ------- ----- ---- -------<br>--- --- -- ----- -- --- ---- -- --- ---- -- ------ ------<br>--- ----- -- ----,43218.79999999702,43217.5,42481.221,42488.09999999404,42497.89,43231.784,,0,When
screen,html.Screen,0_2_0_1_1,2021-12-03T12:40:03.246Z,,,,,,,,,,,,,,,,53,,,,,,,,,,,,,,401.61599999105965,,response,,,99,,,,,,Space,keypress(Space),,,,,---- it ----- -- ------ - ------- --- ----------<br>------------- ------ ------ ---- ---- ------- ----- -- ----<br>-------- ------- -- ---------- --- - --- ----- ----- ----<br>---- --- --- ----- --- ---- ---- ------- ----- ---- -------<br>--- --- -- ----- -- --- ---- -- --- ---- -- ------ ------<br>--- ----- -- ----,43634.29999999702,43633.39999999106,43215.112,43219.20000000298,43231.784,43648.299,,1,it
screen,html.Screen,0_2_0_1_2,2021-12-03T12:40:03.662Z,,,,,,,,,,,,,,,,53,,,,,,,,,,,,,,401.0009999970207,,response,,,99,,,,,,Space,keypress(Space),,,,,---- -- comes -- ------ - ------- --- ----------<br>------------- ------ ------ ---- ---- ------- ----- -- ----<br>-------- ------- -- ---------- --- - --- ----- ----- ----<br>---- --- --- ----- --- ---- ---- ------- ----- ---- -------<br>--- --- -- ----- -- --- ---- -- --- ---- -- ------ ------<br>--- ----- -- ----,44050.20000000298,44049.29999999702,43631.63,43634.5,43648.299,44065.283,,2,comes
screen,html.Screen,0_2_0_1_3,2021-12-03T12:40:04.190Z,,,,,,,,,,,,,,,,53,,,,,,,,,,,,,,512.1169999910562,,response,,,99,,,,,,Space,keypress(Space),,,,,---- -- ----- to ------ - ------- --- ----------<br>------------- ------ ------ ---- ---- ------- ----- -- ----<br>-------- ------- -- ---------- --- - --- ----- ----- ----<br>---- --- --- ----- --- ---- ---- ------- ----- ---- -------<br>--- --- -- ----- -- --- ---- -- --- ---- -- ------ ------<br>--- ----- -- ----,44578.29999999702,44577.39999999106,44048.611,44050.5,44065.283,44581.993,,3,to
screen,html.Screen,0_2_0_1_4,2021-12-03T12:40:04.702Z,,,,,,,,,,,,,,,,53,,,,,,,,,,,,,,507.30699999701756,,response,,,99,,,,,,Space,keypress(Space),,,,,---- -- ----- -- having - ------- --- ----------<br>------------- ------ ------ ---- ---- ------- ----- -- ----<br>-------- ------- -- ---------- --- - --- ----- ----- ----<br>---- --- --- ----- --- ---- ---- ------- ----- ---- -------<br>--- --- -- ----- -- --- ---- -- --- ---- -- ------ ------<br>--- ----- -- ----,45090.70000000298,45089.29999999702,44565.323,44578.70000000298,44581.993,45098.848,,4,having
screen,html.Screen,0_2_0_1_5,2021-12-03T12:40:05.117Z,,,,,,,,,,,,,,,,53,,,,,,,,,,,,,,406.05199999106117,,response,,,99,,,,,,Space,keypress(Space),,,,,---- -- ----- -- ------ a ------- --- ----------<br>------------- ------ ------ ---- ---- ------- ----- -- ----<br>-------- ------- -- ---------- --- - --- ----- ----- ----<br>---- --- --- ----- --- ---- ---- ------- ----- ---- -------<br>--- --- -- ----- -- --- ---- -- --- ---- -- ------ ------<br>--- ----- -- ----,45505.5,45504.89999999106,45082.177,45091,45098.848,45515.566,,5,a
screen,html.Screen,0_2_0_1_6,2021-12-03T12:40:05.654Z,,,,,,,,,,,,,,,,53,,,,,,,,,,,,,,525.7339999970209,,response,,,99,,,,,,Space,keypress(Space),,,,,---- -- ----- -- ------ - lasting --- ----------<br>------------- ------ ------ ---- ---- ------- ----- -- ----<br>-------- ------- -- ---------- --- - --- ----- ----- ----<br>---- --- --- ----- --- ---- ---- ------- ----- ---- -------<br>--- --- -- ----- -- --- ---- -- --- ---- -- ------ ------<br>--- ----- -- ----,46042.29999999702,46041.29999999702,45498.896,45505.70000000298,45515.566,46049.05,,6,lasting
screen,html.Screen,0_2_0_1_7,2021-12-03T12:40:06.294Z,,,,,,,,,,,,,,,,53,,,,,,,,,,,,,,632.2499999970169,,response,,,99,,,,,,Space,keypress(Space),,,,,---- -- ----- -- ------ - ------- and ----------<br>------------- ------ ------ ---- ---- ------- ----- -- ----<br>-------- ------- -- ---------- --- - --- ----- ----- ----<br>---- --- --- ----- --- ---- ---- ------- ----- ---- -------<br>--- --- -- ----- -- --- ---- -- --- ---- -- ------ ------<br>--- ----- -- ----,46682.20000000298,46681.29999999702,46032.38,46042.59999999404,46049.05,46699.12,,7,and
screen,html.Screen,0_2_0_1_8,2021-12-03T12:40:06.974Z,,,,,,,,,,,,,,,,53,,,,,,,,,,,,,,662.0800000029776,,response,,,99,,,,,,Space,keypress(Space),,,,,---- -- ----- -- ------ - ------- --- fulfilling<br>------------- ------ ------ ---- ---- ------- ----- -- ----<br>-------- ------- -- ---------- --- - --- ----- ----- ----<br>---- --- --- ----- --- ---- ---- ------- ----- ---- -------<br>--- --- -- ----- -- --- ---- -- --- ---- -- ------ ------<br>--- ----- -- ----,47362.39999999106,47361.20000000298,46682.451,46682.59999999404,46699.12,47366.116,,8,fulfilling
screen,html.Screen,0_2_0_1_9,2021-12-03T12:40:07.670Z,,,,,,,,,,,,,,,,53,,,,,,,,,,,,,,691.0840000029784,,response,,,99,,,,,,Space,keypress(Space),,,,,"---- -- ----- -- ------ - ------- --- ----------<br>relationship, ------ ------ ---- ---- ------- ----- -- ----<br>-------- ------- -- ---------- --- - --- ----- ----- ----<br>---- --- --- ----- --- ---- ---- ------- ----- ---- -------<br>--- --- -- ----- -- --- ---- -- --- ---- -- ------ ------<br>--- ----- -- ----",48058.09999999404,48057.20000000298,47349.445,47362.70000000298,47366.116,48066.306,,9,"relationship,"
screen,html.Screen,0_2_0_1_10,2021-12-03T12:40:08.318Z,,,,,,,,,,,,,,,,53,,,,,,,,,,,,,,638.8940000029834,,response,,,99,,,,,,Space,keypress(Space),,,,,---- -- ----- -- ------ - ------- --- ----------<br>------------- common ------ ---- ---- ------- ----- -- ----<br>-------- ------- -- ---------- --- - --- ----- ----- ----<br>---- --- --- ----- --- ---- ---- ------- ----- ---- -------<br>--- --- -- ----- -- --- ---- -- --- ---- -- ------ ------<br>--- ----- -- ----,48706.09999999404,48705.20000000298,48049.635,48058.39999999106,48066.306,48716.375,,10,common
screen,html.Screen,0_2_0_1_11,2021-12-03T12:40:08.742Z,,,,,,,,,,,,,,,,53,,,,,,,,,,,,,,412.72499999403954,,response,,,99,,,,,,Space,keypress(Space),,,,,---- -- ----- -- ------ - ------- --- ----------<br>------------- ------ wisdom ---- ---- ------- ----- -- ----<br>-------- ------- -- ---------- --- - --- ----- ----- ----<br>---- --- --- ----- --- ---- ---- ------- ----- ---- -------<br>--- --- -- ----- -- --- ---- -- --- ---- -- ------ ------<br>--- ----- -- ----,49130,49129.09999999404,48699.705,48706.39999999106,48716.375,49133.256,,11,wisdom
screen,html.Screen,0_2_0_1_12,2021-12-03T12:40:09.294Z,,,,,,,,,,,,,,,,53,,,,,,,,,,,,,,548.2439999999988,,response,,,99,,,,,,Space,keypress(Space),,,,,---- -- ----- -- ------ - ------- --- ----------<br>------------- ------ ------ says ---- ------- ----- -- ----<br>-------- ------- -- ---------- --- - --- ----- ----- ----<br>---- --- --- ----- --- ---- ---- ------- ----- ---- -------<br>--- --- -- ----- -- --- ---- -- --- ---- -- ------ ------<br>--- ----- -- ----,49682.29999999702,49681.5,49116.585,49130.39999999106,49133.256,49683.36,,12,says
screen,html.Screen,0_2_0_1_13,2021-12-03T12:40:09.934Z,,,,,,,,,,,,,,,,53,,,,,,,,,,,,,,637.739999994039,,response,,,99,,,,,,Space,keypress(Space),,,,,---- -- ----- -- ------ - ------- --- ----------<br>------------- ------ ------ ---- that ------- ----- -- ----<br>-------- ------- -- ---------- --- - --- ----- ----- ----<br>---- --- --- ----- --- ---- ---- ------- ----- ---- -------<br>--- --- -- ----- -- --- ---- -- --- ---- -- ------ ------<br>--- ----- -- ----,50321.89999999106,50321.09999999404,49666.69,49682.59999999404,49683.36,50333.51,,13,that
screen,html.Screen,0_2_0_1_14,2021-12-03T12:40:10.542Z,,,,,,,,,,,,,,,,53,,,,,,,,,,,,,,595.5899999940375,,response,,,99,,,,,,Space,keypress(Space),,,,,---- -- ----- -- ------ - ------- --- ----------<br>------------- ------ ------ ---- ---- feeling ----- -- ----<br>-------- ------- -- ---------- --- - --- ----- ----- ----<br>---- --- --- ----- --- ---- ---- ------- ----- ---- -------<br>--- --- -- ----- -- --- ---- -- --- ---- -- ------ ------<br>--- ----- -- ----,50929.89999999106,50929.09999999404,50316.84,50322.20000000298,50333.51,50933.74,,14,feeling
screen,html.Screen,0_2_0_1_15,2021-12-03T12:40:11.277Z,,,,,,,,,,,,,,,,53,,,,,,,,,,,,,,731.260000000002,,response,,,99,,,,,,Space,keypress(Space),,,,,---- -- ----- -- ------ - ------- --- ----------<br>------------- ------ ------ ---- ---- ------- close -- ----<br>-------- ------- -- ---------- --- - --- ----- ----- ----<br>---- --- --- ----- --- ---- ---- ------- ----- ---- -------<br>--- --- -- ----- -- --- ---- -- --- ---- -- ------ ------<br>--- ----- -- ----,51665.89999999106,51665,50917.069,50930.09999999404,50933.74,51667.216,,15,close
screen,html.Screen,0_2_0_1_16,2021-12-03T12:40:11.717Z,,,,,,,,,,,,,,,,53,,,,,,,,,,,,,,437.68399999105895,,response,,,99,,,,,,Space,keypress(Space),,,,,---- -- ----- -- ------ - ------- --- ----------<br>------------- ------ ------ ---- ---- ------- ----- to ----<br>-------- ------- -- ---------- --- - --- ----- ----- ----<br>---- --- --- ----- --- ---- ---- ------- ----- ---- -------<br>--- --- -- ----- -- --- ---- -- --- ---- -- ------ ------<br>--- ----- -- ----,52105.70000000298,52104.89999999106,51650.546,51666.09999999404,51667.216,52117.334,,16,to
screen,html.Screen,0_2_0_1_17,2021-12-03T12:40:12.261Z,,,,,,,,,,,,,,,,53,,,,,,,,,,,,,,531.5659999910567,,response,,,99,,,,,,Space,keypress(Space),,,,,---- -- ----- -- ------ - ------- --- ----------<br>------------- ------ ------ ---- ---- ------- ----- -- your<br>-------- ------- -- ---------- --- - --- ----- ----- ----<br>---- --- --- ----- --- ---- ---- ------- ----- ---- -------<br>--- --- -- ----- -- --- ---- -- --- ---- -- ------ ------<br>--- ----- -- ----,52649.70000000298,52648.89999999106,52100.664,52106,52117.334,52650.818,,17,your
screen,html.Screen,0_2_0_1_18,2021-12-03T12:40:12.981Z,,,,,,,,,,,,,,,,53,,,,,,,,,,,,,,718.1820000000007,,response,,,99,,,,,,Space,keypress(Space),,,,,---- -- ----- -- ------ - ------- --- ----------<br>------------- ------ ------ ---- ---- ------- ----- -- ----<br>romantic ------- -- ---------- --- - --- ----- ----- ----<br>---- --- --- ----- --- ---- ---- ------- ----- ---- -------<br>--- --- -- ----- -- --- ---- -- --- ---- -- ------ ------<br>--- ----- -- ----,53369.79999999702,53369,52634.148,52649.89999999106,52650.818,53384.316,,18,romantic
screen,html.Screen,0_2_0_1_19,2021-12-03T12:40:13.573Z,,,,,,,,,,,,,,,,53,,,,,,,,,,,,,,576.5839999910604,,response,,,99,,,,,,Space,keypress(Space),,,,,---- -- ----- -- ------ - ------- --- ----------<br>------------- ------ ------ ---- ---- ------- ----- -- ----<br>-------- partner -- ---------- --- - --- ----- ----- ----<br>---- --- --- ----- --- ---- ---- ------- ----- ---- -------<br>--- --- -- ----- -- --- ---- -- --- ---- -- ------ ------<br>--- ----- -- ----,53961.79999999702,53960.89999999106,53367.646,53370.09999999404,53384.316,53967.878,,19,partner
screen,html.Screen,0_2_0_1_20,2021-12-03T12:40:14.973Z,,,,,,,,,,,,,,,,53,,,,,,,,,,,,,,1393.0219999910623,,response,,,99,,,,,,Space,keypress(Space),,,,,---- -- ----- -- ------ - ------- --- ----------<br>------------- ------ ------ ---- ---- ------- ----- -- ----<br>-------- ------- is ---------- --- - --- ----- ----- ----<br>---- --- --- ----- --- ---- ---- ------- ----- ---- -------<br>--- --- -- ----- -- --- ---- -- --- ---- -- ------ ------<br>--- ----- -- ----,55361.70000000298,55360.89999999106,53951.207,53962.20000000298,53967.878,55368.152,,20,is
screen,html.Screen,0_2_0_1_21,2021-12-03T12:40:15.709Z,,,,,,,,,,,,,,,,53,,,,,,,,,,,,,,728.6479999970179,,response,,,99,,,,,,Space,keypress(Space),,,,,---- -- ----- -- ------ - ------- --- ----------<br>------------- ------ ------ ---- ---- ------- ----- -- ----<br>-------- ------- -- paramount. --- - --- ----- ----- ----<br>---- --- --- ----- --- ---- ---- ------- ----- ---- -------<br>--- --- -- ----- -- --- ---- -- --- ---- -- ------ ------<br>--- ----- -- ----,56097.59999999404,56096.79999999702,55351.482,55361.89999999106,55368.152,56101.689,,21,paramount.
screen,html.Screen,0_2_0_1_22,2021-12-03T12:40:16.189Z,,,,,,,,,,,,,,,,53,,,,,,,,,,,,,,475.1109999970213,,response,,,99,,,,,,Space,keypress(Space),,,,,---- -- ----- -- ------ - ------- --- ----------<br>------------- ------ ------ ---- ---- ------- ----- -- ----<br>-------- ------- -- ---------- But - --- ----- ----- ----<br>---- --- --- ----- --- ---- ---- ------- ----- ---- -------<br>--- --- -- ----- -- --- ---- -- --- ---- -- ------ ------<br>--- ----- -- ----,56577.59999999404,56576.79999999702,56085.019,56098,56101.689,56585.102,,22,But
screen,html.Screen,0_2_0_1_23,2021-12-03T12:40:16.693Z,,,,,,,,,,,,,,,,53,,,,,,,,,,,,,,495.79799999106035,,response,,,99,,,,,,Space,keypress(Space),,,,,---- -- ----- -- ------ - ------- --- ----------<br>------------- ------ ------ ---- ---- ------- ----- -- ----<br>-------- ------- -- ---------- --- a --- ----- ----- ----<br>---- --- --- ----- --- ---- ---- ------- ----- ---- -------<br>--- --- -- ----- -- --- ---- -- --- ---- -- ------ ------<br>--- ----- -- ----,57081.59999999404,57080.89999999106,56568.432,56577.79999999702,56585.102,57085.417,,23,a
screen,html.Screen,0_2_0_1_24,2021-12-03T12:40:17.157Z,,,,,,,,,,,,,,,,53,,,,,,,,,,,,,,459.3829999970185,,response,,,99,,,,,,Space,keypress(Space),,,,,---- -- ----- -- ------ - ------- --- ----------<br>------------- ------ ------ ---- ---- ------- ----- -- ----<br>-------- ------- -- ---------- --- - new ----- ----- ----<br>---- --- --- ----- --- ---- ---- ------- ----- ---- -------<br>--- --- -- ----- -- --- ---- -- --- ---- -- ------ ------<br>--- ----- -- ----,57545.59999999404,57544.79999999702,57068.745,57081.89999999106,57085.417,57552.107,,24,new
screen,html.Screen,0_2_0_1_25,2021-12-03T12:40:17.677Z,,,,,,,,,,,,,,,,53,,,,,,,,,,,,,,512.5930000029766,,response,,,99,,,,,,Space,keypress(Space),,,,,---- -- ----- -- ------ - ------- --- ----------<br>------------- ------ ------ ---- ---- ------- ----- -- ----<br>-------- ------- -- ---------- --- - --- study ----- ----<br>---- --- --- ----- --- ---- ---- ------- ----- ---- -------<br>--- --- -- ----- -- --- ---- -- --- ---- -- ------ ------<br>--- ----- -- ----,58065.5,58064.70000000298,57535.437,57545.79999999702,57552.107,58068.919,,25,study
screen,html.Screen,0_2_0_1_26,2021-12-03T12:40:18.261Z,,,,,,,,,,,,,,,,53,,,,,,,,,,,,,,579.8809999970181,,response,,,99,,,,,,Space,keypress(Space),,,,,---- -- ----- -- ------ - ------- --- ----------<br>------------- ------ ------ ---- ---- ------- ----- -- ----<br>-------- ------- -- ---------- --- - --- ----- finds ----<br>---- --- --- ----- --- ---- ---- ------- ----- ---- -------<br>--- --- -- ----- -- --- ---- -- --- ---- -- ------ ------<br>--- ----- -- ----,58649.5,58648.79999999702,58052.249,58065.79999999702,58068.919,58652.285,,26,finds
screen,html.Screen,0_2_0_1_27,2021-12-03T12:40:18.973Z,,,,,,,,,,,,,,,,53,,,,,,,,,,,,,,708.4150000029767,,response,,,99,,,,,,Space,keypress(Space),,,,,---- -- ----- -- ------ - ------- --- ----------<br>------------- ------ ------ ---- ---- ------- ----- -- ----<br>-------- ------- -- ---------- --- - --- ----- ----- that<br>---- --- --- ----- --- ---- ---- ------- ----- ---- -------<br>--- --- -- ----- -- --- ---- -- --- ---- -- ------ ------<br>--- ----- -- ----,59361.39999999106,59360.70000000298,58635.616,58649.79999999702,58652.285,59369.389,,27,that
screen,html.Screen,0_2_0_1_28,2021-12-03T12:40:19.502Z,,,,,,,,,,,,,,,,53,,,,,,,,,,,,,,519.8110000029774,,response,,,99,,,,,,Space,keypress(Space),,,,,---- -- ----- -- ------ - ------- --- ----------<br>------------- ------ ------ ---- ---- ------- ----- -- ----<br>-------- ------- -- ---------- --- - --- ----- ----- ----<br>it's --- --- ----- --- ---- ---- ------- ----- ---- -------<br>--- --- -- ----- -- --- ---- -- --- ---- -- ------ ------<br>--- ----- -- ----,59890,59889.20000000298,59352.717,59361.70000000298,59369.389,59902.741,,28,it's
screen,html.Screen,0_2_0_1_29,2021-12-03T12:40:19.920Z,,,,,,,,,,,,,,,,53,,,,,,,,,,,,,,401.85899999403773,,response,,,99,,,,,,Space,keypress(Space),,,,,---- -- ----- -- ------ - ------- --- ----------<br>------------- ------ ------ ---- ---- ------- ----- -- ----<br>-------- ------- -- ---------- --- - --- ----- ----- ----<br>---- not --- ----- --- ---- ---- ------- ----- ---- -------<br>--- --- -- ----- -- --- ---- -- --- ---- -- ------ ------<br>--- ----- -- ----,60305.79999999702,60304.59999999404,59886.071,59890.20000000298,59902.741,60319.511,,29,not
screen,html.Screen,0_2_0_1_30,2021-12-03T12:40:20.536Z,,,,,,,,,,,,,,,,53,,,,,,,,,,,,,,601.0889999940409,,response,,,99,,,,,,Space,keypress(Space),,,,,---- -- ----- -- ------ - ------- --- ----------<br>------------- ------ ------ ---- ---- ------- ----- -- ----<br>-------- ------- -- ---------- --- - --- ----- ----- ----<br>---- --- how ----- --- ---- ---- ------- ----- ---- -------<br>--- --- -- ----- -- --- ---- -- --- ---- -- ------ ------<br>--- ----- -- ----,60921.39999999106,60920.59999999404,60302.841,60306,60319.511,60936.221,,30,how
screen,html.Screen,0_2_0_1_31,2021-12-03T12:40:21.096Z,,,,,,,,,,,,,,,,53,,,,,,,,,,,,,,544.2790000000023,,response,,,99,,,,,,Space,keypress(Space),,,,,---- -- ----- -- ------ - ------- --- ----------<br>------------- ------ ------ ---- ---- ------- ----- -- ----<br>-------- ------- -- ---------- --- - --- ----- ----- ----<br>---- --- --- close --- ---- ---- ------- ----- ---- -------<br>--- --- -- ----- -- --- ---- -- --- ---- -- ------ ------<br>--- ----- -- ----,61481.29999999702,61480.5,60919.552,60921.59999999404,60936.221,61486.665,,31,close
screen,html.Screen,0_2_0_1_32,2021-12-03T12:40:21.584Z,,,,,,,,,,,,,,,,53,,,,,,,,,,,,,,481.8349999999991,,response,,,99,,,,,,Space,keypress(Space),,,,,---- -- ----- -- ------ - ------- --- ----------<br>------------- ------ ------ ---- ---- ------- ----- -- ----<br>-------- ------- -- ---------- --- - --- ----- ----- ----<br>---- --- --- ----- you ---- ---- ------- ----- ---- -------<br>--- --- -- ----- -- --- ---- -- --- ---- -- ------ ------<br>--- ----- -- ----,61969.29999999702,61968.5,61469.992,61481.59999999404,61486.665,61986.677,,32,you
screen,html.Screen,0_2_0_1_33,2021-12-03T12:40:22.192Z,,,,,,,,,,,,,,,,53,,,,,,,,,,,,,,589.8229999999967,,response,,,99,,,,,,Space,keypress(Space),,,,,---- -- ----- -- ------ - ------- --- ----------<br>------------- ------ ------ ---- ---- ------- ----- -- ----<br>-------- ------- -- ---------- --- - --- ----- ----- ----<br>---- --- --- ----- --- feel ---- ------- ----- ---- -------<br>--- --- -- ----- -- --- ---- -- --- ---- -- ------ ------<br>--- ----- -- ----,62577.29999999702,62576.5,61970.006,61969.59999999404,61986.677,62586.788,,33,feel
screen,html.Screen,0_2_0_1_34,2021-12-03T12:40:22.720Z,,,,,,,,,,,,,,,,53,,,,,,,,,,,,,,517.7119999999995,,response,,,99,,,,,,Space,keypress(Space),,,,,---- -- ----- -- ------ - ------- --- ----------<br>------------- ------ ------ ---- ---- ------- ----- -- ----<br>-------- ------- -- ---------- --- - --- ----- ----- ----<br>---- --- --- ----- --- ---- that ------- ----- ---- -------<br>--- --- -- ----- -- --- ---- -- --- ---- -- ------ ------<br>--- ----- -- ----,63105.29999999702,63104.5,62570.118,62577.5,62586.788,63120.269,,34,that
screen,html.Screen,0_2_0_1_35,2021-12-03T12:40:23.368Z,,,,,,,,,,,,,,,,53,,,,,,,,,,,,,,632.2309999999998,,response,,,99,,,,,,Space,keypress(Space),,,,,---- -- ----- -- ------ - ------- --- ----------<br>------------- ------ ------ ---- ---- ------- ----- -- ----<br>-------- ------- -- ---------- --- - --- ----- ----- ----<br>---- --- --- ----- --- ---- ---- matters ----- ---- -------<br>--- --- -- ----- -- --- ---- -- --- ---- -- ------ ------<br>--- ----- -- ----,63753.29999999702,63752.5,63103.599,63105.5,63120.269,63770.377,,35,matters
screen,html.Screen,0_2_0_1_36,2021-12-03T12:40:24.104Z,,,,,,,,,,,,,,,,53,,,,,,,,,,,,,,718.0229999910589,,response,,,99,,,,,,Space,keypress(Space),,,,,"---- -- ----- -- ------ - ------- --- ----------<br>------------- ------ ------ ---- ---- ------- ----- -- ----<br>-------- ------- -- ---------- --- - --- ----- ----- ----<br>---- --- --- ----- --- ---- ---- ------- most, ---- -------<br>--- --- -- ----- -- --- ---- -- --- ---- -- ------ ------<br>--- ----- -- ----",64489.39999999106,64488.39999999106,63753.707,63753.5,63770.377,64504,,36,"most,"
screen,html.Screen,0_2_0_1_37,2021-12-03T12:40:24.616Z,,,,,,,,,,,,,,,,53,,,,,,,,,,,,,,496.3999999910593,,response,,,99,,,,,,Space,keypress(Space),,,,,---- -- ----- -- ------ - ------- --- ----------<br>------------- ------ ------ ---- ---- ------- ----- -- ----<br>-------- ------- -- ---------- --- - --- ----- ----- ----<br>---- --- --- ----- --- ---- ---- ------- ----- it's -------<br>--- --- -- ----- -- --- ---- -- --- ---- -- ------ ------<br>--- ----- -- ----,65001.20000000298,65000.39999999106,64487.329,64489.70000000298,64504,65004.029,,37,it's
screen,html.Screen,0_2_0_1_38,2021-12-03T12:40:25.136Z,,,,,,,,,,,,,,,,53,,,,,,,,,,,,,,516.370999991057,,response,,,99,,,,,,Space,keypress(Space),,,,,---- -- ----- -- ------ - ------- --- ----------<br>------------- ------ ------ ---- ---- ------- ----- -- ----<br>-------- ------- -- ---------- --- - --- ----- ----- ----<br>---- --- --- ----- --- ---- ---- ------- ----- ---- whether<br>--- --- -- ----- -- --- ---- -- --- ---- -- ------ ------<br>--- ----- -- ----,65521.20000000298,65520.39999999106,64987.359,65001.39999999106,65004.029,65537.623,,38,whether
screen,html.Screen,0_2_0_1_39,2021-12-03T12:40:25.591Z,,,,,,,,,,,,,,,,53,,,,,,,,,,,,,,438.6769999970129,,response,,,99,,,,,,Space,keypress(Space),,,,,---- -- ----- -- ------ - ------- --- ----------<br>------------- ------ ------ ---- ---- ------- ----- -- ----<br>-------- ------- -- ---------- --- - --- ----- ----- ----<br>---- --- --- ----- --- ---- ---- ------- ----- ---- -------<br>you --- -- ----- -- --- ---- -- --- ---- -- ------ ------<br>--- ----- -- ----,65977,65976.29999999702,65520.952,65521.39999999106,65537.623,65987.668,,39,you
screen,html.Screen,0_2_0_1_40,2021-12-03T12:40:25.991Z,,,,,,,,,,,,,,,,53,,,,,,,,,,,,,,388.63199999701465,,response,,,99,,,,,,Space,keypress(Space),,,,,---- -- ----- -- ------ - ------- --- ----------<br>------------- ------ ------ ---- ---- ------- ----- -- ----<br>-------- ------- -- ---------- --- - --- ----- ----- ----<br>---- --- --- ----- --- ---- ---- ------- ----- ---- -------<br>--- are -- ----- -- --- ---- -- --- ---- -- ------ ------<br>--- ----- -- ----,66377,66376.29999999702,65970.998,65977.29999999702,65987.668,66387.836,,40,are
screen,html.Screen,0_2_0_1_41,2021-12-03T12:40:26.463Z,,,,,,,,,,,,,,,,53,,,,,,,,,,,,,,460.4639999970241,,response,,,99,,,,,,Space,keypress(Space),,,,,---- -- ----- -- ------ - ------- --- ----------<br>------------- ------ ------ ---- ---- ------- ----- -- ----<br>-------- ------- -- ---------- --- - --- ----- ----- ----<br>---- --- --- ----- --- ---- ---- ------- ----- ---- -------<br>--- --- as ----- -- --- ---- -- --- ---- -- ------ ------<br>--- ----- -- ----,66849.09999999404,66848.29999999702,66371.165,66377.29999999702,66387.836,66854.638,,41,as
screen,html.Screen,0_2_0_1_42,2021-12-03T12:40:26.983Z,,,,,,,,,,,,,,,,53,,,,,,,,,,,,,,513.6619999970135,,response,,,99,,,,,,Space,keypress(Space),,,,,---- -- ----- -- ------ - ------- --- ----------<br>------------- ------ ------ ---- ---- ------- ----- -- ----<br>-------- ------- -- ---------- --- - --- ----- ----- ----<br>---- --- --- ----- --- ---- ---- ------- ----- ---- -------<br>--- --- -- close -- --- ---- -- --- ---- -- ------ ------<br>--- ----- -- ----,67369.09999999404,67368.29999999702,66837.967,66849.29999999702,66854.638,67371.246,,42,close
screen,html.Screen,0_2_0_1_43,2021-12-03T12:40:27.495Z,,,,,,,,,,,,,,,,53,,,,,,,,,,,,,,509.0539999970206,,response,,,99,,,,,,Space,keypress(Space),,,,,---- -- ----- -- ------ - ------- --- ----------<br>------------- ------ ------ ---- ---- ------- ----- -- ----<br>-------- ------- -- ---------- --- - --- ----- ----- ----<br>---- --- --- ----- --- ---- ---- ------- ----- ---- -------<br>--- --- -- ----- as --- ---- -- --- ---- -- ------ ------<br>--- ----- -- ----,67881.09999999404,67880.29999999702,67354.578,67369.29999999702,67371.246,67888.298,,43,as
screen,html.Screen,0_2_0_1_44,2021-12-03T12:40:27.975Z,,,,,,,,,,,,,,,,53,,,,,,,,,,,,,,471.902000002985,,response,,,99,,,,,,Space,keypress(Space),,,,,---- -- ----- -- ------ - ------- --- ----------<br>------------- ------ ------ ---- ---- ------- ----- -- ----<br>-------- ------- -- ---------- --- - --- ----- ----- ----<br>---- --- --- ----- --- ---- ---- ------- ----- ---- -------<br>--- --- -- ----- -- you ---- -- --- ---- -- ------ ------<br>--- ----- -- ----,68361,68360.20000000298,67871.626,67881.20000000298,67888.298,68371.638,,44,you
screen,html.Screen,0_2_0_1_45,2021-12-03T12:40:28.431Z,,,,,,,,,,,,,,,,53,,,,,,,,,,,,,,444.56200000297395,,response,,,99,,,,,,Space,keypress(Space),,,,,---- -- ----- -- ------ - ------- --- ----------<br>------------- ------ ------ ---- ---- ------- ----- -- ----<br>-------- ------- -- ---------- --- - --- ----- ----- ----<br>---- --- --- ----- --- ---- ---- ------- ----- ---- -------<br>--- --- -- ----- -- --- want -- --- ---- -- ------ ------<br>--- ----- -- ----,68817,68816.20000000298,68354.968,68361.20000000298,68371.638,68821.665,,45,want
screen,html.Screen,0_2_0_1_46,2021-12-03T12:40:28.863Z,,,,,,,,,,,,,,,,53,,,,,,,,,,,,,,426.53500000298664,,response,,,99,,,,,,Space,keypress(Space),,,,,---- -- ----- -- ------ - ------- --- ----------<br>------------- ------ ------ ---- ---- ------- ----- -- ----<br>-------- ------- -- ---------- --- - --- ----- ----- ----<br>---- --- --- ----- --- ---- ---- ------- ----- ---- -------<br>--- --- -- ----- -- --- ---- to --- ---- -- ------ ------<br>--- ----- -- ----,69248.89999999106,69248.20000000298,68804.996,68817.20000000298,68821.665,69255.19,,46,to
screen,html.Screen,0_2_0_1_47,2021-12-03T12:40:29.800Z,,,,,,,,,,,,,,,,53,,,,,,,,,,,,,,929.3099999999977,,response,,,99,,,,,,Space,keypress(Space),,,,,"---- -- ----- -- ------ - ------- --- ----------<br>------------- ------ ------ ---- ---- ------- ----- -- ----<br>-------- ------- -- ---------- --- - --- ----- ----- ----<br>---- --- --- ----- --- ---- ---- ------- ----- ---- -------<br>--- --- -- ----- -- --- ---- -- be, ---- -- ------ ------<br>--- ----- -- ----",70185.39999999106,70184.5,69238.52,69249.20000000298,69255.19,70188.94,,47,"be,"
screen,html.Screen,0_2_0_1_48,2021-12-03T12:40:30.207Z,,,,,,,,,,,,,,,,53,,,,,,,,,,,,,,403.1599999940372,,response,,,99,,,,,,Space,keypress(Space),,,,,---- -- ----- -- ------ - ------- --- ----------<br>------------- ------ ------ ---- ---- ------- ----- -- ----<br>-------- ------- -- ---------- --- - --- ----- ----- ----<br>---- --- --- ----- --- ---- ---- ------- ----- ---- -------<br>--- --- -- ----- -- --- ---- -- --- even -- ------ ------<br>--- ----- -- ----,70592.89999999106,70592.09999999404,70172.268,70185.59999999404,70188.94,70605.544,,48,even
screen,html.Screen,0_2_0_1_49,2021-12-03T12:40:30.655Z,,,,,,,,,,,,,,,,53,,,,,,,,,,,,,,434.5559999940451,,response,,,99,,,,,,Space,keypress(Space),,,,,---- -- ----- -- ------ - ------- --- ----------<br>------------- ------ ------ ---- ---- ------- ----- -- ----<br>-------- ------- -- ---------- --- - --- ----- ----- ----<br>---- --- --- ----- --- ---- ---- ------- ----- ---- -------<br>--- --- -- ----- -- --- ---- -- --- ---- if ------ ------<br>--- ----- -- ----,71040.79999999702,71040.09999999404,70588.874,70593.09999999404,70605.544,71055.741,,49,if
screen,html.Screen,0_2_0_1_50,2021-12-03T12:40:31.183Z,,,,,,,,,,,,,,,,53,,,,,,,,,,,,,,512.4590000029857,,response,,,99,,,,,,Space,keypress(Space),,,,,---- -- ----- -- ------ - ------- --- ----------<br>------------- ------ ------ ---- ---- ------- ----- -- ----<br>-------- ------- -- ---------- --- - --- ----- ----- ----<br>---- --- --- ----- --- ---- ---- ------- ----- ---- -------<br>--- --- -- ----- -- --- ---- -- --- ---- -- that's ------<br>--- ----- -- ----,71569,71568.20000000298,71039.07,71041.09999999404,71055.741,71572.511,,50,that's
screen,html.Screen,0_2_0_1_51,2021-12-03T12:40:32.351Z,,,,,,,,,,,,,,,,53,,,,,,,,,,,,,,1163.588999994041,,response,,,99,,,,,,Space,keypress(Space),,,,,---- -- ----- -- ------ - ------- --- ----------<br>------------- ------ ------ ---- ---- ------- ----- -- ----<br>-------- ------- -- ---------- --- - --- ----- ----- ----<br>---- --- --- ----- --- ---- ---- ------- ----- ---- -------<br>--- --- -- ----- -- --- ---- -- --- ---- -- ------ really<br>--- ----- -- ----,72736.89999999106,72736.09999999404,71555.841,71569.09999999404,71572.511,72739.53,,51,really
screen,html.Screen,0_2_0_1_52,2021-12-03T12:40:32.927Z,,,,,,,,,,,,,,,,53,,,,,,,,,,,,,,572.5699999940407,,response,,,99,,,,,,Space,keypress(Space),,,,,---- -- ----- -- ------ - ------- --- ----------<br>------------- ------ ------ ---- ---- ------- ----- -- ----<br>-------- ------- -- ---------- --- - --- ----- ----- ----<br>---- --- --- ----- --- ---- ---- ------- ----- ---- -------<br>--- --- -- ----- -- --- ---- -- --- ---- -- ------ ------<br>not ----- -- ----,73312.89999999106,73312.09999999404,72722.859,72737,72739.53,73322.769,,52,not
screen,html.Screen,0_2_0_1_53,2021-12-03T12:40:33.687Z,,,,,,,,,,,,,,,,53,,,,,,,,,,,,,,749.3309999940393,,response,,,99,,,,,,Space,keypress(Space),,,,,---- -- ----- -- ------ - ------- --- ----------<br>------------- ------ ------ ---- ---- ------- ----- -- ----<br>-------- ------- -- ---------- --- - --- ----- ----- ----<br>---- --- --- ----- --- ---- ---- ------- ----- ---- -------<br>--- --- -- ----- -- --- ---- -- --- ---- -- ------ ------<br>--- close -- ----,74072.79999999702,74072.09999999404,73306.1,73313.09999999404,73322.769,74089.871,,53,close
screen,html.Screen,0_2_0_1_54,2021-12-03T12:40:34.079Z,,,,,,,,,,,,,,,,53,,,,,,,,,,,,,,374.1290000000008,,response,,,99,,,,,,Space,keypress(Space),,,,,---- -- ----- -- ------ - ------- --- ----------<br>------------- ------ ------ ---- ---- ------- ----- -- ----<br>-------- ------- -- ---------- --- - --- ----- ----- ----<br>---- --- --- ----- --- ---- ---- ------- ----- ---- -------<br>--- --- -- ----- -- --- ---- -- --- ---- -- ------ ------<br>--- ----- at ----,74464.79999999702,74464,74073.2,74073,74089.871,74473.367,,54,at
screen,html.Screen,0_2_0_1_55,2021-12-03T12:40:35.263Z,,,,,,,,,,,,,,,,53,,,,,,,,,,,,,,1174.6330000000016,,response,,,99,,,,,,Space,keypress(Space),,,,,---- -- ----- -- ------ - ------- --- ----------<br>------------- ------ ------ ---- ---- ------- ----- -- ----<br>-------- ------- -- ---------- --- - --- ----- ----- ----<br>---- --- --- ----- --- ---- ---- ------- ----- ---- -------<br>--- --- -- ----- -- --- ---- -- --- ---- -- ------ ------<br>--- ----- -- all.,75648.79999999702,75648,74456.696,74465,74473.367,75656.86,,55,all.
Item 99,flow.Loop,0_2_0_1,2021-12-03T12:40:35.268Z,,,,,,,,,,,,,,,,,,,,,,,,,,,,,,33150.11,,completion,,,,B,,,,,,,,,,silence,,75653.29999999702,75648,42481.221,42488,42497.89,75656.86,,,
Question 1,html.Screen,0_2_0_2,2021-12-03T12:40:47.975Z,,,,,,,,,,,,,,,,,,,,,,,,,,,true,FALSE,,12702.34000000298,,response,,,99,B,,,,,FALSE,click #choice-2,,,,silence,,88360.59999999404,88359.20000000298,75640.19,75653.59999999404,75656.86,88377.017,,,
Question 2,html.Screen,0_2_0_3,2021-12-03T12:40:53.542Z,,,,,,,,,,,,,,,,,,,,,,,,,,,true,TRUE,,5549.982999999993,,response,,,99,B,,,,,TRUE,click #choice-1,,,,silence,,93928.09999999404,93927,88343.675,88360.89999999106,88377.017,93928.452,,,
Item 99,flow.Sequence,0_2_0,2021-12-03T12:40:53.543Z,,,,,,,,,,,,,,,,,,,,,,,,,,,,,,61431.521,,completion,,,,,,,,,,,,,,,,93928.5,93927,32478.808,32484.20000000298,32495.479,93928.452,,,
Holding screen,html.Screen,0_2_1_0,2021-12-03T12:41:03.530Z,,,,,,,,,,,,,,,,,,,,,,,,,,,,,,10002.50499999999,,timeout,,,,,,,,,,,,,,,,103915.89999999106,103914.287,93911.782,93928.79999999702,93928.452,103930.957,,,
screen,html.Screen,0_2_1_1_0,2021-12-03T12:41:04.510Z,,,,,,,,,,,,,,,,54,,,,,,,,,,,,,,964.1429999940447,,response,,,100,,,,,,Space,keypress(Space),,,,,At --- ---- --- ------ ----- ------- ---- -- --- ------- --<br>------- ---------- ------ -- ----- -- ----- -- ---- ------<br>--- ----- --- --- ------ -------- ----- --- ------ ----- --<br>----- ----- ---------- --- --- ------ ------ ---- -- ------<br>------- --- ------ ----- --- ---- ------- -- ---- --- --<br>------- ------,104895.89999999106,104895.09999999404,103914.287,103916.29999999702,103930.957,104898.035,,0,At
screen,html.Screen,0_2_1_1_1,2021-12-03T12:41:04.998Z,,,,,,,,,,,,,,,,54,,,,,,,,,,,,,,484.56499999403604,,response,,,100,,,,,,Space,keypress(Space),,,,,-- the ---- --- ------ ----- ------- ---- -- --- ------- --<br>------- ---------- ------ -- ----- -- ----- -- ---- ------<br>--- ----- --- --- ------ -------- ----- --- ------ ----- --<br>----- ----- ---------- --- --- ------ ------ ---- -- ------<br>------- --- ------ ----- --- ---- ------- -- ---- --- --<br>------- ------,105383.39999999106,105382.59999999404,104881.364,104896.09999999404,104898.035,105398.136,,1,the
screen,html.Screen,0_2_1_1_2,2021-12-03T12:41:05.566Z,,,,,,,,,,,,,,,,54,,,,,,,,,,,,,,552.3640000000014,,response,,,100,,,,,,Space,keypress(Space),,,,,-- --- time --- ------ ----- ------- ---- -- --- ------- --<br>------- ---------- ------ -- ----- -- ----- -- ---- ------<br>--- ----- --- --- ------ -------- ----- --- ------ ----- --<br>----- ----- ---------- --- --- ------ ------ ---- -- ------<br>------- --- ------ ----- --- ---- ------- -- ---- --- --<br>------- ------,105951.29999999702,105950.5,105381.466,105383.70000000298,105398.136,105965.035,,2,time
screen,html.Screen,0_2_1_1_3,2021-12-03T12:41:06.086Z,,,,,,,,,,,,,,,,54,,,,,,,,,,,,,,505.56499999403604,,response,,,100,,,,,,Space,keypress(Space),,,,,-- --- ---- the ------ ----- ------- ---- -- --- ------- --<br>------- ---------- ------ -- ----- -- ----- -- ---- ------<br>--- ----- --- --- ------ -------- ----- --- ------ ----- --<br>----- ----- ---------- --- --- ------ ------ ---- -- ------<br>------- --- ------ ----- --- ---- ------- -- ---- --- --<br>------- ------,106471.29999999702,106470.59999999404,105948.364,105951.5,105965.035,106481.753,,3,the
screen,html.Screen,0_2_1_1_4,2021-12-03T12:41:06.598Z,,,,,,,,,,,,,,,,54,,,,,,,,,,,,,,500.747000000003,,response,,,100,,,,,,Space,keypress(Space),,,,,-- --- ---- --- French ----- ------- ---- -- --- ------- --<br>------- ---------- ------ -- ----- -- ----- -- ---- ------<br>--- ----- --- --- ------ -------- ----- --- ------ ----- --<br>----- ----- ---------- --- --- ------ ------ ---- -- ------<br>------- --- ------ ----- --- ---- ------- -- ---- --- --<br>------- ------,106983.20000000298,106982.5,106465.083,106471.5,106481.753,106998.64,,4,French
screen,html.Screen,0_2_1_1_5,2021-12-03T12:41:07.294Z,,,,,,,,,,,,,,,,54,,,,,,,,,,,,,,679.8600000000006,,response,,,100,,,,,,Space,keypress(Space),,,,,-- --- ---- --- ------ crown ------- ---- -- --- ------- --<br>------- ---------- ------ -- ----- -- ----- -- ---- ------<br>--- ----- --- --- ------ -------- ----- --- ------ ----- --<br>----- ----- ---------- --- --- ------ ------ ---- -- ------<br>------- --- ------ ----- --- ---- ------- -- ---- --- --<br>------- ------,107679.20000000298,107678.5,106981.969,106984.89999999106,106998.64,107682.087,,5,crown
screen,html.Screen,0_2_1_1_6,2021-12-03T12:41:07.821Z,,,,,,,,,,,,,,,,54,,,,,,,,,,,,,,524.3129999910598,,response,,,100,,,,,,Space,keypress(Space),,,,,-- --- ---- --- ------ ----- secured ---- -- --- ------- --<br>------- ---------- ------ -- ----- -- ----- -- ---- ------<br>--- ----- --- --- ------ -------- ----- --- ------ ----- --<br>----- ----- ---------- --- --- ------ ------ ---- -- ------<br>------- --- ------ ----- --- ---- ------- -- ---- --- --<br>------- ------,108207.09999999404,108206.39999999106,107665.417,107679.39999999106,107682.087,108215.448,,6,secured
screen,html.Screen,0_2_1_1_7,2021-12-03T12:41:08.638Z,,,,,,,,,,,,,,,,54,,,,,,,,,,,,,,806.9519999910553,,response,,,100,,,,,,Space,keypress(Space),,,,,-- --- ---- --- ------ ----- ------- much -- --- ------- --<br>------- ---------- ------ -- ----- -- ----- -- ---- ------<br>--- ----- --- --- ------ -------- ----- --- ------ ----- --<br>----- ----- ---------- --- --- ------ ------ ---- -- ------<br>------- --- ------ ----- --- ---- ------- -- ---- --- --<br>------- ------,109023.20000000298,109022.39999999106,108198.779,108207.29999999702,108215.448,109032.494,,7,much
screen,html.Screen,0_2_1_1_8,2021-12-03T12:41:10.477Z,,,,,,,,,,,,,,,,54,,,,,,,,,,,,,,1829.8059999970137,,response,,,100,,,,,,Space,keypress(Space),,,,,-- --- ---- --- ------ ----- ------- ---- of --- ------- --<br>------- ---------- ------ -- ----- -- ----- -- ---- ------<br>--- ----- --- --- ------ -------- ----- --- ------ ----- --<br>----- ----- ---------- --- --- ------ ------ ---- -- ------<br>------- --- ------ ----- --- ---- ------- -- ---- --- --<br>------- ------,110863.09999999404,110862.29999999702,109015.823,109023.39999999106,109032.494,110866.2,,8,of
screen,html.Screen,0_2_1_1_9,2021-12-03T12:41:11.013Z,,,,,,,,,,,,,,,,54,,,,,,,,,,,,,,532.0999999970227,,response,,,100,,,,,,Space,keypress(Space),,,,,-- --- ---- --- ------ ----- ------- ---- -- its ------- --<br>------- ---------- ------ -- ----- -- ----- -- ---- ------<br>--- ----- --- --- ------ -------- ----- --- ------ ----- --<br>----- ----- ---------- --- --- ------ ------ ---- -- ------<br>------- --- ------ ----- --- ---- ------- -- ---- --- --<br>------- ------,111399,111398.29999999702,110849.53,110863.29999999702,110866.2,111416.34,,9,its
screen,html.Screen,0_2_1_1_10,2021-12-03T12:41:11.813Z,,,,,,,,,,,,,,,,54,,,,,,,,,,,,,,781.9599999970233,,response,,,100,,,,,,Space,keypress(Space),,,,,-- --- ---- --- ------ ----- ------- ---- -- --- revenue --<br>------- ---------- ------ -- ----- -- ----- -- ---- ------<br>--- ----- --- --- ------ -------- ----- --- ------ ----- --<br>----- ----- ---------- --- --- ------ ------ ---- -- ------<br>------- --- ------ ----- --- ---- ------- -- ---- --- --<br>------- ------,112199,112198.29999999702,111399.67,111399.29999999702,111416.34,112216.544,,10,revenue
screen,html.Screen,0_2_1_1_11,2021-12-03T12:41:12.389Z,,,,,,,,,,,,,,,,54,,,,,,,,,,,,,,557.7559999970254,,response,,,100,,,,,,Space,keypress(Space),,,,,-- --- ---- --- ------ ----- ------- ---- -- --- ------- by<br>------- ---------- ------ -- ----- -- ----- -- ---- ------<br>--- ----- --- --- ------ -------- ----- --- ------ ----- --<br>----- ----- ---------- --- --- ------ ------ ---- -- ------<br>------- --- ------ ----- --- ---- ------- -- ---- --- --<br>------- ------,112775,112774.29999999702,112199.874,112199.29999999702,112216.544,112783.571,,11,by
screen,html.Screen,0_2_1_1_12,2021-12-03T12:41:12.989Z,,,,,,,,,,,,,,,,54,,,,,,,,,,,,,,590.629000002984,,response,,,100,,,,,,Space,keypress(Space),,,,,-- --- ---- --- ------ ----- ------- ---- -- --- ------- --<br>issuing ---------- ------ -- ----- -- ----- -- ---- ------<br>--- ----- --- --- ------ -------- ----- --- ------ ----- --<br>----- ----- ---------- --- --- ------ ------ ---- -- ------<br>------- --- ------ ----- --- ---- ------- -- ---- --- --<br>------- ------,113375,113374.20000000298,112766.899,112775.20000000298,112783.571,113383.658,,12,issuing
screen,html.Screen,0_2_1_1_13,2021-12-03T12:41:13.661Z,,,,,,,,,,,,,,,,54,,,,,,,,,,,,,,662.2419999910635,,response,,,100,,,,,,Space,keypress(Space),,,,,-- --- ---- --- ------ ----- ------- ---- -- --- ------- --<br>------- government ------ -- ----- -- ----- -- ---- ------<br>--- ----- --- --- ------ -------- ----- --- ------ ----- --<br>----- ----- ---------- --- --- ------ ------ ---- -- ------<br>------- --- ------ ----- --- ---- ------- -- ---- --- --<br>------- ------,114046.39999999106,114045.89999999106,113366.987,113375.09999999404,113383.658,114050.428,,13,government
screen,html.Screen,0_2_1_1_14,2021-12-03T12:41:14.766Z,,,,,,,,,,,,,,,,54,,,,,,,,,,,,,,1099.9719999910594,,response,,,100,,,,,,Space,keypress(Space),,,,,-- --- ---- --- ------ ----- ------- ---- -- --- ------- --<br>------- ---------- bonds. -- ----- -- ----- -- ---- ------<br>--- ----- --- --- ------ -------- ----- --- ------ ----- --<br>----- ----- ---------- --- --- ------ ------ ---- -- ------<br>------- --- ------ ----- --- ---- ------- -- ---- --- --<br>------- ------,115151.20000000298,115150.39999999106,114033.758,114046.5,114050.428,115167.394,,14,bonds.
screen,html.Screen,0_2_1_1_15,2021-12-03T12:41:15.285Z,,,,,,,,,,,,,,,,54,,,,,,,,,,,,,,502.7059999940393,,response,,,100,,,,,,Space,keypress(Space),,,,,-- --- ---- --- ------ ----- ------- ---- -- --- ------- --<br>------- ---------- ------ In ----- -- ----- -- ---- ------<br>--- ----- --- --- ------ -------- ----- --- ------ ----- --<br>----- ----- ---------- --- --- ------ ------ ---- -- ------<br>------- --- ------ ----- --- ---- ------- -- ---- --- --<br>------- ------,115670.89999999106,115670.09999999404,115150.724,115151.5,115167.394,115684.234,,15,In
screen,html.Screen,0_2_1_1_16,2021-12-03T12:41:16.397Z,,,,,,,,,,,,,,,,54,,,,,,,,,,,,,,1097.8659999940428,,response,,,100,,,,,,Space,keypress(Space),,,,,"-- --- ---- --- ------ ----- ------- ---- -- --- ------- --<br>------- ---------- ------ -- 1727, -- ----- -- ---- ------<br>--- ----- --- --- ------ -------- ----- --- ------ ----- --<br>----- ----- ---------- --- --- ------ ------ ---- -- ------<br>------- --- ------ ----- --- ---- ------- -- ---- --- --<br>------- ------",116782.79999999702,116782.09999999404,115667.564,115671.09999999404,115684.234,116784.492,,16,"1727,"
screen,html.Screen,0_2_1_1_17,2021-12-03T12:41:17.493Z,,,,,,,,,,,,,,,,54,,,,,,,,,,,,,,1093.5080000000016,,response,,,100,,,,,,Space,keypress(Space),,,,,-- --- ---- --- ------ ----- ------- ---- -- --- ------- --<br>------- ---------- ------ -- ----- in ----- -- ---- ------<br>--- ----- --- --- ------ -------- ----- --- ------ ----- --<br>----- ----- ---------- --- --- ------ ------ ---- -- ------<br>------- --- ------ ----- --- ---- ------- -- ---- --- --<br>------- ------,117878.79999999702,117878,116767.822,116783,116784.492,117884.766,,17,in
screen,html.Screen,0_2_1_1_18,2021-12-03T12:41:18.133Z,,,,,,,,,,,,,,,,54,,,,,,,,,,,,,,633.0339999970165,,response,,,100,,,,,,Space,keypress(Space),,,,,-- --- ---- --- ------ ----- ------- ---- -- --- ------- --<br>------- ---------- ------ -- ----- -- order -- ---- ------<br>--- ----- --- --- ------ -------- ----- --- ------ ----- --<br>----- ----- ---------- --- --- ------ ------ ---- -- ------<br>------- --- ------ ----- --- ---- ------- -- ---- --- --<br>------- ------,118518.79999999702,118517.79999999702,117868.096,117879.09999999404,117884.766,118534.868,,18,order
screen,html.Screen,0_2_1_1_19,2021-12-03T12:41:18.613Z,,,,,,,,,,,,,,,,54,,,,,,,,,,,,,,462.93199999701756,,response,,,100,,,,,,Space,keypress(Space),,,,,-- --- ---- --- ------ ----- ------- ---- -- --- ------- --<br>------- ---------- ------ -- ----- -- ----- to ---- ------<br>--- ----- --- --- ------ -------- ----- --- ------ ----- --<br>----- ----- ---------- --- --- ------ ------ ---- -- ------<br>------- --- ------ ----- --- ---- ------- -- ---- --- --<br>------- ------,118998.59999999404,118997.79999999702,118518.198,118519,118534.868,119001.822,,19,to
screen,html.Screen,0_2_1_1_20,2021-12-03T12:41:20.136Z,,,,,,,,,,,,,,,,54,,,,,,,,,,,,,,1515.9779999970197,,response,,,100,,,,,,Space,keypress(Space),,,,,-- --- ---- --- ------ ----- ------- ---- -- --- ------- --<br>------- ---------- ------ -- ----- -- ----- -- save ------<br>--- ----- --- --- ------ -------- ----- --- ------ ----- --<br>----- ----- ---------- --- --- ------ ------ ---- -- ------<br>------- --- ------ ----- --- ---- ------- -- ---- --- --<br>------- ------,120518.70000000298,120517.79999999702,118985.151,118998.79999999702,119001.822,120535.563,,20,save
screen,html.Screen,0_2_1_1_21,2021-12-03T12:41:20.800Z,,,,,,,,,,,,,,,,54,,,,,,,,,,,,,,646.2369999970251,,response,,,100,,,,,,Space,keypress(Space),,,,,"-- --- ---- --- ------ ----- ------- ---- -- --- ------- --<br>------- ---------- ------ -- ----- -- ----- -- ---- money,<br>--- ----- --- --- ------ -------- ----- --- ------ ----- --<br>----- ----- ---------- --- --- ------ ------ ---- -- ------<br>------- --- ------ ----- --- ---- ------- -- ---- --- --<br>------- ------",121182.59999999404,121181.79999999702,120518.892,120518.89999999106,120535.563,121185.687,,21,"money,"
screen,html.Screen,0_2_1_1_22,2021-12-03T12:41:21.304Z,,,,,,,,,,,,,,,,54,,,,,,,,,,,,,,500.1129999970144,,response,,,100,,,,,,Space,keypress(Space),,,,,-- --- ---- --- ------ ----- ------- ---- -- --- ------- --<br>------- ---------- ------ -- ----- -- ----- -- ---- ------<br>the ----- --- --- ------ -------- ----- --- ------ ----- --<br>----- ----- ---------- --- --- ------ ------ ---- -- ------<br>------- --- ------ ----- --- ---- ------- -- ---- --- --<br>------- ------,121686.5,121685.79999999702,121169.017,121182.79999999702,121185.687,121702.465,,22,the
screen,html.Screen,0_2_1_1_23,2021-12-03T12:41:21.896Z,,,,,,,,,,,,,,,,54,,,,,,,,,,,,,,575.2350000029837,,response,,,100,,,,,,Space,keypress(Space),,,,,-- --- ---- --- ------ ----- ------- ---- -- --- ------- --<br>------- ---------- ------ -- ----- -- ----- -- ---- ------<br>--- state --- --- ------ -------- ----- --- ------ ----- --<br>----- ----- ---------- --- --- ------ ------ ---- -- ------<br>------- --- ------ ----- --- ---- ------- -- ---- --- --<br>------- ------,122278.39999999106,122277.70000000298,121685.795,121686.79999999702,121702.465,122286.04,,23,state
screen,html.Screen,0_2_1_1_24,2021-12-03T12:41:22.936Z,,,,,,,,,,,,,,,,54,,,,,,,,,,,,,,1031.7599999970262,,response,,,100,,,,,,Space,keypress(Space),,,,,-- --- ---- --- ------ ----- ------- ---- -- --- ------- --<br>------- ---------- ------ -- ----- -- ----- -- ---- ------<br>--- ----- cut --- ------ -------- ----- --- ------ ----- --<br>----- ----- ---------- --- --- ------ ------ ---- -- ------<br>------- --- ------ ----- --- ---- ------- -- ---- --- --<br>------- ------,123318.5,123317.79999999702,122269.369,122278.70000000298,122286.04,123319.534,,24,cut
screen,html.Screen,0_2_1_1_25,2021-12-03T12:41:23.520Z,,,,,,,,,,,,,,,,54,,,,,,,,,,,,,,582.1660000029806,,response,,,100,,,,,,Space,keypress(Space),,,,,-- --- ---- --- ------ ----- ------- ---- -- --- ------- --<br>------- ---------- ------ -- ----- -- ----- -- ---- ------<br>--- ----- --- the ------ -------- ----- --- ------ ----- --<br>----- ----- ---------- --- --- ------ ------ ---- -- ------<br>------- --- ------ ----- --- ---- ------- -- ---- --- --<br>------- ------,123902.5,123901.70000000298,123302.864,123318.70000000298,123319.534,123919.674,,25,the
screen,html.Screen,0_2_1_1_26,2021-12-03T12:41:24.168Z,,,,,,,,,,,,,,,,54,,,,,,,,,,,,,,630.0260000029812,,response,,,100,,,,,,Space,keypress(Space),,,,,-- --- ---- --- ------ ----- ------- ---- -- --- ------- --<br>------- ---------- ------ -- ----- -- ----- -- ---- ------<br>--- ----- --- --- bonds' -------- ----- --- ------ ----- --<br>----- ----- ---------- --- --- ------ ------ ---- -- ------<br>------- --- ------ ----- --- ---- ------- -- ---- --- --<br>------- ------,124550.39999999106,124549.70000000298,123903.004,123902.70000000298,123919.674,124553.302,,26,bonds'
screen,html.Screen,0_2_1_1_27,2021-12-03T12:41:24.639Z,,,,,,,,,,,,,,,,54,,,,,,,,,,,,,,468.3980000029842,,response,,,100,,,,,,Space,keypress(Space),,,,,-- --- ---- --- ------ ----- ------- ---- -- --- ------- --<br>------- ---------- ------ -- ----- -- ----- -- ---- ------<br>--- ----- --- --- ------ interest ----- --- ------ ----- --<br>----- ----- ---------- --- --- ------ ------ ---- -- ------<br>------- --- ------ ----- --- ---- ------- -- ---- --- --<br>------- ------,125022.39999999106,125021.70000000298,124536.631,124550.70000000298,124553.302,125036.725,,27,interest
screen,html.Screen,0_2_1_1_28,2021-12-03T12:41:25.600Z,,,,,,,,,,,,,,,,54,,,,,,,,,,,,,,945.574999997014,,response,,,100,,,,,,Space,keypress(Space),,,,,-- --- ---- --- ------ ----- ------- ---- -- --- ------- --<br>------- ---------- ------ -- ----- -- ----- -- ---- ------<br>--- ----- --- --- ------ -------- rate. --- ------ ----- --<br>----- ----- ---------- --- --- ------ ------ ---- -- ------<br>------- --- ------ ----- --- ---- ------- -- ---- --- --<br>------- ------,125983.20000000298,125982.29999999702,125020.055,125022.59999999404,125036.725,125986.913,,28,rate.
screen,html.Screen,0_2_1_1_29,2021-12-03T12:41:26.743Z,,,,,,,,,,,,,,,,54,,,,,,,,,,,,,,1138.686999994039,,response,,,100,,,,,,Space,keypress(Space),,,,,-- --- ---- --- ------ ----- ------- ---- -- --- ------- --<br>------- ---------- ------ -- ----- -- ----- -- ---- ------<br>--- ----- --- --- ------ -------- ----- The ------ ----- --<br>----- ----- ---------- --- --- ------ ------ ---- -- ------<br>------- --- ------ ----- --- ---- ------- -- ---- --- --<br>------- ------,127126.29999999702,127125.59999999404,125970.243,125983.29999999702,125986.913,127137.315,,29,The
screen,html.Screen,0_2_1_1_30,2021-12-03T12:41:29.151Z,,,,,,,,,,,,,,,,54,,,,,,,,,,,,,,2396.1849999999977,,response,,,100,,,,,,Space,keypress(Space),,,,,-- --- ---- --- ------ ----- ------- ---- -- --- ------- --<br>------- ---------- ------ -- ----- -- ----- -- ---- ------<br>--- ----- --- --- ------ -------- ----- --- market ----- --<br>----- ----- ---------- --- --- ------ ------ ---- -- ------<br>------- --- ------ ----- --- ---- ------- -- ---- --- --<br>------- ------,129534.29999999702,129533.5,127120.644,127126.59999999404,127137.315,129537.708,,30,market
screen,html.Screen,0_2_1_1_31,2021-12-03T12:41:29.871Z,,,,,,,,,,,,,,,,54,,,,,,,,,,,,,,715.6919999910606,,response,,,100,,,,,,Space,keypress(Space),,,,,-- --- ---- --- ------ ----- ------- ---- -- --- ------- --<br>------- ---------- ------ -- ----- -- ----- -- ---- ------<br>--- ----- --- --- ------ -------- ----- --- ------ value --<br>----- ----- ---------- --- --- ------ ------ ---- -- ------<br>------- --- ------ ----- --- ---- ------- -- ---- --- --<br>------- ------,130254.20000000298,130253.39999999106,129521.038,129534.5,129537.708,130271.431,,31,value
screen,html.Screen,0_2_1_1_32,2021-12-03T12:41:30.383Z,,,,,,,,,,,,,,,,54,,,,,,,,,,,,,,493.96899999106245,,response,,,100,,,,,,Space,keypress(Space),,,,,-- --- ---- --- ------ ----- ------- ---- -- --- ------- --<br>------- ---------- ------ -- ----- -- ----- -- ---- ------<br>--- ----- --- --- ------ -------- ----- --- ------ ----- of<br>----- ----- ---------- --- --- ------ ------ ---- -- ------<br>------- --- ------ ----- --- ---- ------- -- ---- --- --<br>------- ------,130766.09999999404,130765.39999999106,130254.76,130254.5,130271.431,130771.503,,32,of
screen,html.Screen,0_2_1_1_33,2021-12-03T12:41:30.911Z,,,,,,,,,,,,,,,,54,,,,,,,,,,,,,,521.8969999910623,,response,,,100,,,,,,Space,keypress(Space),,,,,-- --- ---- --- ------ ----- ------- ---- -- --- ------- --<br>------- ---------- ------ -- ----- -- ----- -- ---- ------<br>--- ----- --- --- ------ -------- ----- --- ------ ----- --<br>these ----- ---------- --- --- ------ ------ ---- -- ------<br>------- --- ------ ----- --- ---- ------- -- ---- --- --<br>------- ------,131294.20000000298,131293.39999999106,130754.833,130766.5,130771.503,131305.165,,33,these
screen,html.Screen,0_2_1_1_34,2021-12-03T12:41:31.463Z,,,,,,,,,,,,,,,,54,,,,,,,,,,,,,,540.2349999910512,,response,,,100,,,,,,Space,keypress(Space),,,,,-- --- ---- --- ------ ----- ------- ---- -- --- ------- --<br>------- ---------- ------ -- ----- -- ----- -- ---- ------<br>--- ----- --- --- ------ -------- ----- --- ------ ----- --<br>----- bonds ---------- --- --- ------ ------ ---- -- ------<br>------- --- ------ ----- --- ---- ------- -- ---- --- --<br>------- ------,131846.09999999404,131845.39999999106,131288.493,131294.5,131305.165,131855.187,,34,bonds
screen,html.Screen,0_2_1_1_35,2021-12-03T12:41:33.095Z,,,,,,,,,,,,,,,,54,,,,,,,,,,,,,,1622.0130000029749,,response,,,100,,,,,,Space,keypress(Space),,,,,"-- --- ---- --- ------ ----- ------- ---- -- --- ------- --<br>------- ---------- ------ -- ----- -- ----- -- ---- ------<br>--- ----- --- --- ------ -------- ----- --- ------ ----- --<br>----- ----- plummeted, --- --- ------ ------ ---- -- ------<br>------- --- ------ ----- --- ---- ------- -- ---- --- --<br>------- ------",133478.20000000298,133477.20000000298,131838.517,131846.39999999106,131855.187,133488.865,,35,"plummeted,"
screen,html.Screen,0_2_1_1_36,2021-12-03T12:41:33.783Z,,,,,,,,,,,,,,,,54,,,,,,,,,,,,,,676.3350000029895,,response,,,100,,,,,,Space,keypress(Space),,,,,-- --- ---- --- ------ ----- ------- ---- -- --- ------- --<br>------- ---------- ------ -- ----- -- ----- -- ---- ------<br>--- ----- --- --- ------ -------- ----- --- ------ ----- --<br>----- ----- ---------- and --- ------ ------ ---- -- ------<br>------- --- ------ ----- --- ---- ------- -- ---- --- --<br>------- ------,134166,134165.20000000298,133472.195,133478.59999999404,133488.865,134172.365,,36,and
screen,html.Screen,0_2_1_1_37,2021-12-03T12:41:34.191Z,,,,,,,,,,,,,,,,54,,,,,,,,,,,,,,400.83500000298955,,response,,,100,,,,,,Space,keypress(Space),,,,,-- --- ---- --- ------ ----- ------- ---- -- --- ------- --<br>------- ---------- ------ -- ----- -- ----- -- ---- ------<br>--- ----- --- --- ------ -------- ----- --- ------ ----- --<br>----- ----- ---------- --- the ------ ------ ---- -- ------<br>------- --- ------ ----- --- ---- ------- -- ---- --- --<br>------- ------,134574.20000000298,134573.20000000298,134155.695,134166.29999999702,134172.365,134589.192,,37,the
screen,html.Screen,0_2_1_1_38,2021-12-03T12:41:34.655Z,,,,,,,,,,,,,,,,54,,,,,,,,,,,,,,448.0080000029702,,response,,,100,,,,,,Space,keypress(Space),,,,,-- --- ---- --- ------ ----- ------- ---- -- --- ------- --<br>------- ---------- ------ -- ----- -- ----- -- ---- ------<br>--- ----- --- --- ------ -------- ----- --- ------ ----- --<br>----- ----- ---------- --- --- market ------ ---- -- ------<br>------- --- ------ ----- --- ---- ------- -- ---- --- --<br>------- ------,135038,135037.20000000298,134572.522,134574.5,134589.192,135039.476,,38,market
screen,html.Screen,0_2_1_1_39,2021-12-03T12:41:35.167Z,,,,,,,,,,,,,,,,54,,,,,,,,,,,,,,509.7240000029851,,response,,,100,,,,,,Space,keypress(Space),,,,,-- --- ---- --- ------ ----- ------- ---- -- --- ------- --<br>------- ---------- ------ -- ----- -- ----- -- ---- ------<br>--- ----- --- --- ------ -------- ----- --- ------ ----- --<br>----- ----- ---------- --- --- ------ became ---- -- ------<br>------- --- ------ ----- --- ---- ------- -- ---- --- --<br>------- ------,135550,135549.20000000298,135022.804,135038.29999999702,135039.476,135556.145,,39,became
screen,html.Screen,0_2_1_1_40,2021-12-03T12:41:35.990Z,,,,,,,,,,,,,,,,54,,,,,,,,,,,,,,816.7549999910698,,response,,,100,,,,,,Space,keypress(Space),,,,,-- --- ---- --- ------ ----- ------- ---- -- --- ------- --<br>------- ---------- ------ -- ----- -- ----- -- ---- ------<br>--- ----- --- --- ------ -------- ----- --- ------ ----- --<br>----- ----- ---------- --- --- ------ ------ wary -- ------<br>------- --- ------ ----- --- ---- ------- -- ---- --- --<br>------- ------,136373.20000000298,136372.89999999106,135539.475,135550.39999999106,135556.145,136389.8,,40,wary
screen,html.Screen,0_2_1_1_41,2021-12-03T12:41:36.431Z,,,,,,,,,,,,,,,,54,,,,,,,,,,,,,,423.2999999940512,,response,,,100,,,,,,Space,keypress(Space),,,,,-- --- ---- --- ------ ----- ------- ---- -- --- ------- --<br>------- ---------- ------ -- ----- -- ----- -- ---- ------<br>--- ----- --- --- ------ -------- ----- --- ------ ----- --<br>----- ----- ---------- --- --- ------ ------ ---- of ------<br>------- --- ------ ----- --- ---- ------- -- ---- --- --<br>------- ------,136813.79999999702,136813.09999999404,136373.129,136373.39999999106,136389.8,136823.165,,41,of
screen,html.Screen,0_2_1_1_42,2021-12-03T12:41:36.951Z,,,,,,,,,,,,,,,,54,,,,,,,,,,,,,,509.9349999940314,,response,,,100,,,,,,Space,keypress(Space),,,,,-- --- ---- --- ------ ----- ------- ---- -- --- ------- --<br>------- ---------- ------ -- ----- -- ----- -- ---- ------<br>--- ----- --- --- ------ -------- ----- --- ------ ----- --<br>----- ----- ---------- --- --- ------ ------ ---- -- French<br>------- --- ------ ----- --- ---- ------- -- ---- --- --<br>------- ------,137333.79999999702,137333.09999999404,136806.495,136814.20000000298,136823.165,137339.876,,42,French
screen,html.Screen,0_2_1_1_43,2021-12-03T12:41:38.375Z,,,,,,,,,,,,,,,,54,,,,,,,,,,,,,,1417.1240000000107,,response,,,100,,,,,,Space,keypress(Space),,,,,-- --- ---- --- ------ ----- ------- ---- -- --- ------- --<br>------- ---------- ------ -- ----- -- ----- -- ---- ------<br>--- ----- --- --- ------ -------- ----- --- ------ ----- --<br>----- ----- ---------- --- --- ------ ------ ---- -- ------<br>credit. --- ------ ----- --- ---- ------- -- ---- --- --<br>------- ------,138757.79999999702,138757,137323.207,137334,137339.876,138773.994,,43,credit.
screen,html.Screen,0_2_1_1_44,2021-12-03T12:41:39.391Z,,,,,,,,,,,,,,,,54,,,,,,,,,,,,,,998.9059999910532,,response,,,100,,,,,,Space,keypress(Space),,,,,-- --- ---- --- ------ ----- ------- ---- -- --- ------- --<br>------- ---------- ------ -- ----- -- ----- -- ---- ------<br>--- ----- --- --- ------ -------- ----- --- ------ ----- --<br>----- ----- ---------- --- --- ------ ------ ---- -- ------<br>------- The ------ ----- --- ---- ------- -- ---- --- --<br>------- ------,139773.79999999702,139772.89999999106,138757.321,138758.09999999404,138773.994,139790.586,,44,The
screen,html.Screen,0_2_1_1_45,2021-12-03T12:41:40.054Z,,,,,,,,,,,,,,,,54,,,,,,,,,,,,,,645.9139999999898,,response,,,100,,,,,,Space,keypress(Space),,,,,-- --- ---- --- ------ ----- ------- ---- -- --- ------- --<br>------- ---------- ------ -- ----- -- ----- -- ---- ------<br>--- ----- --- --- ------ -------- ----- --- ------ ----- --<br>----- ----- ---------- --- --- ------ ------ ---- -- ------<br>------- --- French ----- --- ---- ------- -- ---- --- --<br>------- ------,140436.89999999106,140436.5,139773.916,139774,139790.586,140440.783,,45,French
screen,html.Screen,0_2_1_1_46,2021-12-03T12:41:40.543Z,,,,,,,,,,,,,,,,54,,,,,,,,,,,,,,484.1169999910635,,response,,,100,,,,,,Space,keypress(Space),,,,,-- --- ---- --- ------ ----- ------- ---- -- --- ------- --<br>------- ---------- ------ -- ----- -- ----- -- ---- ------<br>--- ----- --- --- ------ -------- ----- --- ------ ----- --<br>----- ----- ---------- --- --- ------ ------ ---- -- ------<br>------- --- ------ state --- ---- ------- -- ---- --- --<br>------- ------,140925.70000000298,140924.89999999106,140424.113,140437.09999999404,140440.783,140940.947,,46,state
screen,html.Screen,0_2_1_1_47,2021-12-03T12:41:40.983Z,,,,,,,,,,,,,,,,54,,,,,,,,,,,,,,423.8529999970342,,response,,,100,,,,,,Space,keypress(Space),,,,,-- --- ---- --- ------ ----- ------- ---- -- --- ------- --<br>------- ---------- ------ -- ----- -- ----- -- ---- ------<br>--- ----- --- --- ------ -------- ----- --- ------ ----- --<br>----- ----- ---------- --- --- ------ ------ ---- -- ------<br>------- --- ------ ----- was ---- ------- -- ---- --- --<br>------- ------,141365.59999999404,141364.79999999702,140924.277,140925.89999999106,140940.947,141374.366,,47,was
screen,html.Screen,0_2_1_1_48,2021-12-03T12:41:41.719Z,,,,,,,,,,,,,,,,54,,,,,,,,,,,,,,726.4339999970107,,response,,,100,,,,,,Space,keypress(Space),,,,,-- --- ---- --- ------ ----- ------- ---- -- --- ------- --<br>------- ---------- ------ -- ----- -- ----- -- ---- ------<br>--- ----- --- --- ------ -------- ----- --- ------ ----- --<br>----- ----- ---------- --- --- ------ ------ ---- -- ------<br>------- --- ------ ----- --- left ------- -- ---- --- --<br>------- ------,142101.59999999404,142100.79999999702,141357.696,141365.79999999702,141374.366,142107.954,,48,left
screen,html.Screen,0_2_1_1_49,2021-12-03T12:41:42.727Z,,,,,,,,,,,,,,,,54,,,,,,,,,,,,,,1000.7460000029823,,response,,,100,,,,,,Space,keypress(Space),,,,,-- --- ---- --- ------ ----- ------- ---- -- --- ------- --<br>------- ---------- ------ -- ----- -- ----- -- ---- ------<br>--- ----- --- --- ------ -------- ----- --- ------ ----- --<br>----- ----- ---------- --- --- ------ ------ ---- -- ------<br>------- --- ------ ----- --- ---- without -- ---- --- --<br>------- ------,143109.59999999404,143108.70000000298,142091.283,142101.79999999702,142107.954,143124.832,,49,without
screen,html.Screen,0_2_1_1_50,2021-12-03T12:41:43.623Z,,,,,,,,,,,,,,,,54,,,,,,,,,,,,,,879.8680000029854,,response,,,100,,,,,,Space,keypress(Space),,,,,-- --- ---- --- ------ ----- ------- ---- -- --- ------- --<br>------- ---------- ------ -- ----- -- ----- -- ---- ------<br>--- ----- --- --- ------ -------- ----- --- ------ ----- --<br>----- ----- ---------- --- --- ------ ------ ---- -- ------<br>------- --- ------ ----- --- ---- ------- an ---- --- --<br>------- ------,144005.5,144004.70000000298,143108.162,143109.79999999702,143124.832,144008.382,,50,an
screen,html.Screen,0_2_1_1_51,2021-12-03T12:41:45.007Z,,,,,,,,,,,,,,,,54,,,,,,,,,,,,,,1380.318000002968,,response,,,100,,,,,,Space,keypress(Space),,,,,-- --- ---- --- ------ ----- ------- ---- -- --- ------- --<br>------- ---------- ------ -- ----- -- ----- -- ---- ------<br>--- ----- --- --- ------ -------- ----- --- ------ ----- --<br>----- ----- ---------- --- --- ------ ------ ---- -- ------<br>------- --- ------ ----- --- ---- ------- -- easy --- --<br>------- ------,145389.5,145388.70000000298,143991.712,144005.79999999702,144008.382,145392.044,,51,easy
screen,html.Screen,0_2_1_1_52,2021-12-03T12:41:45.439Z,,,,,,,,,,,,,,,,54,,,,,,,,,,,,,,428.6560000029858,,response,,,100,,,,,,Space,keypress(Space),,,,,-- --- ---- --- ------ ----- ------- ---- -- --- ------- --<br>------- ---------- ------ -- ----- -- ----- -- ---- ------<br>--- ----- --- --- ------ -------- ----- --- ------ ----- --<br>----- ----- ---------- --- --- ------ ------ ---- -- ------<br>------- --- ------ ----- --- ---- ------- -- ---- way --<br>------- ------,145821.39999999106,145820.70000000298,145375.374,145389.70000000298,145392.044,145825.634,,52,way
screen,html.Screen,0_2_1_1_53,2021-12-03T12:41:46.319Z,,,,,,,,,,,,,,,,54,,,,,,,,,,,,,,875.3660000000091,,response,,,100,,,,,,Space,keypress(Space),,,,,-- --- ---- --- ------ ----- ------- ---- -- --- ------- --<br>------- ---------- ------ -- ----- -- ----- -- ---- ------<br>--- ----- --- --- ------ -------- ----- --- ------ ----- --<br>----- ----- ---------- --- --- ------ ------ ---- -- ------<br>------- --- ------ ----- --- ---- ------- -- ---- --- of<br>------- ------,146701.79999999702,146701,145808.963,145821.59999999404,145825.634,146709.131,,53,of
screen,html.Screen,0_2_1_1_54,2021-12-03T12:41:46.894Z,,,,,,,,,,,,,,,,54,,,,,,,,,,,,,,567.4689999940456,,response,,,100,,,,,,Space,keypress(Space),,,,,-- --- ---- --- ------ ----- ------- ---- -- --- ------- --<br>------- ---------- ------ -- ----- -- ----- -- ---- ------<br>--- ----- --- --- ------ -------- ----- --- ------ ----- --<br>----- ----- ---------- --- --- ------ ------ ---- -- ------<br>------- --- ------ ----- --- ---- ------- -- ---- --- --<br>raising ------,147277.29999999702,147276.59999999404,146692.461,146702.09999999404,146709.131,147292.586,,54,raising
screen,html.Screen,0_2_1_1_55,2021-12-03T12:41:47.614Z,,,,,,,,,,,,,,,,54,,,,,,,,,,,,,,704.0139999940293,,response,,,100,,,,,,Space,keypress(Space),,,,,-- --- ---- --- ------ ----- ------- ---- -- --- ------- --<br>------- ---------- ------ -- ----- -- ----- -- ---- ------<br>--- ----- --- --- ------ -------- ----- --- ------ ----- --<br>----- ----- ---------- --- --- ------ ------ ---- -- ------<br>------- --- ------ ----- --- ---- ------- -- ---- --- --<br>------- money.,147997.29999999702,147996.59999999404,147275.916,147277.5,147292.586,148009.487,,55,money.
Item 100,flow.Loop,0_2_1_1,2021-12-03T12:41:47.615Z,,,,,,,,,,,,,,,,,,,,,,,,,,,,,,44065.642999994045,,completion,,,,B,,,,,,,,,,silence,,147997.79999999702,147996.59999999404,103914.287,103916.20000000298,103930.957,148009.487,,,
Question 1,html.Screen,0_2_1_2,2021-12-03T12:41:51.406Z,,,,,,,,,,,,,,,,,,,,,,,,,,,true,TRUE,,3778.7130000029865,,response,,,100,B,,,,,TRUE,click #choice-1,,,,silence,,151789.39999999106,151788.20000000298,147992.817,147998.09999999404,148009.487,151793.745,,,
Question 2,html.Screen,0_2_1_3,2021-12-03T12:41:53.854Z,,,,,,,,,,,,,,,,,,,,,,,,,,,true,FALSE,,2442.455000002985,,response,,,100,B,,,,,FALSE,click #choice-2,,,,silence,,154237.20000000298,154236.20000000298,151777.077,151789.59999999404,151793.745,154244.533,,,
Item 100,flow.Sequence,0_2_1,2021-12-03T12:41:53.855Z,,,,,,,,,,,,,,,,,,,,,,,,,,,,,,60307.748000002975,,completion,,,,,,,,,,,,,,,,154237.59999999404,154236.20000000298,93911.782,93928.79999999702,93928.452,154244.533,,,
End of Practice,html.Page,0_2_2,2021-12-03T12:41:58.751Z,,,,,,,,,,,,,,,,,,,,,,,,,,,,,,4888.967000000004,,form submission,,,,,,,,,,,,,,,,159134.09999999404,159133.5,154227.862,154237.79999999702,154244.533,159162.479,,,
Practice,flow.Sequence,0_2,2021-12-03T12:41:58.752Z,,,,,,,,,,,,,,,,,,,,,,,,,,,,,,126638.02100000001,,completion,,,,,,,,,,,,,,,,159134.5,159133.5,32478.808,32484.09999999404,32495.479,159162.479,,,
Trap_instruction,html.Page,0_3_0,2021-12-03T12:42:06.895Z,,,,,,,,,,,,,,,,,,,,,,,,,,,,,,8114.521000000008,,form submission,,,,,,,,,,,,,,,,167277.59999999404,167277,159145.807,159134.89999999106,159162.479,167297.979,,,
trap_trial,html.Screen,0_3_1,2021-12-03T12:42:09.934Z,,,,,,,,,,,,,,,,,,,,,,,,,,,true,1,,3017.3209999970277,,response,,,,,,,,,1,click #choice-1,,,,,,170316.59999999404,170315.29999999702,167264.637,167277.89999999106,167297.979,170331.873,,,
end of trap trial,html.Page,0_3_2,2021-12-03T12:42:11.846Z,,,,,,,,,,,,,,,,,,,,,,,,,,,,,,1896.827000002988,,form submission,,,,,,,,,,,,,,,,172229.09999999404,172228.70000000298,170315.203,170316.89999999106,170331.873,172239.118,,,
Trap 1,flow.Sequence,0_3,2021-12-03T12:42:11.847Z,,,,,,,,,,,,,,,,,,,,,,,,,,,,,,13066.221000002988,,completion,,,,,,,,,,,,,,,,172229.70000000298,172228.70000000298,159145.807,159134.79999999702,159162.479,172239.118,,,
Standby,html.Page,0_4_0,2021-12-03T12:42:19.836Z,,,,,,,,,,,,,,,,,,,,,,,,,,,,,,7995.621000000014,,timeout,,,,,,,,,,,,,,,,180219,180218.068,172222.539,172230,172239.118,180234.739,,,
Holding screen,html.Screen,0_4_1_0_0,2021-12-03T12:42:26.839Z,,,,,,,,,,,,,,,,,,,,,,,,,,,,,,7001.752999999997,,timeout,,,,,,,,,,,,,,,,187220.79999999702,187219.822,180218.068,180219.29999999702,180234.739,187236.492,,,
screen,html.Screen,0_4_1_0_1_0,2021-12-03T12:42:27.903Z,,,,,,,,,,,,,,,,48,,,,,,,,,,,,,,1046.7080000029819,,response,,,10,B,,,,,Space,keypress(Space),,,,lyrical,As -- --- ------ ------- --------- ----------- --------<br>--------- -------- --- ------- -- ------- ---- -- ------<br>-- --- -------- -------- ---------- ---- ---- ---- ------<br>-- --------- -- ---- -- --- -- --- ------- -- - -----<br>---------- -- -- -- ---- ----- -- ------ -- --- ------<br>-------,188284.29999999702,188283.20000000298,187219.822,187221.29999999702,187236.492,188286.821,,0,As
screen,html.Screen,0_4_1_0_1_1,2021-12-03T12:42:28.430Z,,,,,,,,,,,,,,,,48,,,,,,,,,,,,,,523.879000002984,,response,,,10,B,,,,,Space,keypress(Space),,,,lyrical,-- in --- ------ ------- --------- ----------- --------<br>--------- -------- --- ------- -- ------- ---- -- ------<br>-- --- -------- -------- ---------- ---- ---- ---- ------<br>-- --------- -- ---- -- --- -- --- ------- -- - -----<br>---------- -- -- -- ---- ----- -- ------ -- --- ------<br>-------,188811.39999999106,188810.70000000298,188270.151,188284.70000000298,188286.821,188820.328,,1,in
screen,html.Screen,0_4_1_0_1_2,2021-12-03T12:42:29.534Z,,,,,,,,,,,,,,,,48,,,,,,,,,,,,,,1094.3720000029716,,response,,,10,B,,,,,Space,keypress(Space),,,,lyrical,-- -- the ------ ------- --------- ----------- --------<br>--------- -------- --- ------- -- ------- ---- -- ------<br>-- --- -------- -------- ---------- ---- ---- ---- ------<br>-- --------- -- ---- -- --- -- --- ------- -- - -----<br>---------- -- -- -- ---- ----- -- ------ -- --- ------<br>-------,189915.5,189914.70000000298,188803.658,188811.89999999106,188820.328,189920.668,,2,the
screen,html.Screen,0_4_1_0_1_3,2021-12-03T12:42:30.046Z,,,,,,,,,,,,,,,,48,,,,,,,,,,,,,,505.9319999940344,,response,,,10,B,,,,,Space,keypress(Space),,,,lyrical,-- -- --- United ------- --------- ----------- --------<br>--------- -------- --- ------- -- ------- ---- -- ------<br>-- --- -------- -------- ---------- ---- ---- ---- ------<br>-- --------- -- ---- -- --- -- --- ------- -- - -----<br>---------- -- -- -- ---- ----- -- ------ -- --- ------<br>-------,190427.5,190426.59999999404,189903.997,189915.70000000298,189920.668,190437.444,,3,United
screen,html.Screen,0_4_1_0_1_4,2021-12-03T12:42:30.654Z,,,,,,,,,,,,,,,,48,,,,,,,,,,,,,,597.155999994051,,response,,,10,B,,,,,Space,keypress(Space),,,,lyrical,"-- -- --- ------ States, --------- ----------- --------<br>--------- -------- --- ------- -- ------- ---- -- ------<br>-- --- -------- -------- ---------- ---- ---- ---- ------<br>-- --------- -- ---- -- --- -- --- ------- -- - -----<br>---------- -- -- -- ---- ----- -- ------ -- --- ------<br>-------",191035.29999999702,191034.59999999404,190420.774,190427.59999999404,190437.444,191037.576,,4,"States,"
screen,html.Screen,0_4_1_0_1_5,2021-12-03T12:42:31.478Z,,,,,,,,,,,,,,,,48,,,,,,,,,,,,,,820.9239999999991,,response,,,10,B,,,,,Space,keypress(Space),,,,lyrical,-- -- --- ------ ------- Colombian ----------- --------<br>--------- -------- --- ------- -- ------- ---- -- ------<br>-- --- -------- -------- ---------- ---- ---- ---- ------<br>-- --------- -- ---- -- --- -- --- ------- -- - -----<br>---------- -- -- -- ---- ----- -- ------ -- --- ------<br>-------,191859.29999999702,191858.5,191020.906,191035.5,191037.576,191871.191,,5,Colombian
screen,html.Screen,0_4_1_0_1_6,2021-12-03T12:42:32.158Z,,,,,,,,,,,,,,,,48,,,,,,,,,,,,,,667.2089999910677,,response,,,10,B,,,,,Space,keypress(Space),,,,lyrical,-- -- --- ------ ------- --------- legislation --------<br>--------- -------- --- ------- -- ------- ---- -- ------<br>-- --- -------- -------- ---------- ---- ---- ---- ------<br>-- --------- -- ---- -- --- -- --- ------- -- - -----<br>---------- -- -- -- ---- ----- -- ------ -- --- ------<br>-------,192539.20000000298,192538.39999999106,191854.52,191859.59999999404,191871.191,192554.652,,6,legislation
screen,html.Screen,0_4_1_0_1_7,2021-12-03T12:42:32.582Z,,,,,,,,,,,,,,,,48,,,,,,,,,,,,,,407.84799999999814,,response,,,10,B,,,,,Space,keypress(Space),,,,lyrical,-- -- --- ------ ------- --------- ----------- requires<br>--------- -------- --- ------- -- ------- ---- -- ------<br>-- --- -------- -------- ---------- ---- ---- ---- ------<br>-- --------- -- ---- -- --- -- --- ------- -- - -----<br>---------- -- -- -- ---- ----- -- ------ -- --- ------<br>-------,192963.20000000298,192962.5,192537.982,192539.5,192554.652,192971.372,,7,requires
screen,html.Screen,0_4_1_0_1_8,2021-12-03T12:42:33.222Z,,,,,,,,,,,,,,,,48,,,,,,,,,,,,,,631.0279999910563,,response,,,10,B,,,,,Space,keypress(Space),,,,lyrical,-- -- --- ------ ------- --------- ----------- --------<br>travelers -------- --- ------- -- ------- ---- -- ------<br>-- --- -------- -------- ---------- ---- ---- ---- ------<br>-- --------- -- ---- -- --- -- --- ------- -- - -----<br>---------- -- -- -- ---- ----- -- ------ -- --- ------<br>-------,193603.29999999702,193602.39999999106,192954.702,192963.39999999106,192971.372,193605.042,,8,travelers
screen,html.Screen,0_4_1_0_1_9,2021-12-03T12:42:33.774Z,,,,,,,,,,,,,,,,48,,,,,,,,,,,,,,549.3579999910726,,response,,,10,B,,,,,Space,keypress(Space),,,,lyrical,-- -- --- ------ ------- --------- ----------- --------<br>--------- entering --- ------- -- ------- ---- -- ------<br>-- --- -------- -------- ---------- ---- ---- ---- ------<br>-- --------- -- ---- -- --- -- --- ------- -- - -----<br>---------- -- -- -- ---- ----- -- ------ -- --- ------<br>-------,194155.09999999404,194154.39999999106,193588.37,193603.5,193605.042,194171.726,,9,entering
screen,html.Screen,0_4_1_0_1_10,2021-12-03T12:42:34.414Z,,,,,,,,,,,,,,,,48,,,,,,,,,,,,,,622.6739999910642,,response,,,10,B,,,,,Space,keypress(Space),,,,lyrical,-- -- --- ------ ------- --------- ----------- --------<br>--------- -------- the ------- -- ------- ---- -- ------<br>-- --- -------- -------- ---------- ---- ---- ---- ------<br>-- --------- -- ---- -- --- -- --- ------- -- - -----<br>---------- -- -- -- ---- ----- -- ------ -- --- ------<br>-------,194795.09999999404,194794.39999999106,194155.056,194155.29999999702,194171.726,194805.186,,10,the
screen,html.Screen,0_4_1_0_1_11,2021-12-03T12:42:34.854Z,,,,,,,,,,,,,,,,48,,,,,,,,,,,,,,429.21399999107234,,response,,,10,B,,,,,Space,keypress(Space),,,,lyrical,-- -- --- ------ ------- --------- ----------- --------<br>--------- -------- --- country -- ------- ---- -- ------<br>-- --- -------- -------- ---------- ---- ---- ---- ------<br>-- --------- -- ---- -- --- -- --- ------- -- - -----<br>---------- -- -- -- ---- ----- -- ------ -- --- ------<br>-------,195235.29999999702,195234.39999999106,194788.516,194795.39999999106,194805.186,195238.677,,11,country
screen,html.Screen,0_4_1_0_1_12,2021-12-03T12:42:35.590Z,,,,,,,,,,,,,,,,48,,,,,,,,,,,,,,731.6229999970237,,response,,,10,B,,,,,Space,keypress(Space),,,,lyrical,-- -- --- ------ ------- --------- ----------- --------<br>--------- -------- --- ------- to ------- ---- -- ------<br>-- --- -------- -------- ---------- ---- ---- ---- ------<br>-- --------- -- ---- -- --- -- --- ------- -- - -----<br>---------- -- -- -- ---- ----- -- ------ -- --- ------<br>-------,195971.09999999404,195970.29999999702,195222.007,195235.5,195238.677,195972.292,,12,to
screen,html.Screen,0_4_1_0_1_13,2021-12-03T12:42:36.254Z,,,,,,,,,,,,,,,,48,,,,,,,,,,,,,,662.007999997033,,response,,,10,B,,,,,Space,keypress(Space),,,,lyrical,-- -- --- ------ ------- --------- ----------- --------<br>--------- -------- --- ------- -- declare ---- -- ------<br>-- --- -------- -------- ---------- ---- ---- ---- ------<br>-- --------- -- ---- -- --- -- --- ------- -- - -----<br>---------- -- -- -- ---- ----- -- ------ -- --- ------<br>-------,196635.09999999404,196634.29999999702,195955.621,195971.39999999106,195972.292,196639.074,,13,declare
screen,html.Screen,0_4_1_0_1_14,2021-12-03T12:42:36.926Z,,,,,,,,,,,,,,,,48,,,,,,,,,,,,,,667.2259999970265,,response,,,10,B,,,,,Space,keypress(Space),,,,lyrical,-- -- --- ------ ------- --------- ----------- --------<br>--------- -------- --- ------- -- ------- cash -- ------<br>-- --- -------- -------- ---------- ---- ---- ---- ------<br>-- --------- -- ---- -- --- -- --- ------- -- - -----<br>---------- -- -- -- ---- ----- -- ------ -- --- ------<br>-------,197307.09999999404,197306.29999999702,196622.404,196635.29999999702,196639.074,197322.54,,14,cash
screen,html.Screen,0_4_1_0_1_15,2021-12-03T12:42:38.054Z,,,,,,,,,,,,,,,,48,,,,,,,,,,,,,,1112.160000002972,,response,,,10,B,,,,,Space,keypress(Space),,,,lyrical,-- -- --- ------ ------- --------- ----------- --------<br>--------- -------- --- ------- -- ------- ---- in ------<br>-- --- -------- -------- ---------- ---- ---- ---- ------<br>-- --------- -- ---- -- --- -- --- ------- -- - -----<br>---------- -- -- -- ---- ----- -- ------ -- --- ------<br>-------,198435.39999999106,198434.70000000298,197305.87,197307.29999999702,197322.54,198439.639,,15,in
screen,html.Screen,0_4_1_0_1_16,2021-12-03T12:42:38.925Z,,,,,,,,,,,,,,,,48,,,,,,,,,,,,,,866.5610000029847,,response,,,10,B,,,,,Space,keypress(Space),,,,lyrical,-- -- --- ------ ------- --------- ----------- --------<br>--------- -------- --- ------- -- ------- ---- -- excess<br>-- --- -------- -------- ---------- ---- ---- ---- ------<br>-- --------- -- ---- -- --- -- --- ------- -- - -----<br>---------- -- -- -- ---- ----- -- ------ -- --- ------<br>-------,199307,199306.20000000298,198422.968,198435.70000000298,198439.639,199323.095,,16,excess
screen,html.Screen,0_4_1_0_1_17,2021-12-03T12:42:39.701Z,,,,,,,,,,,,,,,,48,,,,,,,,,,,,,,759.1050000029791,,response,,,10,B,,,,,Space,keypress(Space),,,,lyrical,-- -- --- ------ ------- --------- ----------- --------<br>--------- -------- --- ------- -- ------- ---- -- ------<br>of --- -------- -------- ---------- ---- ---- ---- ------<br>-- --------- -- ---- -- --- -- --- ------- -- - -----<br>---------- -- -- -- ---- ----- -- ------ -- --- ------<br>-------,200082.89999999106,200082.20000000298,199306.425,199307.29999999702,199323.095,200089.816,,17,of
screen,html.Screen,0_4_1_0_1_18,2021-12-03T12:42:40.333Z,,,,,,,,,,,,,,,,48,,,,,,,,,,,,,,624.2839999940479,,response,,,10,B,,,,,Space,keypress(Space),,,,lyrical,-- -- --- ------ ------- --------- ----------- --------<br>--------- -------- --- ------- -- ------- ---- -- ------<br>-- ten -------- -------- ---------- ---- ---- ---- ------<br>-- --------- -- ---- -- --- -- --- ------- -- - -----<br>---------- -- -- -- ---- ----- -- ------ -- --- ------<br>-------,200714.89999999106,200714.09999999404,200073.147,200083.09999999404,200089.816,200723.619,,18,ten
screen,html.Screen,0_4_1_0_1_19,2021-12-03T12:42:40.765Z,,,,,,,,,,,,,,,,48,,,,,,,,,,,,,,422.4809999940335,,response,,,10,B,,,,,Space,keypress(Space),,,,lyrical,-- -- --- ------ ------- --------- ----------- --------<br>--------- -------- --- ------- -- ------- ---- -- ------<br>-- --- thousand -------- ---------- ---- ---- ---- ------<br>-- --------- -- ---- -- --- -- --- ------- -- - -----<br>---------- -- -- -- ---- ----- -- ------ -- --- ------<br>-------,201146.89999999106,201146.09999999404,200706.947,200715.09999999404,200723.619,201156.927,,19,thousand
screen,html.Screen,0_4_1_0_1_20,2021-12-03T12:42:41.397Z,,,,,,,,,,,,,,,,48,,,,,,,,,,,,,,621.073000000004,,response,,,10,B,,,,,Space,keypress(Space),,,,lyrical,-- -- --- ------ ------- --------- ----------- --------<br>--------- -------- --- ------- -- ------- ---- -- ------<br>-- --- -------- dollars. ---------- ---- ---- ---- ------<br>-- --------- -- ---- -- --- -- --- ------- -- - -----<br>---------- -- -- -- ---- ----- -- ------ -- --- ------<br>-------,201778.79999999702,201778,201140.257,201147.20000000298,201156.927,201790.452,,20,dollars.
screen,html.Screen,0_4_1_0_1_21,2021-12-03T12:42:42.285Z,,,,,,,,,,,,,,,,48,,,,,,,,,,,,,,875.5480000000098,,response,,,10,B,,,,,Space,keypress(Space),,,,lyrical,-- -- --- ------ ------- --------- ----------- --------<br>--------- -------- --- ------- -- ------- ---- -- ------<br>-- --- -------- -------- Concealing ---- ---- ---- ------<br>-- --------- -- ---- -- --- -- --- ------- -- - -----<br>---------- -- -- -- ---- ----- -- ------ -- --- ------<br>-------,202667,202666,201773.782,201779.09999999404,201790.452,202674.001,,21,Concealing
screen,html.Screen,0_4_1_0_1_22,2021-12-03T12:42:42.693Z,,,,,,,,,,,,,,,,48,,,,,,,,,,,,,,399.9990000000107,,response,,,10,B,,,,,Space,keypress(Space),,,,lyrical,-- -- --- ------ ------- --------- ----------- --------<br>--------- -------- --- ------- -- ------- ---- -- ------<br>-- --- -------- -------- ---------- more ---- ---- ------<br>-- --------- -- ---- -- --- -- --- ------- -- - -----<br>---------- -- -- -- ---- ----- -- ------ -- --- ------<br>-------,203074.70000000298,203074,202657.331,202667.09999999404,202674.001,203090.634,,22,more
screen,html.Screen,0_4_1_0_1_23,2021-12-03T12:42:43.405Z,,,,,,,,,,,,,,,,48,,,,,,,,,,,,,,695.3660000000091,,response,,,10,B,,,,,Space,keypress(Space),,,,lyrical,-- -- --- ------ ------- --------- ----------- --------<br>--------- -------- --- ------- -- ------- ---- -- ------<br>-- --- -------- -------- ---------- ---- than ---- ------<br>-- --------- -- ---- -- --- -- --- ------- -- - -----<br>---------- -- -- -- ---- ----- -- ------ -- --- ------<br>-------,203786.70000000298,203786,203073.965,203075,203090.634,203790.933,,23,than
screen,html.Screen,0_4_1_0_1_24,2021-12-03T12:42:43.781Z,,,,,,,,,,,,,,,,48,,,,,,,,,,,,,,370.9669999910693,,response,,,10,B,,,,,Space,keypress(Space),,,,lyrical,-- -- --- ------ ------- --------- ----------- --------<br>--------- -------- --- ------- -- ------- ---- -- ------<br>-- --- -------- -------- ---------- ---- ---- that ------<br>-- --------- -- ---- -- --- -- --- ------- -- - -----<br>---------- -- -- -- ---- ----- -- ------ -- --- ------<br>-------,204162.70000000298,204161.89999999106,203774.263,203787,203790.933,204174.388,,24,that
screen,html.Screen,0_4_1_0_1_25,2021-12-03T12:42:44.277Z,,,,,,,,,,,,,,,,48,,,,,,,,,,,,,,483.4119999970135,,response,,,10,B,,,,,Space,keypress(Space),,,,lyrical,-- -- --- ------ ------- --------- ----------- --------<br>--------- -------- --- ------- -- ------- ---- -- ------<br>-- --- -------- -------- ---------- ---- ---- ---- amount<br>-- --------- -- ---- -- --- -- --- ------- -- - -----<br>---------- -- -- -- ---- ----- -- ------ -- --- ------<br>-------,204658.59999999404,204657.79999999702,204157.718,204163,204174.388,204674.515,,25,amount
screen,html.Screen,0_4_1_0_1_26,2021-12-03T12:42:44.669Z,,,,,,,,,,,,,,,,48,,,,,,,,,,,,,,375.38499999104533,,response,,,10,B,,,,,Space,keypress(Space),,,,lyrical,-- -- --- ------ ------- --------- ----------- --------<br>--------- -------- --- ------- -- ------- ---- -- ------<br>-- --- -------- -------- ---------- ---- ---- ---- ------<br>to --------- -- ---- -- --- -- --- ------- -- - -----<br>---------- -- -- -- ---- ----- -- ------ -- --- ------<br>-------,205050.70000000298,205049.89999999106,204657.845,204658.79999999702,204674.515,205058.133,,26,to
screen,html.Screen,0_4_1_0_1_27,2021-12-03T12:42:45.261Z,,,,,,,,,,,,,,,,48,,,,,,,,,,,,,,583.7669999910577,,response,,,10,B,,,,,Space,keypress(Space),,,,lyrical,-- -- --- ------ ------- --------- ----------- --------<br>--------- -------- --- ------- -- ------- ---- -- ------<br>-- --- -------- -------- ---------- ---- ---- ---- ------<br>-- transport -- ---- -- --- -- --- ------- -- - -----<br>---------- -- -- -- ---- ----- -- ------ -- --- ------<br>-------,205642.70000000298,205641.89999999106,205041.46,205050.89999999106,205058.133,205658.11,,27,transport
screen,html.Screen,0_4_1_0_1_28,2021-12-03T12:42:45.725Z,,,,,,,,,,,,,,,,48,,,,,,,,,,,,,,447.68999999703374,,response,,,10,B,,,,,Space,keypress(Space),,,,lyrical,-- -- --- ------ ------- --------- ----------- --------<br>--------- -------- --- ------- -- ------- ---- -- ------<br>-- --- -------- -------- ---------- ---- ---- ---- ------<br>-- --------- it ---- -- --- -- --- ------- -- - -----<br>---------- -- -- -- ---- ----- -- ------ -- --- ------<br>-------,206106.59999999404,206105.79999999702,205641.44,205642.89999999106,205658.11,206108.306,,28,it
screen,html.Screen,0_4_1_0_1_29,2021-12-03T12:42:46.381Z,,,,,,,,,,,,,,,,48,,,,,,,,,,,,,,653.3940000029688,,response,,,10,B,,,,,Space,keypress(Space),,,,lyrical,-- -- --- ------ ------- --------- ----------- --------<br>--------- -------- --- ------- -- ------- ---- -- ------<br>-- --- -------- -------- ---------- ---- ---- ---- ------<br>-- --------- -- into -- --- -- --- ------- -- - -----<br>---------- -- -- -- ---- ----- -- ------ -- --- ------<br>-------,206762.5,206761.70000000298,206091.635,206106.79999999702,206108.306,206775.162,,29,into
screen,html.Screen,0_4_1_0_1_30,2021-12-03T12:42:46.845Z,,,,,,,,,,,,,,,,48,,,,,,,,,,,,,,450.6379999970086,,response,,,10,B,,,,,Space,keypress(Space),,,,lyrical,-- -- --- ------ ------- --------- ----------- --------<br>--------- -------- --- ------- -- ------- ---- -- ------<br>-- --- -------- -------- ---------- ---- ---- ---- ------<br>-- --------- -- ---- or --- -- --- ------- -- - -----<br>---------- -- -- -- ---- ----- -- ------ -- --- ------<br>-------,207226.70000000298,207225.79999999702,206758.491,206762.70000000298,206775.162,207241.902,,30,or
screen,html.Screen,0_4_1_0_1_31,2021-12-03T12:42:47.261Z,,,,,,,,,,,,,,,,48,,,,,,,,,,,,,,399.8979999970179,,response,,,10,B,,,,,Space,keypress(Space),,,,lyrical,-- -- --- ------ ------- --------- ----------- --------<br>--------- -------- --- ------- -- ------- ---- -- ------<br>-- --- -------- -------- ---------- ---- ---- ---- ------<br>-- --------- -- ---- -- out -- --- ------- -- - -----<br>---------- -- -- -- ---- ----- -- ------ -- --- ------<br>-------,207642.59999999404,207641.79999999702,207225.232,207226.89999999106,207241.902,207658.693,,31,out
screen,html.Screen,0_4_1_0_1_32,2021-12-03T12:42:47.621Z,,,,,,,,,,,,,,,,48,,,,,,,,,,,,,,343.00700000298093,,response,,,10,B,,,,,Space,keypress(Space),,,,lyrical,-- -- --- ------ ------- --------- ----------- --------<br>--------- -------- --- ------- -- ------- ---- -- ------<br>-- --- -------- -------- ---------- ---- ---- ---- ------<br>-- --------- -- ---- -- --- of --- ------- -- - -----<br>---------- -- -- -- ---- ----- -- ------ -- --- ------<br>-------,208002.39999999106,208001.70000000298,207642.023,207642.79999999702,207658.693,208008.777,,32,of
screen,html.Screen,0_4_1_0_1_33,2021-12-03T12:42:47.981Z,,,,,,,,,,,,,,,,48,,,,,,,,,,,,,,352.8229999940377,,response,,,10,B,,,,,Space,keypress(Space),,,,lyrical,-- -- --- ------ ------- --------- ----------- --------<br>--------- -------- --- ------- -- ------- ---- -- ------<br>-- --- -------- -------- ---------- ---- ---- ---- ------<br>-- --------- -- ---- -- --- -- the ------- -- - -----<br>---------- -- -- -- ---- ----- -- ------ -- --- ------<br>-------,208362.39999999106,208361.59999999404,207992.107,208002.70000000298,208008.777,208375.528,,33,the
screen,html.Screen,0_4_1_0_1_34,2021-12-03T12:42:48.702Z,,,,,,,,,,,,,,,,48,,,,,,,,,,,,,,706.6720000029891,,response,,,10,B,,,,,Space,keypress(Space),,,,lyrical,-- -- --- ------ ------- --------- ----------- --------<br>--------- -------- --- ------- -- ------- ---- -- ------<br>-- --- -------- -------- ---------- ---- ---- ---- ------<br>-- --------- -- ---- -- --- -- --- country -- - -----<br>---------- -- -- -- ---- ----- -- ------ -- --- ------<br>-------,209083.09999999404,209082.20000000298,208358.858,208362.59999999404,208375.528,209092.263,,34,country
screen,html.Screen,0_4_1_0_1_35,2021-12-03T12:42:49.085Z,,,,,,,,,,,,,,,,48,,,,,,,,,,,,,,373.33699999403325,,response,,,10,B,,,,,Space,keypress(Space),,,,lyrical,-- -- --- ------ ------- --------- ----------- --------<br>--------- -------- --- ------- -- ------- ---- -- ------<br>-- --- -------- -------- ---------- ---- ---- ---- ------<br>-- --------- -- ---- -- --- -- --- ------- is - -----<br>---------- -- -- -- ---- ----- -- ------ -- --- ------<br>-------,209466.39999999106,209465.59999999404,209075.594,209083.29999999702,209092.263,209475.995,,35,is
screen,html.Screen,0_4_1_0_1_36,2021-12-03T12:42:49.445Z,,,,,,,,,,,,,,,,48,,,,,,,,,,,,,,349.6049999940442,,response,,,10,B,,,,,Space,keypress(Space),,,,lyrical,-- -- --- ------ ------- --------- ----------- --------<br>--------- -------- --- ------- -- ------- ---- -- ------<br>-- --- -------- -------- ---------- ---- ---- ---- ------<br>-- --------- -- ---- -- --- -- --- ------- -- a -----<br>---------- -- -- -- ---- ----- -- ------ -- --- ------<br>-------,209826.5,209825.59999999404,209459.322,209466.59999999404,209475.995,209842.516,,36,a
screen,html.Screen,0_4_1_0_1_37,2021-12-03T12:42:49.917Z,,,,,,,,,,,,,,,,48,,,,,,,,,,,,,,455.0839999940363,,response,,,10,B,,,,,Space,keypress(Space),,,,lyrical,-- -- --- ------ ------- --------- ----------- --------<br>--------- -------- --- ------- -- ------- ---- -- ------<br>-- --- -------- -------- ---------- ---- ---- ---- ------<br>-- --------- -- ---- -- --- -- --- ------- -- - crime<br>---------- -- -- -- ---- ----- -- ------ -- --- ------<br>-------,210298.5,210297.59999999404,209825.847,209826.70000000298,209842.516,210309.484,,37,crime
screen,html.Screen,0_4_1_0_1_38,2021-12-03T12:42:50.421Z,,,,,,,,,,,,,,,,48,,,,,,,,,,,,,,492.2160000029835,,response,,,10,B,,,,,Space,keypress(Space),,,,lyrical,-- -- --- ------ ------- --------- ----------- --------<br>--------- -------- --- ------- -- ------- ---- -- ------<br>-- --- -------- -------- ---------- ---- ---- ---- ------<br>-- --------- -- ---- -- --- -- --- ------- -- - -----<br>punishable -- -- -- ---- ----- -- ------ -- --- ------<br>-------,210802.39999999106,210801.70000000298,210292.812,210298.70000000298,210309.484,210809.522,,38,punishable
screen,html.Screen,0_4_1_0_1_39,2021-12-03T12:42:50.821Z,,,,,,,,,,,,,,,,48,,,,,,,,,,,,,,392.178000002983,,response,,,10,B,,,,,Space,keypress(Space),,,,lyrical,-- -- --- ------ ------- --------- ----------- --------<br>--------- -------- --- ------- -- ------- ---- -- ------<br>-- --- -------- -------- ---------- ---- ---- ---- ------<br>-- --------- -- ---- -- --- -- --- ------- -- - -----<br>---------- by -- -- ---- ----- -- ------ -- --- ------<br>-------,211202.39999999106,211201.70000000298,210792.852,210802.70000000298,210809.522,211209.509,,39,by
screen,html.Screen,0_4_1_0_1_40,2021-12-03T12:42:51.213Z,,,,,,,,,,,,,,,,48,,,,,,,,,,,,,,384.0909999940486,,response,,,10,B,,,,,Space,keypress(Space),,,,lyrical,-- -- --- ------ ------- --------- ----------- --------<br>--------- -------- --- ------- -- ------- ---- -- ------<br>-- --- -------- -------- ---------- ---- ---- ---- ------<br>-- --------- -- ---- -- --- -- --- ------- -- - -----<br>---------- -- up -- ---- ----- -- ------ -- --- ------<br>-------,211594.39999999106,211593.59999999404,211192.84,211202.59999999404,211209.509,211609.821,,40,up
screen,html.Screen,0_4_1_0_1_41,2021-12-03T12:42:51.701Z,,,,,,,,,,,,,,,,48,,,,,,,,,,,,,,471.77899999404326,,response,,,10,B,,,,,Space,keypress(Space),,,,lyrical,-- -- --- ------ ------- --------- ----------- --------<br>--------- -------- --- ------- -- ------- ---- -- ------<br>-- --- -------- -------- ---------- ---- ---- ---- ------<br>-- --------- -- ---- -- --- -- --- ------- -- - -----<br>---------- -- -- to ---- ----- -- ------ -- --- ------<br>-------,212082.39999999106,212081.59999999404,211593.149,211594.59999999404,211609.821,212093.102,,41,to
screen,html.Screen,0_4_1_0_1_42,2021-12-03T12:42:52.205Z,,,,,,,,,,,,,,,,48,,,,,,,,,,,,,,492.3979999999865,,response,,,10,B,,,,,Space,keypress(Space),,,,lyrical,-- -- --- ------ ------- --------- ----------- --------<br>--------- -------- --- ------- -- ------- ---- -- ------<br>-- --- -------- -------- ---------- ---- ---- ---- ------<br>-- --------- -- ---- -- --- -- --- ------- -- - -----<br>---------- -- -- -- five ----- -- ------ -- --- ------<br>-------,212586.39999999106,212585.5,212076.433,212082.70000000298,212093.102,212593.27,,42,five
screen,html.Screen,0_4_1_0_1_43,2021-12-03T12:42:52.757Z,,,,,,,,,,,,,,,,48,,,,,,,,,,,,,,544.2300000000105,,response,,,10,B,,,,,Space,keypress(Space),,,,lyrical,-- -- --- ------ ------- --------- ----------- --------<br>--------- -------- --- ------- -- ------- ---- -- ------<br>-- --- -------- -------- ---------- ---- ---- ---- ------<br>-- --------- -- ---- -- --- -- --- ------- -- - -----<br>---------- -- -- -- ---- years -- ------ -- --- ------<br>-------,213138.20000000298,213137.5,212576.6,212586.59999999404,212593.27,213143.571,,43,years
screen,html.Screen,0_4_1_0_1_44,2021-12-03T12:42:53.133Z,,,,,,,,,,,,,,,,48,,,,,,,,,,,,,,369.9290000000037,,response,,,10,B,,,,,Space,keypress(Space),,,,lyrical,-- -- --- ------ ------- --------- ----------- --------<br>--------- -------- --- ------- -- ------- ---- -- ------<br>-- --- -------- -------- ---------- ---- ---- ---- ------<br>-- --------- -- ---- -- --- -- --- ------- -- - -----<br>---------- -- -- -- ---- ----- in ------ -- --- ------<br>-------,213514.29999999702,213513.5,213126.899,213138.39999999106,213143.571,213526.807,,44,in
screen,html.Screen,0_4_1_0_1_45,2021-12-03T12:42:53.597Z,,,,,,,,,,,,,,,,48,,,,,,,,,,,,,,450.5929999910586,,response,,,10,B,,,,,Space,keypress(Space),,,,lyrical,-- -- --- ------ ------- --------- ----------- --------<br>--------- -------- --- ------- -- ------- ---- -- ------<br>-- --- -------- -------- ---------- ---- ---- ---- ------<br>-- --------- -- ---- -- --- -- --- ------- -- - -----<br>---------- -- -- -- ---- ----- -- prison -- --- ------<br>-------,213978.20000000298,213977.39999999106,213510.138,213514.5,213526.807,213993.661,,45,prison
screen,html.Screen,0_4_1_0_1_46,2021-12-03T12:42:54.037Z,,,,,,,,,,,,,,,,48,,,,,,,,,,,,,,423.8390000000072,,response,,,10,B,,,,,Space,keypress(Space),,,,lyrical,-- -- --- ------ ------- --------- ----------- --------<br>--------- -------- --- ------- -- ------- ---- -- ------<br>-- --- -------- -------- ---------- ---- ---- ---- ------<br>-- --------- -- ---- -- --- -- --- ------- -- - -----<br>---------- -- -- -- ---- ----- -- ------ in --- ------<br>-------,214418.20000000298,214417.5,213976.991,213978.5,213993.661,214427.289,,46,in
screen,html.Screen,0_4_1_0_1_47,2021-12-03T12:42:54.493Z,,,,,,,,,,,,,,,,48,,,,,,,,,,,,,,446.21100000001024,,response,,,10,B,,,,,Space,keypress(Space),,,,lyrical,-- -- --- ------ ------- --------- ----------- --------<br>--------- -------- --- ------- -- ------- ---- -- ------<br>-- --- -------- -------- ---------- ---- ---- ---- ------<br>-- --------- -- ---- -- --- -- --- ------- -- - -----<br>---------- -- -- -- ---- ----- -- ------ -- the ------<br>-------,214874.29999999702,214873.5,214410.616,214418.39999999106,214427.289,214877.249,,47,the
screen,html.Screen,0_4_1_0_1_48,2021-12-03T12:42:54.981Z,,,,,,,,,,,,,,,,48,,,,,,,,,,,,,,484.2509999999893,,response,,,10,B,,,,,Space,keypress(Space),,,,lyrical,-- -- --- ------ ------- --------- ----------- --------<br>--------- -------- --- ------- -- ------- ---- -- ------<br>-- --- -------- -------- ---------- ---- ---- ---- ------<br>-- --------- -- ---- -- --- -- --- ------- -- - -----<br>---------- -- -- -- ---- ----- -- ------ -- --- United<br>-------,215362.20000000298,215361.5,214860.579,214874.5,214877.249,215377.402,,48,United
screen,html.Screen,0_4_1_0_1_49,2021-12-03T12:42:55.685Z,,,,,,,,,,,,,,,,48,,,,,,,,,,,,,,687.9979999910574,,response,,,10,B,,,,,Space,keypress(Space),,,,lyrical,-- -- --- ------ ------- --------- ----------- --------<br>--------- -------- --- ------- -- ------- ---- -- ------<br>-- --- -------- -------- ---------- ---- ---- ---- ------<br>-- --------- -- ---- -- --- -- --- ------- -- - -----<br>---------- -- -- -- ---- ----- -- ------ -- --- ------<br>States.,216066.29999999702,216065.39999999106,215360.732,215362.39999999106,215377.402,216077.577,,49,States.
Item 10,flow.Loop,0_4_1_0_1,2021-12-03T12:42:55.685Z,,,,,,,,,,,,,,,,,,,,,,,,,,,,,,28828.90799999106,,completion,,,,,,,,,,,,,,,,216066.59999999404,216065.39999999106,187219.822,187221.09999999404,187236.492,216077.577,,,
Question 1,html.Screen,0_4_1_0_2,2021-12-03T12:43:01.573Z,,,,,,,,,,,,,,,,,,,,,,,,,,,true,TRUE,,5875.322999991069,,response,,,10,B,,,,,TRUE,click #choice-1,,,,lyrical,,221954.09999999404,221952.89999999106,216060.907,216066.89999999106,216077.577,221962.431,,,
Question 2,html.Screen,0_4_1_0_3,2021-12-03T12:43:05.300Z,,,,,,,,,,,,,,,,,,,,,,,,,,,true,TRUE,,3718.3689999970084,,response,,,10,B,,,,,TRUE,click #choice-1,,,,lyrical,,225682,225680.79999999702,221945.761,221954.29999999702,221962.431,225696.758,,,
Item 10,flow.Sequence,0_4_1_0,2021-12-03T12:43:05.301Z,,,,,,,,,,,,,,,,,,,,,,,,,,,,,,45446.06099999702,,completion,,,,,,,,,,,,,,,,225682.39999999106,225680.79999999702,180218.068,180219.20000000298,180234.739,225696.758,,,
Holding screen,html.Screen,0_4_1_1_0,2021-12-03T12:43:12.303Z,,,,,,,,,,,,,,,,,,,,,,,,,,,,,,7002.132000000012,,timeout,,,,,,,,,,,,,,,,232684.09999999404,232682.493,225680.088,225682.70000000298,225696.758,232698.89,,,
screen,html.Screen,0_4_1_1_1_0,2021-12-03T12:43:13.708Z,,,,,,,,,,,,,,,,51,,,,,,,,,,,,,,1390.109999999986,,response,,,13,B,,,,,Space,keypress(Space),,,,lyrical,American -------- --- --- ---- --- --- ------ -- --------<br>---- --------- --- ------- ------------ ---------- ---------<br>--- ---------- ------- ---------- ------- -- -------- ----<br>---- --- ------ ----- ------ -- ---- --- ----- -- - -------<br>-------- -- --- --- -- ----- ----------- ----- -----------<br>---- --- ---------- --- ---- --- -- ----------,234089.79999999702,234089,232682.493,232684.70000000298,232698.89,234092.479,,0,American
screen,html.Screen,0_4_1_1_1_1,2021-12-03T12:43:14.332Z,,,,,,,,,,,,,,,,51,,,,,,,,,,,,,,620.1209999940475,,response,,,13,B,,,,,Space,keypress(Space),,,,lyrical,-------- industry --- --- ---- --- --- ------ -- --------<br>---- --------- --- ------- ------------ ---------- ---------<br>--- ---------- ------- ---------- ------- -- -------- ----<br>---- --- ------ ----- ------ -- ---- --- ----- -- - -------<br>-------- -- --- --- -- ----- ----------- ----- -----------<br>---- --- ---------- --- ---- --- -- ----------,234713.39999999106,234712.59999999404,234076.083,234090.20000000298,234092.479,234716.573,,1,industry
screen,html.Screen,0_4_1_1_1_2,2021-12-03T12:43:15.124Z,,,,,,,,,,,,,,,,51,,,,,,,,,,,,,,787.926999999996,,response,,,13,B,,,,,Space,keypress(Space),,,,lyrical,-------- -------- may --- ---- --- --- ------ -- --------<br>---- --------- --- ------- ------------ ---------- ---------<br>--- ---------- ------- ---------- ------- -- -------- ----<br>---- --- ------ ----- ------ -- ---- --- ----- -- - -------<br>-------- -- --- --- -- ----- ----------- ----- -----------<br>---- --- ---------- --- ---- --- -- ----------,235505.39999999106,235504.5,234700.172,234713.59999999404,234716.573,235515.829,,2,may
screen,html.Screen,0_4_1_1_1_3,2021-12-03T12:43:16.596Z,,,,,,,,,,,,,,,,51,,,,,,,,,,,,,,1460.5709999910614,,response,,,13,B,,,,,Space,keypress(Space),,,,lyrical,-------- -------- --- not ---- --- --- ------ -- --------<br>---- --------- --- ------- ------------ ---------- ---------<br>--- ---------- ------- ---------- ------- -- -------- ----<br>---- --- ------ ----- ------ -- ---- --- ----- -- - -------<br>-------- -- --- --- -- ----- ----------- ----- -----------<br>---- --- ---------- --- ---- --- -- ----------,236977.20000000298,236976.39999999106,235499.357,235505.70000000298,235515.829,236983.036,,3,not
