sender,sender_type,sender_id,timestamp,meta,,Blues,Classical,Country,Dance,Electronic,Folk,Gospel,Hip-Hop,Jazz,Latin,Musical/Film,New-age,Pop,Provo_ID,R&B,Rap,Reggae,Religious,Rock,Soul,Swing,Traditional,age,artist_name,correct,correctResponse,distraction,duration,education,ended_on,familiarity,gender,item,list,music_frequency,offensiveness,pleasantness,preference,response,response_action,snippet_file,song_name,song_rating,sound,text,time_commit,time_end,time_render,time_run,time_show,time_switch,url,word,word_ID
Instructions,html.Page,0_0,2021-11-04T13:16:57.207Z,"{""labjs_version"":""20.2.3"",""labjs_build"":{""flavor"":""production"",""commit"":""7ea907d66ca8aeef8054924ca5d82ffbe11e34e5""},""location"":""https://run.pavlovia.org/mvasilev/lab_music_f/"",""userAgent"":""Mozilla/5.0 (Windows NT 6.1; Win64; x64) AppleWebKit/537.36 (KHTML, like Gecko) Chrome/95.0.4638.54 Safari/537.36"",""platform"":""Win32"",""language"":""en-US"",""locale"":""en-US"",""timeZone"":""Europe/London"",""timezoneOffset"":0,""screen_width"":1920,""screen_height"":1080,""scroll_width"":1920,""scroll_height"":959,""window_innerWidth"":1920,""window_innerHeight"":1007,""devicePixelRatio"":1}",,,,,,,,,,,,,,,,,,,,,,,,,,,,,64368.61500000223,,form submission,,,,,,,,,,,,,,,,73177.69999999925,73176.40000000224,8791.115,8801.10000000149,8807.785,73174.694,{},,
Headphones,html.Page,0_1,2021-11-04T13:16:59.899Z,,,,,,,,,,,,,,,,,,,,,,,,,,,,,,2694.305999999997,,form submission,,,,,,,,,,,,,,,,75869.5,75869,73158.018,73178.5,73174.694,75875.19,,,
Holding screen,html.Screen,0_2_0_0,2021-11-04T13:17:09.897Z,,,,,,,,,,,,,,,,,,,,,,,,,,,,,,10002.506999999998,,timeout,,,,,,,,,,,,,,,,85867.80000000075,85861.028,75858.52,75870,75875.19,85877.697,,,
screen,html.Screen,0_2_0_1_0,2021-11-04T13:17:09.924Z,,,,,,,,,,,,,,,,53,,,,,,,,,,,,,,18.471999999994296,,response,,,99,,,,,,Space,keypress(Space),,,,,When -- ----- -- ------ - ------- --- ----------<br>------------- ------ ------ ---- ---- ------- ----- -- ----<br>-------- ------- -- ---------- --- - --- ----- ----- ----<br>---- --- --- ----- --- ---- ---- ------- ----- ---- -------<br>--- --- -- ----- -- --- ---- -- --- ---- -- ------ ------<br>--- ----- -- ----,85895,85879.5,85861.028,85868.19999999925,,85894.366,,0,When
screen,html.Screen,0_2_0_1_1,2021-11-04T13:17:09.943Z,,,,,,,,,,,,,,,,53,,,,,,,,,,,,,,18.034000002240646,,response,,,99,,,,,,Space,keypress(Space),,,,,---- it ----- -- ------ - ------- --- ----------<br>------------- ------ ------ ---- ---- ------- ----- -- ----<br>-------- ------- -- ---------- --- - --- ----- ----- ----<br>---- --- --- ----- --- ---- ---- ------- ----- ---- -------<br>--- --- -- ----- -- --- ---- -- --- ---- -- ------ ------<br>--- ----- -- ----,85913.40000000224,85912.40000000224,85877.697,85895.30000000075,85894.366,85927.704,,1,it
screen,html.Screen,0_2_0_1_2,2021-11-04T13:17:09.976Z,,,,,,,,,,,,,,,,53,,,,,,,,,,,,,,17.995999999257037,,response,,,99,,,,,,Space,keypress(Space),,,,,---- -- comes -- ------ - ------- --- ----------<br>------------- ------ ------ ---- ---- ------- ----- -- ----<br>-------- ------- -- ---------- --- - --- ----- ----- ----<br>---- --- --- ----- --- ---- ---- ------- ----- ---- -------<br>--- --- -- ----- -- --- ---- -- --- ---- -- ------ ------<br>--- ----- -- ----,85946.40000000224,85945.69999999925,85911.035,85913.60000000149,85927.704,85961.253,,2,comes
screen,html.Screen,0_2_0_1_3,2021-11-04T13:17:10.009Z,,,,,,,,,,,,,,,,53,,,,,,,,,,,,,,17.1470000022382,,response,,,99,,,,,,Space,keypress(Space),,,,,---- -- ----- to ------ - ------- --- ----------<br>------------- ------ ------ ---- ---- ------- ----- -- ----<br>-------- ------- -- ---------- --- - --- ----- ----- ----<br>---- --- --- ----- --- ---- ---- ------- ----- ---- -------<br>--- --- -- ----- -- --- ---- -- --- ---- -- ------ ------<br>--- ----- -- ----,85979.40000000224,85978.40000000224,85944.582,85946.60000000149,85961.253,85994.671,,3,to
screen,html.Screen,0_2_0_1_4,2021-11-04T13:17:10.042Z,,,,,,,,,,,,,,,,53,,,,,,,,,,,,,,16.828999999997905,,response,,,99,,,,,,Space,keypress(Space),,,,,---- -- ----- -- having - ------- --- ----------<br>------------- ------ ------ ---- ---- ------- ----- -- ----<br>-------- ------- -- ---------- --- - --- ----- ----- ----<br>---- --- --- ----- --- ---- ---- ------- ----- ---- -------<br>--- --- -- ----- -- --- ---- -- --- ---- -- ------ ------<br>--- ----- -- ----,86012.40000000224,86011.5,85977.949,85979.69999999925,85994.671,86027.868,,4,having
screen,html.Screen,0_2_0_1_5,2021-11-04T13:17:10.075Z,,,,,,,,,,,,,,,,53,,,,,,,,,,,,,,16.732000001487904,,response,,,99,,,,,,Space,keypress(Space),,,,,---- -- ----- -- ------ a ------- --- ----------<br>------------- ------ ------ ---- ---- ------- ----- -- ----<br>-------- ------- -- ---------- --- - --- ----- ----- ----<br>---- --- --- ----- --- ---- ---- ------- ----- ---- -------<br>--- --- -- ----- -- --- ---- -- --- ---- -- ------ ------<br>--- ----- -- ----,86045.69999999925,86044.60000000149,86011.359,86012.69999999925,86027.868,86061.214,,5,a
screen,html.Screen,0_2_0_1_6,2021-11-04T13:17:10.108Z,,,,,,,,,,,,,,,,53,,,,,,,,,,,,,,16.3860000014829,,response,,,99,,,,,,Space,keypress(Space),,,,,---- -- ----- -- ------ - lasting --- ----------<br>------------- ------ ------ ---- ---- ------- ----- -- ----<br>-------- ------- -- ---------- --- - --- ----- ----- ----<br>---- --- --- ----- --- ---- ---- ------- ----- ---- -------<br>--- --- -- ----- -- --- ---- -- --- ---- -- ------ ------<br>--- ----- -- ----,86078.5,86077.60000000149,86044.511,86046,86061.214,86094.61,,6,lasting
screen,html.Screen,0_2_0_1_7,2021-11-04T13:17:10.141Z,,,,,,,,,,,,,,,,53,,,,,,,,,,,,,,15.990000001489534,,response,,,99,,,,,,Space,keypress(Space),,,,,---- -- ----- -- ------ - ------- and ----------<br>------------- ------ ------ ---- ---- ------- ----- -- ----<br>-------- ------- -- ---------- --- - --- ----- ----- ----<br>---- --- --- ----- --- ---- ---- ------- ----- ---- -------<br>--- --- -- ----- -- --- ---- -- --- ---- -- ------ ------<br>--- ----- -- ----,86111.5,86110.60000000149,86077.869,86079.19999999925,86094.61,86127.949,,7,and
screen,html.Screen,0_2_0_1_8,2021-11-04T13:17:10.174Z,,,,,,,,,,,,,,,,53,,,,,,,,,,,,,,15.651000001496868,,response,,,99,,,,,,Space,keypress(Space),,,,,---- -- ----- -- ------ - ------- --- fulfilling<br>------------- ------ ------ ---- ---- ------- ----- -- ----<br>-------- ------- -- ---------- --- - --- ----- ----- ----<br>---- --- --- ----- --- ---- ---- ------- ----- ---- -------<br>--- --- -- ----- -- --- ---- -- --- ---- -- ------ ------<br>--- ----- -- ----,86144.90000000224,86143.60000000149,86111.282,86111.90000000224,86127.949,86161.292,,8,fulfilling
screen,html.Screen,0_2_0_1_9,2021-11-04T13:17:10.207Z,,,,,,,,,,,,,,,,53,,,,,,,,,,,,,,15.20799999999872,,response,,,99,,,,,,Space,keypress(Space),,,,,"---- -- ----- -- ------ - ------- --- ----------<br>relationship, ------ ------ ---- ---- ------- ----- -- ----<br>-------- ------- -- ---------- --- - --- ----- ----- ----<br>---- --- --- ----- --- ---- ---- ------- ----- ---- -------<br>--- --- -- ----- -- --- ---- -- --- ---- -- ------ ------<br>--- ----- -- ----",86177.5,86176.5,86144.621,86145.19999999925,86161.292,86194.65,,9,"relationship,"
screen,html.Screen,0_2_0_1_10,2021-11-04T13:17:10.240Z,,,,,,,,,,,,,,,,53,,,,,,,,,,,,,,14.950000001495937,,response,,,99,,,,,,Space,keypress(Space),,,,,---- -- ----- -- ------ - ------- --- ----------<br>------------- common ------ ---- ---- ------- ----- -- ----<br>-------- ------- -- ---------- --- - --- ----- ----- ----<br>---- --- --- ----- --- ---- ---- ------- ----- ---- -------<br>--- --- -- ----- -- --- ---- -- --- ---- -- ------ ------<br>--- ----- -- ----,86210.60000000149,86209.60000000149,86177.963,86177.80000000075,86194.65,86227.966,,10,common
screen,html.Screen,0_2_0_1_11,2021-11-04T13:17:10.273Z,,,,,,,,,,,,,,,,53,,,,,,,,,,,,,,14.53399999999965,,response,,,99,,,,,,Space,keypress(Space),,,,,---- -- ----- -- ------ - ------- --- ----------<br>------------- ------ wisdom ---- ---- ------- ----- -- ----<br>-------- ------- -- ---------- --- - --- ----- ----- ----<br>---- --- --- ----- --- ---- ---- ------- ----- ---- -------<br>--- --- -- ----- -- --- ---- -- --- ---- -- ------ ------<br>--- ----- -- ----,86243.60000000149,86242.5,86211.324,86210.80000000075,86227.966,86261.316,,11,wisdom
screen,html.Screen,0_2_0_1_12,2021-11-04T13:17:12.388Z,,,,,,,,,,,,,,,,53,,,,,,,,,,,,,,2096.784000001484,,response,,,99,,,,,,Space,keypress(Space),,,,,---- -- ----- -- ------ - ------- --- ----------<br>------------- ------ ------ says ---- ------- ----- -- ----<br>-------- ------- -- ---------- --- - --- ----- ----- ----<br>---- --- --- ----- --- ---- ---- ------- ----- ---- -------<br>--- --- -- ----- -- --- ---- -- --- ---- -- ------ ------<br>--- ----- -- ----,88359,88358.10000000149,86244.633,86243.80000000075,86261.316,88361.738,,12,says
screen,html.Screen,0_2_0_1_13,2021-11-04T13:17:12.844Z,,,,,,,,,,,,,,,,53,,,,,,,,,,,,,,452.4619999992574,,response,,,99,,,,,,Space,keypress(Space),,,,,---- -- ----- -- ------ - ------- --- ----------<br>------------- ------ ------ ---- that ------- ----- -- ----<br>-------- ------- -- ---------- --- - --- ----- ----- ----<br>---- --- --- ----- --- ---- ---- ------- ----- ---- -------<br>--- --- -- ----- -- --- ---- -- --- ---- -- ------ ------<br>--- ----- -- ----,88815,88814.19999999925,88345.068,88359.30000000075,88361.738,88828.467,,13,that
screen,html.Screen,0_2_0_1_14,2021-11-04T13:17:13.340Z,,,,,,,,,,,,,,,,53,,,,,,,,,,,,,,481.73299999925075,,response,,,99,,,,,,Space,keypress(Space),,,,,---- -- ----- -- ------ - ------- --- ----------<br>------------- ------ ------ ---- ---- feeling ----- -- ----<br>-------- ------- -- ---------- --- - --- ----- ----- ----<br>---- --- --- ----- --- ---- ---- ------- ----- ---- -------<br>--- --- -- ----- -- --- ---- -- --- ---- -- ------ ------<br>--- ----- -- ----,89310.90000000224,89310.19999999925,88811.798,88815.30000000075,88828.467,89312.148,,14,feeling
screen,html.Screen,0_2_0_1_15,2021-11-04T13:17:13.820Z,,,,,,,,,,,,,,,,53,,,,,,,,,,,,,,478.0519999992539,,response,,,99,,,,,,Space,keypress(Space),,,,,---- -- ----- -- ------ - ------- --- ----------<br>------------- ------ ------ ---- ---- ------- close -- ----<br>-------- ------- -- ---------- --- - --- ----- ----- ----<br>---- --- --- ----- --- ---- ---- ------- ----- ---- -------<br>--- --- -- ----- -- --- ---- -- --- ---- -- ------ ------<br>--- ----- -- ----,89791,89790.19999999925,89295.477,89311.19999999925,89312.148,89795.573,,15,close
screen,html.Screen,0_2_0_1_16,2021-11-04T13:17:14.556Z,,,,,,,,,,,,,,,,53,,,,,,,,,,,,,,730.426999999996,,response,,,99,,,,,,Space,keypress(Space),,,,,---- -- ----- -- ------ - ------- --- ----------<br>------------- ------ ------ ---- ---- ------- ----- to ----<br>-------- ------- -- ---------- --- - --- ----- ----- ----<br>---- --- --- ----- --- ---- ---- ------- ----- ---- -------<br>--- --- -- ----- -- --- ---- -- --- ---- -- ------ ------<br>--- ----- -- ----,90526.90000000224,90526,89778.903,89791.19999999925,89795.573,90529.143,,16,to
screen,html.Screen,0_2_0_1_17,2021-11-04T13:17:15.140Z,,,,,,,,,,,,,,,,53,,,,,,,,,,,,,,580.8570000000036,,response,,,99,,,,,,Space,keypress(Space),,,,,---- -- ----- -- ------ - ------- --- ----------<br>------------- ------ ------ ---- ---- ------- ----- -- your<br>-------- ------- -- ---------- --- - --- ----- ----- ----<br>---- --- --- ----- --- ---- ---- ------- ----- ---- -------<br>--- --- -- ----- -- --- ---- -- --- ---- -- ------ ------<br>--- ----- -- ----,91110.80000000075,91110,90512.472,90527.19999999925,90529.143,91112.539,,17,your
screen,html.Screen,0_2_0_1_18,2021-11-04T13:17:15.588Z,,,,,,,,,,,,,,,,53,,,,,,,,,,,,,,445.4609999999957,,response,,,99,,,,,,Space,keypress(Space),,,,,---- -- ----- -- ------ - ------- --- ----------<br>------------- ------ ------ ---- ---- ------- ----- -- ----<br>romantic ------- -- ---------- --- - --- ----- ----- ----<br>---- --- --- ----- --- ---- ---- ------- ----- ---- -------<br>--- --- -- ----- -- --- ---- -- --- ---- -- ------ ------<br>--- ----- -- ----,91558.90000000224,91558,91095.869,91111.10000000149,91112.539,91562.742,,18,romantic
screen,html.Screen,0_2_0_1_19,2021-11-04T13:17:16.004Z,,,,,,,,,,,,,,,,53,,,,,,,,,,,,,,411.1580000022368,,response,,,99,,,,,,Space,keypress(Space),,,,,---- -- ----- -- ------ - ------- --- ----------<br>------------- ------ ------ ---- ---- ------- ----- -- ----<br>-------- partner -- ---------- --- - --- ----- ----- ----<br>---- --- --- ----- --- ---- ---- ------- ----- ---- -------<br>--- --- -- ----- -- --- ---- -- --- ---- -- ------ ------<br>--- ----- -- ----,91974.69999999925,91973.90000000224,91546.071,91559.10000000149,91562.742,91979.462,,19,partner
screen,html.Screen,0_2_0_1_20,2021-11-04T13:17:16.452Z,,,,,,,,,,,,,,,,53,,,,,,,,,,,,,,442.53800000000047,,response,,,99,,,,,,Space,keypress(Space),,,,,---- -- ----- -- ------ - ------- --- ----------<br>------------- ------ ------ ---- ---- ------- ----- -- ----<br>-------- ------- is ---------- --- - --- ----- ----- ----<br>---- --- --- ----- --- ---- ---- ------- ----- ---- -------<br>--- --- -- ----- -- --- ---- -- --- ---- -- ------ ------<br>--- ----- -- ----,92422.80000000075,92422,91962.792,91975,91979.462,92429.567,,20,is
screen,html.Screen,0_2_0_1_21,2021-11-04T13:17:16.956Z,,,,,,,,,,,,,,,,53,,,,,,,,,,,,,,496.43300000000454,,response,,,99,,,,,,Space,keypress(Space),,,,,---- -- ----- -- ------ - ------- --- ----------<br>------------- ------ ------ ---- ---- ------- ----- -- ----<br>-------- ------- -- paramount. --- - --- ----- ----- ----<br>---- --- --- ----- --- ---- ---- ------- ----- ---- -------<br>--- --- -- ----- -- --- ---- -- --- ---- -- ------ ------<br>--- ----- -- ----,92926.80000000075,92926,92412.897,92423.10000000149,92429.567,92929.771,,21,paramount.
screen,html.Screen,0_2_0_1_22,2021-11-04T13:17:17.436Z,,,,,,,,,,,,,,,,53,,,,,,,,,,,,,,476.1290000022418,,response,,,99,,,,,,Space,keypress(Space),,,,,---- -- ----- -- ------ - ------- --- ----------<br>------------- ------ ------ ---- ---- ------- ----- -- ----<br>-------- ------- -- ---------- But - --- ----- ----- ----<br>---- --- --- ----- --- ---- ---- ------- ----- ---- -------<br>--- --- -- ----- -- --- ---- -- --- ---- -- ------ ------<br>--- ----- -- ----,93406.69999999925,93405.90000000224,92913.1,92927.30000000075,92929.771,93413.105,,22,But
screen,html.Screen,0_2_0_1_23,2021-11-04T13:17:17.860Z,,,,,,,,,,,,,,,,53,,,,,,,,,,,,,,417.094999999259,,response,,,99,,,,,,Space,keypress(Space),,,,,---- -- ----- -- ------ - ------- --- ----------<br>------------- ------ ------ ---- ---- ------- ----- -- ----<br>-------- ------- -- ---------- --- a --- ----- ----- ----<br>---- --- --- ----- --- ---- ---- ------- ----- ---- -------<br>--- --- -- ----- -- --- ---- -- --- ---- -- ------ ------<br>--- ----- -- ----,93831.10000000149,93830.19999999925,93396.436,93407,93413.105,93846.586,,23,a
screen,html.Screen,0_2_0_1_24,2021-11-04T13:17:18.276Z,,,,,,,,,,,,,,,,53,,,,,,,,,,,,,,399.21400000074937,,response,,,99,,,,,,Space,keypress(Space),,,,,---- -- ----- -- ------ - ------- --- ----------<br>------------- ------ ------ ---- ---- ------- ----- -- ----<br>-------- ------- -- ---------- --- - new ----- ----- ----<br>---- --- --- ----- --- ---- ---- ------- ----- ---- -------<br>--- --- -- ----- -- --- ---- -- --- ---- -- ------ ------<br>--- ----- -- ----,94246.60000000149,94245.80000000075,93829.916,93831.30000000075,93846.586,94263.445,,24,new
screen,html.Screen,0_2_0_1_25,2021-11-04T13:17:18.652Z,,,,,,,,,,,,,,,,53,,,,,,,,,,,,,,358.3550000007381,,response,,,99,,,,,,Space,keypress(Space),,,,,---- -- ----- -- ------ - ------- --- ----------<br>------------- ------ ------ ---- ---- ------- ----- -- ----<br>-------- ------- -- ---------- --- - --- study ----- ----<br>---- --- --- ----- --- ---- ---- ------- ----- ---- -------<br>--- --- -- ----- -- --- ---- -- --- ---- -- ------ ------<br>--- ----- -- ----,94622.60000000149,94621.80000000075,94246.774,94246.90000000224,94263.445,94630.147,,25,study
screen,html.Screen,0_2_0_1_26,2021-11-04T13:17:19.020Z,,,,,,,,,,,,,,,,53,,,,,,,,,,,,,,359.65300000074785,,response,,,99,,,,,,Space,keypress(Space),,,,,---- -- ----- -- ------ - ------- --- ----------<br>------------- ------ ------ ---- ---- ------- ----- -- ----<br>-------- ------- -- ---------- --- - --- ----- finds ----<br>---- --- --- ----- --- ---- ---- ------- ----- ---- -------<br>--- --- -- ----- -- --- ---- -- --- ---- -- ------ ------<br>--- ----- -- ----,94990.60000000149,94989.80000000075,94613.477,94622.90000000224,94630.147,94996.83,,26,finds
screen,html.Screen,0_2_0_1_27,2021-11-04T13:17:19.396Z,,,,,,,,,,,,,,,,53,,,,,,,,,,,,,,368.8699999992532,,response,,,99,,,,,,Space,keypress(Space),,,,,---- -- ----- -- ------ - ------- --- ----------<br>------------- ------ ------ ---- ---- ------- ----- -- ----<br>-------- ------- -- ---------- --- - --- ----- ----- that<br>---- --- --- ----- --- ---- ---- ------- ----- ---- -------<br>--- --- -- ----- -- --- ---- -- --- ---- -- ------ ------<br>--- ----- -- ----,95366.60000000149,95365.69999999925,94980.161,94990.80000000075,94996.83,95380.301,,27,that
screen,html.Screen,0_2_0_1_28,2021-11-04T13:17:19.732Z,,,,,,,,,,,,,,,,53,,,,,,,,,,,,,,321.4990000007383,,response,,,99,,,,,,Space,keypress(Space),,,,,---- -- ----- -- ------ - ------- --- ----------<br>------------- ------ ------ ---- ---- ------- ----- -- ----<br>-------- ------- -- ---------- --- - --- ----- ----- ----<br>it's --- --- ----- --- ---- ---- ------- ----- ---- -------<br>--- --- -- ----- -- --- ---- -- --- ---- -- ------ ------<br>--- ----- -- ----,95702.60000000149,95701.80000000075,95363.631,95366.90000000224,95380.301,95713.846,,28,it's
screen,html.Screen,0_2_0_1_29,2021-11-04T13:17:20.092Z,,,,,,,,,,,,,,,,53,,,,,,,,,,,,,,347.85399999924994,,response,,,99,,,,,,Space,keypress(Space),,,,,---- -- ----- -- ------ - ------- --- ----------<br>------------- ------ ------ ---- ---- ------- ----- -- ----<br>-------- ------- -- ---------- --- - --- ----- ----- ----<br>---- not --- ----- --- ---- ---- ------- ----- ---- -------<br>--- --- -- ----- -- --- ---- -- --- ---- -- ------ ------<br>--- ----- -- ----,96062.5,96061.69999999925,95697.174,95702.90000000224,95713.846,96063.835,,29,not
screen,html.Screen,0_2_0_1_30,2021-11-04T13:17:20.420Z,,,,,,,,,,,,,,,,53,,,,,,,,,,,,,,325.86499999924854,,response,,,99,,,,,,Space,keypress(Space),,,,,---- -- ----- -- ------ - ------- --- ----------<br>------------- ------ ------ ---- ---- ------- ----- -- ----<br>-------- ------- -- ---------- --- - --- ----- ----- ----<br>---- --- how ----- --- ---- ---- ------- ----- ---- -------<br>--- --- -- ----- -- --- ---- -- --- ---- -- ------ ------<br>--- ----- -- ----,96390.5,96389.69999999925,96047.165,96062.80000000075,96063.835,96397.31,,30,how
screen,html.Screen,0_2_0_1_31,2021-11-04T13:17:21.244Z,,,,,,,,,,,,,,,,53,,,,,,,,,,,,,,816.3899999992573,,response,,,99,,,,,,Space,keypress(Space),,,,,---- -- ----- -- ------ - ------- --- ----------<br>------------- ------ ------ ---- ---- ------- ----- -- ----<br>-------- ------- -- ---------- --- - --- ----- ----- ----<br>---- --- --- close --- ---- ---- ------- ----- ---- -------<br>--- --- -- ----- -- --- ---- -- --- ---- -- ------ ------<br>--- ----- -- ----,97214.5,97213.69999999925,96380.639,96390.80000000075,96397.31,97230.86,,31,close
screen,html.Screen,0_2_0_1_32,2021-11-04T13:17:21.532Z,,,,,,,,,,,,,,,,53,,,,,,,,,,,,,,270.74000000148953,,response,,,99,,,,,,Space,keypress(Space),,,,,---- -- ----- -- ------ - ------- --- ----------<br>------------- ------ ------ ---- ---- ------- ----- -- ----<br>-------- ------- -- ---------- --- - --- ----- ----- ----<br>---- --- --- ----- you ---- ---- ------- ----- ---- -------<br>--- --- -- ----- -- --- ---- -- --- ---- -- ------ ------<br>--- ----- -- ----,97502.80000000075,97501.60000000149,97214.189,97214.80000000075,97230.86,97514.276,,32,you
screen,html.Screen,0_2_0_1_33,2021-11-04T13:17:21.820Z,,,,,,,,,,,,,,,,53,,,,,,,,,,,,,,275.3240000014921,,response,,,99,,,,,,Space,keypress(Space),,,,,---- -- ----- -- ------ - ------- --- ----------<br>------------- ------ ------ ---- ---- ------- ----- -- ----<br>-------- ------- -- ---------- --- - --- ----- ----- ----<br>---- --- --- ----- --- feel ---- ------- ----- ---- -------<br>--- --- -- ----- -- --- ---- -- --- ---- -- ------ ------<br>--- ----- -- ----,97790.40000000224,97789.60000000149,97497.605,97503.10000000149,97514.276,97797.56,,33,feel
screen,html.Screen,0_2_0_1_34,2021-11-04T13:17:22.060Z,,,,,,,,,,,,,,,,53,,,,,,,,,,,,,,232.04000000149244,,response,,,99,,,,,,Space,keypress(Space),,,,,---- -- ----- -- ------ - ------- --- ----------<br>------------- ------ ------ ---- ---- ------- ----- -- ----<br>-------- ------- -- ---------- --- - --- ----- ----- ----<br>---- --- --- ----- --- ---- that ------- ----- ---- -------<br>--- --- -- ----- -- --- ---- -- --- ---- -- ------ ------<br>--- ----- -- ----,98030.40000000224,98029.60000000149,97780.891,97790.69999999925,97797.56,98047.83,,34,that
screen,html.Screen,0_2_0_1_35,2021-11-04T13:17:22.300Z,,,,,,,,,,,,,,,,53,,,,,,,,,,,,,,221.77000000148837,,response,,,99,,,,,,Space,keypress(Space),,,,,---- -- ----- -- ------ - ------- --- ----------<br>------------- ------ ------ ---- ---- ------- ----- -- ----<br>-------- ------- -- ---------- --- - --- ----- ----- ----<br>---- --- --- ----- --- ---- ---- matters ----- ---- -------<br>--- --- -- ----- -- --- ---- -- --- ---- -- ------ ------<br>--- ----- -- ----,98270.40000000224,98269.60000000149,98031.156,98030.60000000149,98047.83,98281.063,,35,matters
screen,html.Screen,0_2_0_1_36,2021-11-04T13:17:22.580Z,,,,,,,,,,,,,,,,53,,,,,,,,,,,,,,268.53700000149547,,response,,,99,,,,,,Space,keypress(Space),,,,,"---- -- ----- -- ------ - ------- --- ----------<br>------------- ------ ------ ---- ---- ------- ----- -- ----<br>-------- ------- -- ---------- --- - --- ----- ----- ----<br>---- --- --- ----- --- ---- ---- ------- most, ---- -------<br>--- --- -- ----- -- --- ---- -- --- ---- -- ------ ------<br>--- ----- -- ----",98550.40000000224,98549.60000000149,98264.394,98270.69999999925,98281.063,98564.539,,36,"most,"
screen,html.Screen,0_2_0_1_37,2021-11-04T13:17:23.020Z,,,,,,,,,,,,,,,,53,,,,,,,,,,,,,,425.0610000014858,,response,,,99,,,,,,Space,keypress(Space),,,,,---- -- ----- -- ------ - ------- --- ----------<br>------------- ------ ------ ---- ---- ------- ----- -- ----<br>-------- ------- -- ---------- --- - --- ----- ----- ----<br>---- --- --- ----- --- ---- ---- ------- ----- it's -------<br>--- --- -- ----- -- --- ---- -- --- ---- -- ------ ------<br>--- ----- -- ----,98990.40000000224,98989.60000000149,98547.868,98550.60000000149,98564.539,98997.982,,37,it's
screen,html.Screen,0_2_0_1_38,2021-11-04T13:17:23.332Z,,,,,,,,,,,,,,,,53,,,,,,,,,,,,,,303.6180000014865,,response,,,99,,,,,,Space,keypress(Space),,,,,---- -- ----- -- ------ - ------- --- ----------<br>------------- ------ ------ ---- ---- ------- ----- -- ----<br>-------- ------- -- ---------- --- - --- ----- ----- ----<br>---- --- --- ----- --- ---- ---- ------- ----- ---- whether<br>--- --- -- ----- -- --- ---- -- --- ---- -- ------ ------<br>--- ----- -- ----,99302.30000000075,99301.60000000149,98981.311,98990.60000000149,98997.982,99314.682,,38,whether
screen,html.Screen,0_2_0_1_39,2021-11-04T13:17:23.652Z,,,,,,,,,,,,,,,,53,,,,,,,,,,,,,,306.9180000014894,,response,,,99,,,,,,Space,keypress(Space),,,,,---- -- ----- -- ------ - ------- --- ----------<br>------------- ------ ------ ---- ---- ------- ----- -- ----<br>-------- ------- -- ---------- --- - --- ----- ----- ----<br>---- --- --- ----- --- ---- ---- ------- ----- ---- -------<br>you --- -- ----- -- --- ---- -- --- ---- -- ------ ------<br>--- ----- -- ----,99622.30000000075,99621.60000000149,99298.012,99302.60000000149,99314.682,99631.431,,39,you
screen,html.Screen,0_2_0_1_40,2021-11-04T13:17:23.924Z,,,,,,,,,,,,,,,,53,,,,,,,,,,,,,,262.16900000149326,,response,,,99,,,,,,Space,keypress(Space),,,,,---- -- ----- -- ------ - ------- --- ----------<br>------------- ------ ------ ---- ---- ------- ----- -- ----<br>-------- ------- -- ---------- --- - --- ----- ----- ----<br>---- --- --- ----- --- ---- ---- ------- ----- ---- -------<br>--- are -- ----- -- --- ---- -- --- ---- -- ------ ------<br>--- ----- -- ----,99894.40000000224,99893.60000000149,99614.761,99622.60000000149,99631.431,99898.213,,40,are
screen,html.Screen,0_2_0_1_41,2021-11-04T13:17:24.228Z,,,,,,,,,,,,,,,,53,,,,,,,,,,,,,,299.2869999999966,,response,,,99,,,,,,Space,keypress(Space),,,,,---- -- ----- -- ------ - ------- --- ----------<br>------------- ------ ------ ---- ---- ------- ----- -- ----<br>-------- ------- -- ---------- --- - --- ----- ----- ----<br>---- --- --- ----- --- ---- ---- ------- ----- ---- -------<br>--- --- as ----- -- --- ---- -- --- ---- -- ------ ------<br>--- ----- -- ----,100198.40000000224,100197.5,99881.542,99894.60000000149,99898.213,100214.884,,41,as
screen,html.Screen,0_2_0_1_42,2021-11-04T13:17:24.524Z,,,,,,,,,,,,,,,,53,,,,,,,,,,,,,,278.61599999999453,,response,,,99,,,,,,Space,keypress(Space),,,,,---- -- ----- -- ------ - ------- --- ----------<br>------------- ------ ------ ---- ---- ------- ----- -- ----<br>-------- ------- -- ---------- --- - --- ----- ----- ----<br>---- --- --- ----- --- ---- ---- ------- ----- ---- -------<br>--- --- -- close -- --- ---- -- --- ---- -- ------ ------<br>--- ----- -- ----,100494.30000000075,100493.5,100198.215,100198.60000000149,100214.884,100498.396,,42,close
screen,html.Screen,0_2_0_1_43,2021-11-04T13:17:24.820Z,,,,,,,,,,,,,,,,53,,,,,,,,,,,,,,291.10400000000664,,response,,,99,,,,,,Space,keypress(Space),,,,,---- -- ----- -- ------ - ------- --- ----------<br>------------- ------ ------ ---- ---- ------- ----- -- ----<br>-------- ------- -- ---------- --- - --- ----- ----- ----<br>---- --- --- ----- --- ---- ---- ------- ----- ---- -------<br>--- --- -- ----- as --- ---- -- --- ---- -- ------ ------<br>--- ----- -- ----,100790.30000000075,100789.5,100481.724,100494.5,100498.396,100798.411,,43,as
screen,html.Screen,0_2_0_1_44,2021-11-04T13:17:25.092Z,,,,,,,,,,,,,,,,53,,,,,,,,,,,,,,263.0890000000072,,response,,,99,,,,,,Space,keypress(Space),,,,,---- -- ----- -- ------ - ------- --- ----------<br>------------- ------ ------ ---- ---- ------- ----- -- ----<br>-------- ------- -- ---------- --- - --- ----- ----- ----<br>---- --- --- ----- --- ---- ---- ------- ----- ---- -------<br>--- --- -- ----- -- you ---- -- --- ---- -- ------ ------<br>--- ----- -- ----,101062.30000000075,101061.5,100781.741,100790.5,100798.411,101065.145,,44,you
screen,html.Screen,0_2_0_1_45,2021-11-04T13:17:25.380Z,,,,,,,,,,,,,,,,53,,,,,,,,,,,,,,284.655000000741,,response,,,99,,,,,,Space,keypress(Space),,,,,---- -- ----- -- ------ - ------- --- ----------<br>------------- ------ ------ ---- ---- ------- ----- -- ----<br>-------- ------- -- ---------- --- - --- ----- ----- ----<br>---- --- --- ----- --- ---- ---- ------- ----- ---- -------<br>--- --- -- ----- -- --- want -- --- ---- -- ------ ------<br>--- ----- -- ----,101350.69999999925,101349.80000000075,101048.475,101062.5,101065.145,101365.229,,45,want
screen,html.Screen,0_2_0_1_46,2021-11-04T13:17:25.660Z,,,,,,,,,,,,,,,,53,,,,,,,,,,,,,,264.27099999999336,,response,,,99,,,,,,Space,keypress(Space),,,,,---- -- ----- -- ------ - ------- --- ----------<br>------------- ------ ------ ---- ---- ------- ----- -- ----<br>-------- ------- -- ---------- --- - --- ----- ----- ----<br>---- --- --- ----- --- ---- ---- ------- ----- ---- -------<br>--- --- -- ----- -- --- ---- to --- ---- -- ------ ------<br>--- ----- -- ----,101630.19999999925,101629.5,101348.559,101350.90000000224,101365.229,101631.964,,46,to
screen,html.Screen,0_2_0_1_47,2021-11-04T13:17:25.924Z,,,,,,,,,,,,,,,,53,,,,,,,,,,,,,,261.43600000222796,,response,,,99,,,,,,Space,keypress(Space),,,,,"---- -- ----- -- ------ - ------- --- ----------<br>------------- ------ ------ ---- ---- ------- ----- -- ----<br>-------- ------- -- ---------- --- - --- ----- ----- ----<br>---- --- --- ----- --- ---- ---- ------- ----- ---- -------<br>--- --- -- ----- -- --- ---- -- be, ---- -- ------ ------<br>--- ----- -- ----",101894.19999999925,101893.40000000224,101615.294,101630.5,101631.964,101898.727,,47,"be,"
screen,html.Screen,0_2_0_1_48,2021-11-04T13:17:26.204Z,,,,,,,,,,,,,,,,53,,,,,,,,,,,,,,274.6730000022362,,response,,,99,,,,,,Space,keypress(Space),,,,,---- -- ----- -- ------ - ------- --- ----------<br>------------- ------ ------ ---- ---- ------- ----- -- ----<br>-------- ------- -- ---------- --- - --- ----- ----- ----<br>---- --- --- ----- --- ---- ---- ------- ----- ---- -------<br>--- --- -- ----- -- --- ---- -- --- even -- ------ ------<br>--- ----- -- ----,102174.30000000075,102173.40000000224,101882.056,101894.5,101898.727,102181.97,,48,even
screen,html.Screen,0_2_0_1_49,2021-11-04T13:17:26.468Z,,,,,,,,,,,,,,,,53,,,,,,,,,,,,,,255.430000002234,,response,,,99,,,,,,Space,keypress(Space),,,,,---- -- ----- -- ------ - ------- --- ----------<br>------------- ------ ------ ---- ---- ------- ----- -- ----<br>-------- ------- -- ---------- --- - --- ----- ----- ----<br>---- --- --- ----- --- ---- ---- ------- ----- ---- -------<br>--- --- -- ----- -- --- ---- -- --- ---- if ------ ------<br>--- ----- -- ----,102438.30000000075,102437.40000000224,102165.303,102174.5,102181.97,102448.831,,49,if
screen,html.Screen,0_2_0_1_50,2021-11-04T13:17:26.742Z,,,,,,,,,,,,,,,,53,,,,,,,,,,,,,,260.5690000022296,,response,,,99,,,,,,Space,keypress(Space),,,,,---- -- ----- -- ------ - ------- --- ----------<br>------------- ------ ------ ---- ---- ------- ----- -- ----<br>-------- ------- -- ---------- --- - --- ----- ----- ----<br>---- --- --- ----- --- ---- ---- ------- ----- ---- -------<br>--- --- -- ----- -- --- ---- -- --- ---- -- that's ------<br>--- ----- -- ----,102712.90000000224,102709.40000000224,102432.16,102438.40000000224,102448.831,102715.672,,50,that's
screen,html.Screen,0_2_0_1_51,2021-11-04T13:17:26.980Z,,,,,,,,,,,,,,,,53,,,,,,,,,,,,,,233.72800000222924,,response,,,99,,,,,,Space,keypress(Space),,,,,---- -- ----- -- ------ - ------- --- ----------<br>------------- ------ ------ ---- ---- ------- ----- -- ----<br>-------- ------- -- ---------- --- - --- ----- ----- ----<br>---- --- --- ----- --- ---- ---- ------- ----- ---- -------<br>--- --- -- ----- -- --- ---- -- --- ---- -- ------ really<br>--- ----- -- ----,102950.69999999925,102949.40000000224,102698.999,102713.19999999925,102715.672,102965.612,,51,really
screen,html.Screen,0_2_0_1_52,2021-11-04T13:17:27.387Z,,,,,,,,,,,,,,,,53,,,,,,,,,,,,,,391.68800000075134,,response,,,99,,,,,,Space,keypress(Space),,,,,---- -- ----- -- ------ - ------- --- ----------<br>------------- ------ ------ ---- ---- ------- ----- -- ----<br>-------- ------- -- ---------- --- - --- ----- ----- ----<br>---- --- --- ----- --- ---- ---- ------- ----- ---- -------<br>--- --- -- ----- -- --- ---- -- --- ---- -- ------ ------<br>not ----- -- ----,103358.10000000149,103357.30000000075,102948.943,102951,102965.612,103365.776,,52,not
screen,html.Screen,0_2_0_1_53,2021-11-04T13:17:27.667Z,,,,,,,,,,,,,,,,53,,,,,,,,,,,,,,271.52400000074704,,response,,,99,,,,,,Space,keypress(Space),,,,,---- -- ----- -- ------ - ------- --- ----------<br>------------- ------ ------ ---- ---- ------- ----- -- ----<br>-------- ------- -- ---------- --- - --- ----- ----- ----<br>---- --- --- ----- --- ---- ---- ------- ----- ---- -------<br>--- --- -- ----- -- --- ---- -- --- ---- -- ------ ------<br>--- close -- ----,103638.10000000149,103637.30000000075,103349.105,103358.40000000224,103365.776,103649.157,,53,close
screen,html.Screen,0_2_0_1_54,2021-11-04T13:17:27.956Z,,,,,,,,,,,,,,,,53,,,,,,,,,,,,,,276.64300000073854,,response,,,99,,,,,,Space,keypress(Space),,,,,---- -- ----- -- ------ - ------- --- ----------<br>------------- ------ ------ ---- ---- ------- ----- -- ----<br>-------- ------- -- ---------- --- - --- ----- ----- ----<br>---- --- --- ----- --- ---- ---- ------- ----- ---- -------<br>--- --- -- ----- -- --- ---- -- --- ---- -- ------ ------<br>--- ----- at ----,103926.69999999925,103925.80000000075,103632.487,103638.40000000224,103649.157,103932.477,,54,at
screen,html.Screen,0_2_0_1_55,2021-11-04T13:17:28.323Z,,,,,,,,,,,,,,,,53,,,,,,,,,,,,,,360.8230000007461,,response,,,99,,,,,,Space,keypress(Space),,,,,---- -- ----- -- ------ - ------- --- ----------<br>------------- ------ ------ ---- ---- ------- ----- -- ----<br>-------- ------- -- ---------- --- - --- ----- ----- ----<br>---- --- --- ----- --- ---- ---- ------- ----- ---- -------<br>--- --- -- ----- -- --- ---- -- --- ---- -- ------ ------<br>--- ----- -- all.,104294.10000000149,104293.30000000075,103915.808,103926.90000000224,103932.477,104316.093,,55,all.
Item 99,flow.Loop,0_2_0_1,2021-11-04T13:17:28.328Z,,,,,,,,,,,,,,,,,,,,,,,,,,,,,,18415.603000000745,,completion,,,,F,,,,,,,,,,silence,,104298.80000000075,104293.30000000075,85861.028,85868.10000000149,85877.697,104316.093,,,
Question 1,html.Screen,0_2_0_2,2021-11-04T13:17:35.792Z,,,,,,,,,,,,,,,,,,,,,,,,,,,true,FALSE,,7444.9070000000065,,response,,,99,F,,,,,FALSE,click #choice-2,,,,silence,,111762.60000000149,111761,104299.42,104299.10000000149,104316.093,111768.013,,,
Question 2,html.Screen,0_2_0_3,2021-11-04T13:17:41.569Z,,,,,,,,,,,,,,,,,,,,,,,,,,,false,TRUE,,5770.686999999249,,response,,,99,F,,,,,FALSE,click #choice-2,,,,silence,,117539.90000000224,117538.69999999925,111751.341,111762.90000000224,111768.013,117552.773,,,
Item 99,flow.Sequence,0_2_0,2021-11-04T13:17:41.570Z,,,,,,,,,,,,,,,,,,,,,,,,,,,,,,41663.50999999925,,completion,,,,,,,,,,,,,,,,117540.30000000075,117538.69999999925,75858.52,75870,75875.19,117552.773,,,
Holding screen,html.Screen,0_2_1_0,2021-11-04T13:17:51.573Z,,,,,,,,,,,,,,,,,,,,,,,,,,,,,,10002.592999999993,,timeout,,,,,,,,,,,,,,,,127540,127538.695,117536.102,117540.69999999925,117552.773,127555.366,,,
screen,html.Screen,0_2_1_1_0,2021-11-04T13:17:52.518Z,,,,,,,,,,,,,,,,54,,,,,,,,,,,,,,929.2340000014956,,response,,,100,,,,,,Space,keypress(Space),,,,,At --- ---- --- ------ ----- ------- ---- -- --- ------- --<br>------- ---------- ------ -- ----- -- ----- -- ---- ------<br>--- ----- --- --- ------ -------- ----- --- ------ ----- --<br>----- ----- ---------- --- --- ------ ------ ---- -- ------<br>------- --- ------ ----- --- ---- ------- -- ---- --- --<br>------- ------,128485.40000000224,128484.60000000149,127538.695,127540.5,127555.366,128488.844,,0,At
screen,html.Screen,0_2_1_1_1,2021-11-04T13:17:53.029Z,,,,,,,,,,,,,,,,54,,,,,,,,,,,,,,507.1560000000027,,response,,,100,,,,,,Space,keypress(Space),,,,,-- the ---- --- ------ ----- ------- ---- -- --- ------- --<br>------- ---------- ------ -- ----- -- ----- -- ---- ------<br>--- ----- --- --- ------ -------- ----- --- ------ ----- --<br>----- ----- ---------- --- --- ------ ------ ---- -- ------<br>------- --- ------ ----- --- ---- ------- -- ---- --- --<br>------- ------,128996.90000000224,128996,128472.174,128485.60000000149,128488.844,129005.644,,1,the
screen,html.Screen,0_2_1_1_2,2021-11-04T13:17:53.493Z,,,,,,,,,,,,,,,,54,,,,,,,,,,,,,,454.25600000223494,,response,,,100,,,,,,Space,keypress(Space),,,,,-- --- time --- ------ ----- ------- ---- -- --- ------- --<br>------- ---------- ------ -- ----- -- ----- -- ---- ------<br>--- ----- --- --- ------ -------- ----- --- ------ ----- --<br>----- ----- ---------- --- --- ------ ------ ---- -- ------<br>------- --- ------ ----- --- ---- ------- -- ---- --- --<br>------- ------,129460.69999999925,129459.90000000224,128988.974,128997.10000000149,129005.644,129472.447,,2,time
screen,html.Screen,0_2_1_1_3,2021-11-04T13:17:53.933Z,,,,,,,,,,,,,,,,54,,,,,,,,,,,,,,427.45300000223506,,response,,,100,,,,,,Space,keypress(Space),,,,,-- --- ---- the ------ ----- ------- ---- -- --- ------- --<br>------- ---------- ------ -- ----- -- ----- -- ---- ------<br>--- ----- --- --- ------ -------- ----- --- ------ ----- --<br>----- ----- ---------- --- --- ------ ------ ---- -- ------<br>------- --- ------ ----- --- ---- ------- -- ---- --- --<br>------- ------,129900.69999999925,129899.90000000224,129455.777,129460.90000000224,129472.447,129905.79,,3,the
screen,html.Screen,0_2_1_1_4,2021-11-04T13:17:54.517Z,,,,,,,,,,,,,,,,54,,,,,,,,,,,,,,578.0100000007515,,response,,,100,,,,,,Space,keypress(Space),,,,,-- --- ---- --- French ----- ------- ---- -- --- ------- --<br>------- ---------- ------ -- ----- -- ----- -- ---- ------<br>--- ----- --- --- ------ -------- ----- --- ------ ----- --<br>----- ----- ---------- --- --- ------ ------ ---- -- ------<br>------- --- ------ ----- --- ---- ------- -- ---- --- --<br>------- ------,130484.69999999925,130483.80000000075,129889.121,129900.90000000224,129905.79,130489.474,,4,French
screen,html.Screen,0_2_1_1_5,2021-11-04T13:17:54.973Z,,,,,,,,,,,,,,,,54,,,,,,,,,,,,,,450.4260000022332,,response,,,100,,,,,,Space,keypress(Space),,,,,-- --- ---- --- ------ crown ------- ---- -- --- ------- --<br>------- ---------- ------ -- ----- -- ----- -- ---- ------<br>--- ----- --- --- ------ -------- ----- --- ------ ----- --<br>----- ----- ---------- --- --- ------ ------ ---- -- ------<br>------- --- ------ ----- --- ---- ------- -- ---- --- --<br>------- ------,130940.69999999925,130939.90000000224,130472.802,130485,130489.474,130956.203,,5,crown
screen,html.Screen,0_2_1_1_6,2021-11-04T13:17:55.573Z,,,,,,,,,,,,,,,,54,,,,,,,,,,,,,,583.597000000751,,response,,,100,,,,,,Space,keypress(Space),,,,,-- --- ---- --- ------ ----- secured ---- -- --- ------- --<br>------- ---------- ------ -- ----- -- ----- -- ---- ------<br>--- ----- --- --- ------ -------- ----- --- ------ ----- --<br>----- ----- ---------- --- --- ------ ------ ---- -- ------<br>------- --- ------ ----- --- ---- ------- -- ---- --- --<br>------- ------,131540.6000000015,131539.80000000075,130939.532,130942.19999999925,130956.203,131556.314,,6,secured
screen,html.Screen,0_2_1_1_7,2021-11-04T13:17:56.749Z,,,,,,,,,,,,,,,,54,,,,,,,,,,,,,,1159.385999999242,,response,,,100,,,,,,Space,keypress(Space),,,,,-- --- ---- --- ------ ----- ------- much -- --- ------- --<br>------- ---------- ------ -- ----- -- ----- -- ---- ------<br>--- ----- --- --- ------ -------- ----- --- ------ ----- --<br>----- ----- ---------- --- --- ------ ------ ---- -- ------<br>------- --- ------ ----- --- ---- ------- -- ---- --- --<br>------- ------,132716.69999999925,132715.69999999925,131539.644,131540.80000000075,131556.314,132723.253,,7,much
screen,html.Screen,0_2_1_1_8,2021-11-04T13:17:57.373Z,,,,,,,,,,,,,,,,54,,,,,,,,,,,,,,616.3470000014931,,response,,,100,,,,,,Space,keypress(Space),,,,,-- --- ---- --- ------ ----- ------- ---- of --- ------- --<br>------- ---------- ------ -- ----- -- ----- -- ---- ------<br>--- ----- --- --- ------ -------- ----- --- ------ ----- --<br>----- ----- ---------- --- --- ------ ------ ---- -- ------<br>------- --- ------ ----- --- ---- ------- -- ---- --- --<br>------- ------,133340.40000000224,133339.6000000015,132706.583,132716.80000000075,132723.253,133356.621,,8,of
screen,html.Screen,0_2_1_1_9,2021-11-04T13:17:58.029Z,,,,,,,,,,,,,,,,54,,,,,,,,,,,,,,639.0789999992412,,response,,,100,,,,,,Space,keypress(Space),,,,,-- --- ---- --- ------ ----- ------- ---- -- its ------- --<br>------- ---------- ------ -- ----- -- ----- -- ---- ------<br>--- ----- --- --- ------ -------- ----- --- ------ ----- --<br>----- ----- ---------- --- --- ------ ------ ---- -- ------<br>------- --- ------ ----- --- ---- ------- -- ---- --- --<br>------- ------,133996.5,133995.69999999925,133339.952,133340.69999999925,133356.621,134006.989,,9,its
screen,html.Screen,0_2_1_1_10,2021-11-04T13:17:58.821Z,,,,,,,,,,,,,,,,54,,,,,,,,,,,,,,780.6110000014887,,response,,,100,,,,,,Space,keypress(Space),,,,,-- --- ---- --- ------ ----- ------- ---- -- --- revenue --<br>------- ---------- ------ -- ----- -- ----- -- ---- ------<br>--- ----- --- --- ------ -------- ----- --- ------ ----- --<br>----- ----- ---------- --- --- ------ ------ ---- -- ------<br>------- --- ------ ----- --- ---- ------- -- ---- --- --<br>------- ------,134788.40000000224,134787.6000000015,133990.318,133996.80000000075,134006.989,134790.533,,10,revenue
screen,html.Screen,0_2_1_1_11,2021-11-04T13:17:59.381Z,,,,,,,,,,,,,,,,54,,,,,,,,,,,,,,557.0670000014943,,response,,,100,,,,,,Space,keypress(Space),,,,,-- --- ---- --- ------ ----- ------- ---- -- --- ------- by<br>------- ---------- ------ -- ----- -- ----- -- ---- ------<br>--- ----- --- --- ------ -------- ----- --- ------ ----- --<br>----- ----- ---------- --- --- ------ ------ ---- -- ------<br>------- --- ------ ----- --- ---- ------- -- ---- --- --<br>------- ------,135348.40000000224,135347.6000000015,134773.862,134788.69999999925,134790.533,135357.278,,11,by
screen,html.Screen,0_2_1_1_12,2021-11-04T13:17:59.957Z,,,,,,,,,,,,,,,,54,,,,,,,,,,,,,,566.322000001499,,response,,,100,,,,,,Space,keypress(Space),,,,,-- --- ---- --- ------ ----- ------- ---- -- --- ------- --<br>issuing ---------- ------ -- ----- -- ----- -- ---- ------<br>--- ----- --- --- ------ -------- ----- --- ------ ----- --<br>----- ----- ---------- --- --- ------ ------ ---- -- ------<br>------- --- ------ ----- --- ---- ------- -- ---- --- --<br>------- ------,135924.40000000224,135923.6000000015,135340.608,135348.6000000015,135357.278,135940.777,,12,issuing
screen,html.Screen,0_2_1_1_13,2021-11-04T13:18:00.789Z,,,,,,,,,,,,,,,,54,,,,,,,,,,,,,,814.7229999999981,,response,,,100,,,,,,Space,keypress(Space),,,,,-- --- ---- --- ------ ----- ------- ---- -- --- ------- --<br>------- government ------ -- ----- -- ----- -- ---- ------<br>--- ----- --- --- ------ -------- ----- --- ------ ----- --<br>----- ----- ---------- --- --- ------ ------ ---- -- ------<br>------- --- ------ ----- --- ---- ------- -- ---- --- --<br>------- ------,136756.40000000224,136755.5,135924.107,135924.6000000015,135940.777,136757.639,,13,government
screen,html.Screen,0_2_1_1_14,2021-11-04T13:18:01.293Z,,,,,,,,,,,,,,,,54,,,,,,,,,,,,,,501.8610000000044,,response,,,100,,,,,,Space,keypress(Space),,,,,-- --- ---- --- ------ ----- ------- ---- -- --- ------- --<br>------- ---------- bonds. -- ----- -- ----- -- ---- ------<br>--- ----- --- --- ------ -------- ----- --- ------ ----- --<br>----- ----- ---------- --- --- ------ ------ ---- -- ------<br>------- --- ------ ----- --- ---- ------- -- ---- --- --<br>------- ------,137260.30000000075,137259.5,136740.969,136756.69999999925,136757.639,137274.455,,14,bonds.
screen,html.Screen,0_2_1_1_15,2021-11-04T13:18:01.813Z,,,,,,,,,,,,,,,,54,,,,,,,,,,,,,,505.0450000000128,,response,,,100,,,,,,Space,keypress(Space),,,,,-- --- ---- --- ------ ----- ------- ---- -- --- ------- --<br>------- ---------- ------ In ----- -- ----- -- ---- ------<br>--- ----- --- --- ------ -------- ----- --- ------ ----- --<br>----- ----- ---------- --- --- ------ ------ ---- -- ------<br>------- --- ------ ----- --- ---- ------- -- ---- --- --<br>------- ------,137780.19999999925,137779.5,137257.785,137260.5,137274.455,137791.153,,15,In
screen,html.Screen,0_2_1_1_16,2021-11-04T13:18:02.413Z,,,,,,,,,,,,,,,,54,,,,,,,,,,,,,,588.247000002244,,response,,,100,,,,,,Space,keypress(Space),,,,,"-- --- ---- --- ------ ----- ------- ---- -- --- ------- --<br>------- ---------- ------ -- 1727, -- ----- -- ---- ------<br>--- ----- --- --- ------ -------- ----- --- ------ ----- --<br>----- ----- ---------- --- --- ------ ------ ---- -- ------<br>------- --- ------ ----- --- ---- ------- -- ---- --- --<br>------- ------",138380.19999999925,138379.40000000224,137774.484,137780.40000000224,137791.153,138391.417,,16,"1727,"
screen,html.Screen,0_2_1_1_17,2021-11-04T13:18:03.285Z,,,,,,,,,,,,,,,,54,,,,,,,,,,,,,,860.3830000007583,,response,,,100,,,,,,Space,keypress(Space),,,,,-- --- ---- --- ------ ----- ------- ---- -- --- ------- --<br>------- ---------- ------ -- ----- in ----- -- ---- ------<br>--- ----- --- --- ------ -------- ----- --- ------ ----- --<br>----- ----- ---------- --- --- ------ ------ ---- -- ------<br>------- --- ------ ----- --- ---- ------- -- ---- --- --<br>------- ------,139252.6000000015,139251.80000000075,138374.746,138380.40000000224,138391.417,139258.43,,17,in
screen,html.Screen,0_2_1_1_18,2021-11-04T13:18:03.677Z,,,,,,,,,,,,,,,,54,,,,,,,,,,,,,,384.97000000224216,,response,,,100,,,,,,Space,keypress(Space),,,,,-- --- ---- --- ------ ----- ------- ---- -- --- ------- --<br>------- ---------- ------ -- ----- -- order -- ---- ------<br>--- ----- --- --- ------ -------- ----- --- ------ ----- --<br>----- ----- ---------- --- --- ------ ------ ---- -- ------<br>------- --- ------ ----- --- ---- ------- -- ---- --- --<br>------- ------,139644.19999999925,139643.40000000224,139241.758,139252.90000000224,139258.43,139658.263,,18,order
screen,html.Screen,0_2_1_1_19,2021-11-04T13:18:04.021Z,,,,,,,,,,,,,,,,54,,,,,,,,,,,,,,329.1370000022289,,response,,,100,,,,,,Space,keypress(Space),,,,,-- --- ---- --- ------ ----- ------- ---- -- --- ------- --<br>------- ---------- ------ -- ----- -- ----- to ---- ------<br>--- ----- --- --- ------ -------- ----- --- ------ ----- --<br>----- ----- ---------- --- --- ------ ------ ---- -- ------<br>------- --- ------ ----- --- ---- ------- -- ---- --- --<br>------- ------,139988.1000000015,139987.40000000224,139641.594,139644.40000000224,139658.263,139991.871,,19,to
screen,html.Screen,0_2_1_1_20,2021-11-04T13:18:04.413Z,,,,,,,,,,,,,,,,54,,,,,,,,,,,,,,387.4290000007313,,response,,,100,,,,,,Space,keypress(Space),,,,,-- --- ---- --- ------ ----- ------- ---- -- --- ------- --<br>------- ---------- ------ -- ----- -- ----- -- save ------<br>--- ----- --- --- ------ -------- ----- --- ------ ----- --<br>----- ----- ---------- --- --- ------ ------ ---- -- ------<br>------- --- ------ ----- --- ---- ------- -- ---- --- --<br>------- ------,140380,140379.30000000075,139975.2,139988.40000000224,139991.871,140391.796,,20,save
screen,html.Screen,0_2_1_1_21,2021-11-04T13:18:04.821Z,,,,,,,,,,,,,,,,54,,,,,,,,,,,,,,395.50400000074296,,response,,,100,,,,,,Space,keypress(Space),,,,,"-- --- ---- --- ------ ----- ------- ---- -- --- ------- --<br>------- ---------- ------ -- ----- -- ----- -- ---- money,<br>--- ----- --- --- ------ -------- ----- --- ------ ----- --<br>----- ----- ---------- --- --- ------ ------ ---- -- ------<br>------- --- ------ ----- --- ---- ------- -- ---- --- --<br>------- ------",140788.19999999925,140787.30000000075,140375.128,140380.40000000224,140391.796,140792.116,,21,"money,"
screen,html.Screen,0_2_1_1_22,2021-11-04T13:18:05.173Z,,,,,,,,,,,,,,,,54,,,,,,,,,,,,,,347.08399999924586,,response,,,100,,,,,,Space,keypress(Space),,,,,-- --- ---- --- ------ ----- ------- ---- -- --- ------- --<br>------- ---------- ------ -- ----- -- ----- -- ---- ------<br>the ----- --- --- ------ -------- ----- --- ------ ----- --<br>----- ----- ---------- --- --- ------ ------ ---- -- ------<br>------- --- ------ ----- --- ---- ------- -- ---- --- --<br>------- ------,141140.1000000015,141139.19999999925,140775.444,140788.40000000224,140792.116,141142.155,,22,the
screen,html.Screen,0_2_1_1_23,2021-11-04T13:18:05.509Z,,,,,,,,,,,,,,,,54,,,,,,,,,,,,,,333.0449999992561,,response,,,100,,,,,,Space,keypress(Space),,,,,-- --- ---- --- ------ ----- ------- ---- -- --- ------- --<br>------- ---------- ------ -- ----- -- ----- -- ---- ------<br>--- state --- --- ------ -------- ----- --- ------ ----- --<br>----- ----- ---------- --- --- ------ ------ ---- -- ------<br>------- --- ------ ----- --- ---- ------- -- ---- --- --<br>------- ------,141476,141475.19999999925,141125.484,141140.30000000075,141142.155,141492.209,,23,state
screen,html.Screen,0_2_1_1_24,2021-11-04T13:18:05.797Z,,,,,,,,,,,,,,,,54,,,,,,,,,,,,,,271.0910000007425,,response,,,100,,,,,,Space,keypress(Space),,,,,-- --- ---- --- ------ ----- ------- ---- -- --- ------- --<br>------- ---------- ------ -- ----- -- ----- -- ---- ------<br>--- ----- cut --- ------ -------- ----- --- ------ ----- --<br>----- ----- ---------- --- --- ------ ------ ---- -- ------<br>------- --- ------ ----- --- ---- ------- -- ---- --- --<br>------- ------,141764.1000000015,141763.30000000075,141475.539,141476.30000000075,141492.209,141775.628,,24,cut
screen,html.Screen,0_2_1_1_25,2021-11-04T13:18:06.077Z,,,,,,,,,,,,,,,,54,,,,,,,,,,,,,,267.57199999925797,,response,,,100,,,,,,Space,keypress(Space),,,,,-- --- ---- --- ------ ----- ------- ---- -- --- ------- --<br>------- ---------- ------ -- ----- -- ----- -- ---- ------<br>--- ----- --- the ------ -------- ----- --- ------ ----- --<br>----- ----- ---------- --- --- ------ ------ ---- -- ------<br>------- --- ------ ----- --- ---- ------- -- ---- --- --<br>------- ------,142043.90000000224,142043.19999999925,141758.958,141764.30000000075,141775.628,142059.027,,25,the
screen,html.Screen,0_2_1_1_26,2021-11-04T13:18:06.405Z,,,,,,,,,,,,,,,,54,,,,,,,,,,,,,,312.2730000007432,,response,,,100,,,,,,Space,keypress(Space),,,,,-- --- ---- --- ------ ----- ------- ---- -- --- ------- --<br>------- ---------- ------ -- ----- -- ----- -- ---- ------<br>--- ----- --- --- bonds' -------- ----- --- ------ ----- --<br>----- ----- ---------- --- --- ------ ------ ---- -- ------<br>------- --- ------ ----- --- ---- ------- -- ---- --- --<br>------- ------,142372.1000000015,142371.30000000075,142042.357,142044.19999999925,142059.027,142375.777,,26,bonds'
screen,html.Screen,0_2_1_1_27,2021-11-04T13:18:06.869Z,,,,,,,,,,,,,,,,54,,,,,,,,,,,,,,459.32300000148825,,response,,,100,,,,,,Space,keypress(Space),,,,,-- --- ---- --- ------ ----- ------- ---- -- --- ------- --<br>------- ---------- ------ -- ----- -- ----- -- ---- ------<br>--- ----- --- --- ------ interest ----- --- ------ ----- --<br>----- ----- ---------- --- --- ------ ------ ---- -- ------<br>------- --- ------ ----- --- ---- ------- -- ---- --- --<br>------- ------,142836,142835.1000000015,142359.107,142372.30000000075,142375.777,142842.557,,27,interest
screen,html.Screen,0_2_1_1_28,2021-11-04T13:18:07.253Z,,,,,,,,,,,,,,,,54,,,,,,,,,,,,,,376.5430000014894,,response,,,100,,,,,,Space,keypress(Space),,,,,-- --- ---- --- ------ ----- ------- ---- -- --- ------- --<br>------- ---------- ------ -- ----- -- ----- -- ---- ------<br>--- ----- --- --- ------ -------- rate. --- ------ ----- --<br>----- ----- ---------- --- --- ------ ------ ---- -- ------<br>------- --- ------ ----- --- ---- ------- -- ---- --- --<br>------- ------,143219.90000000224,143219.1000000015,142825.887,142836.30000000075,142842.557,143225.918,,28,rate.
screen,html.Screen,0_2_1_1_29,2021-11-04T13:18:07.789Z,,,,,,,,,,,,,,,,54,,,,,,,,,,,,,,529.2819999992498,,response,,,100,,,,,,Space,keypress(Space),,,,,-- --- ---- --- ------ ----- ------- ---- -- --- ------- --<br>------- ---------- ------ -- ----- -- ----- -- ---- ------<br>--- ----- --- --- ------ -------- ----- The ------ ----- --<br>----- ----- ---------- --- --- ------ ------ ---- -- ------<br>------- --- ------ ----- --- ---- ------- -- ---- --- --<br>------- ------,143755.90000000224,143755.19999999925,143209.249,143220.19999999925,143225.918,143759.553,,29,The
screen,html.Screen,0_2_1_1_30,2021-11-04T13:18:08.141Z,,,,,,,,,,,,,,,,54,,,,,,,,,,,,,,347.5470000014757,,response,,,100,,,,,,Space,keypress(Space),,,,,-- --- ---- --- ------ ----- ------- ---- -- --- ------- --<br>------- ---------- ------ -- ----- -- ----- -- ---- ------<br>--- ----- --- --- ------ -------- ----- --- market ----- --<br>----- ----- ---------- --- --- ------ ------ ---- -- ------<br>------- --- ------ ----- --- ---- ------- -- ---- --- --<br>------- ------,144107.90000000224,144107.1000000015,143742.881,143756.19999999925,143759.553,144109.552,,30,market
screen,html.Screen,0_2_1_1_31,2021-11-04T13:18:08.532Z,,,,,,,,,,,,,,,,54,,,,,,,,,,,,,,389.5480000014941,,response,,,100,,,,,,Space,keypress(Space),,,,,-- --- ---- --- ------ ----- ------- ---- -- --- ------- --<br>------- ---------- ------ -- ----- -- ----- -- ---- ------<br>--- ----- --- --- ------ -------- ----- --- ------ value --<br>----- ----- ---------- --- --- ------ ------ ---- -- ------<br>------- --- ------ ----- --- ---- ------- -- ---- --- --<br>------- ------,144499.90000000224,144499.1000000015,144092.882,144108.1000000015,144109.552,144509.7,,31,value
screen,html.Screen,0_2_1_1_32,2021-11-04T13:18:08.901Z,,,,,,,,,,,,,,,,54,,,,,,,,,,,,,,357.4000000014785,,response,,,100,,,,,,Space,keypress(Space),,,,,-- --- ---- --- ------ ----- ------- ---- -- --- ------- --<br>------- ---------- ------ -- ----- -- ----- -- ---- ------<br>--- ----- --- --- ------ -------- ----- --- ------ ----- of<br>----- ----- ---------- --- --- ------ ------ ---- -- ------<br>------- --- ------ ----- --- ---- ------- -- ---- --- --<br>------- ------,144867.90000000224,144867.1000000015,144493.029,144500.1000000015,144509.7,144876.406,,32,of
screen,html.Screen,0_2_1_1_33,2021-11-04T13:18:09.308Z,,,,,,,,,,,,,,,,54,,,,,,,,,,,,,,398.5940000000119,,response,,,100,,,,,,Space,keypress(Space),,,,,-- --- ---- --- ------ ----- ------- ---- -- --- ------- --<br>------- ---------- ------ -- ----- -- ----- -- ---- ------<br>--- ----- --- --- ------ -------- ----- --- ------ ----- --<br>these ----- ---------- --- --- ------ ------ ---- -- ------<br>------- --- ------ ----- --- ---- ------- -- ---- --- --<br>------- ------,145275.80000000075,145275,144859.736,144868.1000000015,144876.406,145293.193,,33,these
screen,html.Screen,0_2_1_1_34,2021-11-04T13:18:10.004Z,,,,,,,,,,,,,,,,54,,,,,,,,,,,,,,677.7070000022359,,response,,,100,,,,,,Space,keypress(Space),,,,,-- --- ---- --- ------ ----- ------- ---- -- --- ------- --<br>------- ---------- ------ -- ----- -- ----- -- ---- ------<br>--- ----- --- --- ------ -------- ----- --- ------ ----- --<br>----- bonds ---------- --- --- ------ ------ ---- -- ------<br>------- --- ------ ----- --- ---- ------- -- ---- --- --<br>------- ------,145971.80000000075,145970.90000000224,145276.523,145276.1000000015,145293.193,145976.675,,34,bonds
screen,html.Screen,0_2_1_1_35,2021-11-04T13:18:11.364Z,,,,,,,,,,,,,,,,54,,,,,,,,,,,,,,1354.2250000022468,,response,,,100,,,,,,Space,keypress(Space),,,,,"-- --- ---- --- ------ ----- ------- ---- -- --- ------- --<br>------- ---------- ------ -- ----- -- ----- -- ---- ------<br>--- ----- --- --- ------ -------- ----- --- ------ ----- --<br>----- ----- plummeted, --- --- ------ ------ ---- -- ------<br>------- --- ------ ----- --- ---- ------- -- ---- --- --<br>------- ------",147331.69999999925,147330.90000000224,145960.005,145972,145976.675,147343.466,,35,"plummeted,"
screen,html.Screen,0_2_1_1_36,2021-11-04T13:18:11.901Z,,,,,,,,,,,,,,,,54,,,,,,,,,,,,,,523.4340000022494,,response,,,100,,,,,,Space,keypress(Space),,,,,-- --- ---- --- ------ ----- ------- ---- -- --- ------- --<br>------- ---------- ------ -- ----- -- ----- -- ---- ------<br>--- ----- --- --- ------ -------- ----- --- ------ ----- --<br>----- ----- ---------- and --- ------ ------ ---- -- ------<br>------- --- ------ ----- --- ---- ------- -- ---- --- --<br>------- ------,147867.90000000224,147866.90000000224,147326.797,147331.90000000224,147343.466,147877.138,,36,and
screen,html.Screen,0_2_1_1_37,2021-11-04T13:18:12.268Z,,,,,,,,,,,,,,,,54,,,,,,,,,,,,,,357.7620000022289,,response,,,100,,,,,,Space,keypress(Space),,,,,-- --- ---- --- ------ ----- ------- ---- -- --- ------- --<br>------- ---------- ------ -- ----- -- ----- -- ---- ------<br>--- ----- --- --- ------ -------- ----- --- ------ ----- --<br>----- ----- ---------- --- the ------ ------ ---- -- ------<br>------- --- ------ ----- --- ---- ------- -- ---- --- --<br>------- ------,148235.6000000015,148234.90000000224,147860.468,147868.19999999925,147877.138,148243.892,,37,the
screen,html.Screen,0_2_1_1_38,2021-11-04T13:18:12.604Z,,,,,,,,,,,,,,,,54,,,,,,,,,,,,,,326.8079999992624,,response,,,100,,,,,,Space,keypress(Space),,,,,-- --- ---- --- ------ ----- ------- ---- -- --- ------- --<br>------- ---------- ------ -- ----- -- ----- -- ---- ------<br>--- ----- --- --- ------ -------- ----- --- ------ ----- --<br>----- ----- ---------- --- --- market ------ ---- -- ------<br>------- --- ------ ----- --- ---- ------- -- ---- --- --<br>------- ------,148571.6000000015,148570.69999999925,148227.222,148236,148243.892,148577.447,,38,market
screen,html.Screen,0_2_1_1_39,2021-11-04T13:18:13.020Z,,,,,,,,,,,,,,,,54,,,,,,,,,,,,,,409.2529999992694,,response,,,100,,,,,,Space,keypress(Space),,,,,-- --- ---- --- ------ ----- ------- ---- -- --- ------- --<br>------- ---------- ------ -- ----- -- ----- -- ---- ------<br>--- ----- --- --- ------ -------- ----- --- ------ ----- --<br>----- ----- ---------- --- --- ------ became ---- -- ------<br>------- --- ------ ----- --- ---- ------- -- ---- --- --<br>------- ------,148987.6000000015,148986.69999999925,148560.775,148571.90000000224,148577.447,148994.179,,39,became
screen,html.Screen,0_2_1_1_40,2021-11-04T13:18:13.429Z,,,,,,,,,,,,,,,,54,,,,,,,,,,,,,,401.12100000074133,,response,,,100,,,,,,Space,keypress(Space),,,,,-- --- ---- --- ------ ----- ------- ---- -- --- ------- --<br>------- ---------- ------ -- ----- -- ----- -- ---- ------<br>--- ----- --- --- ------ -------- ----- --- ------ ----- --<br>----- ----- ---------- --- --- ------ ------ wary -- ------<br>------- --- ------ ----- --- ---- ------- -- ---- --- --<br>------- ------,149396,149395.30000000075,148977.508,148987.90000000224,148994.179,149410.925,,40,wary
screen,html.Screen,0_2_1_1_41,2021-11-04T13:18:13.772Z,,,,,,,,,,,,,,,,54,,,,,,,,,,,,,,327.7749999992666,,response,,,100,,,,,,Space,keypress(Space),,,,,-- --- ---- --- ------ ----- ------- ---- -- --- ------- --<br>------- ---------- ------ -- ----- -- ----- -- ---- ------<br>--- ----- --- --- ------ -------- ----- --- ------ ----- --<br>----- ----- ---------- --- --- ------ ------ ---- of ------<br>------- --- ------ ----- --- ---- ------- -- ---- --- --<br>------- ------,149739.6000000015,149738.69999999925,149394.255,149396.40000000224,149410.925,149744.349,,41,of
screen,html.Screen,0_2_1_1_42,2021-11-04T13:18:14.108Z,,,,,,,,,,,,,,,,54,,,,,,,,,,,,,,330.3509999992675,,response,,,100,,,,,,Space,keypress(Space),,,,,-- --- ---- --- ------ ----- ------- ---- -- --- ------- --<br>------- ---------- ------ -- ----- -- ----- -- ---- ------<br>--- ----- --- --- ------ -------- ----- --- ------ ----- --<br>----- ----- ---------- --- --- ------ ------ ---- -- French<br>------- --- ------ ----- --- ---- ------- -- ---- --- --<br>------- ------,150075.5,150074.69999999925,149727.679,149739.80000000075,149744.349,150077.771,,42,French
screen,html.Screen,0_2_1_1_43,2021-11-04T13:18:14.500Z,,,,,,,,,,,,,,,,54,,,,,,,,,,,,,,388.928999999247,,response,,,100,,,,,,Space,keypress(Space),,,,,-- --- ---- --- ------ ----- ------- ---- -- --- ------- --<br>------- ---------- ------ -- ----- -- ----- -- ---- ------<br>--- ----- --- --- ------ -------- ----- --- ------ ----- --<br>----- ----- ---------- --- --- ------ ------ ---- -- ------<br>credit. --- ------ ----- --- ---- ------- -- ---- --- --<br>------- ------,150467.5,150466.69999999925,150061.101,150075.69999999925,150077.771,150477.859,,43,credit.
screen,html.Screen,0_2_1_1_44,2021-11-04T13:18:14.964Z,,,,,,,,,,,,,,,,54,,,,,,,,,,,,,,452.7410000014934,,response,,,100,,,,,,Space,keypress(Space),,,,,-- --- ---- --- ------ ----- ------- ---- -- --- ------- --<br>------- ---------- ------ -- ----- -- ----- -- ---- ------<br>--- ----- --- --- ------ -------- ----- --- ------ ----- --<br>----- ----- ---------- --- --- ------ ------ ---- -- ------<br>------- The ------ ----- --- ---- ------- -- ---- --- --<br>------- ------,150931.40000000224,150930.6000000015,150461.189,150467.80000000075,150477.859,150944.49,,44,The
screen,html.Screen,0_2_1_1_45,2021-11-04T13:18:15.292Z,,,,,,,,,,,,,,,,54,,,,,,,,,,,,,,314.20999999926426,,response,,,100,,,,,,Space,keypress(Space),,,,,-- --- ---- --- ------ ----- ------- ---- -- --- ------- --<br>------- ---------- ------ -- ----- -- ----- -- ---- ------<br>--- ----- --- --- ------ -------- ----- --- ------ ----- --<br>----- ----- ---------- --- --- ------ ------ ---- -- ------<br>------- --- French ----- --- ---- ------- -- ---- --- --<br>------- ------,151259.5,151258.69999999925,150927.822,150931.69999999925,150944.49,151261.482,,45,French
screen,html.Screen,0_2_1_1_46,2021-11-04T13:18:15.620Z,,,,,,,,,,,,,,,,54,,,,,,,,,,,,,,325.2179999992659,,response,,,100,,,,,,Space,keypress(Space),,,,,-- --- ---- --- ------ ----- ------- ---- -- --- ------- --<br>------- ---------- ------ -- ----- -- ----- -- ---- ------<br>--- ----- --- --- ------ -------- ----- --- ------ ----- --<br>----- ----- ---------- --- --- ------ ------ ---- -- ------<br>------- --- ------ state --- ---- ------- -- ---- --- --<br>------- ------,151587.5,151586.69999999925,151244.81,151259.69999999925,151261.482,151594.82,,46,state
screen,html.Screen,0_2_1_1_47,2021-11-04T13:18:15.908Z,,,,,,,,,,,,,,,,54,,,,,,,,,,,,,,279.78000000148313,,response,,,100,,,,,,Space,keypress(Space),,,,,-- --- ---- --- ------ ----- ------- ---- -- --- ------- --<br>------- ---------- ------ -- ----- -- ----- -- ---- ------<br>--- ----- --- --- ------ -------- ----- --- ------ ----- --<br>----- ----- ---------- --- --- ------ ------ ---- -- ------<br>------- --- ------ ----- was ---- ------- -- ---- --- --<br>------- ------,151875.6000000015,151874.6000000015,151578.15,151587.80000000075,151594.82,151878.233,,47,was
screen,html.Screen,0_2_1_1_48,2021-11-04T13:18:16.180Z,,,,,,,,,,,,,,,,54,,,,,,,,,,,,,,268.36700000148267,,response,,,100,,,,,,Space,keypress(Space),,,,,-- --- ---- --- ------ ----- ------- ---- -- --- ------- --<br>------- ---------- ------ -- ----- -- ----- -- ---- ------<br>--- ----- --- --- ------ -------- ----- --- ------ ----- --<br>----- ----- ---------- --- --- ------ ------ ---- -- ------<br>------- --- ------ ----- --- left ------- -- ---- --- --<br>------- ------,152147.6000000015,152146.6000000015,151861.563,151875.80000000075,151878.233,152161.595,,48,left
screen,html.Screen,0_2_1_1_49,2021-11-04T13:18:16.500Z,,,,,,,,,,,,,,,,54,,,,,,,,,,,,,,305.1049999992538,,response,,,100,,,,,,Space,keypress(Space),,,,,-- --- ---- --- ------ ----- ------- ---- -- --- ------- --<br>------- ---------- ------ -- ----- -- ----- -- ---- ------<br>--- ----- --- --- ------ -------- ----- --- ------ ----- --<br>----- ----- ---------- --- --- ------ ------ ---- -- ------<br>------- --- ------ ----- --- ---- without -- ---- --- --<br>------- ------,152467.5,152466.69999999925,152144.926,152147.80000000075,152161.595,152478.41,,49,without
screen,html.Screen,0_2_1_1_50,2021-11-04T13:18:16.772Z,,,,,,,,,,,,,,,,54,,,,,,,,,,,,,,260.1900000014866,,response,,,100,,,,,,Space,keypress(Space),,,,,-- --- ---- --- ------ ----- ------- ---- -- --- ------- --<br>------- ---------- ------ -- ----- -- ----- -- ---- ------<br>--- ----- --- --- ------ -------- ----- --- ------ ----- --<br>----- ----- ---------- --- --- ------ ------ ---- -- ------<br>------- --- ------ ----- --- ---- ------- an ---- --- --<br>------- ------,152739.5,152738.6000000015,152461.739,152467.80000000075,152478.41,152745.111,,50,an
screen,html.Screen,0_2_1_1_51,2021-11-04T13:18:17.108Z,,,,,,,,,,,,,,,,54,,,,,,,,,,,,,,329.4890000014857,,response,,,100,,,,,,Space,keypress(Space),,,,,-- --- ---- --- ------ ----- ------- ---- -- --- ------- --<br>------- ---------- ------ -- ----- -- ----- -- ---- ------<br>--- ----- --- --- ------ -------- ----- --- ------ ----- --<br>----- ----- ---------- --- --- ------ ------ ---- -- ------<br>------- --- ------ ----- --- ---- ------- -- easy --- --<br>------- ------,153075.5,153074.6000000015,152728.441,152739.6000000015,152745.111,153078.455,,51,easy
screen,html.Screen,0_2_1_1_52,2021-11-04T13:18:17.412Z,,,,,,,,,,,,,,,,54,,,,,,,,,,,,,,300.1450000015029,,response,,,100,,,,,,Space,keypress(Space),,,,,-- --- ---- --- ------ ----- ------- ---- -- --- ------- --<br>------- ---------- ------ -- ----- -- ----- -- ---- ------<br>--- ----- --- --- ------ -------- ----- --- ------ ----- --<br>----- ----- ---------- --- --- ------ ------ ---- -- ------<br>------- --- ------ ----- --- ---- ------- -- ---- way --<br>------- ------,153379.5,153378.6000000015,153061.786,153075.69999999925,153078.455,153395.351,,52,way
screen,html.Screen,0_2_1_1_53,2021-11-04T13:18:17.812Z,,,,,,,,,,,,,,,,54,,,,,,,,,,,,,,383.249000001495,,response,,,100,,,,,,Space,keypress(Space),,,,,-- --- ---- --- ------ ----- ------- ---- -- --- ------- --<br>------- ---------- ------ -- ----- -- ----- -- ---- ------<br>--- ----- --- --- ------ -------- ----- --- ------ ----- --<br>----- ----- ---------- --- --- ------ ------ ---- -- ------<br>------- --- ------ ----- --- ---- ------- -- ---- --- of<br>------- ------,153779.40000000224,153778.6000000015,153378.679,153379.80000000075,153395.351,153795.378,,53,of
screen,html.Screen,0_2_1_1_54,2021-11-04T13:18:18.380Z,,,,,,,,,,,,,,,,54,,,,,,,,,,,,,,551.122000000003,,response,,,100,,,,,,Space,keypress(Space),,,,,-- --- ---- --- ------ ----- ------- ---- -- --- ------- --<br>------- ---------- ------ -- ----- -- ----- -- ---- ------<br>--- ----- --- --- ------ -------- ----- --- ------ ----- --<br>----- ----- ---------- --- --- ------ ------ ---- -- ------<br>------- --- ------ ----- --- ---- ------- -- ---- --- --<br>raising ------,154347.40000000224,154346.5,153778.708,153779.6000000015,153795.378,154362.229,,54,raising
screen,html.Screen,0_2_1_1_55,2021-11-04T13:18:18.812Z,,,,,,,,,,,,,,,,54,,,,,,,,,,,,,,416.2710000000079,,response,,,100,,,,,,Space,keypress(Space),,,,,-- --- ---- --- ------ ----- ------- ---- -- --- ------- --<br>------- ---------- ------ -- ----- -- ----- -- ---- ------<br>--- ----- --- --- ------ -------- ----- --- ------ ----- --<br>----- ----- ---------- --- --- ------ ------ ---- -- ------<br>------- --- ------ ----- --- ---- ------- -- ---- --- --<br>------- money.,154779.30000000075,154778.5,154345.558,154347.5,154362.229,154795.513,,55,money.
Item 100,flow.Loop,0_2_1_1,2021-11-04T13:18:18.812Z,,,,,,,,,,,,,,,,,,,,,,,,,,,,,,27223.134000000005,,completion,,,,F,,,,,,,,,,silence,,154779.80000000075,154778.5,127538.695,127540.30000000075,127555.366,154795.513,,,
Question 1,html.Screen,0_2_1_2,2021-11-04T13:18:21.763Z,,,,,,,,,,,,,,,,,,,,,,,,,,,true,TRUE,,2933.1869999992487,,response,,,100,F,,,,,TRUE,click #choice-1,,,,silence,,157730,157728.69999999925,154778.844,154780.1000000015,154795.513,157729.696,,,
Question 2,html.Screen,0_2_1_3,2021-11-04T13:18:24.436Z,,,,,,,,,,,,,,,,,,,,,,,,,,,true,FALSE,,2672.204000002239,,response,,,100,F,,,,,FALSE,click #choice-2,,,,silence,,160403.1000000015,160401.90000000224,157713.026,157730.40000000224,157729.696,160413.778,,,
Item 100,flow.Sequence,0_2_1,2021-11-04T13:18:24.436Z,,,,,,,,,,,,,,,,,,,,,,,,,,,,,,42849.127000002234,,completion,,,,,,,,,,,,,,,,160403.40000000224,160401.90000000224,117536.102,117540.5,117552.773,160413.778,,,
End of Practice,html.Page,0_2_2,2021-11-04T13:18:30.735Z,,,,,,,,,,,,,,,,,,,,,,,,,,,,,,6287.722000000009,,form submission,,,,,,,,,,,,,,,,166702,166701.5,160397.107,160403.69999999925,160413.778,166714.651,,,
Practice,flow.Sequence,0_2,2021-11-04T13:18:30.735Z,,,,,,,,,,,,,,,,,,,,,,,,,,,,,,90826.31,,completion,,,,,,,,,,,,,,,,166702.6000000015,166701.5,75858.52,75869.80000000075,75875.19,166714.651,,,
Trap_instruction,html.Page,0_3_0,2021-11-04T13:18:34.526Z,,,,,,,,,,,,,,,,,,,,,,,,,,,,,,3778.6490000007325,,form submission,,,,,,,,,,,,,,,,170493.80000000075,170493.30000000075,166697.982,166703,166714.651,170516.089,,,
trap_trial,html.Screen,0_3_1,2021-11-04T13:18:38.814Z,,,,,,,,,,,,,,,,,,,,,,,,,,,true,1,,4264.410999999993,,response,,,,,,,,,1,click #choice-1,,,,,,174781.80000000075,174780.5,170482.749,170494,170516.089,174782.349,,,
end of trap trial,html.Page,0_3_2,2021-11-04T13:18:40.731Z,,,,,,,,,,,,,,,,,,,,,,,,,,,,,,1915.5510000022477,,form submission,,,,,,,,,,,,,,,,176698.5,176697.90000000224,174765.685,174782.1000000015,174782.349,176701.221,,,
Trap 1,flow.Sequence,0_3,2021-11-04T13:18:40.732Z,,,,,,,,,,,,,,,,,,,,,,,,,,,,,,9983.249000002223,,completion,,,,,,,,,,,,,,,,176699,176697.90000000224,166697.982,166702.90000000224,166714.651,176701.221,,,
Standby,html.Page,0_4_0,2021-11-04T13:18:48.725Z,,,,,,,,,,,,,,,,,,,,,,,,,,,,,,8002.164000000019,,timeout,,,,,,,,,,,,,,,,184688.5,184686.714,176684.551,176699.30000000075,176701.221,184703.385,,,
Holding screen,html.Screen,0_4_1_0_0,2021-11-04T13:18:55.726Z,,,,,,,,,,,,,,,,,,,,,,,,,,,,,,7001.817999999999,,timeout,,,,,,,,,,,,,,,,191690.30000000075,191688.532,184686.714,184688.80000000075,184703.385,191705.203,,,
screen,html.Screen,0_4_1_0_1_0,2021-11-04T13:18:57.094Z,,,,,,,,,,,,,,,,2,,,,,,,,,,,,,,1351.6970000022266,,response,,,1,F,,,,,Space,keypress(Space),,,,instrumental,Two ---- ------ --- ------- ---------- ------- ----------<br>--- --------- --- ----------- ------- ----- ------- ---<br>--------- ---- -- --- ---- -- --------- -- ---- -------<br>-- --------- ------ --- ----- ------ ---- --- --------- --<br>------ - ---- -- --- ----------- ------- ---- ----- -----<br>--- -------- - ------ ---- -- ----- ---- --- --- -----------<br>-- -------,193058,193056.90000000224,191688.532,191690.69999999925,191705.203,193071.886,,0,Two
screen,html.Screen,0_4_1_0_1_1,2021-11-04T13:18:57.621Z,,,,,,,,,,,,,,,,2,,,,,,,,,,,,,,512.5140000022366,,response,,,1,F,,,,,Space,keypress(Space),,,,instrumental,--- days ------ --- ------- ---------- ------- ----------<br>--- --------- --- ----------- ------- ----- ------- ---<br>--------- ---- -- --- ---- -- --------- -- ---- -------<br>-- --------- ------ --- ----- ------ ---- --- --------- --<br>------ - ---- -- --- ----------- ------- ---- ----- -----<br>--- -------- - ------ ---- -- ----- ---- --- --- -----------<br>-- -------,193585.30000000075,193584.40000000224,193055.217,193058.30000000075,193071.886,193589.031,,1,days
screen,html.Screen,0_4_1_0_1_2,2021-11-04T13:18:58.069Z,,,,,,,,,,,,,,,,2,,,,,,,,,,,,,,443.26900000075693,,response,,,1,F,,,,,Space,keypress(Space),,,,instrumental,"--- ---- later, --- ------- ---------- ------- ----------<br>--- --------- --- ----------- ------- ----- ------- ---<br>--------- ---- -- --- ---- -- --------- -- ---- -------<br>-- --------- ------ --- ----- ------ ---- --- --------- --<br>------ - ---- -- --- ----------- ------- ---- ----- -----<br>--- -------- - ------ ---- -- ----- ---- --- --- -----------<br>-- -------",194033.30000000075,194032.30000000075,193572.36,193585.6000000015,193589.031,194039.065,,2,"later,"
screen,html.Screen,0_4_1_0_1_3,2021-11-04T13:18:58.613Z,,,,,,,,,,,,,,,,2,,,,,,,,,,,,,,537.2350000007427,,response,,,1,F,,,,,Space,keypress(Space),,,,instrumental,--- ---- ------ the ------- ---------- ------- ----------<br>--- --------- --- ----------- ------- ----- ------- ---<br>--------- ---- -- --- ---- -- --------- -- ---- -------<br>-- --------- ------ --- ----- ------ ---- --- --------- --<br>------ - ---- -- --- ----------- ------- ---- ----- -----<br>--- -------- - ------ ---- -- ----- ---- --- --- -----------<br>-- -------,194577.19999999925,194576.30000000075,194022.395,194033.6000000015,194039.065,194589.164,,3,the
screen,html.Screen,0_4_1_0_1_4,2021-11-04T13:18:59.053Z,,,,,,,,,,,,,,,,2,,,,,,,,,,,,,,427.1360000007553,,response,,,1,F,,,,,Space,keypress(Space),,,,instrumental,--- ---- ------ --- British ---------- ------- ----------<br>--- --------- --- ----------- ------- ----- ------- ---<br>--------- ---- -- --- ---- -- --------- -- ---- -------<br>-- --------- ------ --- ----- ------ ---- --- --------- --<br>------ - ---- -- --- ----------- ------- ---- ----- -----<br>--- -------- - ------ ---- -- ----- ---- --- --- -----------<br>-- -------,195017.19999999925,195016.30000000075,194572.494,194577.5,194589.164,195022.694,,4,British
screen,html.Screen,0_4_1_0_1_5,2021-11-04T13:18:59.461Z,,,,,,,,,,,,,,,,2,,,,,,,,,,,,,,401.60600000075647,,response,,,1,F,,,,,Space,keypress(Space),,,,instrumental,--- ---- ------ --- ------- astronomer ------- ----------<br>--- --------- --- ----------- ------- ----- ------- ---<br>--------- ---- -- --- ---- -- --------- -- ---- -------<br>-- --------- ------ --- ----- ------ ---- --- --------- --<br>------ - ---- -- --- ----------- ------- ---- ----- -----<br>--- -------- - ------ ---- -- ----- ---- --- --- -----------<br>-- -------,195425.1000000015,195424.30000000075,195006.023,195017.5,195022.694,195439.432,,5,astronomer
screen,html.Screen,0_4_1_0_1_6,2021-11-04T13:19:00.133Z,,,,,,,,,,,,,,,,2,,,,,,,,,,,,,,656.7679999992542,,response,,,1,F,,,,,Space,keypress(Space),,,,instrumental,--- ---- ------ --- ------- ---------- Richard ----------<br>--- --------- --- ----------- ------- ----- ------- ---<br>--------- ---- -- --- ---- -- --------- -- ---- -------<br>-- --------- ------ --- ----- ------ ---- --- --------- --<br>------ - ---- -- --- ----------- ------- ---- ----- -----<br>--- -------- - ------ ---- -- ----- ---- --- --- -----------<br>-- -------,196097.1000000015,196096.19999999925,195422.762,195425.40000000224,195439.432,196106.127,,6,Richard
screen,html.Screen,0_4_1_0_1_7,2021-11-04T13:19:00.589Z,,,,,,,,,,,,,,,,2,,,,,,,,,,,,,,446.07299999924726,,response,,,1,F,,,,,Space,keypress(Space),,,,instrumental,--- ---- ------ --- ------- ---------- ------- Carrington<br>--- --------- --- ----------- ------- ----- ------- ---<br>--------- ---- -- --- ---- -- --------- -- ---- -------<br>-- --------- ------ --- ----- ------ ---- --- --------- --<br>------ - ---- -- --- ----------- ------- ---- ----- -----<br>--- -------- - ------ ---- -- ----- ---- --- --- -----------<br>-- -------,196553,196552.19999999925,196089.458,196097.19999999925,196106.127,196556.334,,7,Carrington
screen,html.Screen,0_4_1_0_1_8,2021-11-04T13:19:01.101Z,,,,,,,,,,,,,,,,2,,,,,,,,,,,,,,507.8659999992524,,response,,,1,F,,,,,Space,keypress(Space),,,,instrumental,--- ---- ------ --- ------- ---------- ------- ----------<br>was --------- --- ----------- ------- ----- ------- ---<br>--------- ---- -- --- ---- -- --------- -- ---- -------<br>-- --------- ------ --- ----- ------ ---- --- --------- --<br>------ - ---- -- --- ----------- ------- ---- ----- -----<br>--- -------- - ------ ---- -- ----- ---- --- --- -----------<br>-- -------,197065.1000000015,197064.19999999925,196539.664,196553.19999999925,196556.334,197073.228,,8,was
screen,html.Screen,0_4_1_0_1_9,2021-11-04T13:19:01.469Z,,,,,,,,,,,,,,,,2,,,,,,,,,,,,,,358.97199999925215,,response,,,1,F,,,,,Space,keypress(Space),,,,instrumental,--- ---- ------ --- ------- ---------- ------- ----------<br>--- observing --- ----------- ------- ----- ------- ---<br>--------- ---- -- --- ---- -- --------- -- ---- -------<br>-- --------- ------ --- ----- ------ ---- --- --------- --<br>------ - ---- -- --- ----------- ------- ---- ----- -----<br>--- -------- - ------ ---- -- ----- ---- --- --- -----------<br>-- -------,197433,197432.19999999925,197056.557,197065.40000000224,197073.228,197439.942,,9,observing
screen,html.Screen,0_4_1_0_1_10,2021-11-04T13:19:01.829Z,,,,,,,,,,,,,,,,2,,,,,,,,,,,,,,352.25799999924493,,response,,,1,F,,,,,Space,keypress(Space),,,,instrumental,--- ---- ------ --- ------- ---------- ------- ----------<br>--- --------- the ----------- ------- ----- ------- ---<br>--------- ---- -- --- ---- -- --------- -- ---- -------<br>-- --------- ------ --- ----- ------ ---- --- --------- --<br>------ - ---- -- --- ----------- ------- ---- ----- -----<br>--- -------- - ------ ---- -- ----- ---- --- --- -----------<br>-- -------,197793,197792.19999999925,197423.272,197433.19999999925,197439.942,197806.624,,10,the
screen,html.Screen,0_4_1_0_1_11,2021-11-04T13:19:02.189Z,,,,,,,,,,,,,,,,2,,,,,,,,,,,,,,345.57599999924423,,response,,,1,F,,,,,Space,keypress(Space),,,,instrumental,--- ---- ------ --- ------- ---------- ------- ----------<br>--- --------- --- interesting ------- ----- ------- ---<br>--------- ---- -- --- ---- -- --------- -- ---- -------<br>-- --------- ------ --- ----- ------ ---- --- --------- --<br>------ - ---- -- --- ----------- ------- ---- ----- -----<br>--- -------- - ------ ---- -- ----- ---- --- --- -----------<br>-- -------,198153.1000000015,198152.19999999925,197789.955,197793.19999999925,197806.624,198156.865,,11,interesting
screen,html.Screen,0_4_1_0_1_12,2021-11-04T13:19:02.573Z,,,,,,,,,,,,,,,,2,,,,,,,,,,,,,,379.23500000149943,,response,,,1,F,,,,,Space,keypress(Space),,,,instrumental,--- ---- ------ --- ------- ---------- ------- ----------<br>--- --------- --- ----------- sunspot ----- ------- ---<br>--------- ---- -- --- ---- -- --------- -- ---- -------<br>-- --------- ------ --- ----- ------ ---- --- --------- --<br>------ - ---- -- --- ----------- ------- ---- ----- -----<br>--- -------- - ------ ---- -- ----- ---- --- --- -----------<br>-- -------,198536.90000000224,198536.1000000015,198140.193,198153.19999999925,198156.865,198540.271,,12,sunspot
screen,html.Screen,0_4_1_0_1_13,2021-11-04T13:19:03.037Z,,,,,,,,,,,,,,,,2,,,,,,,,,,,,,,459.8290000014822,,response,,,1,F,,,,,Space,keypress(Space),,,,instrumental,--- ---- ------ --- ------- ---------- ------- ----------<br>--- --------- --- ----------- ------- group ------- ---<br>--------- ---- -- --- ---- -- --------- -- ---- -------<br>-- --------- ------ --- ----- ------ ---- --- --------- --<br>------ - ---- -- --- ----------- ------- ---- ----- -----<br>--- -------- - ------ ---- -- ----- ---- --- --- -----------<br>-- -------,199000.90000000224,199000.1000000015,198523.6,198537.19999999925,198540.271,199006.953,,13,group
screen,html.Screen,0_4_1_0_1_14,2021-11-04T13:19:03.461Z,,,,,,,,,,,,,,,,2,,,,,,,,,,,,,,417.1470000014815,,response,,,1,F,,,,,Space,keypress(Space),,,,instrumental,--- ---- ------ --- ------- ---------- ------- ----------<br>--- --------- --- ----------- ------- ----- through ---<br>--------- ---- -- --- ---- -- --------- -- ---- -------<br>-- --------- ------ --- ----- ------ ---- --- --------- --<br>------ - ---- -- --- ----------- ------- ---- ----- -----<br>--- -------- - ------ ---- -- ----- ---- --- --- -----------<br>-- -------,199424.90000000224,199424.1000000015,198990.284,199001.30000000075,199006.953,199440.499,,14,through
screen,html.Screen,0_4_1_0_1_15,2021-11-04T13:19:03.941Z,,,,,,,,,,,,,,,,2,,,,,,,,,,,,,,463.5009999999893,,response,,,1,F,,,,,Space,keypress(Space),,,,instrumental,--- ---- ------ --- ------- ---------- ------- ----------<br>--- --------- --- ----------- ------- ----- ------- his<br>--------- ---- -- --- ---- -- --------- -- ---- -------<br>-- --------- ------ --- ----- ------ ---- --- --------- --<br>------ - ---- -- --- ----------- ------- ---- ----- -----<br>--- -------- - ------ ---- -- ----- ---- --- --- -----------<br>-- -------,199904.80000000075,199904,199423.828,199425.19999999925,199440.499,199907.125,,15,his
screen,html.Screen,0_4_1_0_1_16,2021-11-04T13:19:04.333Z,,,,,,,,,,,,,,,,2,,,,,,,,,,,,,,388.9750000014901,,response,,,1,F,,,,,Space,keypress(Space),,,,instrumental,--- ---- ------ --- ------- ---------- ------- ----------<br>--- --------- --- ----------- ------- ----- ------- ---<br>telescope ---- -- --- ---- -- --------- -- ---- -------<br>-- --------- ------ --- ----- ------ ---- --- --------- --<br>------ - ---- -- --- ----------- ------- ---- ----- -----<br>--- -------- - ------ ---- -- ----- ---- --- --- -----------<br>-- -------,200296.80000000075,200296.1000000015,199890.456,199905.1000000015,199907.125,200307.342,,16,telescope
screen,html.Screen,0_4_1_0_1_17,2021-11-04T13:19:04.661Z,,,,,,,,,,,,,,,,2,,,,,,,,,,,,,,316.6579999999958,,response,,,1,F,,,,,Space,keypress(Space),,,,instrumental,--- ---- ------ --- ------- ---------- ------- ----------<br>--- --------- --- ----------- ------- ----- ------- ---<br>--------- when -- --- ---- -- --------- -- ---- -------<br>-- --------- ------ --- ----- ------ ---- --- --------- --<br>------ - ---- -- --- ----------- ------- ---- ----- -----<br>--- -------- - ------ ---- -- ----- ---- --- --- -----------<br>-- -------,200624.80000000075,200624,200290.671,200297.1000000015,200307.342,200640.831,,17,when
screen,html.Screen,0_4_1_0_1_18,2021-11-04T13:19:04.957Z,,,,,,,,,,,,,,,,2,,,,,,,,,,,,,,279.0690000022296,,response,,,1,F,,,,,Space,keypress(Space),,,,instrumental,--- ---- ------ --- ------- ---------- ------- ----------<br>--- --------- --- ----------- ------- ----- ------- ---<br>--------- ---- he --- ---- -- --------- -- ---- -------<br>-- --------- ------ --- ----- ------ ---- --- --------- --<br>------ - ---- -- --- ----------- ------- ---- ----- -----<br>--- -------- - ------ ---- -- ----- ---- --- --- -----------<br>-- -------,200920.80000000075,200919.90000000224,200624.159,200625.1000000015,200640.831,200924.109,,18,he
screen,html.Screen,0_4_1_0_1_19,2021-11-04T13:19:05.229Z,,,,,,,,,,,,,,,,2,,,,,,,,,,,,,,267.79100000223843,,response,,,1,F,,,,,Space,keypress(Space),,,,instrumental,--- ---- ------ --- ------- ---------- ------- ----------<br>--- --------- --- ----------- ------- ----- ------- ---<br>--------- ---- -- saw ---- -- --------- -- ---- -------<br>-- --------- ------ --- ----- ------ ---- --- --------- --<br>------ - ---- -- --- ----------- ------- ---- ----- -----<br>--- -------- - ------ ---- -- ----- ---- --- --- -----------<br>-- -------,201192.80000000075,201191.90000000224,200907.44,200921,200924.109,201207.533,,19,saw
screen,html.Screen,0_4_1_0_1_20,2021-11-04T13:19:05.477Z,,,,,,,,,,,,,,,,2,,,,,,,,,,,,,,232.36700000223937,,response,,,1,F,,,,,Space,keypress(Space),,,,instrumental,--- ---- ------ --- ------- ---------- ------- ----------<br>--- --------- --- ----------- ------- ----- ------- ---<br>--------- ---- -- --- what -- --------- -- ---- -------<br>-- --------- ------ --- ----- ------ ---- --- --------- --<br>------ - ---- -- --- ----------- ------- ---- ----- -----<br>--- -------- - ------ ---- -- ----- ---- --- --- -----------<br>-- -------,201440.69999999925,201439.90000000224,201190.863,201192.90000000224,201207.533,201457.698,,20,what
screen,html.Screen,0_4_1_0_1_21,2021-11-04T13:19:05.733Z,,,,,,,,,,,,,,,,2,,,,,,,,,,,,,,238.30199999999604,,response,,,1,F,,,,,Space,keypress(Space),,,,instrumental,--- ---- ------ --- ------- ---------- ------- ----------<br>--- --------- --- ----------- ------- ----- ------- ---<br>--------- ---- -- --- ---- he --------- -- ---- -------<br>-- --------- ------ --- ----- ------ ---- --- --------- --<br>------ - ---- -- --- ----------- ------- ---- ----- -----<br>--- -------- - ------ ---- -- ----- ---- --- --- -----------<br>-- -------,201696.80000000075,201696,201441.026,201441,201457.698,201707.732,,21,he
screen,html.Screen,0_4_1_0_1_22,2021-11-04T13:19:06.029Z,,,,,,,,,,,,,,,,2,,,,,,,,,,,,,,284.068000000756,,response,,,1,F,,,,,Space,keypress(Space),,,,instrumental,--- ---- ------ --- ------- ---------- ------- ----------<br>--- --------- --- ----------- ------- ----- ------- ---<br>--------- ---- -- --- ---- -- described -- ---- -------<br>-- --------- ------ --- ----- ------ ---- --- --------- --<br>------ - ---- -- --- ----------- ------- ---- ----- -----<br>--- -------- - ------ ---- -- ----- ---- --- --- -----------<br>-- -------,201992.69999999925,201991.80000000075,201691.061,201697,201707.732,202007.787,,22,described
screen,html.Screen,0_4_1_0_1_23,2021-11-04T13:19:06.453Z,,,,,,,,,,,,,,,,2,,,,,,,,,,,,,,408.2129999999888,,response,,,1,F,,,,,Space,keypress(Space),,,,instrumental,--- ---- ------ --- ------- ---------- ------- ----------<br>--- --------- --- ----------- ------- ----- ------- ---<br>--------- ---- -- --- ---- -- --------- as ---- -------<br>-- --------- ------ --- ----- ------ ---- --- --------- --<br>------ - ---- -- --- ----------- ------- ---- ----- -----<br>--- -------- - ------ ---- -- ----- ---- --- --- -----------<br>-- -------,202416.69999999925,202416,201991.117,201992.90000000224,202007.787,202424.608,,23,as
screen,html.Screen,0_4_1_0_1_24,2021-11-04T13:19:06.805Z,,,,,,,,,,,,,,,,2,,,,,,,,,,,,,,343.1920000007376,,response,,,1,F,,,,,Space,keypress(Space),,,,instrumental,"--- ---- ------ --- ------- ---------- ------- ----------<br>--- --------- --- ----------- ------- ----- ------- ---<br>--------- ---- -- --- ---- -- --------- -- ""two -------<br>-- --------- ------ --- ----- ------ ---- --- --------- --<br>------ - ---- -- --- ----------- ------- ---- ----- -----<br>--- -------- - ------ ---- -- ----- ---- --- --- -----------<br>-- -------",202768.5,202767.80000000075,202407.937,202417,202424.608,202774.662,,24,"""two"
screen,html.Screen,0_4_1_0_1_25,2021-11-04T13:19:07.189Z,,,,,,,,,,,,,,,,2,,,,,,,,,,,,,,377.738000002224,,response,,,1,F,,,,,Space,keypress(Space),,,,instrumental,--- ---- ------ --- ------- ---------- ------- ----------<br>--- --------- --- ----------- ------- ----- ------- ---<br>--------- ---- -- --- ---- -- --------- -- ---- patches<br>-- --------- ------ --- ----- ------ ---- --- --------- --<br>------ - ---- -- --- ----------- ------- ---- ----- -----<br>--- -------- - ------ ---- -- ----- ---- --- --- -----------<br>-- -------,203153.1000000015,203152.40000000224,202757.992,202768.69999999925,202774.662,203158.021,,25,patches
screen,html.Screen,0_4_1_0_1_26,2021-11-04T13:19:07.533Z,,,,,,,,,,,,,,,,2,,,,,,,,,,,,,,337.77900000073714,,response,,,1,F,,,,,Space,keypress(Space),,,,instrumental,--- ---- ------ --- ------- ---------- ------- ----------<br>--- --------- --- ----------- ------- ----- ------- ---<br>--------- ---- -- --- ---- -- --------- -- ---- -------<br>of --------- ------ --- ----- ------ ---- --- --------- --<br>------ - ---- -- --- ----------- ------- ---- ----- -----<br>--- -------- - ------ ---- -- ----- ---- --- --- -----------<br>-- -------,203496.6000000015,203495.80000000075,203141.352,203153.40000000224,203158.021,203508.203,,26,of
screen,html.Screen,0_4_1_0_1_27,2021-11-04T13:19:07.877Z,,,,,,,,,,,,,,,,2,,,,,,,,,,,,,,331.69700000222656,,response,,,1,F,,,,,Space,keypress(Space),,,,instrumental,--- ---- ------ --- ------- ---------- ------- ----------<br>--- --------- --- ----------- ------- ----- ------- ---<br>--------- ---- -- --- ---- -- --------- -- ---- -------<br>-- intensely ------ --- ----- ------ ---- --- --------- --<br>------ - ---- -- --- ----------- ------- ---- ----- -----<br>--- -------- - ------ ---- -- ----- ---- --- --- -----------<br>-- -------,203840.6000000015,203839.90000000224,203491.532,203496.90000000224,203508.203,203858.262,,27,intensely
screen,html.Screen,0_4_1_0_1_28,2021-11-04T13:19:08.317Z,,,,,,,,,,,,,,,,2,,,,,,,,,,,,,,421.53800000075717,,response,,,1,F,,,,,Space,keypress(Space),,,,instrumental,--- ---- ------ --- ------- ---------- ------- ----------<br>--- --------- --- ----------- ------- ----- ------- ---<br>--------- ---- -- --- ---- -- --------- -- ---- -------<br>-- --------- bright --- ----- ------ ---- --- --------- --<br>------ - ---- -- --- ----------- ------- ---- ----- -----<br>--- -------- - ------ ---- -- ----- ---- --- --- -----------<br>-- -------,204280.69999999925,204279.80000000075,203841.592,203840.90000000224,203858.262,204291.691,,28,bright
screen,html.Screen,0_4_1_0_1_29,2021-11-04T13:19:08.741Z,,,,,,,,,,,,,,,,2,,,,,,,,,,,,,,412.10900000075344,,response,,,1,F,,,,,Space,keypress(Space),,,,instrumental,--- ---- ------ --- ------- ---------- ------- ----------<br>--- --------- --- ----------- ------- ----- ------- ---<br>--------- ---- -- --- ---- -- --------- -- ---- -------<br>-- --------- ------ and ----- ------ ---- --- --------- --<br>------ - ---- -- --- ----------- ------- ---- ----- -----<br>--- -------- - ------ ---- -- ----- ---- --- --- -----------<br>-- -------,204704.6000000015,204703.80000000075,204275.021,204280.90000000224,204291.691,204708.475,,29,and
screen,html.Screen,0_4_1_0_1_30,2021-11-04T13:19:09.093Z,,,,,,,,,,,,,,,,2,,,,,,,,,,,,,,347.32500000073924,,response,,,1,F,,,,,Space,keypress(Space),,,,instrumental,--- ---- ------ --- ------- ---------- ------- ----------<br>--- --------- --- ----------- ------- ----- ------- ---<br>--------- ---- -- --- ---- -- --------- -- ---- -------<br>-- --------- ------ --- white ------ ---- --- --------- --<br>------ - ---- -- --- ----------- ------- ---- ----- -----<br>--- -------- - ------ ---- -- ----- ---- --- --- -----------<br>-- -------,205056.5,205055.80000000075,204691.805,204704.80000000075,204708.475,205058.619,,30,white
screen,html.Screen,0_4_1_0_1_31,2021-11-04T13:19:09.421Z,,,,,,,,,,,,,,,,2,,,,,,,,,,,,,,325.181000000739,,response,,,1,F,,,,,Space,keypress(Space),,,,instrumental,"--- ---- ------ --- ------- ---------- ------- ----------<br>--- --------- --- ----------- ------- ----- ------- ---<br>--------- ---- -- --- ---- -- --------- -- ---- -------<br>-- --------- ------ --- ----- light"" ---- --- --------- --<br>------ - ---- -- --- ----------- ------- ---- ----- -----<br>--- -------- - ------ ---- -- ----- ---- --- --- -----------<br>-- -------",205384.6000000015,205383.80000000075,205041.948,205056.80000000075,205058.619,205391.937,,31,"light"""
screen,html.Screen,0_4_1_0_1_32,2021-11-04T13:19:09.797Z,,,,,,,,,,,,,,,,2,,,,,,,,,,,,,,367.7629999992496,,response,,,1,F,,,,,Space,keypress(Space),,,,instrumental,--- ---- ------ --- ------- ---------- ------- ----------<br>--- --------- --- ----------- ------- ----- ------- ---<br>--------- ---- -- --- ---- -- --------- -- ---- -------<br>-- --------- ------ --- ----- ------ over --- --------- --<br>------ - ---- -- --- ----------- ------- ---- ----- -----<br>--- -------- - ------ ---- -- ----- ---- --- --- -----------<br>-- -------,205760.5,205759.69999999925,205375.268,205385,205391.937,205775.285,,32,over
screen,html.Screen,0_4_1_0_1_33,2021-11-04T13:19:10.077Z,,,,,,,,,,,,,,,,2,,,,,,,,,,,,,,264.41499999925145,,response,,,1,F,,,,,Space,keypress(Space),,,,instrumental,--- ---- ------ --- ------- ---------- ------- ----------<br>--- --------- --- ----------- ------- ----- ------- ---<br>--------- ---- -- --- ---- -- --------- -- ---- -------<br>-- --------- ------ --- ----- ------ ---- the --------- --<br>------ - ---- -- --- ----------- ------- ---- ----- -----<br>--- -------- - ------ ---- -- ----- ---- --- --- -----------<br>-- -------,206040.5,206039.69999999925,205758.617,205760.69999999925,205775.285,206042.148,,33,the
screen,html.Screen,0_4_1_0_1_34,2021-11-04T13:19:10.325Z,,,,,,,,,,,,,,,,2,,,,,,,,,,,,,,245.45200000150362,,response,,,1,F,,,,,Space,keypress(Space),,,,instrumental,--- ---- ------ --- ------- ---------- ------- ----------<br>--- --------- --- ----------- ------- ----- ------- ---<br>--------- ---- -- --- ---- -- --------- -- ---- -------<br>-- --------- ------ --- ----- ------ ---- --- sunspots. --<br>------ - ---- -- --- ----------- ------- ---- ----- -----<br>--- -------- - ------ ---- -- ----- ---- --- --- -----------<br>-- -------,206288.40000000224,206287.6000000015,206025.477,206040.80000000075,206042.148,206292.328,,34,sunspots.
screen,html.Screen,0_4_1_0_1_35,2021-11-04T13:19:10.764Z,,,,,,,,,,,,,,,,2,,,,,,,,,,,,,,435.2720000014815,,response,,,1,F,,,,,Space,keypress(Space),,,,instrumental,--- ---- ------ --- ------- ---------- ------- ----------<br>--- --------- --- ----------- ------- ----- ------- ---<br>--------- ---- -- --- ---- -- --------- -- ---- -------<br>-- --------- ------ --- ----- ------ ---- --- --------- He<br>------ - ---- -- --- ----------- ------- ---- ----- -----<br>--- -------- - ------ ---- -- ----- ---- --- --- -----------<br>-- -------,206728.30000000075,206727.6000000015,206275.655,206288.6000000015,206292.328,206742.164,,35,He
screen,html.Screen,0_4_1_0_1_36,2021-11-04T13:19:11.157Z,,,,,,,,,,,,,,,,2,,,,,,,,,,,,,,377.43600000150036,,response,,,1,F,,,,,Space,keypress(Space),,,,instrumental,--- ---- ------ --- ------- ---------- ------- ----------<br>--- --------- --- ----------- ------- ----- ------- ---<br>--------- ---- -- --- ---- -- --------- -- ---- -------<br>-- --------- ------ --- ----- ------ ---- --- --------- --<br>jotted - ---- -- --- ----------- ------- ---- ----- -----<br>--- -------- - ------ ---- -- ----- ---- --- --- -----------<br>-- -------,207120.40000000224,207119.6000000015,206725.497,206728.40000000224,206742.164,207125.726,,36,jotted
screen,html.Screen,0_4_1_0_1_37,2021-11-04T13:19:11.501Z,,,,,,,,,,,,,,,,2,,,,,,,,,,,,,,337.874000001495,,response,,,1,F,,,,,Space,keypress(Space),,,,instrumental,--- ---- ------ --- ------- ---------- ------- ----------<br>--- --------- --- ----------- ------- ----- ------- ---<br>--------- ---- -- --- ---- -- --------- -- ---- -------<br>-- --------- ------ --- ----- ------ ---- --- --------- --<br>------ a ---- -- --- ----------- ------- ---- ----- -----<br>--- -------- - ------ ---- -- ----- ---- --- --- -----------<br>-- -------,207464.40000000224,207463.6000000015,207109.056,207120.6000000015,207125.726,207475.949,,37,a
screen,html.Screen,0_4_1_0_1_38,2021-11-04T13:19:11.804Z,,,,,,,,,,,,,,,,2,,,,,,,,,,,,,,291.55100000000675,,response,,,1,F,,,,,Space,keypress(Space),,,,instrumental,--- ---- ------ --- ------- ---------- ------- ----------<br>--- --------- --- ----------- ------- ----- ------- ---<br>--------- ---- -- --- ---- -- --------- -- ---- -------<br>-- --------- ------ --- ----- ------ ---- --- --------- --<br>------ - note -- --- ----------- ------- ---- ----- -----<br>--- -------- - ------ ---- -- ----- ---- --- --- -----------<br>-- -------,207768.30000000075,207767.5,207459.277,207464.69999999925,207475.949,207775.933,,38,note
screen,html.Screen,0_4_1_0_1_39,2021-11-04T13:19:12.141Z,,,,,,,,,,,,,,,,2,,,,,,,,,,,,,,327.6670000015001,,response,,,1,F,,,,,Space,keypress(Space),,,,instrumental,--- ---- ------ --- ------- ---------- ------- ----------<br>--- --------- --- ----------- ------- ----- ------- ---<br>--------- ---- -- --- ---- -- --------- -- ---- -------<br>-- --------- ------ --- ----- ------ ---- --- --------- --<br>------ - ---- in --- ----------- ------- ---- ----- -----<br>--- -------- - ------ ---- -- ----- ---- --- --- -----------<br>-- -------,208104.40000000224,208103.6000000015,207759.263,207768.5,207775.933,208109.358,,39,in
screen,html.Screen,0_4_1_0_1_40,2021-11-04T13:19:12.437Z,,,,,,,,,,,,,,,,2,,,,,,,,,,,,,,290.14199999999255,,response,,,1,F,,,,,Space,keypress(Space),,,,instrumental,--- ---- ------ --- ------- ---------- ------- ----------<br>--- --------- --- ----------- ------- ----- ------- ---<br>--------- ---- -- --- ---- -- --------- -- ---- -------<br>-- --------- ------ --- ----- ------ ---- --- --------- --<br>------ - ---- -- his ----------- ------- ---- ----- -----<br>--- -------- - ------ ---- -- ----- ---- --- --- -----------<br>-- -------,208400.40000000224,208399.5,208092.688,208104.69999999925,208109.358,208409.469,,40,his
screen,html.Screen,0_4_1_0_1_41,2021-11-04T13:19:12.773Z,,,,,,,,,,,,,,,,2,,,,,,,,,,,,,,326.13100000147824,,response,,,1,F,,,,,Space,keypress(Space),,,,instrumental,--- ---- ------ --- ------- ---------- ------- ----------<br>--- --------- --- ----------- ------- ----- ------- ---<br>--------- ---- -- --- ---- -- --------- -- ---- -------<br>-- --------- ------ --- ----- ------ ---- --- --------- --<br>------ - ---- -- --- painstaking ------- ---- ----- -----<br>--- -------- - ------ ---- -- ----- ---- --- --- -----------<br>-- -------,208736.40000000224,208735.6000000015,208392.798,208400.6000000015,208409.469,208742.841,,41,painstaking
screen,html.Screen,0_4_1_0_1_42,2021-11-04T13:19:13.244Z,,,,,,,,,,,,,,,,2,,,,,,,,,,,,,,464.5590000022494,,response,,,1,F,,,,,Space,keypress(Space),,,,instrumental,--- ---- ------ --- ------- ---------- ------- ----------<br>--- --------- --- ----------- ------- ----- ------- ---<br>--------- ---- -- --- ---- -- --------- -- ---- -------<br>-- --------- ------ --- ----- ------ ---- --- --------- --<br>------ - ---- -- --- ----------- record. ---- ----- -----<br>--- -------- - ------ ---- -- ----- ---- --- --- -----------<br>-- -------,209207.90000000224,209207.40000000224,208726.171,208736.6000000015,208742.841,209209.489,,42,record.
screen,html.Screen,0_4_1_0_1_43,2021-11-04T13:19:13.692Z,,,,,,,,,,,,,,,,2,,,,,,,,,,,,,,445.81100000074366,,response,,,1,F,,,,,Space,keypress(Space),,,,instrumental,--- ---- ------ --- ------- ---------- ------- ----------<br>--- --------- --- ----------- ------- ----- ------- ---<br>--------- ---- -- --- ---- -- --------- -- ---- -------<br>-- --------- ------ --- ----- ------ ---- --- --------- --<br>------ - ---- -- --- ----------- ------- That ----- -----<br>--- -------- - ------ ---- -- ----- ---- --- --- -----------<br>-- -------,209656.30000000075,209655.30000000075,209192.821,209208.1000000015,209209.489,209659.704,,43,That
screen,html.Screen,0_4_1_0_1_44,2021-11-04T13:19:14.068Z,,,,,,,,,,,,,,,,2,,,,,,,,,,,,,,371.7960000000021,,response,,,1,F,,,,,Space,keypress(Space),,,,instrumental,--- ---- ------ --- ------- ---------- ------- ----------<br>--- --------- --- ----------- ------- ----- ------- ---<br>--------- ---- -- --- ---- -- --------- -- ---- -------<br>-- --------- ------ --- ----- ------ ---- --- --------- --<br>------ - ---- -- --- ----------- ------- ---- night -----<br>--- -------- - ------ ---- -- ----- ---- --- --- -----------<br>-- -------,210032.19999999925,210031.5,209643.034,209656.6000000015,209659.704,210043.276,,44,night
screen,html.Screen,0_4_1_0_1_45,2021-11-04T13:19:14.460Z,,,,,,,,,,,,,,,,2,,,,,,,,,,,,,,380.1240000022226,,response,,,1,F,,,,,Space,keypress(Space),,,,instrumental,--- ---- ------ --- ------- ---------- ------- ----------<br>--- --------- --- ----------- ------- ----- ------- ---<br>--------- ---- -- --- ---- -- --------- -- ---- -------<br>-- --------- ------ --- ----- ------ ---- --- --------- --<br>------ - ---- -- --- ----------- ------- ---- ----- there<br>--- -------- - ------ ---- -- ----- ---- --- --- -----------<br>-- -------,210424.19999999925,210423.40000000224,210026.604,210032.5,210043.276,210426.656,,45,there
screen,html.Screen,0_4_1_0_1_46,2021-11-04T13:19:14.772Z,,,,,,,,,,,,,,,,2,,,,,,,,,,,,,,308.8440000000119,,response,,,1,F,,,,,Space,keypress(Space),,,,instrumental,--- ---- ------ --- ------- ---------- ------- ----------<br>--- --------- --- ----------- ------- ----- ------- ---<br>--------- ---- -- --- ---- -- --------- -- ---- -------<br>-- --------- ------ --- ----- ------ ---- --- --------- --<br>------ - ---- -- --- ----------- ------- ---- ----- -----<br>was -------- - ------ ---- -- ----- ---- --- --- -----------<br>-- -------,210736.30000000075,210735.5,210409.985,210424.5,210426.656,210743.364,,46,was
screen,html.Screen,0_4_1_0_1_47,2021-11-04T13:19:15.084Z,,,,,,,,,,,,,,,,2,,,,,,,,,,,,,,303.93600000074366,,response,,,1,F,,,,,Space,keypress(Space),,,,instrumental,--- ---- ------ --- ------- ---------- ------- ----------<br>--- --------- --- ----------- ------- ----- ------- ---<br>--------- ---- -- --- ---- -- --------- -- ---- -------<br>-- --------- ------ --- ----- ------ ---- --- --------- --<br>------ - ---- -- --- ----------- ------- ---- ----- -----<br>--- scarcely - ------ ---- -- ----- ---- --- --- -----------<br>-- -------,211048.1000000015,211047.30000000075,210726.694,210736.40000000224,210743.364,211060.119,,47,scarcely
screen,html.Screen,0_4_1_0_1_48,2021-11-04T13:19:15.748Z,,,,,,,,,,,,,,,,2,,,,,,,,,,,,,,651.2810000022291,,response,,,1,F,,,,,Space,keypress(Space),,,,instrumental,--- ---- ------ --- ------- ---------- ------- ----------<br>--- --------- --- ----------- ------- ----- ------- ---<br>--------- ---- -- --- ---- -- --------- -- ---- -------<br>-- --------- ------ --- ----- ------ ---- --- --------- --<br>------ - ---- -- --- ----------- ------- ---- ----- -----<br>--- -------- a ------ ---- -- ----- ---- --- --- -----------<br>-- -------,211712.1000000015,211711.40000000224,211043.449,211048.30000000075,211060.119,211726.929,,48,a
