sender,sender_type,sender_id,timestamp,meta,,Blues,Classical,Country,Dance,Electronic,Folk,Gospel,Hip-Hop,Jazz,Latin,Musical/Film,New-age,Pop,Provo_ID,R&B,Rap,Reggae,Religious,Rock,Soul,Swing,Traditional,age,artist_name,correct,correctResponse,distraction,duration,education,ended_on,familiarity,gender,item,list,music_frequency,offensiveness,pleasantness,preference,response,response_action,snippet_file,song_name,song_rating,sound,text,time_commit,time_end,time_render,time_run,time_show,time_switch,url,word,word_ID
Instructions,html.Page,0_0,2021-12-02T10:45:32.158Z,"{""labjs_version"":""20.2.3"",""labjs_build"":{""flavor"":""production"",""commit"":""7ea907d66ca8aeef8054924ca5d82ffbe11e34e5""},""location"":""https://run.pavlovia.org/mvasilev/lab_music_d/"",""userAgent"":""Mozilla/5.0 (Windows NT 6.1; Win64; x64) AppleWebKit/537.36 (KHTML, like Gecko) Chrome/96.0.4664.45 Safari/537.36"",""platform"":""Win32"",""language"":""en-US"",""locale"":""en-US"",""timeZone"":""Europe/London"",""timezoneOffset"":0,""screen_width"":1920,""screen_height"":1080,""scroll_width"":1920,""scroll_height"":959,""window_innerWidth"":1920,""window_innerHeight"":1007,""devicePixelRatio"":1}",,,,,,,,,,,,,,,,,,,,,,,,,,,,,13754.233000000746,,form submission,,,,,,,,,,,,,,,,22472,22470.800000000745,8683.227,8702.400000000373,8716.567,22470.656,{},,
Headphones,html.Page,0_1,2021-12-02T10:45:33.967Z,,,,,,,,,,,,,,,,,,,,,,,,,,,,,,1810.344000000001,,form submission,,,,,,,,,,,,,,,,24281.400000000373,24281,22453.976,22472.60000000149,22470.656,24287.789,,,
Holding screen,html.Screen,0_2_0_0,2021-12-02T10:45:43.965Z,,,,,,,,,,,,,,,,,,,,,,,,,,,,,,10002.399999999998,,timeout,,,,,,,,,,,,,,,,34279.5,34273.519,24271.117,24282.10000000149,24287.789,34290.189,,,
screen,html.Screen,0_2_0_1_0,2021-12-02T10:45:44.814Z,,,,,,,,,,,,,,,,53,,,,,,,,,,,,,,837.3110000000015,,response,,,99,,,,,,Space,keypress(Space),,,,,When -- ----- -- ------ - ------- --- ----------<br>------------- ------ ------ ---- ---- ------- ----- -- ----<br>-------- ------- -- ---------- --- - --- ----- ----- ----<br>---- --- --- ----- --- ---- ---- ------- ----- ---- -------<br>--- --- -- ----- -- --- ---- -- --- ---- -- ------ ------<br>--- ----- -- ----,35128.90000000037,35127.5,34273.519,34279.90000000037,34290.189,35140.576,,0,When
screen,html.Screen,0_2_0_1_1,2021-12-02T10:45:45.286Z,,,,,,,,,,,,,,,,53,,,,,,,,,,,,,,459.42399999999907,,response,,,99,,,,,,Space,keypress(Space),,,,,---- it ----- -- ------ - ------- --- ----------<br>------------- ------ ------ ---- ---- ------- ----- -- ----<br>-------- ------- -- ---------- --- - --- ----- ----- ----<br>---- --- --- ----- --- ---- ---- ------- ----- ---- -------<br>--- --- -- ----- -- --- ---- -- --- ---- -- ------ ------<br>--- ----- -- ----,35600.90000000037,35600,35123.905,35129.300000000745,35140.576,35607.208,,1,it
screen,html.Screen,0_2_0_1_2,2021-12-02T10:45:45.702Z,,,,,,,,,,,,,,,,53,,,,,,,,,,,,,,408.2920000000013,,response,,,99,,,,,,Space,keypress(Space),,,,,---- -- comes -- ------ - ------- --- ----------<br>------------- ------ ------ ---- ---- ------- ----- -- ----<br>-------- ------- -- ---------- --- - --- ----- ----- ----<br>---- --- --- ----- --- ---- ---- ------- ----- ---- -------<br>--- --- -- ----- -- --- ---- -- --- ---- -- ------ ------<br>--- ----- -- ----,36016.40000000037,36015.5,35590.539,35601.20000000112,35607.208,36024.151,,2,comes
screen,html.Screen,0_2_0_1_3,2021-12-02T10:45:46.094Z,,,,,,,,,,,,,,,,53,,,,,,,,,,,,,,383.349000000002,,response,,,99,,,,,,Space,keypress(Space),,,,,---- -- ----- to ------ - ------- --- ----------<br>------------- ------ ------ ---- ---- ------- ----- -- ----<br>-------- ------- -- ---------- --- - --- ----- ----- ----<br>---- --- --- ----- --- ---- ---- ------- ----- ---- -------<br>--- --- -- ----- -- --- ---- -- --- ---- -- ------ ------<br>--- ----- -- ----,36408.40000000037,36407.5,36007.48,36016.70000000112,36024.151,36424.267,,3,to
screen,html.Screen,0_2_0_1_4,2021-12-02T10:45:46.486Z,,,,,,,,,,,,,,,,53,,,,,,,,,,,,,,375.1330000003727,,response,,,99,,,,,,Space,keypress(Space),,,,,---- -- ----- -- having - ------- --- ----------<br>------------- ------ ------ ---- ---- ------- ----- -- ----<br>-------- ------- -- ---------- --- - --- ----- ----- ----<br>---- --- --- ----- --- ---- ---- ------- ----- ---- -------<br>--- --- -- ----- -- --- ---- -- --- ---- -- ------ ------<br>--- ----- -- ----,36800.60000000149,36799.40000000037,36407.596,36408.90000000037,36424.267,36807.669,,4,having
screen,html.Screen,0_2_0_1_5,2021-12-02T10:45:46.846Z,,,,,,,,,,,,,,,,53,,,,,,,,,,,,,,351.73100000037084,,response,,,99,,,,,,Space,keypress(Space),,,,,---- -- ----- -- ------ a ------- --- ----------<br>------------- ------ ------ ---- ---- ------- ----- -- ----<br>-------- ------- -- ---------- --- - --- ----- ----- ----<br>---- --- --- ----- --- ---- ---- ------- ----- ---- -------<br>--- --- -- ----- -- --- ---- -- --- ---- -- ------ ------<br>--- ----- -- ----,37160.300000000745,37159.40000000037,36790.999,36800.800000000745,36807.669,37174.488,,5,a
screen,html.Screen,0_2_0_1_6,2021-12-02T10:45:47.230Z,,,,,,,,,,,,,,,,53,,,,,,,,,,,,,,368.912000000375,,response,,,99,,,,,,Space,keypress(Space),,,,,---- -- ----- -- ------ - lasting --- ----------<br>------------- ------ ------ ---- ---- ------- ----- -- ----<br>-------- ------- -- ---------- --- - --- ----- ----- ----<br>---- --- --- ----- --- ---- ---- ------- ----- ---- -------<br>--- --- -- ----- -- --- ---- -- --- ---- -- ------ ------<br>--- ----- -- ----,37544.20000000112,37543.40000000037,37157.817,37160.70000000112,37174.488,37557.889,,6,lasting
screen,html.Screen,0_2_0_1_7,2021-12-02T10:45:47.622Z,,,,,,,,,,,,,,,,53,,,,,,,,,,,,,,377.4110000007422,,response,,,99,,,,,,Space,keypress(Space),,,,,---- -- ----- -- ------ - ------- and ----------<br>------------- ------ ------ ---- ---- ------- ----- -- ----<br>-------- ------- -- ---------- --- - --- ----- ----- ----<br>---- --- --- ----- --- ---- ---- ------- ----- ---- -------<br>--- --- -- ----- -- --- ---- -- --- ---- -- ------ ------<br>--- ----- -- ----,37936.20000000112,37935.300000000745,37541.219,37544.60000000149,37557.889,37941.327,,7,and
screen,html.Screen,0_2_0_1_8,2021-12-02T10:45:48.038Z,,,,,,,,,,,,,,,,53,,,,,,,,,,,,,,409.97300000074756,,response,,,99,,,,,,Space,keypress(Space),,,,,---- -- ----- -- ------ - ------- --- fulfilling<br>------------- ------ ------ ---- ---- ------- ----- -- ----<br>-------- ------- -- ---------- --- - --- ----- ----- ----<br>---- --- --- ----- --- ---- ---- ------- ----- ---- -------<br>--- --- -- ----- -- --- ---- -- --- ---- -- ------ ------<br>--- ----- -- ----,38352.40000000037,38351.300000000745,37924.657,37936.5,37941.327,38358.078,,8,fulfilling
screen,html.Screen,0_2_0_1_9,2021-12-02T10:45:48.526Z,,,,,,,,,,,,,,,,53,,,,,,,,,,,,,,481.2220000007437,,response,,,99,,,,,,Space,keypress(Space),,,,,"---- -- ----- -- ------ - ------- --- ----------<br>relationship, ------ ------ ---- ---- ------- ----- -- ----<br>-------- ------- -- ---------- --- - --- ----- ----- ----<br>---- --- --- ----- --- ---- ---- ------- ----- ---- -------<br>--- --- -- ----- -- --- ---- -- --- ---- -- ------ ------<br>--- ----- -- ----",38840.300000000745,38839.300000000745,38341.408,38352.70000000112,38358.078,38841.59,,9,"relationship,"
screen,html.Screen,0_2_0_1_10,2021-12-02T10:45:48.934Z,,,,,,,,,,,,,,,,53,,,,,,,,,,,,,,405.6100000011211,,response,,,99,,,,,,Space,keypress(Space),,,,,---- -- ----- -- ------ - ------- --- ----------<br>------------- common ------ ---- ---- ------- ----- -- ----<br>-------- ------- -- ---------- --- - --- ----- ----- ----<br>---- --- --- ----- --- ---- ---- ------- ----- ---- -------<br>--- --- -- ----- -- --- ---- -- --- ---- -- ------ ------<br>--- ----- -- ----,39248.300000000745,39247.20000000112,38824.919,38840.5,38841.59,39258.322,,10,common
screen,html.Screen,0_2_0_1_11,2021-12-02T10:45:49.350Z,,,,,,,,,,,,,,,,53,,,,,,,,,,,,,,404.87800000111747,,response,,,99,,,,,,Space,keypress(Space),,,,,---- -- ----- -- ------ - ------- --- ----------<br>------------- ------ wisdom ---- ---- ------- ----- -- ----<br>-------- ------- -- ---------- --- - --- ----- ----- ----<br>---- --- --- ----- --- ---- ---- ------- ----- ---- -------<br>--- --- -- ----- -- --- ---- -- --- ---- -- ------ ------<br>--- ----- -- ----,39664.20000000112,39663.20000000112,39241.652,39248.5,39258.322,39675.149,,11,wisdom
screen,html.Screen,0_2_0_1_12,2021-12-02T10:45:49.766Z,,,,,,,,,,,,,,,,53,,,,,,,,,,,,,,404.15100000074744,,response,,,99,,,,,,Space,keypress(Space),,,,,---- -- ----- -- ------ - ------- --- ----------<br>------------- ------ ------ says ---- ------- ----- -- ----<br>-------- ------- -- ---------- --- - --- ----- ----- ----<br>---- --- --- ----- --- ---- ---- ------- ----- ---- -------<br>--- --- -- ----- -- --- ---- -- --- ---- -- ------ ------<br>--- ----- -- ----,40080,40079.300000000745,39658.478,39664.5,39675.149,40091.869,,12,says
screen,html.Screen,0_2_0_1_13,2021-12-02T10:45:50.110Z,,,,,,,,,,,,,,,,53,,,,,,,,,,,,,,331.4310000007463,,response,,,99,,,,,,Space,keypress(Space),,,,,---- -- ----- -- ------ - ------- --- ----------<br>------------- ------ ------ ---- that ------- ----- -- ----<br>-------- ------- -- ---------- --- - --- ----- ----- ----<br>---- --- --- ----- --- ---- ---- ------- ----- ---- -------<br>--- --- -- ----- -- --- ---- -- --- ---- -- ------ ------<br>--- ----- -- ----,40424,40423.300000000745,40075.199,40080.300000000745,40091.869,40425.348,,13,that
screen,html.Screen,0_2_0_1_14,2021-12-02T10:45:50.502Z,,,,,,,,,,,,,,,,53,,,,,,,,,,,,,,389.85200000111945,,response,,,99,,,,,,Space,keypress(Space),,,,,---- -- ----- -- ------ - ------- --- ----------<br>------------- ------ ------ ---- ---- feeling ----- -- ----<br>-------- ------- -- ---------- --- - --- ----- ----- ----<br>---- --- --- ----- --- ---- ---- ------- ----- ---- -------<br>--- --- -- ----- -- --- ---- -- --- ---- -- ------ ------<br>--- ----- -- ----,40816.10000000149,40815.20000000112,40408.677,40424.300000000745,40425.348,40825.41,,14,feeling
screen,html.Screen,0_2_0_1_15,2021-12-02T10:45:50.862Z,,,,,,,,,,,,,,,,53,,,,,,,,,,,,,,349.7900000011141,,response,,,99,,,,,,Space,keypress(Space),,,,,---- -- ----- -- ------ - ------- --- ----------<br>------------- ------ ------ ---- ---- ------- close -- ----<br>-------- ------- -- ---------- --- - --- ----- ----- ----<br>---- --- --- ----- --- ---- ---- ------- ----- ---- -------<br>--- --- -- ----- -- --- ---- -- --- ---- -- ------ ------<br>--- ----- -- ----,41176,41175.20000000112,40808.74,40816.300000000745,40825.41,41192.179,,15,close
screen,html.Screen,0_2_0_1_16,2021-12-02T10:45:51.174Z,,,,,,,,,,,,,,,,53,,,,,,,,,,,,,,295.42100000149367,,response,,,99,,,,,,Space,keypress(Space),,,,,---- -- ----- -- ------ - ------- --- ----------<br>------------- ------ ------ ---- ---- ------- ----- to ----<br>-------- ------- -- ---------- --- - --- ----- ----- ----<br>---- --- --- ----- --- ---- ---- ------- ----- ---- -------<br>--- --- -- ----- -- --- ---- -- --- ---- -- ------ ------<br>--- ----- -- ----,41488.5,41487.60000000149,41175.509,41176.300000000745,41192.179,41492.292,,16,to
screen,html.Screen,0_2_0_1_17,2021-12-02T10:45:51.509Z,,,,,,,,,,,,,,,,53,,,,,,,,,,,,,,330.80800000148884,,response,,,99,,,,,,Space,keypress(Space),,,,,---- -- ----- -- ------ - ------- --- ----------<br>------------- ------ ------ ---- ---- ------- ----- -- your<br>-------- ------- -- ---------- --- - --- ----- ----- ----<br>---- --- --- ----- --- ---- ---- ------- ----- ---- -------<br>--- --- -- ----- -- --- ---- -- --- ---- -- ------ ------<br>--- ----- -- ----,41823.90000000037,41823.10000000149,41475.621,41488.70000000112,41492.292,41825.691,,17,your
screen,html.Screen,0_2_0_1_18,2021-12-02T10:45:51.869Z,,,,,,,,,,,,,,,,53,,,,,,,,,,,,,,357.5090000011187,,response,,,99,,,,,,Space,keypress(Space),,,,,---- -- ----- -- ------ - ------- --- ----------<br>------------- ------ ------ ---- ---- ------- ----- -- ----<br>romantic ------- -- ---------- --- - --- ----- ----- ----<br>---- --- --- ----- --- ---- ---- ------- ----- ---- -------<br>--- --- -- ----- -- --- ---- -- --- ---- -- ------ ------<br>--- ----- -- ----,42183.90000000037,42183.20000000112,41809.021,41824.10000000149,41825.691,42192.44,,18,romantic
screen,html.Screen,0_2_0_1_19,2021-12-02T10:45:52.197Z,,,,,,,,,,,,,,,,53,,,,,,,,,,,,,,318.6600000014878,,response,,,99,,,,,,Space,keypress(Space),,,,,---- -- ----- -- ------ - ------- --- ----------<br>------------- ------ ------ ---- ---- ------- ----- -- ----<br>-------- partner -- ---------- --- - --- ----- ----- ----<br>---- --- --- ----- --- ---- ---- ------- ----- ---- -------<br>--- --- -- ----- -- --- ---- -- --- ---- -- ------ ------<br>--- ----- -- ----,42511.90000000037,42511.10000000149,42175.77,42184.10000000149,42192.44,42525.852,,19,partner
screen,html.Screen,0_2_0_1_20,2021-12-02T10:45:52.557Z,,,,,,,,,,,,,,,,53,,,,,,,,,,,,,,345.24800000149116,,response,,,99,,,,,,Space,keypress(Space),,,,,---- -- ----- -- ------ - ------- --- ----------<br>------------- ------ ------ ---- ---- ------- ----- -- ----<br>-------- ------- is ---------- --- - --- ----- ----- ----<br>---- --- --- ----- --- ---- ---- ------- ----- ---- -------<br>--- --- -- ----- -- --- ---- -- --- ---- -- ------ ------<br>--- ----- -- ----,42871.90000000037,42871.10000000149,42509.182,42512.10000000149,42525.852,42875.965,,20,is
screen,html.Screen,0_2_0_1_21,2021-12-02T10:45:52.861Z,,,,,,,,,,,,,,,,53,,,,,,,,,,,,,,299.1350000014936,,response,,,99,,,,,,Space,keypress(Space),,,,,---- -- ----- -- ------ - ------- --- ----------<br>------------- ------ ------ ---- ---- ------- ----- -- ----<br>-------- ------- -- paramount. --- - --- ----- ----- ----<br>---- --- --- ----- --- ---- ---- ------- ----- ---- -------<br>--- --- -- ----- -- --- ---- -- --- ---- -- ------ ------<br>--- ----- -- ----,43175.90000000037,43175.10000000149,42859.295,42872.10000000149,42875.965,43192.721,,21,paramount.
screen,html.Screen,0_2_0_1_22,2021-12-02T10:45:53.189Z,,,,,,,,,,,,,,,,53,,,,,,,,,,,,,,310.3790000014924,,response,,,99,,,,,,Space,keypress(Space),,,,,---- -- ----- -- ------ - ------- --- ----------<br>------------- ------ ------ ---- ---- ------- ----- -- ----<br>-------- ------- -- ---------- But - --- ----- ----- ----<br>---- --- --- ----- --- ---- ---- ------- ----- ---- -------<br>--- --- -- ----- -- --- ---- -- --- ---- -- ------ ------<br>--- ----- -- ----,43503.800000000745,43503.10000000149,43176.051,43176.40000000037,43192.721,43509.386,,22,But
screen,html.Screen,0_2_0_1_23,2021-12-02T10:45:53.525Z,,,,,,,,,,,,,,,,53,,,,,,,,,,,,,,329.6140000000014,,response,,,99,,,,,,Space,keypress(Space),,,,,---- -- ----- -- ------ - ------- --- ----------<br>------------- ------ ------ ---- ---- ------- ----- -- ----<br>-------- ------- -- ---------- --- a --- ----- ----- ----<br>---- --- --- ----- --- ---- ---- ------- ----- ---- -------<br>--- --- -- ----- -- --- ---- -- --- ---- -- ------ ------<br>--- ----- -- ----,43839.90000000037,43839,43492.717,43504.10000000149,43509.386,43842.911,,23,a
screen,html.Screen,0_2_0_1_24,2021-12-02T10:45:53.853Z,,,,,,,,,,,,,,,,53,,,,,,,,,,,,,,324.08899999999994,,response,,,99,,,,,,Space,keypress(Space),,,,,---- -- ----- -- ------ - ------- --- ----------<br>------------- ------ ------ ---- ---- ------- ----- -- ----<br>-------- ------- -- ---------- --- - new ----- ----- ----<br>---- --- --- ----- --- ---- ---- ------- ----- ---- -------<br>--- --- -- ----- -- --- ---- -- --- ---- -- ------ ------<br>--- ----- -- ----,44167.800000000745,44167,43826.24,43840.10000000149,43842.911,44176.339,,24,new
screen,html.Screen,0_2_0_1_25,2021-12-02T10:45:54.181Z,,,,,,,,,,,,,,,,53,,,,,,,,,,,,,,318.66100000000006,,response,,,99,,,,,,Space,keypress(Space),,,,,---- -- ----- -- ------ - ------- --- ----------<br>------------- ------ ------ ---- ---- ------- ----- -- ----<br>-------- ------- -- ---------- --- - --- study ----- ----<br>---- --- --- ----- --- ---- ---- ------- ----- ---- -------<br>--- --- -- ----- -- --- ---- -- --- ---- -- ------ ------<br>--- ----- -- ----,44495.70000000112,44495,44159.668,44168.10000000149,44176.339,44509.756,,25,study
screen,html.Screen,0_2_0_1_26,2021-12-02T10:45:54.501Z,,,,,,,,,,,,,,,,53,,,,,,,,,,,,,,305.2439999999988,,response,,,99,,,,,,Space,keypress(Space),,,,,---- -- ----- -- ------ - ------- --- ----------<br>------------- ------ ------ ---- ---- ------- ----- -- ----<br>-------- ------- -- ---------- --- - --- ----- finds ----<br>---- --- --- ----- --- ---- ---- ------- ----- ---- -------<br>--- --- -- ----- -- --- ---- -- --- ---- -- ------ ------<br>--- ----- -- ----,44815.800000000745,44815,44493.085,44496,44509.756,44826.487,,26,finds
screen,html.Screen,0_2_0_1_27,2021-12-02T10:45:54.829Z,,,,,,,,,,,,,,,,53,,,,,,,,,,,,,,316.512999999999,,response,,,99,,,,,,Space,keypress(Space),,,,,---- -- ----- -- ------ - ------- --- ----------<br>------------- ------ ------ ---- ---- ------- ----- -- ----<br>-------- ------- -- ---------- --- - --- ----- ----- that<br>---- --- --- ----- --- ---- ---- ------- ----- ---- -------<br>--- --- -- ----- -- --- ---- -- --- ---- -- ------ ------<br>--- ----- -- ----,45143.800000000745,45143,44809.817,44816.10000000149,44826.487,45159.888,,27,that
screen,html.Screen,0_2_0_1_28,2021-12-02T10:45:55.157Z,,,,,,,,,,,,,,,,53,,,,,,,,,,,,,,311.0120000003735,,response,,,99,,,,,,Space,keypress(Space),,,,,---- -- ----- -- ------ - ------- --- ----------<br>------------- ------ ------ ---- ---- ------- ----- -- ----<br>-------- ------- -- ---------- --- - --- ----- ----- ----<br>it's --- --- ----- --- ---- ---- ------- ----- ---- -------<br>--- --- -- ----- -- --- ---- -- --- ---- -- ------ ------<br>--- ----- -- ----,45471.800000000745,45470.90000000037,45143.218,45144.10000000149,45159.888,45476.691,,28,it's
screen,html.Screen,0_2_0_1_29,2021-12-02T10:45:55.485Z,,,,,,,,,,,,,,,,53,,,,,,,,,,,,,,322.20900000037363,,response,,,99,,,,,,Space,keypress(Space),,,,,---- -- ----- -- ------ - ------- --- ----------<br>------------- ------ ------ ---- ---- ------- ----- -- ----<br>-------- ------- -- ---------- --- - --- ----- ----- ----<br>---- not --- ----- --- ---- ---- ------- ----- ---- -------<br>--- --- -- ----- -- --- ---- -- --- ---- -- ------ ------<br>--- ----- -- ----,45799.70000000112,45798.90000000037,45460.02,45472,45476.691,45810.071,,29,not
screen,html.Screen,0_2_0_1_30,2021-12-02T10:45:55.797Z,,,,,,,,,,,,,,,,53,,,,,,,,,,,,,,300.829000000369,,response,,,99,,,,,,Space,keypress(Space),,,,,---- -- ----- -- ------ - ------- --- ----------<br>------------- ------ ------ ---- ---- ------- ----- -- ----<br>-------- ------- -- ---------- --- - --- ----- ----- ----<br>---- --- how ----- --- ---- ---- ------- ----- ---- -------<br>--- --- -- ----- -- --- ---- -- --- ---- -- ------ ------<br>--- ----- -- ----,46111.70000000112,46110.90000000037,45793.401,45800,45810.071,46126.868,,30,how
screen,html.Screen,0_2_0_1_31,2021-12-02T10:45:56.093Z,,,,,,,,,,,,,,,,53,,,,,,,,,,,,,,280.0320000003703,,response,,,99,,,,,,Space,keypress(Space),,,,,---- -- ----- -- ------ - ------- --- ----------<br>------------- ------ ------ ---- ---- ------- ----- -- ----<br>-------- ------- -- ---------- --- - --- ----- ----- ----<br>---- --- --- close --- ---- ---- ------- ----- ---- -------<br>--- --- -- ----- -- --- ---- -- --- ---- -- ------ ------<br>--- ----- -- ----,46407.70000000112,46406.90000000037,46110.197,46112,46126.868,46410.249,,31,close
screen,html.Screen,0_2_0_1_32,2021-12-02T10:45:56.373Z,,,,,,,,,,,,,,,,53,,,,,,,,,,,,,,276.5510000007416,,response,,,99,,,,,,Space,keypress(Space),,,,,---- -- ----- -- ------ - ------- --- ----------<br>------------- ------ ------ ---- ---- ------- ----- -- ----<br>-------- ------- -- ---------- --- - --- ----- ----- ----<br>---- --- --- ----- you ---- ---- ------- ----- ---- -------<br>--- --- -- ----- -- --- ---- -- --- ---- -- ------ ------<br>--- ----- -- ----,46687.70000000112,46686.800000000745,46393.579,46407.90000000037,46410.249,46693.637,,32,you
screen,html.Screen,0_2_0_1_33,2021-12-02T10:45:56.661Z,,,,,,,,,,,,,,,,53,,,,,,,,,,,,,,281.1630000007426,,response,,,99,,,,,,Space,keypress(Space),,,,,---- -- ----- -- ------ - ------- --- ----------<br>------------- ------ ------ ---- ---- ------- ----- -- ----<br>-------- ------- -- ---------- --- - --- ----- ----- ----<br>---- --- --- ----- --- feel ---- ------- ----- ---- -------<br>--- --- -- ----- -- --- ---- -- --- ---- -- ------ ------<br>--- ----- -- ----,46975.60000000149,46974.800000000745,46676.967,46687.90000000037,46693.637,46977.084,,33,feel
screen,html.Screen,0_2_0_1_34,2021-12-02T10:45:56.949Z,,,,,,,,,,,,,,,,53,,,,,,,,,,,,,,285.7160000007425,,response,,,99,,,,,,Space,keypress(Space),,,,,---- -- ----- -- ------ - ------- --- ----------<br>------------- ------ ------ ---- ---- ------- ----- -- ----<br>-------- ------- -- ---------- --- - --- ----- ----- ----<br>---- --- --- ----- --- ---- that ------- ----- ---- -------<br>--- --- -- ----- -- --- ---- -- --- ---- -- ------ ------<br>--- ----- -- ----,47263.70000000112,47262.800000000745,46960.413,46975.90000000037,46977.084,47277.142,,34,that
screen,html.Screen,0_2_0_1_35,2021-12-02T10:45:57.237Z,,,,,,,,,,,,,,,,53,,,,,,,,,,,,,,273.65800000074523,,response,,,99,,,,,,Space,keypress(Space),,,,,---- -- ----- -- ------ - ------- --- ----------<br>------------- ------ ------ ---- ---- ------- ----- -- ----<br>-------- ------- -- ---------- --- - --- ----- ----- ----<br>---- --- --- ----- --- ---- ---- matters ----- ---- -------<br>--- --- -- ----- -- --- ---- -- --- ---- -- ------ ------<br>--- ----- -- ----,47551.70000000112,47550.800000000745,47260.472,47263.90000000037,47277.142,47560.496,,35,matters
screen,html.Screen,0_2_0_1_36,2021-12-02T10:45:57.549Z,,,,,,,,,,,,,,,,53,,,,,,,,,,,,,,302.3040000007459,,response,,,99,,,,,,Space,keypress(Space),,,,,"---- -- ----- -- ------ - ------- --- ----------<br>------------- ------ ------ ---- ---- ------- ----- -- ----<br>-------- ------- -- ---------- --- - --- ----- ----- ----<br>---- --- --- ----- --- ---- ---- ------- most, ---- -------<br>--- --- -- ----- -- --- ---- -- --- ---- -- ------ ------<br>--- ----- -- ----",47863.800000000745,47862.800000000745,47543.827,47551.90000000037,47560.496,47877.357,,36,"most,"
screen,html.Screen,0_2_0_1_37,2021-12-02T10:45:57.845Z,,,,,,,,,,,,,,,,53,,,,,,,,,,,,,,281.5430000003689,,response,,,99,,,,,,Space,keypress(Space),,,,,---- -- ----- -- ------ - ------- --- ----------<br>------------- ------ ------ ---- ---- ------- ----- -- ----<br>-------- ------- -- ---------- --- - --- ----- ----- ----<br>---- --- --- ----- --- ---- ---- ------- ----- it's -------<br>--- --- -- ----- -- --- ---- -- --- ---- -- ------ ------<br>--- ----- -- ----,48159.800000000745,48158.90000000037,47860.685,47864.10000000149,47877.357,48177.366,,37,it's
screen,html.Screen,0_2_0_1_38,2021-12-02T10:45:58.197Z,,,,,,,,,,,,,,,,53,,,,,,,,,,,,,,333.5340000003707,,response,,,99,,,,,,Space,keypress(Space),,,,,---- -- ----- -- ------ - ------- --- ----------<br>------------- ------ ------ ---- ---- ------- ----- -- ----<br>-------- ------- -- ---------- --- - --- ----- ----- ----<br>---- --- --- ----- --- ---- ---- ------- ----- ---- whether<br>--- --- -- ----- -- --- ---- -- --- ---- -- ------ ------<br>--- ----- -- ----,48511.60000000149,48510.90000000037,48160.696,48160.10000000149,48177.366,48527.458,,38,whether
screen,html.Screen,0_2_0_1_39,2021-12-02T10:45:58.501Z,,,,,,,,,,,,,,,,53,,,,,,,,,,,,,,287.4420000003738,,response,,,99,,,,,,Space,keypress(Space),,,,,---- -- ----- -- ------ - ------- --- ----------<br>------------- ------ ------ ---- ---- ------- ----- -- ----<br>-------- ------- -- ---------- --- - --- ----- ----- ----<br>---- --- --- ----- --- ---- ---- ------- ----- ---- -------<br>you --- -- ----- -- --- ---- -- --- ---- -- ------ ------<br>--- ----- -- ----,48815.800000000745,48814.90000000037,48510.788,48511.90000000037,48527.458,48827.577,,39,you
screen,html.Screen,0_2_0_1_40,2021-12-02T10:45:58.797Z,,,,,,,,,,,,,,,,53,,,,,,,,,,,,,,283.22300000074756,,response,,,99,,,,,,Space,keypress(Space),,,,,---- -- ----- -- ------ - ------- --- ----------<br>------------- ------ ------ ---- ---- ------- ----- -- ----<br>-------- ------- -- ---------- --- - --- ----- ----- ----<br>---- --- --- ----- --- ---- ---- ------- ----- ---- -------<br>--- are -- ----- -- --- ---- -- --- ---- -- ------ ------<br>--- ----- -- ----,49111.60000000149,49110.800000000745,48810.906,48816,48827.577,49127.636,,40,are
screen,html.Screen,0_2_0_1_41,2021-12-02T10:45:59.093Z,,,,,,,,,,,,,,,,53,,,,,,,,,,,,,,279.16400000074646,,response,,,99,,,,,,Space,keypress(Space),,,,,---- -- ----- -- ------ - ------- --- ----------<br>------------- ------ ------ ---- ---- ------- ----- -- ----<br>-------- ------- -- ---------- --- - --- ----- ----- ----<br>---- --- --- ----- --- ---- ---- ------- ----- ---- -------<br>--- --- as ----- -- --- ---- -- --- ---- -- ------ ------<br>--- ----- -- ----,49407.60000000149,49406.800000000745,49110.966,49111.800000000745,49127.636,49411.046,,41,as
screen,html.Screen,0_2_0_1_42,2021-12-02T10:45:59.397Z,,,,,,,,,,,,,,,,53,,,,,,,,,,,,,,299.75400000074296,,response,,,99,,,,,,Space,keypress(Space),,,,,---- -- ----- -- ------ - ------- --- ----------<br>------------- ------ ------ ---- ---- ------- ----- -- ----<br>-------- ------- -- ---------- --- - --- ----- ----- ----<br>---- --- --- ----- --- ---- ---- ------- ----- ---- -------<br>--- --- -- close -- --- ---- -- --- ---- -- ------ ------<br>--- ----- -- ----,49711.5,49710.800000000745,49394.376,49407.90000000037,49411.046,49727.774,,42,close
screen,html.Screen,0_2_0_1_43,2021-12-02T10:45:59.701Z,,,,,,,,,,,,,,,,53,,,,,,,,,,,,,,287.02600000074744,,response,,,99,,,,,,Space,keypress(Space),,,,,---- -- ----- -- ------ - ------- --- ----------<br>------------- ------ ------ ---- ---- ------- ----- -- ----<br>-------- ------- -- ---------- --- - --- ----- ----- ----<br>---- --- --- ----- --- ---- ---- ------- ----- ---- -------<br>--- --- -- ----- as --- ---- -- --- ---- -- ------ ------<br>--- ----- -- ----,50015.60000000149,50014.800000000745,49711.104,49711.800000000745,49727.774,50027.787,,43,as
screen,html.Screen,0_2_0_1_44,2021-12-02T10:46:00.029Z,,,,,,,,,,,,,,,,53,,,,,,,,,,,,,,315.01300000074843,,response,,,99,,,,,,Space,keypress(Space),,,,,---- -- ----- -- ------ - ------- --- ----------<br>------------- ------ ------ ---- ---- ------- ----- -- ----<br>-------- ------- -- ---------- --- - --- ----- ----- ----<br>---- --- --- ----- --- ---- ---- ------- ----- ---- -------<br>--- --- -- ----- -- you ---- -- --- ---- -- ------ ------<br>--- ----- -- ----,50343.5,50342.800000000745,50011.118,50015.90000000037,50027.787,50344.667,,44,you
screen,html.Screen,0_2_0_1_45,2021-12-02T10:46:00.333Z,,,,,,,,,,,,,,,,53,,,,,,,,,,,,,,302.0330000011163,,response,,,99,,,,,,Space,keypress(Space),,,,,---- -- ----- -- ------ - ------- --- ----------<br>------------- ------ ------ ---- ---- ------- ----- -- ----<br>-------- ------- -- ---------- --- - --- ----- ----- ----<br>---- --- --- ----- --- ---- ---- ------- ----- ---- -------<br>--- --- -- ----- -- --- want -- --- ---- -- ------ ------<br>--- ----- -- ----,50647.60000000149,50646.70000000112,50327.995,50343.90000000037,50344.667,50661.389,,45,want
screen,html.Screen,0_2_0_1_46,2021-12-02T10:46:00.637Z,,,,,,,,,,,,,,,,53,,,,,,,,,,,,,,289.4110000007422,,response,,,99,,,,,,Space,keypress(Space),,,,,---- -- ----- -- ------ - ------- --- ----------<br>------------- ------ ------ ---- ---- ------- ----- -- ----<br>-------- ------- -- ---------- --- - --- ----- ----- ----<br>---- --- --- ----- --- ---- ---- ------- ----- ---- -------<br>--- --- -- ----- -- --- ---- to --- ---- -- ------ ------<br>--- ----- -- ----,50951.60000000149,50950.800000000745,50644.718,50647.90000000037,50661.389,50961.474,,46,to
screen,html.Screen,0_2_0_1_47,2021-12-02T10:46:00.957Z,,,,,,,,,,,,,,,,53,,,,,,,,,,,,,,309.3260000007431,,response,,,99,,,,,,Space,keypress(Space),,,,,"---- -- ----- -- ------ - ------- --- ----------<br>------------- ------ ------ ---- ---- ------- ----- -- ----<br>-------- ------- -- ---------- --- - --- ----- ----- ----<br>---- --- --- ----- --- ---- ---- ------- ----- ---- -------<br>--- --- -- ----- -- --- ---- -- be, ---- -- ------ ------<br>--- ----- -- ----",51271.60000000149,51270.800000000745,50944.803,50951.800000000745,50961.474,51278.191,,47,"be,"
screen,html.Screen,0_2_0_1_48,2021-12-02T10:46:01.278Z,,,,,,,,,,,,,,,,53,,,,,,,,,,,,,,313.0090000011187,,response,,,99,,,,,,Space,keypress(Space),,,,,---- -- ----- -- ------ - ------- --- ----------<br>------------- ------ ------ ---- ---- ------- ----- -- ----<br>-------- ------- -- ---------- --- - --- ----- ----- ----<br>---- --- --- ----- --- ---- ---- ------- ----- ---- -------<br>--- --- -- ----- -- --- ---- -- --- even -- ------ ------<br>--- ----- -- ----,51592,51591.20000000112,51261.521,51271.800000000745,51278.191,51594.98,,48,even
screen,html.Screen,0_2_0_1_49,2021-12-02T10:46:01.581Z,,,,,,,,,,,,,,,,53,,,,,,,,,,,,,,299.6200000014869,,response,,,99,,,,,,Space,keypress(Space),,,,,---- -- ----- -- ------ - ------- --- ----------<br>------------- ------ ------ ---- ---- ------- ----- -- ----<br>-------- ------- -- ---------- --- - --- ----- ----- ----<br>---- --- --- ----- --- ---- ---- ------- ----- ---- -------<br>--- --- -- ----- -- --- ---- -- --- ---- if ------ ------<br>--- ----- -- ----,51895.5,51894.60000000149,51578.309,51592.300000000745,51594.98,51911.626,,49,if
screen,html.Screen,0_2_0_1_50,2021-12-02T10:46:01.869Z,,,,,,,,,,,,,,,,53,,,,,,,,,,,,,,270.97400000149355,,response,,,99,,,,,,Space,keypress(Space),,,,,---- -- ----- -- ------ - ------- --- ----------<br>------------- ------ ------ ---- ---- ------- ----- -- ----<br>-------- ------- -- ---------- --- - --- ----- ----- ----<br>---- --- --- ----- --- ---- ---- ------- ----- ---- -------<br>--- --- -- ----- -- --- ---- -- --- ---- -- that's ------<br>--- ----- -- ----,52183.5,52182.60000000149,51894.957,51895.70000000112,51911.626,52195.181,,50,that's
screen,html.Screen,0_2_0_1_51,2021-12-02T10:46:02.173Z,,,,,,,,,,,,,,,,53,,,,,,,,,,,,,,291.51900000112073,,response,,,99,,,,,,Space,keypress(Space),,,,,---- -- ----- -- ------ - ------- --- ----------<br>------------- ------ ------ ---- ---- ------- ----- -- ----<br>-------- ------- -- ---------- --- - --- ----- ----- ----<br>---- --- --- ----- --- ---- ---- ------- ----- ---- -------<br>--- --- -- ----- -- --- ---- -- --- ---- -- ------ really<br>--- ----- -- ----,52487.40000000037,52486.70000000112,52178.509,52183.70000000112,52195.181,52495.083,,51,really
screen,html.Screen,0_2_0_1_52,2021-12-02T10:46:02.493Z,,,,,,,,,,,,,,,,53,,,,,,,,,,,,,,311.5170000014914,,response,,,99,,,,,,Space,keypress(Space),,,,,---- -- ----- -- ------ - ------- --- ----------<br>------------- ------ ------ ---- ---- ------- ----- -- ----<br>-------- ------- -- ---------- --- - --- ----- ----- ----<br>---- --- --- ----- --- ---- ---- ------- ----- ---- -------<br>--- --- -- ----- -- --- ---- -- --- ---- -- ------ ------<br>not ----- -- ----,52807.40000000037,52806.60000000149,52478.415,52487.70000000112,52495.083,52812.03,,52,not
screen,html.Screen,0_2_0_1_53,2021-12-02T10:46:02.805Z,,,,,,,,,,,,,,,,53,,,,,,,,,,,,,,306.67000000111875,,response,,,99,,,,,,Space,keypress(Space),,,,,---- -- ----- -- ------ - ------- --- ----------<br>------------- ------ ------ ---- ---- ------- ----- -- ----<br>-------- ------- -- ---------- --- - --- ----- ----- ----<br>---- --- --- ----- --- ---- ---- ------- ----- ---- -------<br>--- --- -- ----- -- --- ---- -- --- ---- -- ------ ------<br>--- close -- ----,53119.40000000037,53118.70000000112,52795.357,52807.60000000149,52812.03,53128.682,,53,close
screen,html.Screen,0_2_0_1_54,2021-12-02T10:46:03.093Z,,,,,,,,,,,,,,,,53,,,,,,,,,,,,,,278.0180000011169,,response,,,99,,,,,,Space,keypress(Space),,,,,---- -- ----- -- ------ - ------- --- ----------<br>------------- ------ ------ ---- ---- ------- ----- -- ----<br>-------- ------- -- ---------- --- - --- ----- ----- ----<br>---- --- --- ----- --- ---- ---- ------- ----- ---- -------<br>--- --- -- ----- -- --- ---- -- --- ---- -- ------ ------<br>--- ----- at ----,53407.40000000037,53406.70000000112,53112.012,53119.70000000112,53128.682,53412.139,,54,at
screen,html.Screen,0_2_0_1_55,2021-12-02T10:46:03.445Z,,,,,,,,,,,,,,,,53,,,,,,,,,,,,,,346.46100000148726,,response,,,99,,,,,,Space,keypress(Space),,,,,---- -- ----- -- ------ - ------- --- ----------<br>------------- ------ ------ ---- ---- ------- ----- -- ----<br>-------- ------- -- ---------- --- - --- ----- ----- ----<br>---- --- --- ----- --- ---- ---- ------- ----- ---- -------<br>--- --- -- ----- -- --- ---- -- --- ---- -- ------ ------<br>--- ----- -- all.,53759.40000000037,53758.60000000149,53395.468,53407.70000000112,53412.139,53778.759,,55,all.
Item 99,flow.Loop,0_2_0_1,2021-12-02T10:46:03.449Z,,,,,,,,,,,,,,,,,,,,,,,,,,,,,,19468.41100000149,,completion,,,,D,,,,,,,,,,silence,,53763.90000000037,53758.60000000149,34273.519,34279.800000000745,34290.189,53778.759,,,
Question 1,html.Screen,0_2_0_2,2021-12-02T10:46:07.621Z,,,,,,,,,,,,,,,,,,,,,,,,,,,false,FALSE,,4155.541000000747,,response,,,99,D,,,,,TRUE,click #choice-1,,,,silence,,57935.60000000149,57934.300000000745,53762.091,53764.10000000149,53778.759,57946.585,,,
Question 2,html.Screen,0_2_0_3,2021-12-02T10:46:11.999Z,,,,,,,,,,,,,,,,,,,,,,,,,,,true,TRUE,,4363.415000000001,,response,,,99,D,,,,,TRUE,click #choice-1,,,,silence,,62311.20000000112,62310,57929.916,57935.90000000037,57946.585,62314.453,,,
Item 99,flow.Sequence,0_2_0,2021-12-02T10:46:12.000Z,,,,,,,,,,,,,,,,,,,,,,,,,,,,,,38022.210999999996,,completion,,,,,,,,,,,,,,,,62311.60000000149,62310,24271.117,24282,24287.789,62314.453,,,
Holding screen,html.Screen,0_2_1_0,2021-12-02T10:46:21.989Z,,,,,,,,,,,,,,,,,,,,,,,,,,,,,,10002.508999999998,,timeout,,,,,,,,,,,,,,,,72301.30000000075,72300.292,62297.783,62311.90000000037,62314.453,72316.962,,,
screen,html.Screen,0_2_1_1_0,2021-12-02T10:46:22.727Z,,,,,,,,,,,,,,,,54,,,,,,,,,,,,,,721.3380000007455,,response,,,100,,,,,,Space,keypress(Space),,,,,At --- ---- --- ------ ----- ------- ---- -- --- ------- --<br>------- ---------- ------ -- ----- -- ----- -- ---- ------<br>--- ----- --- --- ------ -------- ----- --- ------ ----- --<br>----- ----- ---------- --- --- ------ ------ ---- -- ------<br>------- --- ------ ----- --- ---- ------- -- ---- --- --<br>------- ------,73039.20000000112,73038.30000000075,72300.292,72301.80000000075,72316.962,73050.668,,0,At
screen,html.Screen,0_2_1_1_1,2021-12-02T10:46:23.086Z,,,,,,,,,,,,,,,,54,,,,,,,,,,,,,,346.932000001485,,response,,,100,,,,,,Space,keypress(Space),,,,,-- the ---- --- ------ ----- ------- ---- -- --- ------- --<br>------- ---------- ------ -- ----- -- ----- -- ---- ------<br>--- ----- --- --- ------ -------- ----- --- ------ ----- --<br>----- ----- ---------- --- --- ------ ------ ---- -- ------<br>------- --- ------ ----- --- ---- ------- -- ---- --- --<br>------- ------,73398.40000000037,73397.60000000149,73033.997,73039.5,73050.668,73400.745,,1,the
screen,html.Screen,0_2_1_1_2,2021-12-02T10:46:23.430Z,,,,,,,,,,,,,,,,54,,,,,,,,,,,,,,340.95500000112224,,response,,,100,,,,,,Space,keypress(Space),,,,,-- --- time --- ------ ----- ------- ---- -- --- ------- --<br>------- ---------- ------ -- ----- -- ----- -- ---- ------<br>--- ----- --- --- ------ -------- ----- --- ------ ----- --<br>----- ----- ---------- --- --- ------ ------ ---- -- ------<br>------- --- ------ ----- --- ---- ------- -- ---- --- --<br>------- ------,73742.5,73741.70000000112,73384.075,73398.70000000112,73400.745,73750.837,,2,time
screen,html.Screen,0_2_1_1_3,2021-12-02T10:46:23.774Z,,,,,,,,,,,,,,,,54,,,,,,,,,,,,,,334.86300000111805,,response,,,100,,,,,,Space,keypress(Space),,,,,-- --- ---- the ------ ----- ------- ---- -- --- ------- --<br>------- ---------- ------ -- ----- -- ----- -- ---- ------<br>--- ----- --- --- ------ -------- ----- --- ------ ----- --<br>----- ----- ---------- --- --- ------ ------ ---- -- ------<br>------- --- ------ ----- --- ---- ------- -- ---- --- --<br>------- ------,74086.5,74085.70000000112,73734.167,73742.80000000075,73750.837,74100.908,,3,the
screen,html.Screen,0_2_1_1_4,2021-12-02T10:46:24.134Z,,,,,,,,,,,,,,,,54,,,,,,,,,,,,,,344.6920000014943,,response,,,100,,,,,,Space,keypress(Space),,,,,-- --- ---- --- French ----- ------- ---- -- --- ------- --<br>------- ---------- ------ -- ----- -- ----- -- ---- ------<br>--- ----- --- --- ------ -------- ----- --- ------ ----- --<br>----- ----- ---------- --- --- ------ ------ ---- -- ------<br>------- --- ------ ----- --- ---- ------- -- ---- --- --<br>------- ------,74446.40000000037,74445.60000000149,74084.238,74086.70000000112,74100.908,74451.056,,4,French
screen,html.Screen,0_2_1_1_5,2021-12-02T10:46:24.494Z,,,,,,,,,,,,,,,,54,,,,,,,,,,,,,,354.54400000149326,,response,,,100,,,,,,Space,keypress(Space),,,,,-- --- ---- --- ------ crown ------- ---- -- --- ------- --<br>------- ---------- ------ -- ----- -- ----- -- ---- ------<br>--- ----- --- --- ------ -------- ----- --- ------ ----- --<br>----- ----- ---------- --- --- ------ ------ ---- -- ------<br>------- --- ------ ----- --- ---- ------- -- ---- --- --<br>------- ------,74806.5,74805.60000000149,74434.385,74446.70000000112,74451.056,74817.7,,5,crown
screen,html.Screen,0_2_1_1_6,2021-12-02T10:46:24.878Z,,,,,,,,,,,,,,,,54,,,,,,,,,,,,,,372.0000000011205,,response,,,100,,,,,,Space,keypress(Space),,,,,-- --- ---- --- ------ ----- secured ---- -- --- ------- --<br>------- ---------- ------ -- ----- -- ----- -- ---- ------<br>--- ----- --- --- ------ -------- ----- --- ------ ----- --<br>----- ----- ---------- --- --- ------ ------ ---- -- ------<br>------- --- ------ ----- --- ---- ------- -- ---- --- --<br>------- ------,75190.40000000037,75189.70000000112,74801.031,74806.70000000112,74817.7,75201.309,,6,secured
screen,html.Screen,0_2_1_1_7,2021-12-02T10:46:25.238Z,,,,,,,,,,,,,,,,54,,,,,,,,,,,,,,348.2910000014963,,response,,,100,,,,,,Space,keypress(Space),,,,,-- --- ---- --- ------ ----- ------- much -- --- ------- --<br>------- ---------- ------ -- ----- -- ----- -- ---- ------<br>--- ----- --- --- ------ -------- ----- --- ------ ----- --<br>----- ----- ---------- --- --- ------ ------ ---- -- ------<br>------- --- ------ ----- --- ---- ------- -- ---- --- --<br>------- ------,75550.40000000037,75549.60000000149,75184.637,75190.70000000112,75201.309,75551.301,,7,much
screen,html.Screen,0_2_1_1_8,2021-12-02T10:46:25.582Z,,,,,,,,,,,,,,,,54,,,,,,,,,,,,,,342.4990000007383,,response,,,100,,,,,,Space,keypress(Space),,,,,-- --- ---- --- ------ ----- ------- ---- of --- ------- --<br>------- ---------- ------ -- ----- -- ----- -- ---- ------<br>--- ----- --- --- ------ -------- ----- --- ------ ----- --<br>----- ----- ---------- --- --- ------ ------ ---- -- ------<br>------- --- ------ ----- --- ---- ------- -- ---- --- --<br>------- ------,75894.5,75893.80000000075,75534.631,75550.60000000149,75551.301,75901.443,,8,of
screen,html.Screen,0_2_1_1_9,2021-12-02T10:46:25.862Z,,,,,,,,,,,,,,,,54,,,,,,,,,,,,,,272.0570000000007,,response,,,100,,,,,,Space,keypress(Space),,,,,-- --- ---- --- ------ ----- ------- ---- -- its ------- --<br>------- ---------- ------ -- ----- -- ----- -- ---- ------<br>--- ----- --- --- ------ -------- ----- --- ------ ----- --<br>----- ----- ---------- --- --- ------ ------ ---- -- ------<br>------- --- ------ ----- --- ---- ------- -- ---- --- --<br>------- ------,76174.30000000075,76173.5,75884.772,75894.70000000112,75901.443,76184.767,,9,its
screen,html.Screen,0_2_1_1_10,2021-12-02T10:46:26.126Z,,,,,,,,,,,,,,,,54,,,,,,,,,,,,,,252.7329999999929,,response,,,100,,,,,,Space,keypress(Space),,,,,-- --- ---- --- ------ ----- ------- ---- -- --- revenue --<br>------- ---------- ------ -- ----- -- ----- -- ---- ------<br>--- ----- --- --- ------ -------- ----- --- ------ ----- --<br>----- ----- ---------- --- --- ------ ------ ---- -- ------<br>------- --- ------ ----- --- ---- ------- -- ---- --- --<br>------- ------,76438.30000000075,76437.5,76168.098,76174.60000000149,76184.767,76451.582,,10,revenue
screen,html.Screen,0_2_1_1_11,2021-12-02T10:46:26.422Z,,,,,,,,,,,,,,,,54,,,,,,,,,,,,,,281.9180000000051,,response,,,100,,,,,,Space,keypress(Space),,,,,-- --- ---- --- ------ ----- ------- ---- -- --- ------- by<br>------- ---------- ------ -- ----- -- ----- -- ---- ------<br>--- ----- --- --- ------ -------- ----- --- ------ ----- --<br>----- ----- ---------- --- --- ------ ------ ---- -- ------<br>------- --- ------ ----- --- ---- ------- -- ---- --- --<br>------- ------,76734.40000000037,76733.5,76434.911,76438.5,76451.582,76751.673,,11,by
screen,html.Screen,0_2_1_1_12,2021-12-02T10:46:26.718Z,,,,,,,,,,,,,,,,54,,,,,,,,,,,,,,277.8270000000048,,response,,,100,,,,,,Space,keypress(Space),,,,,-- --- ---- --- ------ ----- ------- ---- -- --- ------- --<br>issuing ---------- ------ -- ----- -- ----- -- ---- ------<br>--- ----- --- --- ------ -------- ----- --- ------ ----- --<br>----- ----- ---------- --- --- ------ ------ ---- -- ------<br>------- --- ------ ----- --- ---- ------- -- ---- --- --<br>------- ------,77030.30000000075,77029.5,76735.002,76734.60000000149,76751.673,77035.045,,12,issuing
screen,html.Screen,0_2_1_1_13,2021-12-02T10:46:27.006Z,,,,,,,,,,,,,,,,54,,,,,,,,,,,,,,282.3550000003743,,response,,,100,,,,,,Space,keypress(Space),,,,,-- --- ---- --- ------ ----- ------- ---- -- --- ------- --<br>------- government ------ -- ----- -- ----- -- ---- ------<br>--- ----- --- --- ------ -------- ----- --- ------ ----- --<br>----- ----- ---------- --- --- ------ ------ ---- -- ------<br>------- --- ------ ----- --- ---- ------- -- ---- --- --<br>------- ------,77318.10000000149,77317.40000000037,77018.375,77030.60000000149,77035.045,77335.119,,13,government
screen,html.Screen,0_2_1_1_14,2021-12-02T10:46:27.406Z,,,,,,,,,,,,,,,,54,,,,,,,,,,,,,,382.2810000003665,,response,,,100,,,,,,Space,keypress(Space),,,,,-- --- ---- --- ------ ----- ------- ---- -- --- ------- --<br>------- ---------- bonds. -- ----- -- ----- -- ---- ------<br>--- ----- --- --- ------ -------- ----- --- ------ ----- --<br>----- ----- ---------- --- --- ------ ------ ---- -- ------<br>------- --- ------ ----- --- ---- ------- -- ---- --- --<br>------- ------,77718.20000000112,77717.40000000037,77318.449,77318.40000000037,77335.119,77735.259,,14,bonds.
screen,html.Screen,0_2_1_1_15,2021-12-02T10:46:27.830Z,,,,,,,,,,,,,,,,54,,,,,,,,,,,,,,406.14100000036706,,response,,,100,,,,,,Space,keypress(Space),,,,,-- --- ---- --- ------ ----- ------- ---- -- --- ------- --<br>------- ---------- ------ In ----- -- ----- -- ---- ------<br>--- ----- --- --- ------ -------- ----- --- ------ ----- --<br>----- ----- ---------- --- --- ------ ------ ---- -- ------<br>------- --- ------ ----- --- ---- ------- -- ---- --- --<br>------- ------,78142.20000000112,78141.40000000037,77718.588,77718.5,77735.259,78151.997,,15,In
screen,html.Screen,0_2_1_1_16,2021-12-02T10:46:28.134Z,,,,,,,,,,,,,,,,54,,,,,,,,,,,,,,293.502999999997,,response,,,100,,,,,,Space,keypress(Space),,,,,"-- --- ---- --- ------ ----- ------- ---- -- --- ------- --<br>------- ---------- ------ -- 1727, -- ----- -- ---- ------<br>--- ----- --- --- ------ -------- ----- --- ------ ----- --<br>----- ----- ---------- --- --- ------ ------ ---- -- ------<br>------- --- ------ ----- --- ---- ------- -- ---- --- --<br>------- ------",78446.30000000075,78445.5,78135.327,78142.5,78151.997,78452.058,,16,"1727,"
screen,html.Screen,0_2_1_1_17,2021-12-02T10:46:28.558Z,,,,,,,,,,,,,,,,54,,,,,,,,,,,,,,417.342000000368,,response,,,100,,,,,,Space,keypress(Space),,,,,-- --- ---- --- ------ ----- ------- ---- -- --- ------- --<br>------- ---------- ------ -- ----- in ----- -- ---- ------<br>--- ----- --- --- ------ -------- ----- --- ------ ----- --<br>----- ----- ---------- --- --- ------ ------ ---- -- ------<br>------- --- ------ ----- --- ---- ------- -- ---- --- --<br>------- ------,78870.20000000112,78869.40000000037,78435.388,78446.5,78452.058,78885.56,,17,in
screen,html.Screen,0_2_1_1_18,2021-12-02T10:46:28.862Z,,,,,,,,,,,,,,,,54,,,,,,,,,,,,,,287.84000000037486,,response,,,100,,,,,,Space,keypress(Space),,,,,-- --- ---- --- ------ ----- ------- ---- -- --- ------- --<br>------- ---------- ------ -- ----- -- order -- ---- ------<br>--- ----- --- --- ------ -------- ----- --- ------ ----- --<br>----- ----- ---------- --- --- ------ ------ ---- -- ------<br>------- --- ------ ----- --- ---- ------- -- ---- --- --<br>------- ------,79174.20000000112,79173.40000000037,78868.889,78870.5,78885.56,79185.639,,18,order
screen,html.Screen,0_2_1_1_19,2021-12-02T10:46:29.142Z,,,,,,,,,,,,,,,,54,,,,,,,,,,,,,,267.76100000037695,,response,,,100,,,,,,Space,keypress(Space),,,,,-- --- ---- --- ------ ----- ------- ---- -- --- ------- --<br>------- ---------- ------ -- ----- -- ----- to ---- ------<br>--- ----- --- --- ------ -------- ----- --- ------ ----- --<br>----- ----- ---------- --- --- ------ ------ ---- -- ------<br>------- --- ------ ----- --- ---- ------- -- ---- --- --<br>------- ------,79454.20000000112,79453.40000000037,79168.968,79174.5,79185.639,79469.023,,19,to
screen,html.Screen,0_2_1_1_20,2021-12-02T10:46:29.430Z,,,,,,,,,,,,,,,,54,,,,,,,,,,,,,,272.3770000003715,,response,,,100,,,,,,Space,keypress(Space),,,,,-- --- ---- --- ------ ----- ------- ---- -- --- ------- --<br>------- ---------- ------ -- ----- -- ----- -- save ------<br>--- ----- --- --- ------ -------- ----- --- ------ ----- --<br>----- ----- ---------- --- --- ------ ------ ---- -- ------<br>------- --- ------ ----- --- ---- ------- -- ---- --- --<br>------- ------,79742.20000000112,79741.40000000037,79452.353,79454.40000000037,79469.023,79752.461,,20,save
screen,html.Screen,0_2_1_1_21,2021-12-02T10:46:29.678Z,,,,,,,,,,,,,,,,54,,,,,,,,,,,,,,236.93900000037684,,response,,,100,,,,,,Space,keypress(Space),,,,,"-- --- ---- --- ------ ----- ------- ---- -- --- ------- --<br>------- ---------- ------ -- ----- -- ----- -- ---- money,<br>--- ----- --- --- ------ -------- ----- --- ------ ----- --<br>----- ----- ---------- --- --- ------ ------ ---- -- ------<br>------- --- ------ ----- --- ---- ------- -- ---- --- --<br>------- ------",79990.20000000112,79989.40000000037,79735.79,79742.40000000037,79752.461,80002.39,,21,"money,"
screen,html.Screen,0_2_1_1_22,2021-12-02T10:46:29.974Z,,,,,,,,,,,,,,,,54,,,,,,,,,,,,,,283.0100000003731,,response,,,100,,,,,,Space,keypress(Space),,,,,-- --- ---- --- ------ ----- ------- ---- -- --- ------- --<br>------- ---------- ------ -- ----- -- ----- -- ---- ------<br>the ----- --- --- ------ -------- ----- --- ------ ----- --<br>----- ----- ---------- --- --- ------ ------ ---- -- ------<br>------- --- ------ ----- --- ---- ------- -- ---- --- --<br>------- ------,80286.10000000149,80285.40000000037,79985.722,79990.40000000037,80002.39,80302.667,,22,the
screen,html.Screen,0_2_1_1_23,2021-12-02T10:46:30.238Z,,,,,,,,,,,,,,,,54,,,,,,,,,,,,,,246.73300000037125,,response,,,100,,,,,,Space,keypress(Space),,,,,-- --- ---- --- ------ ----- ------- ---- -- --- ------- --<br>------- ---------- ------ -- ----- -- ----- -- ---- ------<br>--- state --- --- ------ -------- ----- --- ------ ----- --<br>----- ----- ---------- --- --- ------ ------ ---- -- ------<br>------- --- ------ ----- --- ---- ------- -- ---- --- --<br>------- ------,80550.20000000112,80549.40000000037,80285.994,80286.40000000037,80302.667,80552.673,,23,state
screen,html.Screen,0_2_1_1_24,2021-12-02T10:46:30.534Z,,,,,,,,,,,,,,,,54,,,,,,,,,,,,,,292.62700000074983,,response,,,100,,,,,,Space,keypress(Space),,,,,-- --- ---- --- ------ ----- ------- ---- -- --- ------- --<br>------- ---------- ------ -- ----- -- ----- -- ---- ------<br>--- ----- cut --- ------ -------- ----- --- ------ ----- --<br>----- ----- ---------- --- --- ------ ------ ---- -- ------<br>------- --- ------ ----- --- ---- ------- -- ---- --- --<br>------- ------,80846.10000000149,80845.30000000075,80536.002,80550.30000000075,80552.673,80852.727,,24,cut
screen,html.Screen,0_2_1_1_25,2021-12-02T10:46:30.822Z,,,,,,,,,,,,,,,,54,,,,,,,,,,,,,,280.77300000000105,,response,,,100,,,,,,Space,keypress(Space),,,,,-- --- ---- --- ------ ----- ------- ---- -- --- ------- --<br>------- ---------- ------ -- ----- -- ----- -- ---- ------<br>--- ----- --- the ------ -------- ----- --- ------ ----- --<br>----- ----- ---------- --- --- ------ ------ ---- -- ------<br>------- --- ------ ----- --- ---- ------- -- ---- --- --<br>------- ------,81134.30000000075,81133.5,80836.057,80846.30000000075,80852.727,81136.121,,25,the
screen,html.Screen,0_2_1_1_26,2021-12-02T10:46:31.094Z,,,,,,,,,,,,,,,,54,,,,,,,,,,,,,,269.0790000011184,,response,,,100,,,,,,Space,keypress(Space),,,,,-- --- ---- --- ------ ----- ------- ---- -- --- ------- --<br>------- ---------- ------ -- ----- -- ----- -- ---- ------<br>--- ----- --- --- bonds' -------- ----- --- ------ ----- --<br>----- ----- ---------- --- --- ------ ------ ---- -- ------<br>------- --- ------ ----- --- ---- ------- -- ---- --- --<br>------- ------,81406,81405.20000000112,81119.451,81134.5,81136.121,81419.54,,26,bonds'
screen,html.Screen,0_2_1_1_27,2021-12-02T10:46:31.526Z,,,,,,,,,,,,,,,,54,,,,,,,,,,,,,,417.660000001124,,response,,,100,,,,,,Space,keypress(Space),,,,,-- --- ---- --- ------ ----- ------- ---- -- --- ------- --<br>------- ---------- ------ -- ----- -- ----- -- ---- ------<br>--- ----- --- --- ------ interest ----- --- ------ ----- --<br>----- ----- ---------- --- --- ------ ------ ---- -- ------<br>------- --- ------ ----- --- ---- ------- -- ---- --- --<br>------- ------,81837.90000000037,81837.20000000112,81402.87,81406.20000000112,81419.54,81853.021,,27,interest
screen,html.Screen,0_2_1_1_28,2021-12-02T10:46:31.886Z,,,,,,,,,,,,,,,,54,,,,,,,,,,,,,,344.2790000007517,,response,,,100,,,,,,Space,keypress(Space),,,,,-- --- ---- --- ------ ----- ------- ---- -- --- ------- --<br>------- ---------- ------ -- ----- -- ----- -- ---- ------<br>--- ----- --- --- ------ -------- rate. --- ------ ----- --<br>----- ----- ---------- --- --- ------ ------ ---- -- ------<br>------- --- ------ ----- --- ---- ------- -- ---- --- --<br>------- ------,82198,82197.30000000075,81836.35,81838.10000000149,81853.021,82203.091,,28,rate.
screen,html.Screen,0_2_1_1_29,2021-12-02T10:46:32.294Z,,,,,,,,,,,,,,,,54,,,,,,,,,,,,,,402.00900000148977,,response,,,100,,,,,,Space,keypress(Space),,,,,-- --- ---- --- ------ ----- ------- ---- -- --- ------- --<br>------- ---------- ------ -- ----- -- ----- -- ---- ------<br>--- ----- --- --- ------ -------- ----- The ------ ----- --<br>----- ----- ---------- --- --- ------ ------ ---- -- ------<br>------- --- ------ ----- --- ---- ------- -- ---- --- --<br>------- ------,82606,82605.10000000149,82186.421,82198.20000000112,82203.091,82619.777,,29,The
screen,html.Screen,0_2_1_1_30,2021-12-02T10:46:32.598Z,,,,,,,,,,,,,,,,54,,,,,,,,,,,,,,289.4230000011157,,response,,,100,,,,,,Space,keypress(Space),,,,,-- --- ---- --- ------ ----- ------- ---- -- --- ------- --<br>------- ---------- ------ -- ----- -- ----- -- ---- ------<br>--- ----- --- --- ------ -------- ----- --- market ----- --<br>----- ----- ---------- --- --- ------ ------ ---- -- ------<br>------- --- ------ ----- --- ---- ------- -- ---- --- --<br>------- ------,82909.90000000037,82909.20000000112,82603.108,82606.20000000112,82619.777,82919.979,,30,market
screen,html.Screen,0_2_1_1_31,2021-12-02T10:46:32.854Z,,,,,,,,,,,,,,,,54,,,,,,,,,,,,,,245.62100000148348,,response,,,100,,,,,,Space,keypress(Space),,,,,-- --- ---- --- ------ ----- ------- ---- -- --- ------- --<br>------- ---------- ------ -- ----- -- ----- -- ---- ------<br>--- ----- --- --- ------ -------- ----- --- ------ value --<br>----- ----- ---------- --- --- ------ ------ ---- -- ------<br>------- --- ------ ----- --- ---- ------- -- ---- --- --<br>------- ------,83166.40000000037,83165.60000000149,82903.308,82910.10000000149,82919.979,83170.012,,31,value
screen,html.Screen,0_2_1_1_32,2021-12-02T10:46:33.150Z,,,,,,,,,,,,,,,,54,,,,,,,,,,,,,,291.18800000111514,,response,,,100,,,,,,Space,keypress(Space),,,,,-- --- ---- --- ------ ----- ------- ---- -- --- ------- --<br>------- ---------- ------ -- ----- -- ----- -- ---- ------<br>--- ----- --- --- ------ -------- ----- --- ------ ----- of<br>----- ----- ---------- --- --- ------ ------ ---- -- ------<br>------- --- ------ ----- --- ---- ------- -- ---- --- --<br>------- ------,83462,83461.20000000112,83153.342,83166.60000000149,83170.012,83470.118,,32,of
screen,html.Screen,0_2_1_1_33,2021-12-02T10:46:33.462Z,,,,,,,,,,,,,,,,54,,,,,,,,,,,,,,303.0820000011154,,response,,,100,,,,,,Space,keypress(Space),,,,,-- --- ---- --- ------ ----- ------- ---- -- --- ------- --<br>------- ---------- ------ -- ----- -- ----- -- ---- ------<br>--- ----- --- --- ------ -------- ----- --- ------ ----- --<br>these ----- ---------- --- --- ------ ------ ---- -- ------<br>------- --- ------ ----- --- ---- ------- -- ---- --- --<br>------- ------,83773.90000000037,83773.20000000112,83453.447,83462.20000000112,83470.118,83786.83,,33,these
screen,html.Screen,0_2_1_1_34,2021-12-02T10:46:33.710Z,,,,,,,,,,,,,,,,54,,,,,,,,,,,,,,234.37000000111584,,response,,,100,,,,,,Space,keypress(Space),,,,,-- --- ---- --- ------ ----- ------- ---- -- --- ------- --<br>------- ---------- ------ -- ----- -- ----- -- ---- ------<br>--- ----- --- --- ------ -------- ----- --- ------ ----- --<br>----- bonds ---------- --- --- ------ ------ ---- -- ------<br>------- --- ------ ----- --- ---- ------- -- ---- --- --<br>------- ------,84022,84021.20000000112,83770.16,83774.20000000112,83786.83,84036.899,,34,bonds
screen,html.Screen,0_2_1_1_35,2021-12-02T10:46:33.950Z,,,,,,,,,,,,,,,,54,,,,,,,,,,,,,,224.3010000011127,,response,,,100,,,,,,Space,keypress(Space),,,,,"-- --- ---- --- ------ ----- ------- ---- -- --- ------- --<br>------- ---------- ------ -- ----- -- ----- -- ---- ------<br>--- ----- --- --- ------ -------- ----- --- ------ ----- --<br>----- ----- plummeted, --- --- ------ ------ ---- -- ------<br>------- --- ------ ----- --- ---- ------- -- ---- --- --<br>------- ------",84261.90000000037,84261.20000000112,84020.229,84022.10000000149,84036.899,84270.328,,35,"plummeted,"
screen,html.Screen,0_2_1_1_36,2021-12-02T10:46:34.238Z,,,,,,,,,,,,,,,,54,,,,,,,,,,,,,,278.8720000011235,,response,,,100,,,,,,Space,keypress(Space),,,,,-- --- ---- --- ------ ----- ------- ---- -- --- ------- --<br>------- ---------- ------ -- ----- -- ----- -- ---- ------<br>--- ----- --- --- ------ -------- ----- --- ------ ----- --<br>----- ----- ---------- and --- ------ ------ ---- -- ------<br>------- --- ------ ----- --- ---- ------- -- ---- --- --<br>------- ------,84549.90000000037,84549.20000000112,84253.657,84263.20000000112,84270.328,84553.746,,36,and
screen,html.Screen,0_2_1_1_37,2021-12-02T10:46:34.526Z,,,,,,,,,,,,,,,,54,,,,,,,,,,,,,,283.35400000149093,,response,,,100,,,,,,Space,keypress(Space),,,,,-- --- ---- --- ------ ----- ------- ---- -- --- ------- --<br>------- ---------- ------ -- ----- -- ----- -- ---- ------<br>--- ----- --- --- ------ -------- ----- --- ------ ----- --<br>----- ----- ---------- --- the ------ ------ ---- -- ------<br>------- --- ------ ----- --- ---- ------- -- ---- --- --<br>------- ------,84837.90000000037,84837.10000000149,84537.075,84550.20000000112,84553.746,84853.755,,37,the
screen,html.Screen,0_2_1_1_38,2021-12-02T10:46:34.782Z,,,,,,,,,,,,,,,,54,,,,,,,,,,,,,,239.34500000148546,,response,,,100,,,,,,Space,keypress(Space),,,,,-- --- ---- --- ------ ----- ------- ---- -- --- ------- --<br>------- ---------- ------ -- ----- -- ----- -- ---- ------<br>--- ----- --- --- ------ -------- ----- --- ------ ----- --<br>----- ----- ---------- --- --- market ------ ---- -- ------<br>------- --- ------ ----- --- ---- ------- -- ---- --- --<br>------- ------,85093.90000000037,85093.10000000149,84837.086,84838.10000000149,84853.755,85103.883,,38,market
screen,html.Screen,0_2_1_1_39,2021-12-02T10:46:35.046Z,,,,,,,,,,,,,,,,54,,,,,,,,,,,,,,253.2170000014885,,response,,,100,,,,,,Space,keypress(Space),,,,,-- --- ---- --- ------ ----- ------- ---- -- --- ------- --<br>------- ---------- ------ -- ----- -- ----- -- ---- ------<br>--- ----- --- --- ------ -------- ----- --- ------ ----- --<br>----- ----- ---------- --- --- ------ became ---- -- ------<br>------- --- ------ ----- --- ---- ------- -- ---- --- --<br>------- ------,85357.90000000037,85357.10000000149,85087.212,85094.10000000149,85103.883,85370.625,,39,became
screen,html.Screen,0_2_1_1_40,2021-12-02T10:46:35.318Z,,,,,,,,,,,,,,,,54,,,,,,,,,,,,,,258.5750000011176,,response,,,100,,,,,,Space,keypress(Space),,,,,-- --- ---- --- ------ ----- ------- ---- -- --- ------- --<br>------- ---------- ------ -- ----- -- ----- -- ---- ------<br>--- ----- --- --- ------ -------- ----- --- ------ ----- --<br>----- ----- ---------- --- --- ------ ------ wary -- ------<br>------- --- ------ ----- --- ---- ------- -- ---- --- --<br>------- ------,85629.90000000037,85629.20000000112,85353.954,85358.10000000149,85370.625,85637.344,,40,wary
screen,html.Screen,0_2_1_1_41,2021-12-02T10:46:35.550Z,,,,,,,,,,,,,,,,54,,,,,,,,,,,,,,223.7560000014928,,response,,,100,,,,,,Space,keypress(Space),,,,,-- --- ---- --- ------ ----- ------- ---- -- --- ------- --<br>------- ---------- ------ -- ----- -- ----- -- ---- ------<br>--- ----- --- --- ------ -------- ----- --- ------ ----- --<br>----- ----- ---------- --- --- ------ ------ ---- of ------<br>------- --- ------ ----- --- ---- ------- -- ---- --- --<br>------- ------,85861.80000000075,85861.10000000149,85620.674,85630.10000000149,85637.344,85870.716,,41,of
screen,html.Screen,0_2_1_1_42,2021-12-02T10:46:35.790Z,,,,,,,,,,,,,,,,54,,,,,,,,,,,,,,230.38400000148977,,response,,,100,,,,,,Space,keypress(Space),,,,,-- --- ---- --- ------ ----- ------- ---- -- --- ------- --<br>------- ---------- ------ -- ----- -- ----- -- ---- ------<br>--- ----- --- --- ------ -------- ----- --- ------ ----- --<br>----- ----- ---------- --- --- ------ ------ ---- -- French<br>------- --- ------ ----- --- ---- ------- -- ---- --- --<br>------- ------,86101.90000000037,86101.10000000149,85854.046,85862.10000000149,85870.716,86104.11,,42,French
screen,html.Screen,0_2_1_1_43,2021-12-02T10:46:36.078Z,,,,,,,,,,,,,,,,54,,,,,,,,,,,,,,284.99000000148953,,response,,,100,,,,,,Space,keypress(Space),,,,,-- --- ---- --- ------ ----- ------- ---- -- --- ------- --<br>------- ---------- ------ -- ----- -- ----- -- ---- ------<br>--- ----- --- --- ------ -------- ----- --- ------ ----- --<br>----- ----- ---------- --- --- ------ ------ ---- -- ------<br>credit. --- ------ ----- --- ---- ------- -- ---- --- --<br>------- ------,86390,86389.10000000149,86087.44,86102.10000000149,86104.11,86404.223,,43,credit.
screen,html.Screen,0_2_1_1_44,2021-12-02T10:46:36.350Z,,,,,,,,,,,,,,,,54,,,,,,,,,,,,,,256.877000001492,,response,,,100,,,,,,Space,keypress(Space),,,,,-- --- ---- --- ------ ----- ------- ---- -- --- ------- --<br>------- ---------- ------ -- ----- -- ----- -- ---- ------<br>--- ----- --- --- ------ -------- ----- --- ------ ----- --<br>----- ----- ---------- --- --- ------ ------ ---- -- ------<br>------- The ------ ----- --- ---- ------- -- ---- --- --<br>------- ------,86661.90000000037,86661.10000000149,86387.552,86390.20000000112,86404.223,86670.943,,44,The
screen,html.Screen,0_2_1_1_45,2021-12-02T10:46:36.598Z,,,,,,,,,,,,,,,,54,,,,,,,,,,,,,,238.15700000149081,,response,,,100,,,,,,Space,keypress(Space),,,,,-- --- ---- --- ------ ----- ------- ---- -- --- ------- --<br>------- ---------- ------ -- ----- -- ----- -- ---- ------<br>--- ----- --- --- ------ -------- ----- --- ------ ----- --<br>----- ----- ---------- --- --- ------ ------ ---- -- ------<br>------- --- French ----- --- ---- ------- -- ---- --- --<br>------- ------,86909.90000000037,86909.10000000149,86654.273,86662.10000000149,86670.943,86920.892,,45,French
screen,html.Screen,0_2_1_1_46,2021-12-02T10:46:36.846Z,,,,,,,,,,,,,,,,54,,,,,,,,,,,,,,236.20800000148301,,response,,,100,,,,,,Space,keypress(Space),,,,,-- --- ---- --- ------ ----- ------- ---- -- --- ------- --<br>------- ---------- ------ -- ----- -- ----- -- ---- ------<br>--- ----- --- --- ------ -------- ----- --- ------ ----- --<br>----- ----- ---------- --- --- ------ ------ ---- -- ------<br>------- --- ------ state --- ---- ------- -- ---- --- --<br>------- ------,87157.80000000075,87157.10000000149,86904.224,86910.10000000149,86920.892,87171.068,,46,state
screen,html.Screen,0_2_1_1_47,2021-12-02T10:46:37.062Z,,,,,,,,,,,,,,,,54,,,,,,,,,,,,,,202.03200000149081,,response,,,100,,,,,,Space,keypress(Space),,,,,-- --- ---- --- ------ ----- ------- ---- -- --- ------- --<br>------- ---------- ------ -- ----- -- ----- -- ---- ------<br>--- ----- --- --- ------ -------- ----- --- ------ ----- --<br>----- ----- ---------- --- --- ------ ------ ---- -- ------<br>------- --- ------ ----- was ---- ------- -- ---- --- --<br>------- ------,87373.90000000037,87373.10000000149,87154.397,87158.10000000149,87171.068,87387.841,,47,was
screen,html.Screen,0_2_1_1_48,2021-12-02T10:46:37.294Z,,,,,,,,,,,,,,,,54,,,,,,,,,,,,,,217.15899999999965,,response,,,100,,,,,,Space,keypress(Space),,,,,-- --- ---- --- ------ ----- ------- ---- -- --- ------- --<br>------- ---------- ------ -- ----- -- ----- -- ---- ------<br>--- ----- --- --- ------ -------- ----- --- ------ ----- --<br>----- ----- ---------- --- --- ------ ------ ---- -- ------<br>------- --- ------ ----- --- left ------- -- ---- --- --<br>------- ------,87605.90000000037,87605,87371.169,87374.10000000149,87387.841,87621.173,,48,left
screen,html.Screen,0_2_1_1_49,2021-12-02T10:46:37.566Z,,,,,,,,,,,,,,,,54,,,,,,,,,,,,,,255.82700000000477,,response,,,100,,,,,,Space,keypress(Space),,,,,-- --- ---- --- ------ ----- ------- ---- -- --- ------- --<br>------- ---------- ------ -- ----- -- ----- -- ---- ------<br>--- ----- --- --- ------ -------- ----- --- ------ ----- --<br>----- ----- ---------- --- --- ------ ------ ---- -- ------<br>------- --- ------ ----- --- ---- without -- ---- --- --<br>------- ------,87877.70000000112,87877,87604.503,87606.10000000149,87621.173,87888.017,,49,without
screen,html.Screen,0_2_1_1_50,2021-12-02T10:46:37.822Z,,,,,,,,,,,,,,,,54,,,,,,,,,,,,,,244.9829999999929,,response,,,100,,,,,,Space,keypress(Space),,,,,-- --- ---- --- ------ ----- ------- ---- -- --- ------- --<br>------- ---------- ------ -- ----- -- ----- -- ---- ------<br>--- ----- --- --- ------ -------- ----- --- ------ ----- --<br>----- ----- ---------- --- --- ------ ------ ---- -- ------<br>------- --- ------ ----- --- ---- ------- an ---- --- --<br>------- ------,88133.80000000075,88133,87871.344,87877.90000000037,87888.017,88138,,50,an
screen,html.Screen,0_2_1_1_51,2021-12-02T10:46:38.046Z,,,,,,,,,,,,,,,,54,,,,,,,,,,,,,,219,,response,,,100,,,,,,Space,keypress(Space),,,,,-- --- ---- --- ------ ----- ------- ---- -- --- ------- --<br>------- ---------- ------ -- ----- -- ----- -- ---- ------<br>--- ----- --- --- ------ -------- ----- --- ------ ----- --<br>----- ----- ---------- --- --- ------ ------ ---- -- ------<br>------- --- ------ ----- --- ---- ------- -- easy --- --<br>------- ------,88357.80000000075,88357,88121.33,88134,88138,88371.436,,51,easy
screen,html.Screen,0_2_1_1_52,2021-12-02T10:46:38.286Z,,,,,,,,,,,,,,,,54,,,,,,,,,,,,,,225.5639999999985,,response,,,100,,,,,,Space,keypress(Space),,,,,-- --- ---- --- ------ ----- ------- ---- -- --- ------- --<br>------- ---------- ------ -- ----- -- ----- -- ---- ------<br>--- ----- --- --- ------ -------- ----- --- ------ ----- --<br>----- ----- ---------- --- --- ------ ------ ---- -- ------<br>------- --- ------ ----- --- ---- ------- -- ---- way --<br>------- ------,88597.80000000075,88597,88354.765,88358,88371.436,88604.794,,52,way
screen,html.Screen,0_2_1_1_53,2021-12-02T10:46:38.550Z,,,,,,,,,,,,,,,,54,,,,,,,,,,,,,,256.1060000003781,,response,,,100,,,,,,Space,keypress(Space),,,,,-- --- ---- --- ------ ----- ------- ---- -- --- ------- --<br>------- ---------- ------ -- ----- -- ----- -- ---- ------<br>--- ----- --- --- ------ -------- ----- --- ------ ----- --<br>----- ----- ---------- --- --- ------ ------ ---- -- ------<br>------- --- ------ ----- --- ---- ------- -- ---- --- of<br>------- ------,88861.70000000112,88860.90000000037,88588.124,88598,88604.794,88871.513,,53,of
screen,html.Screen,0_2_1_1_54,2021-12-02T10:46:38.782Z,,,,,,,,,,,,,,,,54,,,,,,,,,,,,,,221.38700000036624,,response,,,100,,,,,,Space,keypress(Space),,,,,-- --- ---- --- ------ ----- ------- ---- -- --- ------- --<br>------- ---------- ------ -- ----- -- ----- -- ---- ------<br>--- ----- --- --- ------ -------- ----- --- ------ ----- --<br>----- ----- ---------- --- --- ------ ------ ---- -- ------<br>------- --- ------ ----- --- ---- ------- -- ---- --- --<br>raising ------,89093.80000000075,89092.90000000037,88854.843,88861.90000000037,88871.513,89104.953,,54,raising
screen,html.Screen,0_2_1_1_55,2021-12-02T10:46:39.078Z,,,,,,,,,,,,,,,,54,,,,,,,,,,,,,,284.04700000000594,,response,,,100,,,,,,Space,keypress(Space),,,,,-- --- ---- --- ------ ----- ------- ---- -- --- ------- --<br>------- ---------- ------ -- ----- -- ----- -- ---- ------<br>--- ----- --- --- ------ -------- ----- --- ------ ----- --<br>----- ----- ---------- --- --- ------ ------ ---- -- ------<br>------- --- ------ ----- --- ---- ------- -- ---- --- --<br>------- money.,89389.80000000075,89389,89088.282,89094,89104.953,89404.992,,55,money.
Item 100,flow.Loop,0_2_1_1,2021-12-02T10:46:39.078Z,,,,,,,,,,,,,,,,,,,,,,,,,,,,,,17072.038,,completion,,,,D,,,,,,,,,,silence,,89390.20000000112,89389,72300.292,72301.60000000149,72316.962,89404.992,,,
Question 1,html.Screen,0_2_1_2,2021-12-02T10:46:41.998Z,,,,,,,,,,,,,,,,,,,,,,,,,,,true,TRUE,,2903.6080000014917,,response,,,100,D,,,,,TRUE,click #choice-1,,,,silence,,92309.90000000037,92308.60000000149,89388.322,89390.40000000037,89404.992,92322.409,,,
Question 2,html.Screen,0_2_1_3,2021-12-02T10:46:45.886Z,,,,,,,,,,,,,,,,,,,,,,,,,,,true,FALSE,,3874.0910000000003,,response,,,100,D,,,,,FALSE,click #choice-2,,,,silence,,96197.70000000112,96196.5,92305.739,92310.10000000149,92322.409,96206.734,,,
Item 100,flow.Sequence,0_2_1,2021-12-02T10:46:45.886Z,,,,,,,,,,,,,,,,,,,,,,,,,,,,,,33882.047,,completion,,,,,,,,,,,,,,,,96198.10000000149,96196.5,62297.783,62311.800000000745,62314.453,96206.734,,,
End of Practice,html.Page,0_2_2,2021-12-02T10:46:48.766Z,,,,,,,,,,,,,,,,,,,,,,,,,,,,,,2871.166000000376,,form submission,,,,,,,,,,,,,,,,99078.5,99077.90000000037,96190.064,96198.20000000112,96206.734,99090.877,,,
Practice,flow.Sequence,0_2,2021-12-02T10:46:48.767Z,,,,,,,,,,,,,,,,,,,,,,,,,,,,,,74790.11100000037,,completion,,,,,,,,,,,,,,,,99078.90000000037,99077.90000000037,24271.117,24281.900000000373,24287.789,99090.877,,,
Trap_instruction,html.Page,0_3_0,2021-12-02T10:46:52.470Z,,,,,,,,,,,,,,,,,,,,,,,,,,,,,,3690.623000000007,,form submission,,,,,,,,,,,,,,,,102781.90000000037,102781.5,99074.207,99079.30000000075,99090.877,102808.286,,,
trap_trial,html.Screen,0_3_1,2021-12-02T10:46:54.869Z,,,,,,,,,,,,,,,,,,,,,,,,,,,true,1,,2371.8140000014973,,response,,,,,,,,,1,click #choice-1,,,,,,105181.20000000112,105180.10000000149,102774.946,102782.20000000112,102808.286,105192.936,,,
end of trap trial,html.Page,0_3_2,2021-12-02T10:46:56.582Z,,,,,,,,,,,,,,,,,,,,,,,,,,,,,,1700.5639999999985,,form submission,,,,,,,,,,,,,,,,106894,106893.5,105176.262,105181.60000000149,105192.936,106892.975,,,
Trap 1,flow.Sequence,0_3,2021-12-02T10:46:56.582Z,,,,,,,,,,,,,,,,,,,,,,,,,,,,,,7802.623000000007,,completion,,,,,,,,,,,,,,,,106894.40000000037,106893.5,99074.207,99079.20000000112,99090.877,106892.975,,,
Standby,html.Page,0_4_0,2021-12-02T10:47:04.567Z,,,,,,,,,,,,,,,,,,,,,,,,,,,,,,8001.580999999991,,timeout,,,,,,,,,,,,,,,,114878.70000000112,114877.886,106876.304,106894.60000000149,106892.975,114894.556,,,
Holding screen,html.Screen,0_4_1_0_0,2021-12-02T10:47:11.573Z,,,,,,,,,,,,,,,,,,,,,,,,,,,,,,7002.293000000005,,timeout,,,,,,,,,,,,,,,,121881.70000000112,121880.179,114877.886,114879.10000000149,114894.556,121896.849,,,
screen,html.Screen,0_4_1_0_1_0,2021-12-02T10:47:12.312Z,,,,,,,,,,,,,,,,15,,,,,,,,,,,,,,722.9510000007431,,response,,,7,D,,,,,Space,keypress(Space),,,,silence,Greg --------- ---------- - --- ------- -- --- ------------<br>----- -- -------- ------- ---- ------ - -------- ---- -----<br>--- ------- ---- -- --- -------- --- - ----- ------ ---- --<br>-------- --- -------- -------- --- -------- ---- -- ----- -<br>-------- ---- --- ---------- --------- -- ------- ------ -<br>--------- ----- -----,122620.80000000075,122619.80000000075,121880.179,121882.20000000112,121896.849,122630.5,,0,Greg
screen,html.Screen,0_4_1_0_1_1,2021-12-02T10:47:12.695Z,,,,,,,,,,,,,,,,15,,,,,,,,,,,,,,373.1000000014901,,response,,,7,D,,,,,Space,keypress(Space),,,,silence,"---- Anderson, ---------- - --- ------- -- --- ------------<br>----- -- -------- ------- ---- ------ - -------- ---- -----<br>--- ------- ---- -- --- -------- --- - ----- ------ ---- --<br>-------- --- -------- -------- --- -------- ---- -- ----- -<br>-------- ---- --- ---------- --------- -- ------- ------ -<br>--------- ----- -----",123004.5,123003.60000000149,122613.829,122621.10000000149,122630.5,123013.838,,1,"Anderson,"
screen,html.Screen,0_4_1_0_1_2,2021-12-02T10:47:13.087Z,,,,,,,,,,,,,,,,15,,,,,,,,,,,,,,381.4620000007417,,response,,,7,D,,,,,Space,keypress(Space),,,,silence,---- --------- considered - --- ------- -- --- ------------<br>----- -- -------- ------- ---- ------ - -------- ---- -----<br>--- ------- ---- -- --- -------- --- - ----- ------ ---- --<br>-------- --- -------- -------- --- -------- ---- -- ----- -<br>-------- ---- --- ---------- --------- -- ------- ------ -<br>--------- ----- -----,123396.20000000112,123395.30000000075,122997.168,123004.80000000075,123013.838,123414.022,,2,considered
screen,html.Screen,0_4_1_0_1_3,2021-12-02T10:47:13.439Z,,,,,,,,,,,,,,,,15,,,,,,,,,,,,,,333.27800000074785,,response,,,7,D,,,,,Space,keypress(Space),,,,silence,---- --------- ---------- a --- ------- -- --- ------------<br>----- -- -------- ------- ---- ------ - -------- ---- -----<br>--- ------- ---- -- --- -------- --- - ----- ------ ---- --<br>-------- --- -------- -------- --- -------- ---- -- ----- -<br>-------- ---- --- ---------- --------- -- ------- ------ -<br>--------- ----- -----,123748.20000000112,123747.30000000075,123397.351,123396.60000000149,123414.022,123764.214,,3,a
screen,html.Screen,0_4_1_0_1_4,2021-12-02T10:47:13.743Z,,,,,,,,,,,,,,,,15,,,,,,,,,,,,,,287.08600000073784,,response,,,7,D,,,,,Space,keypress(Space),,,,silence,---- --------- ---------- - key ------- -- --- ------------<br>----- -- -------- ------- ---- ------ - -------- ---- -----<br>--- ------- ---- -- --- -------- --- - ----- ------ ---- --<br>-------- --- -------- -------- --- -------- ---- -- ----- -<br>-------- ---- --- ---------- --------- -- ------- ------ -<br>--------- ----- -----,124052.20000000112,124051.30000000075,123747.542,123748.40000000037,123764.214,124064.219,,4,key
screen,html.Screen,0_4_1_0_1_5,2021-12-02T10:47:14.055Z,,,,,,,,,,,,,,,,15,,,,,,,,,,,,,,299.08100000074774,,response,,,7,D,,,,,Space,keypress(Space),,,,silence,---- --------- ---------- - --- witness -- --- ------------<br>----- -- -------- ------- ---- ------ - -------- ---- -----<br>--- ------- ---- -- --- -------- --- - ----- ------ ---- --<br>-------- --- -------- -------- --- -------- ---- -- ----- -<br>-------- ---- --- ---------- --------- -- ------- ------ -<br>--------- ----- -----,124364.10000000149,124363.30000000075,124047.549,124052.30000000075,124064.219,124380.969,,5,witness
screen,html.Screen,0_4_1_0_1_6,2021-12-02T10:47:14.335Z,,,,,,,,,,,,,,,,15,,,,,,,,,,,,,,262.33100000074774,,response,,,7,D,,,,,Space,keypress(Space),,,,silence,---- --------- ---------- - --- ------- by --- ------------<br>----- -- -------- ------- ---- ------ - -------- ---- -----<br>--- ------- ---- -- --- -------- --- - ----- ------ ---- --<br>-------- --- -------- -------- --- -------- ---- -- ----- -<br>-------- ---- --- ---------- --------- -- ------- ------ -<br>--------- ----- -----,124644.20000000112,124643.30000000075,124364.299,124364.40000000037,124380.969,124647.694,,6,by
screen,html.Screen,0_4_1_0_1_7,2021-12-02T10:47:14.599Z,,,,,,,,,,,,,,,,15,,,,,,,,,,,,,,259.6060000007419,,response,,,7,D,,,,,Space,keypress(Space),,,,silence,---- --------- ---------- - --- ------- -- the ------------<br>----- -- -------- ------- ---- ------ - -------- ---- -----<br>--- ------- ---- -- --- -------- --- - ----- ------ ---- --<br>-------- --- -------- -------- --- -------- ---- -- ----- -<br>-------- ---- --- ---------- --------- -- ------- ------ -<br>--------- ----- -----,124908.10000000149,124907.30000000075,124631.024,124644.30000000075,124647.694,124914.433,,7,the
screen,html.Screen,0_4_1_0_1_8,2021-12-02T10:47:14.855Z,,,,,,,,,,,,,,,,15,,,,,,,,,,,,,,248.86700000074052,,response,,,7,D,,,,,Space,keypress(Space),,,,silence,"---- --------- ---------- - --- ------- -- --- prosecution,<br>----- -- -------- ------- ---- ------ - -------- ---- -----<br>--- ------- ---- -- --- -------- --- - ----- ------ ---- --<br>-------- --- -------- -------- --- -------- ---- -- ----- -<br>-------- ---- --- ---------- --------- -- ------- ------ -<br>--------- ----- -----",125164.10000000149,125163.30000000075,124897.763,124908.40000000037,124914.433,125181.179,,8,"prosecution,"
screen,html.Screen,0_4_1_0_1_9,2021-12-02T10:47:15.143Z,,,,,,,,,,,,,,,,15,,,,,,,,,,,,,,270.02100000111386,,response,,,7,D,,,,,Space,keypress(Space),,,,silence,---- --------- ---------- - --- ------- -- --- ------------<br>vowed -- -------- ------- ---- ------ - -------- ---- -----<br>--- ------- ---- -- --- -------- --- - ----- ------ ---- --<br>-------- --- -------- -------- --- -------- ---- -- ----- -<br>-------- ---- --- ---------- --------- -- ------- ------ -<br>--------- ----- -----,125452.10000000149,125451.20000000112,125164.509,125164.40000000037,125181.179,125464.584,,9,vowed
screen,html.Screen,0_4_1_0_1_10,2021-12-02T10:47:15.431Z,,,,,,,,,,,,,,,,15,,,,,,,,,,,,,,274.7160000007425,,response,,,7,D,,,,,Space,keypress(Space),,,,silence,---- --------- ---------- - --- ------- -- --- ------------<br>----- he -------- ------- ---- ------ - -------- ---- -----<br>--- ------- ---- -- --- -------- --- - ----- ------ ---- --<br>-------- --- -------- -------- --- -------- ---- -- ----- -<br>-------- ---- --- ---------- --------- -- ------- ------ -<br>--------- ----- -----,125740,125739.30000000075,125447.914,125452.30000000075,125464.584,125747.877,,10,he
screen,html.Screen,0_4_1_0_1_11,2021-12-02T10:47:15.687Z,,,,,,,,,,,,,,,,15,,,,,,,,,,,,,,247.32300000112446,,response,,,7,D,,,,,Space,keypress(Space),,,,silence,---- --------- ---------- - --- ------- -- --- ------------<br>----- -- wouldn't ------- ---- ------ - -------- ---- -----<br>--- ------- ---- -- --- -------- --- - ----- ------ ---- --<br>-------- --- -------- -------- --- -------- ---- -- ----- -<br>-------- ---- --- ---------- --------- -- ------- ------ -<br>--------- ----- -----,125996,125995.20000000112,125731.209,125740.30000000075,125747.877,125998.154,,11,wouldn't
screen,html.Screen,0_4_1_0_1_12,2021-12-02T10:47:15.991Z,,,,,,,,,,,,,,,,15,,,,,,,,,,,,,,301.0460000011226,,response,,,7,D,,,,,Space,keypress(Space),,,,silence,---- --------- ---------- - --- ------- -- --- ------------<br>----- -- -------- testify ---- ------ - -------- ---- -----<br>--- ------- ---- -- --- -------- --- - ----- ------ ---- --<br>-------- --- -------- -------- --- -------- ---- -- ----- -<br>-------- ---- --- ---------- --------- -- ------- ------ -<br>--------- ----- -----,126300,126299.20000000112,125981.481,125996.20000000112,125998.154,126314.808,,12,testify
screen,html.Screen,0_4_1_0_1_13,2021-12-02T10:47:16.343Z,,,,,,,,,,,,,,,,15,,,,,,,,,,,,,,336.39200000111305,,response,,,7,D,,,,,Space,keypress(Space),,,,silence,---- --------- ---------- - --- ------- -- --- ------------<br>----- -- -------- ------- when ------ - -------- ---- -----<br>--- ------- ---- -- --- -------- --- - ----- ------ ---- --<br>-------- --- -------- -------- --- -------- ---- -- ----- -<br>-------- ---- --- ---------- --------- -- ------- ------ -<br>--------- ----- -----,126652.10000000149,126651.20000000112,126298.138,126300.20000000112,126314.808,126664.93,,13,when
screen,html.Screen,0_4_1_0_1_14,2021-12-02T10:47:16.663Z,,,,,,,,,,,,,,,,15,,,,,,,,,,,,,,306.2700000011246,,response,,,7,D,,,,,Space,keypress(Space),,,,silence,---- --------- ---------- - --- ------- -- --- ------------<br>----- -- -------- ------- ---- served - -------- ---- -----<br>--- ------- ---- -- --- -------- --- - ----- ------ ---- --<br>-------- --- -------- -------- --- -------- ---- -- ----- -<br>-------- ---- --- ---------- --------- -- ------- ------ -<br>--------- ----- -----,126972,126971.20000000112,126648.259,126652.30000000075,126664.93,126981.66,,14,served
screen,html.Screen,0_4_1_0_1_15,2021-12-02T10:47:16.999Z,,,,,,,,,,,,,,,,15,,,,,,,,,,,,,,325.5400000011141,,response,,,7,D,,,,,Space,keypress(Space),,,,silence,---- --------- ---------- - --- ------- -- --- ------------<br>----- -- -------- ------- ---- ------ a -------- ---- -----<br>--- ------- ---- -- --- -------- --- - ----- ------ ---- --<br>-------- --- -------- -------- --- -------- ---- -- ----- -<br>-------- ---- --- ---------- --------- -- ------- ------ -<br>--------- ----- -----,127308.10000000149,127307.20000000112,126964.99,126972.20000000112,126981.66,127315.073,,15,a
screen,html.Screen,0_4_1_0_1_16,2021-12-02T10:47:17.303Z,,,,,,,,,,,,,,,,15,,,,,,,,,,,,,,296.02700000148616,,response,,,7,D,,,,,Space,keypress(Space),,,,silence,---- --------- ---------- - --- ------- -- --- ------------<br>----- -- -------- ------- ---- ------ - subpoena ---- -----<br>--- ------- ---- -- --- -------- --- - ----- ------ ---- --<br>-------- --- -------- -------- --- -------- ---- -- ----- -<br>-------- ---- --- ---------- --------- -- ------- ------ -<br>--------- ----- -----,127612,127611.10000000149,127298.403,127308.40000000037,127315.073,127615.141,,16,subpoena
screen,html.Screen,0_4_1_0_1_17,2021-12-02T10:47:17.671Z,,,,,,,,,,,,,,,,15,,,,,,,,,,,,,,364.0590000011143,,response,,,7,D,,,,,Space,keypress(Space),,,,silence,---- --------- ---------- - --- ------- -- --- ------------<br>----- -- -------- ------- ---- ------ - -------- last -----<br>--- ------- ---- -- --- -------- --- - ----- ------ ---- --<br>-------- --- -------- -------- --- -------- ---- -- ----- -<br>-------- ---- --- ---------- --------- -- ------- ------ -<br>--------- ----- -----,127979.90000000037,127979.20000000112,127598.471,127612.20000000112,127615.141,127981.911,,17,last
screen,html.Screen,0_4_1_0_1_18,2021-12-02T10:47:17.999Z,,,,,,,,,,,,,,,,15,,,,,,,,,,,,,,325.18900000149733,,response,,,7,D,,,,,Space,keypress(Space),,,,silence,---- --------- ---------- - --- ------- -- --- ------------<br>----- -- -------- ------- ---- ------ - -------- ---- week.<br>--- ------- ---- -- --- -------- --- - ----- ------ ---- --<br>-------- --- -------- -------- --- -------- ---- -- ----- -<br>-------- ---- --- ---------- --------- -- ------- ------ -<br>--------- ----- -----,128308,128307.10000000149,127965.241,127980.20000000112,127981.911,128315.369,,18,week.
screen,html.Screen,0_4_1_0_1_19,2021-12-02T10:47:18.335Z,,,,,,,,,,,,,,,,15,,,,,,,,,,,,,,327.73100000148406,,response,,,7,D,,,,,Space,keypress(Space),,,,silence,---- --------- ---------- - --- ------- -- --- ------------<br>----- -- -------- ------- ---- ------ - -------- ---- -----<br>His ------- ---- -- --- -------- --- - ----- ------ ---- --<br>-------- --- -------- -------- --- -------- ---- -- ----- -<br>-------- ---- --- ---------- --------- -- ------- ------ -<br>--------- ----- -----,128643.90000000037,128643.10000000149,128298.698,128308.20000000112,128315.369,128648.756,,19,His
screen,html.Screen,0_4_1_0_1_20,2021-12-02T10:47:18.639Z,,,,,,,,,,,,,,,,15,,,,,,,,,,,,,,298.34400000149617,,response,,,7,D,,,,,Space,keypress(Space),,,,silence,---- --------- ---------- - --- ------- -- --- ------------<br>----- -- -------- ------- ---- ------ - -------- ---- -----<br>--- lawyers ---- -- --- -------- --- - ----- ------ ---- --<br>-------- --- -------- -------- --- -------- ---- -- ----- -<br>-------- ---- --- ---------- --------- -- ------- ------ -<br>--------- ----- -----,128947.90000000037,128947.10000000149,128632.086,128644.10000000149,128648.756,128965.546,,20,lawyers
screen,html.Screen,0_4_1_0_1_21,2021-12-02T10:47:18.887Z,,,,,,,,,,,,,,,,15,,,,,,,,,,,,,,229.55400000148802,,response,,,7,D,,,,,Space,keypress(Space),,,,silence,---- --------- ---------- - --- ------- -- --- ------------<br>----- -- -------- ------- ---- ------ - -------- ---- -----<br>--- ------- said -- --- -------- --- - ----- ------ ---- --<br>-------- --- -------- -------- --- -------- ---- -- ----- -<br>-------- ---- --- ---------- --------- -- ------- ------ -<br>--------- ----- -----,129195.90000000037,129195.10000000149,128948.875,128948.20000000112,128965.546,129198.855,,21,said
screen,html.Screen,0_4_1_0_1_22,2021-12-02T10:47:19.175Z,,,,,,,,,,,,,,,,15,,,,,,,,,,,,,,284.2450000014942,,response,,,7,D,,,,,Space,keypress(Space),,,,silence,---- --------- ---------- - --- ------- -- --- ------------<br>----- -- -------- ------- ---- ------ - -------- ---- -----<br>--- ------- ---- he --- -------- --- - ----- ------ ---- --<br>-------- --- -------- -------- --- -------- ---- -- ----- -<br>-------- ---- --- ---------- --------- -- ------- ------ -<br>--------- ----- -----,129484.10000000149,129483.10000000149,129182.186,129196.10000000149,129198.855,129498.917,,22,he
screen,html.Screen,0_4_1_0_1_23,2021-12-02T10:47:19.479Z,,,,,,,,,,,,,,,,15,,,,,,,,,,,,,,288.18300000148884,,response,,,7,D,,,,,Space,keypress(Space),,,,silence,---- --------- ---------- - --- ------- -- --- ------------<br>----- -- -------- ------- ---- ------ - -------- ---- -----<br>--- ------- ---- -- was -------- --- - ----- ------ ---- --<br>-------- --- -------- -------- --- -------- ---- -- ----- -<br>-------- ---- --- ---------- --------- -- ------- ------ -<br>--------- ----- -----,129787.80000000075,129787.10000000149,129482.248,129484.30000000075,129498.917,129799.164,,23,was
screen,html.Screen,0_4_1_0_1_24,2021-12-02T10:47:19.871Z,,,,,,,,,,,,,,,,15,,,,,,,,,,,,,,379.8359999999957,,response,,,7,D,,,,,Space,keypress(Space),,,,silence,---- --------- ---------- - --- ------- -- --- ------------<br>----- -- -------- ------- ---- ------ - -------- ---- -----<br>--- ------- ---- -- --- prepared --- - ----- ------ ---- --<br>-------- --- -------- -------- --- -------- ---- -- ----- -<br>-------- ---- --- ---------- --------- -- ------- ------ -<br>--------- ----- -----,130179.80000000075,130179,129782.491,129788,129799.164,130182.499,,24,prepared
screen,html.Screen,0_4_1_0_1_25,2021-12-02T10:47:20.231Z,,,,,,,,,,,,,,,,15,,,,,,,,,,,,,,356.50100000000384,,response,,,7,D,,,,,Space,keypress(Space),,,,silence,---- --------- ---------- - --- ------- -- --- ------------<br>----- -- -------- ------- ---- ------ - -------- ---- -----<br>--- ------- ---- -- --- -------- for - ----- ------ ---- --<br>-------- --- -------- -------- --- -------- ---- -- ----- -<br>-------- ---- --- ---------- --------- -- ------- ------ -<br>--------- ----- -----,130539.90000000037,130539,130165.829,130180,130182.499,130549.377,,25,for
screen,html.Screen,0_4_1_0_1_26,2021-12-02T10:47:20.559Z,,,,,,,,,,,,,,,,15,,,,,,,,,,,,,,317.62300000000687,,response,,,7,D,,,,,Space,keypress(Space),,,,silence,---- --------- ---------- - --- ------- -- --- ------------<br>----- -- -------- ------- ---- ------ - -------- ---- -----<br>--- ------- ---- -- --- -------- --- a ----- ------ ---- --<br>-------- --- -------- -------- --- -------- ---- -- ----- -<br>-------- ---- --- ---------- --------- -- ------- ------ -<br>--------- ----- -----,130867.90000000037,130867,130532.705,130540.20000000112,130549.377,130882.68,,26,a
screen,html.Screen,0_4_1_0_1_27,2021-12-02T10:47:20.911Z,,,,,,,,,,,,,,,,15,,,,,,,,,,,,,,336.2200000003795,,response,,,7,D,,,,,Space,keypress(Space),,,,silence,---- --------- ---------- - --- ------- -- --- ------------<br>----- -- -------- ------- ---- ------ - -------- ---- -----<br>--- ------- ---- -- --- -------- --- - third ------ ---- --<br>-------- --- -------- -------- --- -------- ---- -- ----- -<br>-------- ---- --- ---------- --------- -- ------- ------ -<br>--------- ----- -----,131219.80000000075,131218.90000000037,130866.01,130868.10000000149,130882.68,131232.782,,27,third
screen,html.Screen,0_4_1_0_1_28,2021-12-02T10:47:21.127Z,,,,,,,,,,,,,,,,15,,,,,,,,,,,,,,202.118000000366,,response,,,7,D,,,,,Space,keypress(Space),,,,silence,---- --------- ---------- - --- ------- -- --- ------------<br>----- -- -------- ------- ---- ------ - -------- ---- -----<br>--- ------- ---- -- --- -------- --- - ----- prison ---- --<br>-------- --- -------- -------- --- -------- ---- -- ----- -<br>-------- ---- --- ---------- --------- -- ------- ------ -<br>--------- ----- -----,131435.90000000037,131434.90000000037,131216.112,131220.1000000015,131232.782,131449.461,,28,prison
screen,html.Screen,0_4_1_0_1_29,2021-12-02T10:47:21.407Z,,,,,,,,,,,,,,,,15,,,,,,,,,,,,,,265.4390000003623,,response,,,7,D,,,,,Space,keypress(Space),,,,silence,---- --------- ---------- - --- ------- -- --- ------------<br>----- -- -------- ------- ---- ------ - -------- ---- -----<br>--- ------- ---- -- --- -------- --- - ----- ------ stay --<br>-------- --- -------- -------- --- -------- ---- -- ----- -<br>-------- ---- --- ---------- --------- -- ------- ------ -<br>--------- ----- -----,131715.6000000015,131714.90000000037,131432.792,131436.20000000112,131449.461,131732.937,,29,stay
screen,html.Screen,0_4_1_0_1_30,2021-12-02T10:47:21.798Z,,,,,,,,,,,,,,,,15,,,,,,,,,,,,,,373.8630000007397,,response,,,7,D,,,,,Space,keypress(Space),,,,silence,---- --------- ---------- - --- ------- -- --- ------------<br>----- -- -------- ------- ---- ------ - -------- ---- -----<br>--- ------- ---- -- --- -------- --- - ----- ------ ---- to<br>-------- --- -------- -------- --- -------- ---- -- ----- -<br>-------- ---- --- ---------- --------- -- ------- ------ -<br>--------- ----- -----,132107.6000000015,132106.80000000075,131716.266,131715.90000000037,131732.937,132116.391,,30,to
screen,html.Screen,0_4_1_0_1_31,2021-12-02T10:47:22.111Z,,,,,,,,,,,,,,,,15,,,,,,,,,,,,,,302.50900000036927,,response,,,7,D,,,,,Space,keypress(Space),,,,silence,---- --------- ---------- - --- ------- -- --- ------------<br>----- -- -------- ------- ---- ------ - -------- ---- -----<br>--- ------- ---- -- --- -------- --- - ----- ------ ---- --<br>maintain --- -------- -------- --- -------- ---- -- ----- -<br>-------- ---- --- ---------- --------- -- ------- ------ -<br>--------- ----- -----,132419.70000000112,132418.90000000037,132099.72,132107.90000000037,132116.391,132433.079,,31,maintain
screen,html.Screen,0_4_1_0_1_32,2021-12-02T10:47:22.391Z,,,,,,,,,,,,,,,,15,,,,,,,,,,,,,,266.0210000014922,,response,,,7,D,,,,,Space,keypress(Space),,,,silence,---- --------- ---------- - --- ------- -- --- ------------<br>----- -- -------- ------- ---- ------ - -------- ---- -----<br>--- ------- ---- -- --- -------- --- - ----- ------ ---- --<br>-------- his -------- -------- --- -------- ---- -- ----- -<br>-------- ---- --- ---------- --------- -- ------- ------ -<br>--------- ----- -----,132699.70000000112,132699.1000000015,132416.409,132419.90000000037,132433.079,132716.542,,32,his
screen,html.Screen,0_4_1_0_1_33,2021-12-02T10:47:22.662Z,,,,,,,,,,,,,,,,15,,,,,,,,,,,,,,254.3580000003858,,response,,,7,D,,,,,Space,keypress(Space),,,,silence,---- --------- ---------- - --- ------- -- --- ------------<br>----- -- -------- ------- ---- ------ - -------- ---- -----<br>--- ------- ---- -- --- -------- --- - ----- ------ ---- --<br>-------- --- silence. -------- --- -------- ---- -- ----- -<br>-------- ---- --- ---------- --------- -- ------- ------ -<br>--------- ----- -----,132971.70000000112,132970.90000000037,132699.871,132699.90000000037,132716.542,132983.26,,33,silence.
screen,html.Screen,0_4_1_0_1_34,2021-12-02T10:47:23.167Z,,,,,,,,,,,,,,,,15,,,,,,,,,,,,,,491.6400000003632,,response,,,7,D,,,,,Space,keypress(Space),,,,silence,---- --------- ---------- - --- ------- -- --- ------------<br>----- -- -------- ------- ---- ------ - -------- ---- -----<br>--- ------- ---- -- --- -------- --- - ----- ------ ---- --<br>-------- --- -------- Anderson --- -------- ---- -- ----- -<br>-------- ---- --- ---------- --------- -- ------- ------ -<br>--------- ----- -----,133475.70000000112,133474.90000000037,132966.59,132971.90000000037,132983.26,133483.415,,34,Anderson
screen,html.Screen,0_4_1_0_1_35,2021-12-02T10:47:23.438Z,,,,,,,,,,,,,,,,15,,,,,,,,,,,,,,263.4850000003644,,response,,,7,D,,,,,Space,keypress(Space),,,,silence,---- --------- ---------- - --- ------- -- --- ------------<br>----- -- -------- ------- ---- ------ - -------- ---- -----<br>--- ------- ---- -- --- -------- --- - ----- ------ ---- --<br>-------- --- -------- -------- was -------- ---- -- ----- -<br>-------- ---- --- ---------- --------- -- ------- ------ -<br>--------- ----- -----,133747.6000000015,133746.90000000037,133466.744,133476,133483.415,133750.1,,35,was
screen,html.Screen,0_4_1_0_1_36,2021-12-02T10:47:23.662Z,,,,,,,,,,,,,,,,15,,,,,,,,,,,,,,220.70000000073924,,response,,,7,D,,,,,Space,keypress(Space),,,,silence,---- --------- ---------- - --- ------- -- --- ------------<br>----- -- -------- ------- ---- ------ - -------- ---- -----<br>--- ------- ---- -- --- -------- --- - ----- ------ ---- --<br>-------- --- -------- -------- --- released ---- -- ----- -<br>-------- ---- --- ---------- --------- -- ------- ------ -<br>--------- ----- -----,133971.6000000015,133970.80000000075,133733.43,133747.90000000037,133750.1,133983.516,,36,released
screen,html.Screen,0_4_1_0_1_37,2021-12-02T10:47:23.958Z,,,,,,,,,,,,,,,,15,,,,,,,,,,,,,,283.38400000036927,,response,,,7,D,,,,,Space,keypress(Space),,,,silence,---- --------- ---------- - --- ------- -- --- ------------<br>----- -- -------- ------- ---- ------ - -------- ---- -----<br>--- ------- ---- -- --- -------- --- - ----- ------ ---- --<br>-------- --- -------- -------- --- -------- July -- ----- -<br>-------- ---- --- ---------- --------- -- ------- ------ -<br>--------- ----- -----,134267.70000000112,134266.90000000037,133966.846,133971.90000000037,133983.516,134283.588,,37,July
screen,html.Screen,0_4_1_0_1_38,2021-12-02T10:47:24.255Z,,,,,,,,,,,,,,,,15,,,,,,,,,,,,,,279.21200000075623,,response,,,7,D,,,,,Space,keypress(Space),,,,silence,---- --------- ---------- - --- ------- -- --- ------------<br>----- -- -------- ------- ---- ------ - -------- ---- -----<br>--- ------- ---- -- --- -------- --- - ----- ------ ---- --<br>-------- --- -------- -------- --- -------- ---- 20 ----- -<br>-------- ---- --- ---------- --------- -- ------- ------ -<br>--------- ----- -----,134563.70000000112,134562.80000000075,134266.918,134268,134283.588,134567.028,,38,20
screen,html.Screen,0_4_1_0_1_39,2021-12-02T10:47:24.494Z,,,,,,,,,,,,,,,,15,,,,,,,,,,,,,,235.7720000007539,,response,,,7,D,,,,,Space,keypress(Space),,,,silence,---- --------- ---------- - --- ------- -- --- ------------<br>----- -- -------- ------- ---- ------ - -------- ---- -----<br>--- ------- ---- -- --- -------- --- - ----- ------ ---- --<br>-------- --- -------- -------- --- -------- ---- -- after -<br>-------- ---- --- ---------- --------- -- ------- ------ -<br>--------- ----- -----,134803.70000000112,134802.80000000075,134550.357,134563.90000000037,134567.028,134817.1,,39,after
screen,html.Screen,0_4_1_0_1_40,2021-12-02T10:47:24.846Z,,,,,,,,,,,,,,,,15,,,,,,,,,,,,,,337.70000000073924,,response,,,7,D,,,,,Space,keypress(Space),,,,silence,---- --------- ---------- - --- ------- -- --- ------------<br>----- -- -------- ------- ---- ------ - -------- ---- -----<br>--- ------- ---- -- --- -------- --- - ----- ------ ---- --<br>-------- --- -------- -------- --- -------- ---- -- ----- a<br>-------- ---- --- ---------- --------- -- ------- ------ -<br>--------- ----- -----,135155.6000000015,135154.80000000075,134800.429,134803.90000000037,134817.1,135167.142,,40,a
screen,html.Screen,0_4_1_0_1_41,2021-12-02T10:47:25.206Z,,,,,,,,,,,,,,,,15,,,,,,,,,,,,,,347.6580000007525,,response,,,7,D,,,,,Space,keypress(Space),,,,silence,---- --------- ---------- - --- ------- -- --- ------------<br>----- -- -------- ------- ---- ------ - -------- ---- -----<br>--- ------- ---- -- --- -------- --- - ----- ------ ---- --<br>-------- --- -------- -------- --- -------- ---- -- ----- -<br>two-week ---- --- ---------- --------- -- ------- ------ -<br>--------- ----- -----,135515.6000000015,135514.80000000075,135150.472,135155.90000000037,135167.142,135517.278,,41,two-week
screen,html.Screen,0_4_1_0_1_42,2021-12-02T10:47:25.510Z,,,,,,,,,,,,,,,,15,,,,,,,,,,,,,,301.42200000112643,,response,,,7,D,,,,,Space,keypress(Space),,,,silence,---- --------- ---------- - --- ------- -- --- ------------<br>----- -- -------- ------- ---- ------ - -------- ---- -----<br>--- ------- ---- -- --- -------- --- - ----- ------ ---- --<br>-------- --- -------- -------- --- -------- ---- -- ----- -<br>-------- stay --- ---------- --------- -- ------- ------ -<br>--------- ----- -----,135819.5,135818.70000000112,135500.607,135515.90000000037,135517.278,135834.006,,42,stay
screen,html.Screen,0_4_1_0_1_43,2021-12-02T10:47:25.774Z,,,,,,,,,,,,,,,,15,,,,,,,,,,,,,,248.69400000112364,,response,,,7,D,,,,,Space,keypress(Space),,,,silence,---- --------- ---------- - --- ------- -- --- ------------<br>----- -- -------- ------- ---- ------ - -------- ---- -----<br>--- ------- ---- -- --- -------- --- - ----- ------ ---- --<br>-------- --- -------- -------- --- -------- ---- -- ----- -<br>-------- ---- for ---------- --------- -- ------- ------ -<br>--------- ----- -----,136083.5,136082.70000000112,135817.336,135819.70000000112,135834.006,136100.746,,43,for
screen,html.Screen,0_4_1_0_1_44,2021-12-02T10:47:26.134Z,,,,,,,,,,,,,,,,15,,,,,,,,,,,,,,342.0540000007313,,response,,,7,D,,,,,Space,keypress(Space),,,,silence,---- --------- ---------- - --- ------- -- --- ------------<br>----- -- -------- ------- ---- ------ - -------- ---- -----<br>--- ------- ---- -- --- -------- --- - ----- ------ ---- --<br>-------- --- -------- -------- --- -------- ---- -- ----- -<br>-------- ---- --- previously --------- -- ------- ------ -<br>--------- ----- -----,136443.5,136442.80000000075,136084.076,136083.70000000112,136100.746,136450.834,,44,previously
screen,html.Screen,0_4_1_0_1_45,2021-12-02T10:47:26.502Z,,,,,,,,,,,,,,,,15,,,,,,,,,,,,,,359.9660000007425,,response,,,7,D,,,,,Space,keypress(Space),,,,silence,---- --------- ---------- - --- ------- -- --- ------------<br>----- -- -------- ------- ---- ------ - -------- ---- -----<br>--- ------- ---- -- --- -------- --- - ----- ------ ---- --<br>-------- --- -------- -------- --- -------- ---- -- ----- -<br>-------- ---- --- ---------- declining -- ------- ------ -<br>--------- ----- -----,136811.5,136810.80000000075,136434.164,136443.80000000075,136450.834,136817.459,,45,declining
screen,html.Screen,0_4_1_0_1_46,2021-12-02T10:47:26.790Z,,,,,,,,,,,,,,,,15,,,,,,,,,,,,,,281.241000001115,,response,,,7,D,,,,,Space,keypress(Space),,,,silence,---- --------- ---------- - --- ------- -- --- ------------<br>----- -- -------- ------- ---- ------ - -------- ---- -----<br>--- ------- ---- -- --- -------- --- - ----- ------ ---- --<br>-------- --- -------- -------- --- -------- ---- -- ----- -<br>-------- ---- --- ---------- --------- to ------- ------ -<br>--------- ----- -----,137099.6000000015,137098.70000000112,136800.791,136811.80000000075,136817.459,137101.122,,46,to
screen,html.Screen,0_4_1_0_1_47,2021-12-02T10:47:27.062Z,,,,,,,,,,,,,,,,15,,,,,,,,,,,,,,269.57800000111456,,response,,,7,D,,,,,Space,keypress(Space),,,,silence,---- --------- ---------- - --- ------- -- --- ------------<br>----- -- -------- ------- ---- ------ - -------- ---- -----<br>--- ------- ---- -- --- -------- --- - ----- ------ ---- --<br>-------- --- -------- -------- --- -------- ---- -- ----- -<br>-------- ---- --- ---------- --------- -- testify ------ -<br>--------- ----- -----,137371.6000000015,137370.70000000112,137084.449,137099.70000000112,137101.122,137384.423,,47,testify
screen,html.Screen,0_4_1_0_1_48,2021-12-02T10:47:27.326Z,,,,,,,,,,,,,,,,15,,,,,,,,,,,,,,250.2770000011078,,response,,,7,D,,,,,Space,keypress(Space),,,,silence,---- --------- ---------- - --- ------- -- --- ------------<br>----- -- -------- ------- ---- ------ - -------- ---- -----<br>--- ------- ---- -- --- -------- --- - ----- ------ ---- --<br>-------- --- -------- -------- --- -------- ---- -- ----- -<br>-------- ---- --- ---------- --------- -- ------- before -<br>--------- ----- -----,137635.5,137634.70000000112,137367.753,137371.80000000075,137384.423,137651.164,,48,before
screen,html.Screen,0_4_1_0_1_49,2021-12-02T10:47:27.606Z,,,,,,,,,,,,,,,,15,,,,,,,,,,,,,,263.43600000150036,,response,,,7,D,,,,,Space,keypress(Space),,,,silence,---- --------- ---------- - --- ------- -- --- ------------<br>----- -- -------- ------- ---- ------ - -------- ---- -----<br>--- ------- ---- -- --- -------- --- - ----- ------ ---- --<br>-------- --- -------- -------- --- -------- ---- -- ----- -<br>-------- ---- --- ---------- --------- -- ------- ------ a<br>--------- ----- -----,137915.5,137914.6000000015,137634.494,137635.70000000112,137651.164,137917.903,,49,a
screen,html.Screen,0_4_1_0_1_50,2021-12-02T10:47:27.990Z,,,,,,,,,,,,,,,,15,,,,,,,,,,,,,,380.79700000112643,,response,,,7,D,,,,,Space,keypress(Space),,,,silence,---- --------- ---------- - --- ------- -- --- ------------<br>----- -- -------- ------- ---- ------ - -------- ---- -----<br>--- ------- ---- -- --- -------- --- - ----- ------ ---- --<br>-------- --- -------- -------- --- -------- ---- -- ----- -<br>-------- ---- --- ---------- --------- -- ------- ------ -<br>different ----- -----,138299.5,138298.70000000112,137901.233,137915.6000000015,137917.903,138301.322,,50,different
screen,html.Screen,0_4_1_0_1_51,2021-12-02T10:47:28.222Z,,,,,,,,,,,,,,,,15,,,,,,,,,,,,,,229.27800000150455,,response,,,7,D,,,,,Space,keypress(Space),,,,silence,---- --------- ---------- - --- ------- -- --- ------------<br>----- -- -------- ------- ---- ------ - -------- ---- -----<br>--- ------- ---- -- --- -------- --- - ----- ------ ---- --<br>-------- --- -------- -------- --- -------- ---- -- ----- -<br>-------- ---- --- ---------- --------- -- ------- ------ -<br>--------- grand -----,138531.5,138530.6000000015,138284.652,138299.70000000112,138301.322,138534.73,,51,grand
screen,html.Screen,0_4_1_0_1_52,2021-12-02T10:47:28.566Z,,,,,,,,,,,,,,,,15,,,,,,,,,,,,,,339.87000000147964,,response,,,7,D,,,,,Space,keypress(Space),,,,silence,---- --------- ---------- - --- ------- -- --- ------------<br>----- -- -------- ------- ---- ------ - -------- ---- -----<br>--- ------- ---- -- --- -------- --- - ----- ------ ---- --<br>-------- --- -------- -------- --- -------- ---- -- ----- -<br>-------- ---- --- ---------- --------- -- ------- ------ -<br>--------- ----- jury.,138875.40000000037,138874.6000000015,138518.06,138531.70000000112,138534.73,138884.817,,52,jury.
Item 7,flow.Loop,0_4_1_0_1,2021-12-02T10:47:28.567Z,,,,,,,,,,,,,,,,,,,,,,,,,,,,,,16977.751000001488,,completion,,,,,,,,,,,,,,,,138875.80000000075,138874.6000000015,121880.179,121882.20000000112,121896.849,138884.817,,,
Question 1,html.Screen,0_4_1_0_2,2021-12-02T10:47:30.910Z,,,,,,,,,,,,,,,,,,,,,,,,,,,true,FALSE,,2333.5830000003625,,response,,,7,D,,,,,FALSE,click #choice-2,,,,silence,,141219.70000000112,141218.40000000037,138868.147,138876,138884.817,141235.462,,,
