sender,sender_type,sender_id,timestamp,meta,,Blues,Classical,Country,Dance,Electronic,Folk,Gospel,Hip-Hop,Jazz,Latin,Musical/Film,New-age,Pop,Provo_ID,R&B,Rap,Reggae,Religious,Rock,Soul,Swing,Traditional,age,artist_name,correct,correctResponse,distraction,duration,education,ended_on,familiarity,gender,item,list,music_frequency,offensiveness,pleasantness,preference,response,response_action,snippet_file,song_name,song_rating,sound,text,time_commit,time_end,time_render,time_run,time_show,time_switch,url,word,word_ID
Instructions,html.Page,0_0,2021-11-12T11:20:31.344Z,"{""labjs_version"":""20.2.3"",""labjs_build"":{""flavor"":""production"",""commit"":""7ea907d66ca8aeef8054924ca5d82ffbe11e34e5""},""location"":""https://run.pavlovia.org/mvasilev/lab_music_e/"",""userAgent"":""Mozilla/5.0 (Windows NT 6.1; Win64; x64) AppleWebKit/537.36 (KHTML, like Gecko) Chrome/95.0.4638.69 Safari/537.36"",""platform"":""Win32"",""language"":""en-US"",""locale"":""en-US"",""timeZone"":""Europe/London"",""timezoneOffset"":0,""screen_width"":1920,""screen_height"":1080,""scroll_width"":1920,""scroll_height"":959,""window_innerWidth"":1920,""window_innerHeight"":1007,""devicePixelRatio"":1}",,,,,,,,,,,,,,,,,,,,,,,,,,,,,37444.73899998808,,form submission,,,,,,,,,,,,,,,,48640.5,48639.19999998808,11161.121,11180.299999952316,11194.461,48640.618,{},,
Headphones,html.Page,0_1,2021-11-12T11:20:36.182Z,,,,,,,,,,,,,,,,,,,,,,,,,,,,,,4838.081999988077,,form submission,,,,,,,,,,,,,,,,53478.89999997616,53478.69999998808,48623.926,48641.19999998808,48640.618,53487.158,,,
Holding screen,html.Screen,0_2_0_0,2021-11-12T11:20:46.189Z,,,,,,,,,,,,,,,,,,,,,,,,,,,,,,10004.539999999994,,timeout,,,,,,,,,,,,,,,,63482,63475.027,53470.488,53479.09999996424,53487.158,63491.698,,,
screen,html.Screen,0_2_0_1_0,2021-11-12T11:20:47.204Z,,,,,,,,,,,,,,,,53,,,,,,,,,,,,,,1004.5019999880824,,response,,,99,,,,,,Space,keypress(Space),,,,,When -- ----- -- ------ - ------- --- ----------<br>------------- ------ ------ ---- ---- ------- ----- -- ----<br>-------- ------- -- ---------- --- - --- ----- ----- ----<br>---- --- --- ----- --- ---- ---- ------- ----- ---- -------<br>--- --- -- ----- -- --- ---- -- --- ---- -- ------ ------<br>--- ----- -- ----,64497.59999996424,64496.19999998808,63475.027,63482.5,63491.698,64508.559,,0,When
screen,html.Screen,0_2_0_1_1,2021-11-12T11:20:47.667Z,,,,,,,,,,,,,,,,53,,,,,,,,,,,,,,451.0409999642361,,response,,,99,,,,,,Space,keypress(Space),,,,,---- it ----- -- ------ - ------- --- ----------<br>------------- ------ ------ ---- ---- ------- ----- -- ----<br>-------- ------- -- ---------- --- - --- ----- ----- ----<br>---- --- --- ----- --- ---- ---- ------- ----- ---- -------<br>--- --- -- ----- -- --- ---- -- --- ---- -- ------ ------<br>--- ----- -- ----,64960.5,64959.59999996424,64491.889,64498,64508.559,64975.328,,1,it
screen,html.Screen,0_2_0_1_2,2021-11-12T11:20:48.235Z,,,,,,,,,,,,,,,,53,,,,,,,,,,,,,,552.471999952315,,response,,,99,,,,,,Space,keypress(Space),,,,,---- -- comes -- ------ - ------- --- ----------<br>------------- ------ ------ ---- ---- ------- ----- -- ----<br>-------- ------- -- ---------- --- - --- ----- ----- ----<br>---- --- --- ----- --- ---- ---- ------- ----- ---- -------<br>--- --- -- ----- -- --- ---- -- --- ---- -- ------ ------<br>--- ----- -- ----,65528.799999952316,65527.799999952316,64958.658,64960.799999952316,64975.328,65542.241,,2,comes
screen,html.Screen,0_2_0_1_3,2021-11-12T11:20:48.907Z,,,,,,,,,,,,,,,,53,,,,,,,,,,,,,,657.4589999880845,,response,,,99,,,,,,Space,keypress(Space),,,,,---- -- ----- to ------ - ------- --- ----------<br>------------- ------ ------ ---- ---- ------- ----- -- ----<br>-------- ------- -- ---------- --- - --- ----- ----- ----<br>---- --- --- ----- --- ---- ---- ------- ----- ---- -------<br>--- --- -- ----- -- --- ---- -- --- ---- -- ------ ------<br>--- ----- -- ----,66200.69999998808,66199.69999998808,65525.57,65529,65542.241,66209.104,,3,to
screen,html.Screen,0_2_0_1_4,2021-11-12T11:20:49.523Z,,,,,,,,,,,,,,,,53,,,,,,,,,,,,,,606.5959999880724,,response,,,99,,,,,,Space,keypress(Space),,,,,---- -- ----- -- having - ------- --- ----------<br>------------- ------ ------ ---- ---- ------- ----- -- ----<br>-------- ------- -- ---------- --- - --- ----- ----- ----<br>---- --- --- ----- --- ---- ---- ------- ----- ---- -------<br>--- --- -- ----- -- --- ---- -- --- ---- -- ------ ------<br>--- ----- -- ----,66817.09999996424,66815.69999998808,66192.433,66201.29999995232,66209.104,66825.732,,4,having
screen,html.Screen,0_2_0_1_5,2021-11-12T11:20:49.979Z,,,,,,,,,,,,,,,,53,,,,,,,,,,,,,,445.96799998807546,,response,,,99,,,,,,Space,keypress(Space),,,,,---- -- ----- -- ------ a ------- --- ----------<br>------------- ------ ------ ---- ---- ------- ----- -- ----<br>-------- ------- -- ---------- --- - --- ----- ----- ----<br>---- --- --- ----- --- ---- ---- ------- ----- ---- -------<br>--- --- -- ----- -- --- ---- -- --- ---- -- ------ ------<br>--- ----- -- ----,67272.59999996424,67271.69999998808,66809.063,66817.29999995232,66825.732,67276.023,,5,a
screen,html.Screen,0_2_0_1_6,2021-11-12T11:20:50.507Z,,,,,,,,,,,,,,,,53,,,,,,,,,,,,,,523.5769999642362,,response,,,99,,,,,,Space,keypress(Space),,,,,---- -- ----- -- ------ - lasting --- ----------<br>------------- ------ ------ ---- ---- ------- ----- -- ----<br>-------- ------- -- ---------- --- - --- ----- ----- ----<br>---- --- --- ----- --- ---- ---- ------- ----- ---- -------<br>--- --- -- ----- -- --- ---- -- --- ---- -- ------ ------<br>--- ----- -- ----,67800.59999996424,67799.59999996424,67259.352,67273.19999998808,67276.023,67809.466,,6,lasting
screen,html.Screen,0_2_0_1_7,2021-11-12T11:20:50.971Z,,,,,,,,,,,,,,,,53,,,,,,,,,,,,,,454.03399999999965,,response,,,99,,,,,,Space,keypress(Space),,,,,---- -- ----- -- ------ - ------- and ----------<br>------------- ------ ------ ---- ---- ------- ----- -- ----<br>-------- ------- -- ---------- --- - --- ----- ----- ----<br>---- --- --- ----- --- ---- ---- ------- ----- ---- -------<br>--- --- -- ----- -- --- ---- -- --- ---- -- ------ ------<br>--- ----- -- ----,68264.59999996424,68263.5,67792.796,67800.89999997616,67809.466,68276.23,,7,and
screen,html.Screen,0_2_0_1_8,2021-11-12T11:20:51.539Z,,,,,,,,,,,,,,,,53,,,,,,,,,,,,,,555.2700000000041,,response,,,99,,,,,,Space,keypress(Space),,,,,---- -- ----- -- ------ - ------- --- fulfilling<br>------------- ------ ------ ---- ---- ------- ----- -- ----<br>-------- ------- -- ---------- --- - --- ----- ----- ----<br>---- --- --- ----- --- ---- ---- ------- ----- ---- -------<br>--- --- -- ----- -- --- ---- -- --- ---- -- ------ ------<br>--- ----- -- ----,68832.69999998808,68831.5,68259.56,68264.89999997616,68276.23,68843.118,,8,fulfilling
screen,html.Screen,0_2_0_1_9,2021-11-12T11:20:52.107Z,,,,,,,,,,,,,,,,53,,,,,,,,,,,,,,556.3819999999978,,response,,,99,,,,,,Space,keypress(Space),,,,,"---- -- ----- -- ------ - ------- --- ----------<br>relationship, ------ ------ ---- ---- ------- ----- -- ----<br>-------- ------- -- ---------- --- - --- ----- ----- ----<br>---- --- --- ----- --- ---- ---- ------- ----- ---- -------<br>--- --- -- ----- -- --- ---- -- --- ---- -- ------ ------<br>--- ----- -- ----",69400.59999996424,69399.5,68826.447,68833.09999996424,68843.118,69409.756,,9,"relationship,"
screen,html.Screen,0_2_0_1_10,2021-11-12T11:20:52.739Z,,,,,,,,,,,,,,,,53,,,,,,,,,,,,,,621.8439999642433,,response,,,99,,,,,,Space,keypress(Space),,,,,---- -- ----- -- ------ - ------- --- ----------<br>------------- common ------ ---- ---- ------- ----- -- ----<br>-------- ------- -- ---------- --- - --- ----- ----- ----<br>---- --- --- ----- --- ---- ---- ------- ----- ---- -------<br>--- --- -- ----- -- --- ---- -- --- ---- -- ------ ------<br>--- ----- -- ----,70032.5,70031.59999996424,69393.087,69400.79999995232,69409.756,70043.403,,10,common
screen,html.Screen,0_2_0_1_11,2021-11-12T11:20:53.251Z,,,,,,,,,,,,,,,,53,,,,,,,,,,,,,,500.0969999999943,,response,,,99,,,,,,Space,keypress(Space),,,,,---- -- ----- -- ------ - ------- --- ----------<br>------------- ------ wisdom ---- ---- ------- ----- -- ----<br>-------- ------- -- ---------- --- - --- ----- ----- ----<br>---- --- --- ----- --- ---- ---- ------- ----- ---- -------<br>--- --- -- ----- -- --- ---- -- --- ---- -- ------ ------<br>--- ----- -- ----,70544.39999997616,70543.5,70026.732,70032.79999995232,70043.403,70560.172,,11,wisdom
screen,html.Screen,0_2_0_1_12,2021-11-12T11:20:53.851Z,,,,,,,,,,,,,,,,53,,,,,,,,,,,,,,583.2279999761522,,response,,,99,,,,,,Space,keypress(Space),,,,,---- -- ----- -- ------ - ------- --- ----------<br>------------- ------ ------ says ---- ------- ----- -- ----<br>-------- ------- -- ---------- --- - --- ----- ----- ----<br>---- --- --- ----- --- ---- ---- ------- ----- ---- -------<br>--- --- -- ----- -- --- ---- -- --- ---- -- ------ ------<br>--- ----- -- ----,71144.29999995232,71143.39999997616,70543.502,70544.69999998808,70560.172,71160.327,,12,says
screen,html.Screen,0_2_0_1_13,2021-11-12T11:20:54.283Z,,,,,,,,,,,,,,,,53,,,,,,,,,,,,,,415.07299997615337,,response,,,99,,,,,,Space,keypress(Space),,,,,---- -- ----- -- ------ - ------- --- ----------<br>------------- ------ ------ ---- that ------- ----- -- ----<br>-------- ------- -- ---------- --- - --- ----- ----- ----<br>---- --- --- ----- --- ---- ---- ------- ----- ---- -------<br>--- --- -- ----- -- --- ---- -- --- ---- -- ------ ------<br>--- ----- -- ----,71576.29999995232,71575.39999997616,71143.657,71144.59999996424,71160.327,71577.109,,13,that
screen,html.Screen,0_2_0_1_14,2021-11-12T11:20:54.715Z,,,,,,,,,,,,,,,,53,,,,,,,,,,,,,,430.2909999761614,,response,,,99,,,,,,Space,keypress(Space),,,,,---- -- ----- -- ------ - ------- --- ----------<br>------------- ------ ------ ---- ---- feeling ----- -- ----<br>-------- ------- -- ---------- --- - --- ----- ----- ----<br>---- --- --- ----- --- ---- ---- ------- ----- ---- -------<br>--- --- -- ----- -- --- ---- -- --- ---- -- ------ ------<br>--- ----- -- ----,72008.29999995232,72007.39999997616,71560.439,71576.59999996424,71577.109,72010.538,,14,feeling
screen,html.Screen,0_2_0_1_15,2021-11-12T11:20:55.219Z,,,,,,,,,,,,,,,,53,,,,,,,,,,,,,,500.8619999761577,,response,,,99,,,,,,Space,keypress(Space),,,,,---- -- ----- -- ------ - ------- --- ----------<br>------------- ------ ------ ---- ---- ------- close -- ----<br>-------- ------- -- ---------- --- - --- ----- ----- ----<br>---- --- --- ----- --- ---- ---- ------- ----- ---- -------<br>--- --- -- ----- -- --- ---- -- --- ---- -- ------ ------<br>--- ----- -- ----,72512.29999995232,72511.39999997616,71993.868,72008.5,72010.538,72527.324,,15,close
screen,html.Screen,0_2_0_1_16,2021-11-12T11:20:55.579Z,,,,,,,,,,,,,,,,53,,,,,,,,,,,,,,344.0759999761649,,response,,,99,,,,,,Space,keypress(Space),,,,,---- -- ----- -- ------ - ------- --- ----------<br>------------- ------ ------ ---- ---- ------- ----- to ----<br>-------- ------- -- ---------- --- - --- ----- ----- ----<br>---- --- --- ----- --- ---- ---- ------- ----- ---- -------<br>--- --- -- ----- -- --- ---- -- --- ---- -- ------ ------<br>--- ----- -- ----,72872.19999998808,72871.39999997616,72510.654,72512.59999996424,72527.324,72877.488,,16,to
screen,html.Screen,0_2_0_1_17,2021-11-12T11:20:56.067Z,,,,,,,,,,,,,,,,53,,,,,,,,,,,,,,481.9119999761606,,response,,,99,,,,,,Space,keypress(Space),,,,,---- -- ----- -- ------ - ------- --- ----------<br>------------- ------ ------ ---- ---- ------- ----- -- your<br>-------- ------- -- ---------- --- - --- ----- ----- ----<br>---- --- --- ----- --- ---- ---- ------- ----- ---- -------<br>--- --- -- ----- -- --- ---- -- --- ---- -- ------ ------<br>--- ----- -- ----,73360.19999998808,73359.39999997616,72860.817,72872.39999997616,72877.488,73377.561,,17,your
screen,html.Screen,0_2_0_1_18,2021-11-12T11:20:56.666Z,,,,,,,,,,,,,,,,53,,,,,,,,,,,,,,581.5389999642357,,response,,,99,,,,,,Space,keypress(Space),,,,,---- -- ----- -- ------ - ------- --- ----------<br>------------- ------ ------ ---- ---- ------- ----- -- ----<br>romantic ------- -- ---------- --- - --- ----- ----- ----<br>---- --- --- ----- --- ---- ---- ------- ----- ---- -------<br>--- --- -- ----- -- --- ---- -- --- ---- -- ------ ------<br>--- ----- -- ----,73960,73959.09999996424,73360.891,73360.5,73377.561,73961.031,,18,romantic
screen,html.Screen,0_2_0_1_19,2021-11-12T11:20:57.155Z,,,,,,,,,,,,,,,,53,,,,,,,,,,,,,,486.2689999523136,,response,,,99,,,,,,Space,keypress(Space),,,,,---- -- ----- -- ------ - ------- --- ----------<br>------------- ------ ------ ---- ---- ------- ----- -- ----<br>-------- partner -- ---------- --- - --- ----- ----- ----<br>---- --- --- ----- --- ---- ---- ------- ----- ---- -------<br>--- --- -- ----- -- --- ---- -- --- ---- -- ------ ------<br>--- ----- -- ----,74448.09999996424,74447.29999995232,73944.361,73960.29999995232,73961.031,74461.174,,19,partner
screen,html.Screen,0_2_0_1_20,2021-11-12T11:20:57.595Z,,,,,,,,,,,,,,,,53,,,,,,,,,,,,,,426.52599998808,,response,,,99,,,,,,Space,keypress(Space),,,,,---- -- ----- -- ------ - ------- --- ----------<br>------------- ------ ------ ---- ---- ------- ----- -- ----<br>-------- ------- is ---------- --- - --- ----- ----- ----<br>---- --- --- ----- --- ---- ---- ------- ----- ---- -------<br>--- --- -- ----- -- --- ---- -- --- ---- -- ------ ------<br>--- ----- -- ----,74888.5,74887.69999998808,74444.504,74448.29999995232,74461.174,74894.629,,20,is
screen,html.Screen,0_2_0_1_21,2021-11-12T11:20:58.162Z,,,,,,,,,,,,,,,,53,,,,,,,,,,,,,,560.5709999880783,,response,,,99,,,,,,Space,keypress(Space),,,,,---- -- ----- -- ------ - ------- --- ----------<br>------------- ------ ------ ---- ---- ------- ----- -- ----<br>-------- ------- -- paramount. --- - --- ----- ----- ----<br>---- --- --- ----- --- ---- ---- ------- ----- ---- -------<br>--- --- -- ----- -- --- ---- -- --- ---- -- ------ ------<br>--- ----- -- ----,75456,75455.19999998808,74877.959,74888.79999995232,74894.629,75461.423,,21,paramount.
screen,html.Screen,0_2_0_1_22,2021-11-12T11:20:58.802Z,,,,,,,,,,,,,,,,53,,,,,,,,,,,,,,633.676999964242,,response,,,99,,,,,,Space,keypress(Space),,,,,---- -- ----- -- ------ - ------- --- ----------<br>------------- ------ ------ ---- ---- ------- ----- -- ----<br>-------- ------- -- ---------- But - --- ----- ----- ----<br>---- --- --- ----- --- ---- ---- ------- ----- ---- -------<br>--- --- -- ----- -- --- ---- -- --- ---- -- ------ ------<br>--- ----- -- ----,76096,76095.09999996424,75444.753,75456.59999996424,75461.423,76111.596,,22,But
screen,html.Screen,0_2_0_1_23,2021-11-12T11:20:59.282Z,,,,,,,,,,,,,,,,53,,,,,,,,,,,,,,463.5039999642322,,response,,,99,,,,,,Space,keypress(Space),,,,,---- -- ----- -- ------ - ------- --- ----------<br>------------- ------ ------ ---- ---- ------- ----- -- ----<br>-------- ------- -- ---------- --- a --- ----- ----- ----<br>---- --- --- ----- --- ---- ---- ------- ----- ---- -------<br>--- --- -- ----- -- --- ---- -- --- ---- -- ------ ------<br>--- ----- -- ----,76576,76575.09999996424,76094.926,76096.29999995232,76111.596,76578.373,,23,a
screen,html.Screen,0_2_0_1_24,2021-11-12T11:21:00.098Z,,,,,,,,,,,,,,,,53,,,,,,,,,,,,,,812.7269999642303,,response,,,99,,,,,,Space,keypress(Space),,,,,---- -- ----- -- ------ - ------- --- ----------<br>------------- ------ ------ ---- ---- ------- ----- -- ----<br>-------- ------- -- ---------- --- - new ----- ----- ----<br>---- --- --- ----- --- ---- ---- ------- ----- ---- -------<br>--- --- -- ----- -- --- ---- -- --- ---- -- ------ ------<br>--- ----- -- ----,77391.89999997616,77391.09999996424,76561.703,76576.19999998808,76578.373,77395.31,,24,new
screen,html.Screen,0_2_0_1_25,2021-11-12T11:21:00.490Z,,,,,,,,,,,,,,,,53,,,,,,,,,,,,,,387.6900000000023,,response,,,99,,,,,,Space,keypress(Space),,,,,---- -- ----- -- ------ - ------- --- ----------<br>------------- ------ ------ ---- ---- ------- ----- -- ----<br>-------- ------- -- ---------- --- - --- study ----- ----<br>---- --- --- ----- --- ---- ---- ------- ----- ---- -------<br>--- --- -- ----- -- --- ---- -- --- ---- -- ------ ------<br>--- ----- -- ----,77783.89999997616,77783,77378.639,77392.19999998808,77395.31,77795.354,,25,study
screen,html.Screen,0_2_0_1_26,2021-11-12T11:21:01.018Z,,,,,,,,,,,,,,,,53,,,,,,,,,,,,,,515.7459999642306,,response,,,99,,,,,,Space,keypress(Space),,,,,---- -- ----- -- ------ - ------- --- ----------<br>------------- ------ ------ ---- ---- ------- ----- -- ----<br>-------- ------- -- ---------- --- - --- ----- finds ----<br>---- --- --- ----- --- ---- ---- ------- ----- ---- -------<br>--- --- -- ----- -- --- ---- -- --- ---- -- ------ ------<br>--- ----- -- ----,78311.89999997616,78311.09999996424,77778.684,77784.19999998808,77795.354,78328.82,,26,finds
screen,html.Screen,0_2_0_1_27,2021-11-12T11:21:01.642Z,,,,,,,,,,,,,,,,53,,,,,,,,,,,,,,606.179999999993,,response,,,99,,,,,,Space,keypress(Space),,,,,---- -- ----- -- ------ - ------- --- ----------<br>------------- ------ ------ ---- ---- ------- ----- -- ----<br>-------- ------- -- ---------- --- - --- ----- ----- that<br>---- --- --- ----- --- ---- ---- ------- ----- ---- -------<br>--- --- -- ----- -- --- ---- -- --- ---- -- ------ ------<br>--- ----- -- ----,78935.89999997616,78935,78312.15,78312.09999996424,78328.82,78945.714,,27,that
screen,html.Screen,0_2_0_1_28,2021-11-12T11:21:02.338Z,,,,,,,,,,,,,,,,53,,,,,,,,,,,,,,685.1859999761509,,response,,,99,,,,,,Space,keypress(Space),,,,,---- -- ----- -- ------ - ------- --- ----------<br>------------- ------ ------ ---- ---- ------- ----- -- ----<br>-------- ------- -- ---------- --- - --- ----- ----- ----<br>it's --- --- ----- --- ---- ---- ------- ----- ---- -------<br>--- --- -- ----- -- --- ---- -- --- ---- -- ------ ------<br>--- ----- -- ----,79631.79999995232,79630.89999997616,78929.043,78936.09999996424,78945.714,79645.678,,28,it's
screen,html.Screen,0_2_0_1_29,2021-11-12T11:21:03.146Z,,,,,,,,,,,,,,,,53,,,,,,,,,,,,,,793.2219999761583,,response,,,99,,,,,,Space,keypress(Space),,,,,---- -- ----- -- ------ - ------- --- ----------<br>------------- ------ ------ ---- ---- ------- ----- -- ----<br>-------- ------- -- ---------- --- - --- ----- ----- ----<br>---- not --- ----- --- ---- ---- ------- ----- ---- -------<br>--- --- -- ----- -- --- ---- -- --- ---- -- ------ ------<br>--- ----- -- ----,80439.79999995232,80438.89999997616,79629.009,79632.09999996424,79645.678,80446.109,,29,not
screen,html.Screen,0_2_0_1_30,2021-11-12T11:21:03.698Z,,,,,,,,,,,,,,,,53,,,,,,,,,,,,,,544.7909999761614,,response,,,99,,,,,,Space,keypress(Space),,,,,---- -- ----- -- ------ - ------- --- ----------<br>------------- ------ ------ ---- ---- ------- ----- -- ----<br>-------- ------- -- ---------- --- - --- ----- ----- ----<br>---- --- how ----- --- ---- ---- ------- ----- ---- -------<br>--- --- -- ----- -- --- ---- -- --- ---- -- ------ ------<br>--- ----- -- ----,80991.69999998808,80990.89999997616,80429.438,80440.09999996424,80446.109,80996.068,,30,how
screen,html.Screen,0_2_0_1_31,2021-11-12T11:21:04.138Z,,,,,,,,,,,,,,,,53,,,,,,,,,,,,,,434.83199997615884,,response,,,99,,,,,,Space,keypress(Space),,,,,---- -- ----- -- ------ - ------- --- ----------<br>------------- ------ ------ ---- ---- ------- ----- -- ----<br>-------- ------- -- ---------- --- - --- ----- ----- ----<br>---- --- --- close --- ---- ---- ------- ----- ---- -------<br>--- --- -- ----- -- --- ---- -- --- ---- -- ------ ------<br>--- ----- -- ----,81431.79999995232,81430.89999997616,80979.399,80992,80996.068,81446.417,,31,close
screen,html.Screen,0_2_0_1_32,2021-11-12T11:21:04.594Z,,,,,,,,,,,,,,,,53,,,,,,,,,,,,,,440.382999952315,,response,,,99,,,,,,Space,keypress(Space),,,,,---- -- ----- -- ------ - ------- --- ----------<br>------------- ------ ------ ---- ---- ------- ----- -- ----<br>-------- ------- -- ---------- --- - --- ----- ----- ----<br>---- --- --- ----- you ---- ---- ------- ----- ---- -------<br>--- --- -- ----- -- --- ---- -- --- ---- -- ------ ------<br>--- ----- -- ----,81887.69999998808,81886.79999995232,81429.745,81432,81446.417,81896.317,,32,you
screen,html.Screen,0_2_0_1_33,2021-11-12T11:21:05.083Z,,,,,,,,,,,,,,,,53,,,,,,,,,,,,,,478.5829999761627,,response,,,99,,,,,,Space,keypress(Space),,,,,---- -- ----- -- ------ - ------- --- ----------<br>------------- ------ ------ ---- ---- ------- ----- -- ----<br>-------- ------- -- ---------- --- - --- ----- ----- ----<br>---- --- --- ----- --- feel ---- ------- ----- ---- -------<br>--- --- -- ----- -- --- ---- -- --- ---- -- ------ ------<br>--- ----- -- ----,82376.09999996424,82374.89999997616,81879.648,81888,81896.317,82379.992,,33,feel
screen,html.Screen,0_2_0_1_34,2021-11-12T11:21:06.010Z,,,,,,,,,,,,,,,,53,,,,,,,,,,,,,,922.8079999523179,,response,,,99,,,,,,Space,keypress(Space),,,,,---- -- ----- -- ------ - ------- --- ----------<br>------------- ------ ------ ---- ---- ------- ----- -- ----<br>-------- ------- -- ---------- --- - --- ----- ----- ----<br>---- --- --- ----- --- ---- that ------- ----- ---- -------<br>--- --- -- ----- -- --- ---- -- --- ---- -- ------ ------<br>--- ----- -- ----,83303.59999996424,83302.79999995232,82363.32,82376.29999995232,82379.992,83313.418,,34,that
screen,html.Screen,0_2_0_1_35,2021-11-12T11:21:06.458Z,,,,,,,,,,,,,,,,53,,,,,,,,,,,,,,437.28199998807395,,response,,,99,,,,,,Space,keypress(Space),,,,,---- -- ----- -- ------ - ------- --- ----------<br>------------- ------ ------ ---- ---- ------- ----- -- ----<br>-------- ------- -- ---------- --- - --- ----- ----- ----<br>---- --- --- ----- --- ---- ---- matters ----- ---- -------<br>--- --- -- ----- -- --- ---- -- --- ---- -- ------ ------<br>--- ----- -- ----,83751.5,83750.69999998808,83296.748,83303.89999997616,83313.418,83763.618,,35,matters
screen,html.Screen,0_2_0_1_36,2021-11-12T11:21:06.938Z,,,,,,,,,,,,,,,,53,,,,,,,,,,,,,,467.1819999523141,,response,,,99,,,,,,Space,keypress(Space),,,,,"---- -- ----- -- ------ - ------- --- ----------<br>------------- ------ ------ ---- ---- ------- ----- -- ----<br>-------- ------- -- ---------- --- - --- ----- ----- ----<br>---- --- --- ----- --- ---- ---- ------- most, ---- -------<br>--- --- -- ----- -- --- ---- -- --- ---- -- ------ ------<br>--- ----- -- ----",84232,84230.79999995232,83746.947,83751.89999997616,83763.618,84247.012,,36,"most,"
screen,html.Screen,0_2_0_1_37,2021-11-12T11:21:07.394Z,,,,,,,,,,,,,,,,53,,,,,,,,,,,,,,439.6879999880766,,response,,,99,,,,,,Space,keypress(Space),,,,,---- -- ----- -- ------ - ------- --- ----------<br>------------- ------ ------ ---- ---- ------- ----- -- ----<br>-------- ------- -- ---------- --- - --- ----- ----- ----<br>---- --- --- ----- --- ---- ---- ------- ----- it's -------<br>--- --- -- ----- -- --- ---- -- --- ---- -- ------ ------<br>--- ----- -- ----,84687.59999996424,84686.69999998808,84230.342,84232.19999998808,84247.012,84697.15,,37,it's
screen,html.Screen,0_2_0_1_38,2021-11-12T11:21:07.866Z,,,,,,,,,,,,,,,,53,,,,,,,,,,,,,,462.0499999880849,,response,,,99,,,,,,Space,keypress(Space),,,,,---- -- ----- -- ------ - ------- --- ----------<br>------------- ------ ------ ---- ---- ------- ----- -- ----<br>-------- ------- -- ---------- --- - --- ----- ----- ----<br>---- --- --- ----- --- ---- ---- ------- ----- ---- whether<br>--- --- -- ----- -- --- ---- -- --- ---- -- ------ ------<br>--- ----- -- ----,85160,85159.19999998808,84680.48,84687.69999998808,84697.15,85163.905,,38,whether
screen,html.Screen,0_2_0_1_39,2021-11-12T11:21:08.370Z,,,,,,,,,,,,,,,,53,,,,,,,,,,,,,,498.79499998808024,,response,,,99,,,,,,Space,keypress(Space),,,,,---- -- ----- -- ------ - ------- --- ----------<br>------------- ------ ------ ---- ---- ------- ----- -- ----<br>-------- ------- -- ---------- --- - --- ----- ----- ----<br>---- --- --- ----- --- ---- ---- ------- ----- ---- -------<br>you --- -- ----- -- --- ---- -- --- ---- -- ------ ------<br>--- ----- -- ----,85663.39999997616,85662.69999998808,85147.235,85160.19999998808,85163.905,85680.615,,39,you
screen,html.Screen,0_2_0_1_40,2021-11-12T11:21:08.778Z,,,,,,,,,,,,,,,,53,,,,,,,,,,,,,,389.984999964232,,response,,,99,,,,,,Space,keypress(Space),,,,,---- -- ----- -- ------ - ------- --- ----------<br>------------- ------ ------ ---- ---- ------- ----- -- ----<br>-------- ------- -- ---------- --- - --- ----- ----- ----<br>---- --- --- ----- --- ---- ---- ------- ----- ---- -------<br>--- are -- ----- -- --- ---- -- --- ---- -- ------ ------<br>--- ----- -- ----,86071.5,86070.59999996424,85663.946,85663.69999998808,85680.615,86080.947,,40,are
screen,html.Screen,0_2_0_1_41,2021-11-12T11:21:09.202Z,,,,,,,,,,,,,,,,53,,,,,,,,,,,,,,413.6529999642371,,response,,,99,,,,,,Space,keypress(Space),,,,,---- -- ----- -- ------ - ------- --- ----------<br>------------- ------ ------ ---- ---- ------- ----- -- ----<br>-------- ------- -- ---------- --- - --- ----- ----- ----<br>---- --- --- ----- --- ---- ---- ------- ----- ---- -------<br>--- --- as ----- -- --- ---- -- --- ---- -- ------ ------<br>--- ----- -- ----,86495.39999997616,86494.59999996424,86064.275,86071.69999998808,86080.947,86497.609,,41,as
screen,html.Screen,0_2_0_1_42,2021-11-12T11:21:09.658Z,,,,,,,,,,,,,,,,53,,,,,,,,,,,,,,452.9909999642405,,response,,,99,,,,,,Space,keypress(Space),,,,,---- -- ----- -- ------ - ------- --- ----------<br>------------- ------ ------ ---- ---- ------- ----- -- ----<br>-------- ------- -- ---------- --- - --- ----- ----- ----<br>---- --- --- ----- --- ---- ---- ------- ----- ---- -------<br>--- --- -- close -- --- ---- -- --- ---- -- ------ ------<br>--- ----- -- ----,86951.39999997616,86950.59999996424,86480.939,86495.69999998808,86497.609,86964.317,,42,close
screen,html.Screen,0_2_0_1_43,2021-11-12T11:21:10.082Z,,,,,,,,,,,,,,,,53,,,,,,,,,,,,,,410.28299996424175,,response,,,99,,,,,,Space,keypress(Space),,,,,---- -- ----- -- ------ - ------- --- ----------<br>------------- ------ ------ ---- ---- ------- ----- -- ----<br>-------- ------- -- ---------- --- - --- ----- ----- ----<br>---- --- --- ----- --- ---- ---- ------- ----- ---- -------<br>--- --- -- ----- as --- ---- -- --- ---- -- ------ ------<br>--- ----- -- ----,87375.29999995232,87374.59999996424,86947.648,86951.59999996424,86964.317,87381.224,,43,as
screen,html.Screen,0_2_0_1_44,2021-11-12T11:21:10.530Z,,,,,,,,,,,,,,,,53,,,,,,,,,,,,,,441.275999999998,,response,,,99,,,,,,Space,keypress(Space),,,,,---- -- ----- -- ------ - ------- --- ----------<br>------------- ------ ------ ---- ---- ------- ----- -- ----<br>-------- ------- -- ---------- --- - --- ----- ----- ----<br>---- --- --- ----- --- ---- ---- ------- ----- ---- -------<br>--- --- -- ----- -- you ---- -- --- ---- -- ------ ------<br>--- ----- -- ----,87823.39999997616,87822.5,87364.553,87375.59999996424,87381.224,87831.292,,44,you
screen,html.Screen,0_2_0_1_45,2021-11-12T11:21:11.074Z,,,,,,,,,,,,,,,,53,,,,,,,,,,,,,,535.1079999761569,,response,,,99,,,,,,Space,keypress(Space),,,,,---- -- ----- -- ------ - ------- --- ----------<br>------------- ------ ------ ---- ---- ------- ----- -- ----<br>-------- ------- -- ---------- --- - --- ----- ----- ----<br>---- --- --- ----- --- ---- ---- ------- ----- ---- -------<br>--- --- -- ----- -- --- want -- --- ---- -- ------ ------<br>--- ----- -- ----,88367.19999998808,88366.39999997616,87814.622,87823.59999996424,87831.292,88381.261,,45,want
screen,html.Screen,0_2_0_1_46,2021-11-12T11:21:11.474Z,,,,,,,,,,,,,,,,53,,,,,,,,,,,,,,385.13899997615954,,response,,,99,,,,,,Space,keypress(Space),,,,,---- -- ----- -- ------ - ------- --- ----------<br>------------- ------ ------ ---- ---- ------- ----- -- ----<br>-------- ------- -- ---------- --- - --- ----- ----- ----<br>---- --- --- ----- --- ---- ---- ------- ----- ---- -------<br>--- --- -- ----- -- --- ---- to --- ---- -- ------ ------<br>--- ----- -- ----,88767.29999995232,88766.39999997616,88364.593,88367.39999997616,88381.261,88781.588,,46,to
screen,html.Screen,0_2_0_1_47,2021-11-12T11:21:11.930Z,,,,,,,,,,,,,,,,53,,,,,,,,,,,,,,440.81199997615477,,response,,,99,,,,,,Space,keypress(Space),,,,,"---- -- ----- -- ------ - ------- --- ----------<br>------------- ------ ------ ---- ---- ------- ----- -- ----<br>-------- ------- -- ---------- --- - --- ----- ----- ----<br>---- --- --- ----- --- ---- ---- ------- ----- ---- -------<br>--- --- -- ----- -- --- ---- -- be, ---- -- ------ ------<br>--- ----- -- ----",89223.29999995232,89222.39999997616,88764.916,88767.5,88781.588,89231.681,,47,"be,"
screen,html.Screen,0_2_0_1_48,2021-11-12T11:21:12.402Z,,,,,,,,,,,,,,,,53,,,,,,,,,,,,,,462.81900000000314,,response,,,99,,,,,,Space,keypress(Space),,,,,---- -- ----- -- ------ - ------- --- ----------<br>------------- ------ ------ ---- ---- ------- ----- -- ----<br>-------- ------- -- ---------- --- - --- ----- ----- ----<br>---- --- --- ----- --- ---- ---- ------- ----- ---- -------<br>--- --- -- ----- -- --- ---- -- --- even -- ------ ------<br>--- ----- -- ----,89695.19999998808,89694.5,89215.01,89223.5,89231.681,89698.41,,48,even
screen,html.Screen,0_2_0_1_49,2021-11-12T11:21:12.874Z,,,,,,,,,,,,,,,,53,,,,,,,,,,,,,,467.98999997615465,,response,,,99,,,,,,Space,keypress(Space),,,,,---- -- ----- -- ------ - ------- --- ----------<br>------------- ------ ------ ---- ---- ------- ----- -- ----<br>-------- ------- -- ---------- --- - --- ----- ----- ----<br>---- --- --- ----- --- ---- ---- ------- ----- ---- -------<br>--- --- -- ----- -- --- ---- -- --- ---- if ------ ------<br>--- ----- -- ----,90167.29999995232,90166.39999997616,89681.74,89695.5,89698.41,90181.889,,49,if
screen,html.Screen,0_2_0_1_50,2021-11-12T11:21:13.322Z,,,,,,,,,,,,,,,,53,,,,,,,,,,,,,,432.4109999523207,,response,,,99,,,,,,Space,keypress(Space),,,,,---- -- ----- -- ------ - ------- --- ----------<br>------------- ------ ------ ---- ---- ------- ----- -- ----<br>-------- ------- -- ---------- --- - --- ----- ----- ----<br>---- --- --- ----- --- ---- ---- ------- ----- ---- -------<br>--- --- -- ----- -- --- ---- -- --- ---- -- that's ------<br>--- ----- -- ----,90615.09999996424,90614.29999995232,90165.219,90167.5,90181.889,90632.046,,50,that's
screen,html.Screen,0_2_0_1_51,2021-11-12T11:21:13.778Z,,,,,,,,,,,,,,,,53,,,,,,,,,,,,,,438.35399997615605,,response,,,99,,,,,,Space,keypress(Space),,,,,---- -- ----- -- ------ - ------- --- ----------<br>------------- ------ ------ ---- ---- ------- ----- -- ----<br>-------- ------- -- ---------- --- - --- ----- ----- ----<br>---- --- --- ----- --- ---- ---- ------- ----- ---- -------<br>--- --- -- ----- -- --- ---- -- --- ---- -- ------ really<br>--- ----- -- ----,91071.19999998808,91070.39999997616,90615.375,90615.5,90632.046,91082.019,,51,really
screen,html.Screen,0_2_0_1_52,2021-11-12T11:21:14.234Z,,,,,,,,,,,,,,,,53,,,,,,,,,,,,,,444.28099995231605,,response,,,99,,,,,,Space,keypress(Space),,,,,---- -- ----- -- ------ - ------- --- ----------<br>------------- ------ ------ ---- ---- ------- ----- -- ----<br>-------- ------- -- ---------- --- - --- ----- ----- ----<br>---- --- --- ----- --- ---- ---- ------- ----- ---- -------<br>--- --- -- ----- -- --- ---- -- --- ---- -- ------ ------<br>not ----- -- ----,91527.09999996424,91526.29999995232,91065.35,91071.5,91082.019,91532.317,,52,not
screen,html.Screen,0_2_0_1_53,2021-11-12T11:21:14.658Z,,,,,,,,,,,,,,,,53,,,,,,,,,,,,,,417.9829999523208,,response,,,99,,,,,,Space,keypress(Space),,,,,---- -- ----- -- ------ - ------- --- ----------<br>------------- ------ ------ ---- ---- ------- ----- -- ----<br>-------- ------- -- ---------- --- - --- ----- ----- ----<br>---- --- --- ----- --- ---- ---- ------- ----- ---- -------<br>--- --- -- ----- -- --- ---- -- --- ---- -- ------ ------<br>--- close -- ----,91951.09999996424,91950.29999995232,91515.645,91527.39999997616,91532.317,91965.722,,53,close
screen,html.Screen,0_2_0_1_54,2021-11-12T11:21:15.057Z,,,,,,,,,,,,,,,,53,,,,,,,,,,,,,,384.4779999880848,,response,,,99,,,,,,Space,keypress(Space),,,,,---- -- ----- -- ------ - ------- --- ----------<br>------------- ------ ------ ---- ---- ------- ----- -- ----<br>-------- ------- -- ---------- --- - --- ----- ----- ----<br>---- --- --- ----- --- ---- ---- ------- ----- ---- -------<br>--- --- -- ----- -- --- ---- -- --- ---- -- ------ ------<br>--- ----- at ----,92351,92350.19999998808,91949.051,91951.29999995232,91965.722,92365.727,,54,at
screen,html.Screen,0_2_0_1_55,2021-11-12T11:21:15.682Z,,,,,,,,,,,,,,,,53,,,,,,,,,,,,,,608.4729999880801,,response,,,99,,,,,,Space,keypress(Space),,,,,---- -- ----- -- ------ - ------- --- ----------<br>------------- ------ ------ ---- ---- ------- ----- -- ----<br>-------- ------- -- ---------- --- - --- ----- ----- ----<br>---- --- --- ----- --- ---- ---- ------- ----- ---- -------<br>--- --- -- ----- -- --- ---- -- --- ---- -- ------ ------<br>--- ----- -- all.,92975.09999996424,92974.19999998808,92349.058,92351.29999995232,92365.727,92982.663,,55,all.
Item 99,flow.Loop,0_2_0_1,2021-11-12T11:21:15.686Z,,,,,,,,,,,,,,,,,,,,,,,,,,,,,,29482.501999988082,,completion,,,,E,,,,,,,,,,silence,,92979.59999996424,92974.19999998808,63475.027,63482.299999952316,63491.698,92982.663,,,
Question 1,html.Screen,0_2_0_2,2021-11-12T11:21:22.365Z,,,,,,,,,,,,,,,,,,,,,,,,,,,false,FALSE,,6674.636999952316,,response,,,99,E,,,,,TRUE,click #choice-1,,,,silence,,99658.79999995232,99657.29999995232,92965.992,92979.89999997616,92982.663,99667.563,,,
Question 2,html.Screen,0_2_0_3,2021-11-12T11:21:29.235Z,,,,,,,,,,,,,,,,,,,,,,,,,,,true,TRUE,,6859.937000000005,,response,,,99,E,,,,,TRUE,click #choice-1,,,,silence,,106528.79999995232,106527.5,99650.894,99659.09999996424,99667.563,106536.062,,,
Item 99,flow.Sequence,0_2_0,2021-11-12T11:21:29.236Z,,,,,,,,,,,,,,,,,,,,,,,,,,,,,,53040.342,,completion,,,,,,,,,,,,,,,,106529.29999995232,106527.5,53470.488,53479.09999996424,53487.158,106536.062,,,
Holding screen,html.Screen,0_2_1_0,2021-11-12T11:21:39.230Z,,,,,,,,,,,,,,,,,,,,,,,,,,,,,,10002.466,,timeout,,,,,,,,,,,,,,,,116523.59999996424,116521.858,106519.392,106529.79999995232,106536.062,116538.528,,,
screen,html.Screen,0_2_1_1_0,2021-11-12T11:21:40.537Z,,,,,,,,,,,,,,,,54,,,,,,,,,,,,,,1290.8719999761524,,response,,,100,,,,,,Space,keypress(Space),,,,,At --- ---- --- ------ ----- ------- ---- -- --- ------- --<br>------- ---------- ------ -- ----- -- ----- -- ---- ------<br>--- ----- --- --- ------ -------- ----- --- ------ ----- --<br>----- ----- ---------- --- --- ------ ------ ---- -- ------<br>------- --- ------ ----- --- ---- ------- -- ---- --- --<br>------- ------,117830.29999995232,117829.39999997616,116521.858,116524.19999998808,116538.528,117839.003,,0,At
screen,html.Screen,0_2_1_1_1,2021-11-12T11:21:41.000Z,,,,,,,,,,,,,,,,54,,,,,,,,,,,,,,453.7969999523193,,response,,,100,,,,,,Space,keypress(Space),,,,,-- the ---- --- ------ ----- ------- ---- -- --- ------- --<br>------- ---------- ------ -- ----- -- ----- -- ---- ------<br>--- ----- --- --- ------ -------- ----- --- ------ ----- --<br>----- ----- ---------- --- --- ------ ------ ---- -- ------<br>------- --- ------ ----- --- ---- ------- -- ---- --- --<br>------- ------,118293.69999998808,118292.79999995232,117822.332,117830.5,117839.003,118305.828,,1,the
screen,html.Screen,0_2_1_1_2,2021-11-12T11:21:41.792Z,,,,,,,,,,,,,,,,54,,,,,,,,,,,,,,778.9719999523222,,response,,,100,,,,,,Space,keypress(Space),,,,,-- --- time --- ------ ----- ------- ---- -- --- ------- --<br>------- ---------- ------ -- ----- -- ----- -- ---- ------<br>--- ----- --- --- ------ -------- ----- --- ------ ----- --<br>----- ----- ---------- --- --- ------ ------ ---- -- ------<br>------- --- ------ ----- --- ---- ------- -- ---- --- --<br>------- ------,119085.59999996424,119084.79999995232,118289.157,118293.89999997616,118305.828,119089.314,,2,time
screen,html.Screen,0_2_1_1_3,2021-11-12T11:21:42.320Z,,,,,,,,,,,,,,,,54,,,,,,,,,,,,,,523.4859999523178,,response,,,100,,,,,,Space,keypress(Space),,,,,-- --- ---- the ------ ----- ------- ---- -- --- ------- --<br>------- ---------- ------ -- ----- -- ----- -- ---- ------<br>--- ----- --- --- ------ -------- ----- --- ------ ----- --<br>----- ----- ---------- --- --- ------ ------ ---- -- ------<br>------- --- ------ ----- --- ---- ------- -- ---- --- --<br>------- ------,119613.59999996424,119612.79999995232,119072.644,119085.89999997616,119089.314,119622.775,,3,the
screen,html.Screen,0_2_1_1_4,2021-11-12T11:21:42.928Z,,,,,,,,,,,,,,,,54,,,,,,,,,,,,,,598.0249999523221,,response,,,100,,,,,,Space,keypress(Space),,,,,-- --- ---- --- French ----- ------- ---- -- --- ------- --<br>------- ---------- ------ -- ----- -- ----- -- ---- ------<br>--- ----- --- --- ------ -------- ----- --- ------ ----- --<br>----- ----- ---------- --- --- ------ ------ ---- -- ------<br>------- --- ------ ----- --- ---- ------- -- ---- --- --<br>------- ------,120221.5,120220.79999995232,119606.105,119613.79999995232,119622.775,120222.924,,4,French
screen,html.Screen,0_2_1_1_5,2021-11-12T11:21:43.475Z,,,,,,,,,,,,,,,,54,,,,,,,,,,,,,,541.77599998808,,response,,,100,,,,,,Space,keypress(Space),,,,,-- --- ---- --- ------ crown ------- ---- -- --- ------- --<br>------- ---------- ------ -- ----- -- ----- -- ---- ------<br>--- ----- --- --- ------ -------- ----- --- ------ ----- --<br>----- ----- ---------- --- --- ------ ------ ---- -- ------<br>------- --- ------ ----- --- ---- ------- -- ---- --- --<br>------- ------,120765.5,120764.69999998808,120206.254,120221.79999995232,120222.924,120773.096,,5,crown
screen,html.Screen,0_2_1_1_6,2021-11-12T11:21:43.947Z,,,,,,,,,,,,,,,,54,,,,,,,,,,,,,,463.5039999642322,,response,,,100,,,,,,Space,keypress(Space),,,,,-- --- ---- --- ------ ----- secured ---- -- --- ------- --<br>------- ---------- ------ -- ----- -- ----- -- ---- ------<br>--- ----- --- --- ------ -------- ----- --- ------ ----- --<br>----- ----- ---------- --- --- ------ ------ ---- -- ------<br>------- --- ------ ----- --- ---- ------- -- ---- --- --<br>------- ------,121237.5,121236.59999996424,120756.426,120765.69999998808,120773.096,121239.854,,6,secured
screen,html.Screen,0_2_1_1_7,2021-11-12T11:21:44.683Z,,,,,,,,,,,,,,,,54,,,,,,,,,,,,,,732.8459999880724,,response,,,100,,,,,,Space,keypress(Space),,,,,-- --- ---- --- ------ ----- ------- much -- --- ------- --<br>------- ---------- ------ -- ----- -- ----- -- ---- ------<br>--- ----- --- --- ------ -------- ----- --- ------ ----- --<br>----- ----- ---------- --- --- ------ ------ ---- -- ------<br>------- --- ------ ----- --- ---- ------- -- ---- --- --<br>------- ------,121973.5,121972.69999998808,121223.184,121237.79999995232,121239.854,121990.117,,7,much
screen,html.Screen,0_2_1_1_8,2021-11-12T11:21:45.187Z,,,,,,,,,,,,,,,,54,,,,,,,,,,,,,,486.5829999880807,,response,,,100,,,,,,Space,keypress(Space),,,,,-- --- ---- --- ------ ----- ------- ---- of --- ------- --<br>------- ---------- ------ -- ----- -- ----- -- ---- ------<br>--- ----- --- --- ------ -------- ----- --- ------ ----- --<br>----- ----- ---------- --- --- ------ ------ ---- -- ------<br>------- --- ------ ----- --- ---- ------- -- ---- --- --<br>------- ------,122477.5,122476.69999998808,121973.446,121973.79999995232,121990.117,122490.182,,8,of
screen,html.Screen,0_2_1_1_9,2021-11-12T11:21:45.611Z,,,,,,,,,,,,,,,,54,,,,,,,,,,,,,,410.4179999642365,,response,,,100,,,,,,Space,keypress(Space),,,,,-- --- ---- --- ------ ----- ------- ---- -- its ------- --<br>------- ---------- ------ -- ----- -- ----- -- ---- ------<br>--- ----- --- --- ------ -------- ----- --- ------ ----- --<br>----- ----- ---------- --- --- ------ ------ ---- -- ------<br>------- --- ------ ----- --- ---- ------- -- ---- --- --<br>------- ------,122901.39999997616,122900.59999996424,122473.512,122477.69999998808,122490.182,122906.95,,9,its
screen,html.Screen,0_2_1_1_10,2021-11-12T11:21:46.379Z,,,,,,,,,,,,,,,,54,,,,,,,,,,,,,,761.5500000000029,,response,,,100,,,,,,Space,keypress(Space),,,,,-- --- ---- --- ------ ----- ------- ---- -- --- revenue --<br>------- ---------- ------ -- ----- -- ----- -- ---- ------<br>--- ----- --- --- ------ -------- ----- --- ------ ----- --<br>----- ----- ---------- --- --- ------ ------ ---- -- ------<br>------- --- ------ ----- --- ---- ------- -- ---- --- --<br>------- ------,123669.29999995232,123668.5,122890.28,122901.69999998808,122906.95,123673.866,,10,revenue
screen,html.Screen,0_2_1_1_11,2021-11-12T11:21:46.843Z,,,,,,,,,,,,,,,,54,,,,,,,,,,,,,,458.5339999761636,,response,,,100,,,,,,Space,keypress(Space),,,,,-- --- ---- --- ------ ----- ------- ---- -- --- ------- by<br>------- ---------- ------ -- ----- -- ----- -- ---- ------<br>--- ----- --- --- ------ -------- ----- --- ------ ----- --<br>----- ----- ---------- --- --- ------ ------ ---- -- ------<br>------- --- ------ ----- --- ---- ------- -- ---- --- --<br>------- ------,124133.39999997616,124132.39999997616,123657.195,123669.5,123673.866,124140.665,,11,by
screen,html.Screen,0_2_1_1_12,2021-11-12T11:21:47.347Z,,,,,,,,,,,,,,,,54,,,,,,,,,,,,,,495.73499997616454,,response,,,100,,,,,,Space,keypress(Space),,,,,-- --- ---- --- ------ ----- ------- ---- -- --- ------- --<br>issuing ---------- ------ -- ----- -- ----- -- ---- ------<br>--- ----- --- --- ------ -------- ----- --- ------ ----- --<br>----- ----- ---------- --- --- ------ ------ ---- -- ------<br>------- --- ------ ----- --- ---- ------- -- ---- --- --<br>------- ------,124637.29999995232,124636.39999997616,124123.994,124133.59999996424,124140.665,124640.747,,12,issuing
screen,html.Screen,0_2_1_1_13,2021-11-12T11:21:47.803Z,,,,,,,,,,,,,,,,54,,,,,,,,,,,,,,451.752999999997,,response,,,100,,,,,,Space,keypress(Space),,,,,-- --- ---- --- ------ ----- ------- ---- -- --- ------- --<br>------- government ------ -- ----- -- ----- -- ---- ------<br>--- ----- --- --- ------ -------- ----- --- ------ ----- --<br>----- ----- ---------- --- --- ------ ------ ---- -- ------<br>------- --- ------ ----- --- ---- ------- -- ---- --- --<br>------- ------,125093.29999995232,125092.5,124624.077,124637.5,124640.747,125107.531,,13,government
screen,html.Screen,0_2_1_1_14,2021-11-12T11:21:48.483Z,,,,,,,,,,,,,,,,54,,,,,,,,,,,,,,664.8689999761555,,response,,,100,,,,,,Space,keypress(Space),,,,,-- --- ---- --- ------ ----- ------- ---- -- --- ------- --<br>------- ---------- bonds. -- ----- -- ----- -- ---- ------<br>--- ----- --- --- ------ -------- ----- --- ------ ----- --<br>----- ----- ---------- --- --- ------ ------ ---- -- ------<br>------- --- ------ ----- --- ---- ------- -- ---- --- --<br>------- ------,125773.09999996424,125772.39999997616,125090.861,125093.5,125107.531,125774.366,,14,bonds.
screen,html.Screen,0_2_1_1_15,2021-11-12T11:21:48.939Z,,,,,,,,,,,,,,,,54,,,,,,,,,,,,,,454.0339999761636,,response,,,100,,,,,,Space,keypress(Space),,,,,-- --- ---- --- ------ ----- ------- ---- -- --- ------- --<br>------- ---------- ------ In ----- -- ----- -- ---- ------<br>--- ----- --- --- ------ -------- ----- --- ------ ----- --<br>----- ----- ---------- --- --- ------ ------ ---- -- ------<br>------- --- ------ ----- --- ---- ------- -- ---- --- --<br>------- ------,126229.19999998808,126228.39999997616,125757.696,125773.39999997616,125774.366,126241.21,,15,In
screen,html.Screen,0_2_1_1_16,2021-11-12T11:21:50.411Z,,,,,,,,,,,,,,,,54,,,,,,,,,,,,,,1459.0899999523099,,response,,,100,,,,,,Space,keypress(Space),,,,,"-- --- ---- --- ------ ----- ------- ---- -- --- ------- --<br>------- ---------- ------ -- 1727, -- ----- -- ---- ------<br>--- ----- --- --- ------ -------- ----- --- ------ ----- --<br>----- ----- ---------- --- --- ------ ------ ---- -- ------<br>------- --- ------ ----- --- ---- ------- -- ---- --- --<br>------- ------",127701.19999998808,127700.29999995232,126224.539,126229.39999997616,126241.21,127708.123,,16,"1727,"
screen,html.Screen,0_2_1_1_17,2021-11-12T11:21:50.971Z,,,,,,,,,,,,,,,,54,,,,,,,,,,,,,,552.5769999880722,,response,,,100,,,,,,Space,keypress(Space),,,,,-- --- ---- --- ------ ----- ------- ---- -- --- ------- --<br>------- ---------- ------ -- ----- in ----- -- ---- ------<br>--- ----- --- --- ------ -------- ----- --- ------ ----- --<br>----- ----- ---------- --- --- ------ ------ ---- -- ------<br>------- --- ------ ----- --- ---- ------- -- ---- --- --<br>------- ------,128261.59999996424,128260.69999998808,127691.453,127701.39999997616,127708.123,128274.835,,17,in
screen,html.Screen,0_2_1_1_18,2021-11-12T11:21:51.403Z,,,,,,,,,,,,,,,,54,,,,,,,,,,,,,,417.4649999523099,,response,,,100,,,,,,Space,keypress(Space),,,,,-- --- ---- --- ------ ----- ------- ---- -- --- ------- --<br>------- ---------- ------ -- ----- -- order -- ---- ------<br>--- ----- --- --- ------ -------- ----- --- ------ ----- --<br>----- ----- ---------- --- --- ------ ------ ---- -- ------<br>------- --- ------ ----- --- ---- ------- -- ---- --- --<br>------- ------,128693.19999998808,128692.29999995232,128258.166,128261.89999997616,128274.835,128698.836,,18,order
screen,html.Screen,0_2_1_1_19,2021-11-12T11:21:51.795Z,,,,,,,,,,,,,,,,54,,,,,,,,,,,,,,385.4639999523206,,response,,,100,,,,,,Space,keypress(Space),,,,,-- --- ---- --- ------ ----- ------- ---- -- --- ------- --<br>------- ---------- ------ -- ----- -- ----- to ---- ------<br>--- ----- --- --- ------ -------- ----- --- ------ ----- --<br>----- ----- ---------- --- --- ------ ------ ---- -- ------<br>------- --- ------ ----- --- ---- ------- -- ---- --- --<br>------- ------,129085.19999998808,129084.29999995232,128682.343,128693.59999996424,128698.836,129091.962,,19,to
screen,html.Screen,0_2_1_1_20,2021-11-12T11:21:52.235Z,,,,,,,,,,,,,,,,54,,,,,,,,,,,,,,432.23799998807954,,response,,,100,,,,,,Space,keypress(Space),,,,,-- --- ---- --- ------ ----- ------- ---- -- --- ------- --<br>------- ---------- ------ -- ----- -- ----- -- save ------<br>--- ----- --- --- ------ -------- ----- --- ------ ----- --<br>----- ----- ---------- --- --- ------ ------ ---- -- ------<br>------- --- ------ ----- --- ---- ------- -- ---- --- --<br>------- ------,129525.09999996424,129524.19999998808,129075.29,129085.39999997616,129091.962,129542.057,,20,save
screen,html.Screen,0_2_1_1_21,2021-11-12T11:21:52.699Z,,,,,,,,,,,,,,,,54,,,,,,,,,,,,,,446.1429999880784,,response,,,100,,,,,,Space,keypress(Space),,,,,"-- --- ---- --- ------ ----- ------- ---- -- --- ------- --<br>------- ---------- ------ -- ----- -- ----- -- ---- money,<br>--- ----- --- --- ------ -------- ----- --- ------ ----- --<br>----- ----- ---------- --- --- ------ ------ ---- -- ------<br>------- --- ------ ----- --- ---- ------- -- ---- --- --<br>------- ------",129989.09999996424,129988.19999998808,129525.386,129525.5,129542.057,129992.173,,21,"money,"
screen,html.Screen,0_2_1_1_22,2021-11-12T11:21:53.459Z,,,,,,,,,,,,,,,,54,,,,,,,,,,,,,,756.0269999880838,,response,,,100,,,,,,Space,keypress(Space),,,,,-- --- ---- --- ------ ----- ------- ---- -- --- ------- --<br>------- ---------- ------ -- ----- -- ----- -- ---- ------<br>the ----- --- --- ------ -------- ----- --- ------ ----- --<br>----- ----- ---------- --- --- ------ ------ ---- -- ------<br>------- --- ------ ----- --- ---- ------- -- ---- --- --<br>------- ------,130749.09999996424,130748.19999998808,129975.502,129989.39999997616,129992.173,130758.983,,22,the
screen,html.Screen,0_2_1_1_23,2021-11-12T11:21:53.898Z,,,,,,,,,,,,,,,,54,,,,,,,,,,,,,,429.1169999642443,,response,,,100,,,,,,Space,keypress(Space),,,,,-- --- ---- --- ------ ----- ------- ---- -- --- ------- --<br>------- ---------- ------ -- ----- -- ----- -- ---- ------<br>--- state --- --- ------ -------- ----- --- ------ ----- --<br>----- ----- ---------- --- --- ------ ------ ---- -- ------<br>------- --- ------ ----- --- ---- ------- -- ---- --- --<br>------- ------,131189,131188.09999996424,130742.313,130749.39999997616,130758.983,131192.406,,23,state
screen,html.Screen,0_2_1_1_24,2021-11-12T11:21:54.482Z,,,,,,,,,,,,,,,,54,,,,,,,,,,,,,,579.6939999642491,,response,,,100,,,,,,Space,keypress(Space),,,,,-- --- ---- --- ------ ----- ------- ---- -- --- ------- --<br>------- ---------- ------ -- ----- -- ----- -- ---- ------<br>--- ----- cut --- ------ -------- ----- --- ------ ----- --<br>----- ----- ---------- --- --- ------ ------ ---- -- ------<br>------- --- ------ ----- --- ---- ------- -- ---- --- --<br>------- ------,131772.89999997616,131772.09999996424,131175.736,131189.29999995232,131192.406,131775.925,,24,cut
screen,html.Screen,0_2_1_1_25,2021-11-12T11:21:54.947Z,,,,,,,,,,,,,,,,54,,,,,,,,,,,,,,460.17499996424885,,response,,,100,,,,,,Space,keypress(Space),,,,,-- --- ---- --- ------ ----- ------- ---- -- --- ------- --<br>------- ---------- ------ -- ----- -- ----- -- ---- ------<br>--- ----- --- the ------ -------- ----- --- ------ ----- --<br>----- ----- ---------- --- --- ------ ------ ---- -- ------<br>------- --- ------ ----- --- ---- ------- -- ---- --- --<br>------- ------,132237.09999996424,132236.09999996424,131759.255,131773.29999995232,131775.925,132242.601,,25,the
screen,html.Screen,0_2_1_1_26,2021-11-12T11:21:55.403Z,,,,,,,,,,,,,,,,54,,,,,,,,,,,,,,449.4989999642421,,response,,,100,,,,,,Space,keypress(Space),,,,,-- --- ---- --- ------ ----- ------- ---- -- --- ------- --<br>------- ---------- ------ -- ----- -- ----- -- ---- ------<br>--- ----- --- --- bonds' -------- ----- --- ------ ----- --<br>----- ----- ---------- --- --- ------ ------ ---- -- ------<br>------- --- ------ ----- --- ---- ------- -- ---- --- --<br>------- ------,132693.09999996424,132692.09999996424,132225.932,132237.39999997616,132242.601,132709.553,,26,bonds'
screen,html.Screen,0_2_1_1_27,2021-11-12T11:21:55.978Z,,,,,,,,,,,,,,,,54,,,,,,,,,,,,,,558.4469999999856,,response,,,100,,,,,,Space,keypress(Space),,,,,-- --- ---- --- ------ ----- ------- ---- -- --- ------- --<br>------- ---------- ------ -- ----- -- ----- -- ---- ------<br>--- ----- --- --- ------ interest ----- --- ------ ----- --<br>----- ----- ---------- --- --- ------ ------ ---- -- ------<br>------- --- ------ ----- --- ---- ------- -- ---- --- --<br>------- ------,133268.89999997616,133268,132692.882,132693.5,132709.553,133276.307,,27,interest
screen,html.Screen,0_2_1_1_28,2021-11-12T11:21:56.490Z,,,,,,,,,,,,,,,,54,,,,,,,,,,,,,,503.6929999999993,,response,,,100,,,,,,Space,keypress(Space),,,,,-- --- ---- --- ------ ----- ------- ---- -- --- ------- --<br>------- ---------- ------ -- ----- -- ----- -- ---- ------<br>--- ----- --- --- ------ -------- rate. --- ------ ----- --<br>----- ----- ---------- --- --- ------ ------ ---- -- ------<br>------- --- ------ ----- --- ---- ------- -- ---- --- --<br>------- ------,133780.89999997616,133780,133259.637,133269.09999996424,133276.307,133793.095,,28,rate.
screen,html.Screen,0_2_1_1_29,2021-11-12T11:21:57.042Z,,,,,,,,,,,,,,,,54,,,,,,,,,,,,,,538.9049999999988,,response,,,100,,,,,,Space,keypress(Space),,,,,-- --- ---- --- ------ ----- ------- ---- -- --- ------- --<br>------- ---------- ------ -- ----- -- ----- -- ---- ------<br>--- ----- --- --- ------ -------- ----- The ------ ----- --<br>----- ----- ---------- --- --- ------ ------ ---- -- ------<br>------- --- ------ ----- --- ---- ------- -- ---- --- --<br>------- ------,134332.89999997616,134332,133776.425,133781.09999996424,133793.095,134343.313,,29,The
screen,html.Screen,0_2_1_1_30,2021-11-12T11:21:57.490Z,,,,,,,,,,,,,,,,54,,,,,,,,,,,,,,436.68700000000536,,response,,,100,,,,,,Space,keypress(Space),,,,,-- --- ---- --- ------ ----- ------- ---- -- --- ------- --<br>------- ---------- ------ -- ----- -- ----- -- ---- ------<br>--- ----- --- --- ------ -------- ----- --- market ----- --<br>----- ----- ---------- --- --- ------ ------ ---- -- ------<br>------- --- ------ ----- --- ---- ------- -- ---- --- --<br>------- ------,134780.79999995232,134780,134326.642,134333.09999996424,134343.313,134793.248,,30,market
screen,html.Screen,0_2_1_1_31,2021-11-12T11:21:57.906Z,,,,,,,,,,,,,,,,54,,,,,,,,,,,,,,402.6519999761658,,response,,,100,,,,,,Space,keypress(Space),,,,,-- --- ---- --- ------ ----- ------- ---- -- --- ------- --<br>------- ---------- ------ -- ----- -- ----- -- ---- ------<br>--- ----- --- --- ------ -------- ----- --- ------ value --<br>----- ----- ---------- --- --- ------ ------ ---- -- ------<br>------- --- ------ ----- --- ---- ------- -- ---- --- --<br>------- ------,135197,135195.89999997616,134776.579,134781,134793.248,135210.228,,31,value
screen,html.Screen,0_2_1_1_32,2021-11-12T11:21:58.386Z,,,,,,,,,,,,,,,,54,,,,,,,,,,,,,,465.67199997615535,,response,,,100,,,,,,Space,keypress(Space),,,,,-- --- ---- --- ------ ----- ------- ---- -- --- ------- --<br>------- ---------- ------ -- ----- -- ----- -- ---- ------<br>--- ----- --- --- ------ -------- ----- --- ------ ----- of<br>----- ----- ---------- --- --- ------ ------ ---- -- ------<br>------- --- ------ ----- --- ---- ------- -- ---- --- --<br>------- ------,135676.69999998808,135675.89999997616,135193.556,135197.29999995232,135210.228,135693.601,,32,of
screen,html.Screen,0_2_1_1_33,2021-11-12T11:21:58.858Z,,,,,,,,,,,,,,,,54,,,,,,,,,,,,,,454.29899997616303,,response,,,100,,,,,,Space,keypress(Space),,,,,-- --- ---- --- ------ ----- ------- ---- -- --- ------- --<br>------- ---------- ------ -- ----- -- ----- -- ---- ------<br>--- ----- --- --- ------ -------- ----- --- ------ ----- --<br>these ----- ---------- --- --- ------ ------ ---- -- ------<br>------- --- ------ ----- --- ---- ------- -- ---- --- --<br>------- ------,136148.69999998808,136147.89999997616,135676.931,135677,135693.601,136160.316,,33,these
screen,html.Screen,0_2_1_1_34,2021-11-12T11:21:59.306Z,,,,,,,,,,,,,,,,54,,,,,,,,,,,,,,435.48399995232467,,response,,,100,,,,,,Space,keypress(Space),,,,,-- --- ---- --- ------ ----- ------- ---- -- --- ------- --<br>------- ---------- ------ -- ----- -- ----- -- ---- ------<br>--- ----- --- --- ------ -------- ----- --- ------ ----- --<br>----- bonds ---------- --- --- ------ ------ ---- -- ------<br>------- --- ------ ----- --- ---- ------- -- ---- --- --<br>------- ------,136596.69999998808,136595.79999995232,136143.647,136149,136160.316,136610.561,,34,bonds
screen,html.Screen,0_2_1_1_35,2021-11-12T11:21:59.938Z,,,,,,,,,,,,,,,,54,,,,,,,,,,,,,,617.2389999523293,,response,,,100,,,,,,Space,keypress(Space),,,,,"-- --- ---- --- ------ ----- ------- ---- -- --- ------- --<br>------- ---------- ------ -- ----- -- ----- -- ---- ------<br>--- ----- --- --- ------ -------- ----- --- ------ ----- --<br>----- ----- plummeted, --- --- ------ ------ ---- -- ------<br>------- --- ------ ----- --- ---- ------- -- ---- --- --<br>------- ------",137228.69999998808,137227.79999995232,136593.89,136597,136610.561,137243.983,,35,"plummeted,"
screen,html.Screen,0_2_1_1_36,2021-11-12T11:22:00.362Z,,,,,,,,,,,,,,,,54,,,,,,,,,,,,,,407.81699995230883,,response,,,100,,,,,,Space,keypress(Space),,,,,-- --- ---- --- ------ ----- ------- ---- -- --- ------- --<br>------- ---------- ------ -- ----- -- ----- -- ---- ------<br>--- ----- --- --- ------ -------- ----- --- ------ ----- --<br>----- ----- ---------- and --- ------ ------ ---- -- ------<br>------- --- ------ ----- --- ---- ------- -- ---- --- --<br>------- ------,137652.69999998808,137651.79999995232,137227.313,137229,137243.983,137660.774,,36,and
screen,html.Screen,0_2_1_1_37,2021-11-12T11:22:00.778Z,,,,,,,,,,,,,,,,54,,,,,,,,,,,,,,407.0259999523114,,response,,,100,,,,,,Space,keypress(Space),,,,,-- --- ---- --- ------ ----- ------- ---- -- --- ------- --<br>------- ---------- ------ -- ----- -- ----- -- ---- ------<br>--- ----- --- --- ------ -------- ----- --- ------ ----- --<br>----- ----- ---------- --- the ------ ------ ---- -- ------<br>------- --- ------ ----- --- ---- ------- -- ---- --- --<br>------- ------,138068.69999998808,138067.79999995232,137644.104,137652.79999995232,137660.774,138077.59,,37,the
screen,html.Screen,0_2_1_1_38,2021-11-12T11:22:01.298Z,,,,,,,,,,,,,,,,54,,,,,,,,,,,,,,510.5099999642407,,response,,,100,,,,,,Space,keypress(Space),,,,,-- --- ---- --- ------ ----- ------- ---- -- --- ------- --<br>------- ---------- ------ -- ----- -- ----- -- ---- ------<br>--- ----- --- --- ------ -------- ----- --- ------ ----- --<br>----- ----- ---------- --- --- market ------ ---- -- ------<br>------- --- ------ ----- --- ---- ------- -- ---- --- --<br>------- ------,138588.89999997616,138588.09999996424,138060.919,138068.89999997616,138077.59,138594.327,,38,market
screen,html.Screen,0_2_1_1_39,2021-11-12T11:22:01.706Z,,,,,,,,,,,,,,,,54,,,,,,,,,,,,,,401.37299998808885,,response,,,100,,,,,,Space,keypress(Space),,,,,-- --- ---- --- ------ ----- ------- ---- -- --- ------- --<br>------- ---------- ------ -- ----- -- ----- -- ---- ------<br>--- ----- --- --- ------ -------- ----- --- ------ ----- --<br>----- ----- ---------- --- --- ------ became ---- -- ------<br>------- --- ------ ----- --- ---- ------- -- ---- --- --<br>------- ------,138996.59999996424,138995.69999998808,138577.657,138589.19999998808,138594.327,139011.108,,39,became
screen,html.Screen,0_2_1_1_40,2021-11-12T11:22:02.234Z,,,,,,,,,,,,,,,,54,,,,,,,,,,,,,,512.5919999880716,,response,,,100,,,,,,Space,keypress(Space),,,,,-- --- ---- --- ------ ----- ------- ---- -- --- ------- --<br>------- ---------- ------ -- ----- -- ----- -- ---- ------<br>--- ----- --- --- ------ -------- ----- --- ------ ----- --<br>----- ----- ---------- --- --- ------ ------ wary -- ------<br>------- --- ------ ----- --- ---- ------- -- ---- --- --<br>------- ------,139524.5,139523.69999998808,138994.438,138996.89999997616,139011.108,139527.958,,40,wary
screen,html.Screen,0_2_1_1_41,2021-11-12T11:22:02.626Z,,,,,,,,,,,,,,,,54,,,,,,,,,,,,,,387.7419999880658,,response,,,100,,,,,,Space,keypress(Space),,,,,-- --- ---- --- ------ ----- ------- ---- -- --- ------- --<br>------- ---------- ------ -- ----- -- ----- -- ---- ------<br>--- ----- --- --- ------ -------- ----- --- ------ ----- --<br>----- ----- ---------- --- --- ------ ------ ---- of ------<br>------- --- ------ ----- --- ---- ------- -- ---- --- --<br>------- ------,139916.5,139915.69999998808,139511.287,139524.79999995232,139527.958,139927.945,,41,of
screen,html.Screen,0_2_1_1_42,2021-11-12T11:22:03.106Z,,,,,,,,,,,,,,,,54,,,,,,,,,,,,,,467.7549999880721,,response,,,100,,,,,,Space,keypress(Space),,,,,-- --- ---- --- ------ ----- ------- ---- -- --- ------- --<br>------- ---------- ------ -- ----- -- ----- -- ---- ------<br>--- ----- --- --- ------ -------- ----- --- ------ ----- --<br>----- ----- ---------- --- --- ------ ------ ---- -- French<br>------- --- ------ ----- --- ---- ------- -- ---- --- --<br>------- ------,140396.5,140395.69999998808,139911.276,139916.69999998808,139927.945,140411.531,,42,French
screen,html.Screen,0_2_1_1_43,2021-11-12T11:22:03.586Z,,,,,,,,,,,,,,,,54,,,,,,,,,,,,,,464.0689999642491,,response,,,100,,,,,,Space,keypress(Space),,,,,-- --- ---- --- ------ ----- ------- ---- -- --- ------- --<br>------- ---------- ------ -- ----- -- ----- -- ---- ------<br>--- ----- --- --- ------ -------- ----- --- ------ ----- --<br>----- ----- ---------- --- --- ------ ------ ---- -- ------<br>credit. --- ------ ----- --- ---- ------- -- ---- --- --<br>------- ------,140876.39999997616,140875.59999996424,140394.86,140396.69999998808,140411.531,140878.326,,43,credit.
screen,html.Screen,0_2_1_1_44,2021-11-12T11:22:04.146Z,,,,,,,,,,,,,,,,54,,,,,,,,,,,,,,557.2739999642363,,response,,,100,,,,,,Space,keypress(Space),,,,,-- --- ---- --- ------ ----- ------- ---- -- --- ------- --<br>------- ---------- ------ -- ----- -- ----- -- ---- ------<br>--- ----- --- --- ------ -------- ----- --- ------ ----- --<br>----- ----- ---------- --- --- ------ ------ ---- -- ------<br>------- The ------ ----- --- ---- ------- -- ---- --- --<br>------- ------,141436.39999997616,141435.59999996424,140861.655,140876.69999998808,140878.326,141445.054,,44,The
screen,html.Screen,0_2_1_1_45,2021-11-12T11:22:04.602Z,,,,,,,,,,,,,,,,54,,,,,,,,,,,,,,446.4459999999963,,response,,,100,,,,,,Space,keypress(Space),,,,,-- --- ---- --- ------ ----- ------- ---- -- --- ------- --<br>------- ---------- ------ -- ----- -- ----- -- ---- ------<br>--- ----- --- --- ------ -------- ----- --- ------ ----- --<br>----- ----- ---------- --- --- ------ ------ ---- -- ------<br>------- --- French ----- --- ---- ------- -- ---- --- --<br>------- ------,141892.29999995232,141891.5,141428.384,141436.69999998808,141445.054,141895.169,,45,French
screen,html.Screen,0_2_1_1_46,2021-11-12T11:22:05.042Z,,,,,,,,,,,,,,,,54,,,,,,,,,,,,,,436.3310000000056,,response,,,100,,,,,,Space,keypress(Space),,,,,-- --- ---- --- ------ ----- ------- ---- -- --- ------- --<br>------- ---------- ------ -- ----- -- ----- -- ---- ------<br>--- ----- --- --- ------ -------- ----- --- ------ ----- --<br>----- ----- ---------- --- --- ------ ------ ---- -- ------<br>------- --- ------ state --- ---- ------- -- ---- --- --<br>------- ------,142332.29999995232,142331.5,141878.499,141892.59999996424,141895.169,142345.319,,46,state
screen,html.Screen,0_2_1_1_47,2021-11-12T11:22:05.570Z,,,,,,,,,,,,,,,,54,,,,,,,,,,,,,,514.1810000000114,,response,,,100,,,,,,Space,keypress(Space),,,,,-- --- ---- --- ------ ----- ------- ---- -- --- ------- --<br>------- ---------- ------ -- ----- -- ----- -- ---- ------<br>--- ----- --- --- ------ -------- ----- --- ------ ----- --<br>----- ----- ---------- --- --- ------ ------ ---- -- ------<br>------- --- ------ ----- was ---- ------- -- ---- --- --<br>------- ------,142860.29999995232,142859.5,142328.649,142332.59999996424,142345.319,142862.103,,47,was
screen,html.Screen,0_2_1_1_48,2021-11-12T11:22:06.154Z,,,,,,,,,,,,,,,,54,,,,,,,,,,,,,,581.2969999761553,,response,,,100,,,,,,Space,keypress(Space),,,,,-- --- ---- --- ------ ----- ------- ---- -- --- ------- --<br>------- ---------- ------ -- ----- -- ----- -- ---- ------<br>--- ----- --- --- ------ -------- ----- --- ------ ----- --<br>----- ----- ---------- --- --- ------ ------ ---- -- ------<br>------- --- ------ ----- --- left ------- -- ---- --- --<br>------- ------,143444.29999995232,143443.39999997616,142845.433,142860.5,142862.103,143445.588,,48,left
screen,html.Screen,0_2_1_1_49,2021-11-12T11:22:06.722Z,,,,,,,,,,,,,,,,54,,,,,,,,,,,,,,565.8119999761693,,response,,,100,,,,,,Space,keypress(Space),,,,,-- --- ---- --- ------ ----- ------- ---- -- --- ------- --<br>------- ---------- ------ -- ----- -- ----- -- ---- ------<br>--- ----- --- --- ------ -------- ----- --- ------ ----- --<br>----- ----- ---------- --- --- ------ ------ ---- -- ------<br>------- --- ------ ----- --- ---- without -- ---- --- --<br>------- ------,144012.29999995232,144011.39999997616,143428.918,143444.5,143445.588,144029.124,,49,without
screen,html.Screen,0_2_1_1_50,2021-11-12T11:22:07.162Z,,,,,,,,,,,,,,,,54,,,,,,,,,,,,,,422.27599997614743,,response,,,100,,,,,,Space,keypress(Space),,,,,-- --- ---- --- ------ ----- ------- ---- -- --- ------- --<br>------- ---------- ------ -- ----- -- ----- -- ---- ------<br>--- ----- --- --- ------ -------- ----- --- ------ ----- --<br>----- ----- ---------- --- --- ------ ------ ---- -- ------<br>------- --- ------ ----- --- ---- ------- an ---- --- --<br>------- ------,144452.29999995232,144451.39999997616,144012.453,144012.5,144029.124,144462.514,,50,an
screen,html.Screen,0_2_1_1_51,2021-11-12T11:22:07.618Z,,,,,,,,,,,,,,,,54,,,,,,,,,,,,,,444.88599997616257,,response,,,100,,,,,,Space,keypress(Space),,,,,-- --- ---- --- ------ ----- ------- ---- -- --- ------- --<br>------- ---------- ------ -- ----- -- ----- -- ---- ------<br>--- ----- --- --- ------ -------- ----- --- ------ ----- --<br>----- ----- ---------- --- --- ------ ------ ---- -- ------<br>------- --- ------ ----- --- ---- ------- -- easy --- --<br>------- ------,144908.19999998808,144907.39999997616,144445.844,144452.59999996424,144462.514,144912.603,,51,easy
screen,html.Screen,0_2_1_1_52,2021-11-12T11:22:08.026Z,,,,,,,,,,,,,,,,54,,,,,,,,,,,,,,402.79699997615535,,response,,,100,,,,,,Space,keypress(Space),,,,,-- --- ---- --- ------ ----- ------- ---- -- --- ------- --<br>------- ---------- ------ -- ----- -- ----- -- ---- ------<br>--- ----- --- --- ------ -------- ----- --- ------ ----- --<br>----- ----- ---------- --- --- ------ ------ ---- -- ------<br>------- --- ------ ----- --- ---- ------- -- ---- way --<br>------- ------,145316.19999998808,145315.39999997616,144895.933,144908.5,144912.603,145329.464,,52,way
screen,html.Screen,0_2_1_1_53,2021-11-12T11:22:08.474Z,,,,,,,,,,,,,,,,54,,,,,,,,,,,,,,433.9359999761509,,response,,,100,,,,,,Space,keypress(Space),,,,,-- --- ---- --- ------ ----- ------- ---- -- --- ------- --<br>------- ---------- ------ -- ----- -- ----- -- ---- ------<br>--- ----- --- --- ------ -------- ----- --- ------ ----- --<br>----- ----- ---------- --- --- ------ ------ ---- -- ------<br>------- --- ------ ----- --- ---- ------- -- ---- --- of<br>------- ------,145764.09999996424,145763.39999997616,145312.793,145316.5,145329.464,145779.53,,53,of
screen,html.Screen,0_2_1_1_54,2021-11-12T11:22:08.962Z,,,,,,,,,,,,,,,,54,,,,,,,,,,,,,,471.76999995231745,,response,,,100,,,,,,Space,keypress(Space),,,,,-- --- ---- --- ------ ----- ------- ---- -- --- ------- --<br>------- ---------- ------ -- ----- -- ----- -- ---- ------<br>--- ----- --- --- ------ -------- ----- --- ------ ----- --<br>----- ----- ---------- --- --- ------ ------ ---- -- ------<br>------- --- ------ ----- --- ---- ------- -- ---- --- --<br>raising ------,146252.19999998808,146251.29999995232,145762.86,145764.39999997616,145779.53,146263.028,,54,raising
screen,html.Screen,0_2_1_1_55,2021-11-12T11:22:09.378Z,,,,,,,,,,,,,,,,54,,,,,,,,,,,,,,404.27199995232513,,response,,,100,,,,,,Space,keypress(Space),,,,,-- --- ---- --- ------ ----- ------- ---- -- --- ------- --<br>------- ---------- ------ -- ----- -- ----- -- ---- ------<br>--- ----- --- --- ------ -------- ----- --- ------ ----- --<br>----- ----- ---------- --- --- ------ ------ ---- -- ------<br>------- --- ------ ----- --- ---- ------- -- ---- --- --<br>------- money.,146668.09999996424,146667.29999995232,146246.357,146252.39999997616,146263.028,146679.757,,55,money.
Item 100,flow.Loop,0_2_1_1,2021-11-12T11:22:09.378Z,,,,,,,,,,,,,,,,,,,,,,,,,,,,,,30128.77199995231,,completion,,,,E,,,,,,,,,,silence,,146668.59999996424,146667.29999995232,116521.858,116524,116538.528,146679.757,,,
Question 1,html.Screen,0_2_1_2,2021-11-12T11:22:12.073Z,,,,,,,,,,,,,,,,,,,,,,,,,,,true,TRUE,,2683.042999952304,,response,,,100,E,,,,,TRUE,click #choice-1,,,,silence,,149364,149362.79999995232,146663.087,146668.79999995232,146679.757,149363.777,,,
Question 2,html.Screen,0_2_1_3,2021-11-12T11:22:14.106Z,,,,,,,,,,,,,,,,,,,,,,,,,,,true,FALSE,,2031.7229999999981,,response,,,100,E,,,,,FALSE,click #choice-2,,,,silence,,151396.69999998808,151395.5,149347.107,149364.29999995232,149363.777,151397.611,,,
Item 100,flow.Sequence,0_2_1,2021-11-12T11:22:14.107Z,,,,,,,,,,,,,,,,,,,,,,,,,,,,,,44859.437999999995,,completion,,,,,,,,,,,,,,,,151397.19999998808,151395.5,106519.392,106529.59999996424,106536.062,151397.611,,,
End of Practice,html.Page,0_2_2,2021-11-12T11:22:17.835Z,,,,,,,,,,,,,,,,,,,,,,,,,,,,,,3727.0889999880746,,form submission,,,,,,,,,,,,,,,,155125.39999997616,155124.69999998808,151380.941,151397.29999995232,151397.611,155132.181,,,
Practice,flow.Sequence,0_2,2021-11-12T11:22:17.835Z,,,,,,,,,,,,,,,,,,,,,,,,,,,,,,101637.54199998808,,completion,,,,,,,,,,,,,,,,155125.89999997616,155124.69999998808,53470.488,53479,53487.158,155132.181,,,
Trap_instruction,html.Page,0_3_0,2021-11-12T11:22:22.109Z,,,,,,,,,,,,,,,,,,,,,,,,,,,,,,4266.918999964226,,form submission,,,,,,,,,,,,,,,,159399.59999996424,159399.09999996424,155115.494,155126.29999995232,155132.181,159416.096,,,
trap_trial,html.Screen,0_3_1,2021-11-12T11:22:26.649Z,,,,,,,,,,,,,,,,,,,,,,,,,,,true,1,,4521.703999952326,,response,,,,,,,,,1,click #choice-1,,,,,,163939,163937.79999995232,159382.756,159399.79999995232,159416.096,163939.475,,,
end of trap trial,html.Page,0_3_2,2021-11-12T11:22:28.582Z,,,,,,,,,,,,,,,,,,,,,,,,,,,,,,1932.7249999880733,,form submission,,,,,,,,,,,,,,,,165872.69999998808,165872.19999998808,163922.784,163939.29999995232,163939.475,165884.635,,,
Trap 1,flow.Sequence,0_3,2021-11-12T11:22:28.583Z,,,,,,,,,,,,,,,,,,,,,,,,,,,,,,10740.018999988068,,completion,,,,,,,,,,,,,,,,165873.09999996424,165872.19999998808,155115.494,155126.09999996424,155132.181,165884.635,,,
Standby,html.Page,0_4_0,2021-11-12T11:22:36.581Z,,,,,,,,,,,,,,,,,,,,,,,,,,,,,,8002.135999999999,,timeout,,,,,,,,,,,,,,,,173871.29999995232,173870.1,165867.965,165873.59999996424,165884.635,173886.771,,,
Holding screen,html.Screen,0_4_1_0_0,2021-11-12T11:22:43.586Z,,,,,,,,,,,,,,,,,,,,,,,,,,,,,,7001.7029999999795,,timeout,,,,,,,,,,,,,,,,180872.89999997616,180871.804,173870.1,173871.69999998808,173886.771,180888.474,,,
screen,html.Screen,0_4_1_0_1_0,2021-11-12T11:22:44.596Z,,,,,,,,,,,,,,,,11,,,,,,,,,,,,,,993.4259999761707,,response,,,4,E,,,,,Space,keypress(Space),,,,lyrical,Known -- ---- --- -- --- -------- ------------ ---------- --<br>- ------- ------ --------- -- ------------ -- --- ---- -----<br>------ ---- ---- ------ ------ ------- --- ----- ---------<br>---- --- -------- -------- --- --- -- ------- --- --- -----<br>-- --- ------ ------- --- --- -------- ---- --------- --<br>---------- -- -------- ----------------,181882.89999997616,181881.89999997616,180871.804,180873.39999997616,180888.474,181888.781,,0,Known
screen,html.Screen,0_4_1_0_1_1,2021-11-12T11:22:45.163Z,,,,,,,,,,,,,,,,11,,,,,,,,,,,,,,560.418999988091,,response,,,4,E,,,,,Space,keypress(Space),,,,lyrical,----- as ---- --- -- --- -------- ------------ ---------- --<br>- ------- ------ --------- -- ------------ -- --- ---- -----<br>------ ---- ---- ------ ------ ------- --- ----- ---------<br>---- --- -------- -------- --- --- -- ------- --- --- -----<br>-- --- ------ ------- --- --- -------- ---- --------- --<br>---------- -- -------- ----------------,182450.09999996424,182449.19999998808,181872.111,181883.09999996424,181888.781,182455.483,,1,as
screen,html.Screen,0_4_1_0_1_2,2021-11-12T11:22:45.555Z,,,,,,,,,,,,,,,,11,,,,,,,,,,,,,,385.7169999880716,,response,,,4,E,,,,,Space,keypress(Space),,,,lyrical,----- -- Rapa --- -- --- -------- ------------ ---------- --<br>- ------- ------ --------- -- ------------ -- --- ---- -----<br>------ ---- ---- ------ ------ ------- --- ----- ---------<br>---- --- -------- -------- --- --- -- ------- --- --- -----<br>-- --- ------ ------- --- --- -------- ---- --------- --<br>---------- -- -------- ----------------,182842.09999996424,182841.19999998808,182438.814,182450.29999995232,182455.483,182855.786,,2,Rapa
screen,html.Screen,0_4_1_0_1_3,2021-11-12T11:22:46.155Z,,,,,,,,,,,,,,,,11,,,,,,,,,,,,,,585.4139999880863,,response,,,4,E,,,,,Space,keypress(Space),,,,lyrical,----- -- ---- Nui -- --- -------- ------------ ---------- --<br>- ------- ------ --------- -- ------------ -- --- ---- -----<br>------ ---- ---- ------ ------ ------- --- ----- ---------<br>---- --- -------- -------- --- --- -- ------- --- --- -----<br>-- --- ------ ------- --- --- -------- ---- --------- --<br>---------- -- -------- ----------------,183442.19999998808,183441.19999998808,182839.115,182842.39999997616,182855.786,183455.796,,3,Nui
screen,html.Screen,0_4_1_0_1_4,2021-11-12T11:22:46.587Z,,,,,,,,,,,,,,,,11,,,,,,,,,,,,,,417.5039999523142,,response,,,4,E,,,,,Space,keypress(Space),,,,lyrical,----- -- ---- --- to --- -------- ------------ ---------- --<br>- ------- ------ --------- -- ------------ -- --- ---- -----<br>------ ---- ---- ------ ------ ------- --- ----- ---------<br>---- --- -------- -------- --- --- -- ------- --- --- -----<br>-- --- ------ ------- --- --- -------- ---- --------- --<br>---------- -- -------- ----------------,183874.09999996424,183873.29999995232,183439.127,183442.39999997616,183455.796,183889.441,,4,to
screen,html.Screen,0_4_1_0_1_5,2021-11-12T11:22:47.019Z,,,,,,,,,,,,,,,,11,,,,,,,,,,,,,,415.75899998808745,,response,,,4,E,,,,,Space,keypress(Space),,,,lyrical,----- -- ---- --- -- the -------- ------------ ---------- --<br>- ------- ------ --------- -- ------------ -- --- ---- -----<br>------ ---- ---- ------ ------ ------- --- ----- ---------<br>---- --- -------- -------- --- --- -- ------- --- --- -----<br>-- --- ------ ------- --- --- -------- ---- --------- --<br>---------- -- -------- ----------------,184306.09999996424,184305.19999998808,183872.769,183874.29999995232,183889.441,184322.785,,5,the
screen,html.Screen,0_4_1_0_1_6,2021-11-12T11:22:47.571Z,,,,,,,,,,,,,,,,11,,,,,,,,,,,,,,534.4149999880756,,response,,,4,E,,,,,Space,keypress(Space),,,,lyrical,----- -- ---- --- -- --- island's ------------ ---------- --<br>- ------- ------ --------- -- ------------ -- --- ---- -----<br>------ ---- ---- ------ ------ ------- --- ----- ---------<br>---- --- -------- -------- --- --- -- ------- --- --- -----<br>-- --- ------ ------- --- --- -------- ---- --------- --<br>---------- -- -------- ----------------,184858.09999996424,184857.19999998808,184306.115,184306.39999997616,184322.785,184872.81,,6,island's
screen,html.Screen,0_4_1_0_1_7,2021-11-12T11:22:48.411Z,,,,,,,,,,,,,,,,11,,,,,,,,,,,,,,824.2899999642395,,response,,,4,E,,,,,Space,keypress(Space),,,,lyrical,"----- -- ---- --- -- --- -------- inhabitants, ---------- --<br>- ------- ------ --------- -- ------------ -- --- ---- -----<br>------ ---- ---- ------ ------ ------- --- ----- ---------<br>---- --- -------- -------- --- --- -- ------- --- --- -----<br>-- --- ------ ------- --- --- -------- ---- --------- --<br>---------- -- -------- ----------------",185697.89999997616,185697.09999996424,184856.141,184858.29999995232,184872.81,185706.58,,7,"inhabitants,"
screen,html.Screen,0_4_1_0_1_8,2021-11-12T11:22:49.283Z,,,,,,,,,,,,,,,,11,,,,,,,,,,,,,,862.4200000000128,,response,,,4,E,,,,,Space,keypress(Space),,,,lyrical,----- -- ---- --- -- --- -------- ------------ Rongorongo --<br>- ------- ------ --------- -- ------------ -- --- ---- -----<br>------ ---- ---- ------ ------ ------- --- ----- ---------<br>---- --- -------- -------- --- --- -- ------- --- --- -----<br>-- --- ------ ------- --- --- -------- ---- --------- --<br>---------- -- -------- ----------------,186569.89999997616,186569,185689.908,185698.19999998808,185706.58,186573.142,,8,Rongorongo
screen,html.Screen,0_4_1_0_1_9,2021-11-12T11:22:49.747Z,,,,,,,,,,,,,,,,11,,,,,,,,,,,,,,459.95799996424466,,response,,,4,E,,,,,Space,keypress(Space),,,,lyrical,----- -- ---- --- -- --- -------- ------------ ---------- is<br>- ------- ------ --------- -- ------------ -- --- ---- -----<br>------ ---- ---- ------ ------ ------- --- ----- ---------<br>---- --- -------- -------- --- --- -- ------- --- --- -----<br>-- --- ------ ------- --- --- -------- ---- --------- --<br>---------- -- -------- ----------------,187034,187033.09999996424,186556.473,186570.09999996424,186573.142,187040.208,,9,is
screen,html.Screen,0_4_1_0_1_10,2021-11-12T11:22:50.267Z,,,,,,,,,,,,,,,,11,,,,,,,,,,,,,,512.7919999999867,,response,,,4,E,,,,,Space,keypress(Space),,,,lyrical,----- -- ---- --- -- --- -------- ------------ ---------- --<br>a ------- ------ --------- -- ------------ -- --- ---- -----<br>------ ---- ---- ------ ------ ------- --- ----- ---------<br>---- --- -------- -------- --- --- -- ------- --- --- -----<br>-- --- ------ ------- --- --- -------- ---- --------- --<br>---------- -- -------- ----------------,187553.89999997616,187553,187023.537,187034.19999998808,187040.208,187556.983,,10,a
screen,html.Screen,0_4_1_0_1_11,2021-11-12T11:22:50.795Z,,,,,,,,,,,,,,,,11,,,,,,,,,,,,,,524.0169999999925,,response,,,4,E,,,,,Space,keypress(Space),,,,lyrical,----- -- ---- --- -- --- -------- ------------ ---------- --<br>- writing ------ --------- -- ------------ -- --- ---- -----<br>------ ---- ---- ------ ------ ------- --- ----- ---------<br>---- --- -------- -------- --- --- -- ------- --- --- -----<br>-- --- ------ ------- --- --- -------- ---- --------- --<br>---------- -- -------- ----------------,188081.89999997616,188081,187540.312,187554.09999996424,187556.983,188090.462,,11,writing
screen,html.Screen,0_4_1_0_1_12,2021-11-12T11:22:51.291Z,,,,,,,,,,,,,,,,11,,,,,,,,,,,,,,486.53800000000047,,response,,,4,E,,,,,Space,keypress(Space),,,,lyrical,----- -- ---- --- -- --- -------- ------------ ---------- --<br>- ------- system --------- -- ------------ -- --- ---- -----<br>------ ---- ---- ------ ------ ------- --- ----- ---------<br>---- --- -------- -------- --- --- -- ------- --- --- -----<br>-- --- ------ ------- --- --- -------- ---- --------- --<br>---------- -- -------- ----------------,188577.79999995232,188577,188073.791,188082.19999998808,188090.462,188590.519,,12,system
screen,html.Screen,0_4_1_0_1_13,2021-11-12T11:22:51.819Z,,,,,,,,,,,,,,,,11,,,,,,,,,,,,,,514.4809999999998,,response,,,4,E,,,,,Space,keypress(Space),,,,lyrical,----- -- ---- --- -- --- -------- ------------ ---------- --<br>- ------- ------ comprised -- ------------ -- --- ---- -----<br>------ ---- ---- ------ ------ ------- --- ----- ---------<br>---- --- -------- -------- --- --- -- ------- --- --- -----<br>-- --- ------ ------- --- --- -------- ---- --------- --<br>---------- -- -------- ----------------,189105.79999995232,189105,188573.849,188578.09999996424,188590.519,189107.24,,13,comprised
screen,html.Screen,0_4_1_0_1_14,2021-11-12T11:22:52.243Z,,,,,,,,,,,,,,,,11,,,,,,,,,,,,,,421.65999997616746,,response,,,4,E,,,,,Space,keypress(Space),,,,lyrical,----- -- ---- --- -- --- -------- ------------ ---------- --<br>- ------- ------ --------- of ------------ -- --- ---- -----<br>------ ---- ---- ------ ------ ------- --- ----- ---------<br>---- --- -------- -------- --- --- -- ------- --- --- -----<br>-- --- ------ ------- --- --- -------- ---- --------- --<br>---------- -- -------- ----------------,189529.79999995232,189528.89999997616,189090.571,189106.09999996424,189107.24,189540.878,,14,of
screen,html.Screen,0_4_1_0_1_15,2021-11-12T11:22:53.299Z,,,,,,,,,,,,,,,,11,,,,,,,,,,,,,,1044.0219999761612,,response,,,4,E,,,,,Space,keypress(Space),,,,lyrical,----- -- ---- --- -- --- -------- ------------ ---------- --<br>- ------- ------ --------- -- pictographs. -- --- ---- -----<br>------ ---- ---- ------ ------ ------- --- ----- ---------<br>---- --- -------- -------- --- --- -- ------- --- --- -----<br>-- --- ------ ------- --- --- -------- ---- --------- --<br>---------- -- -------- ----------------,190585.69999998808,190584.89999997616,189524.206,189530.09999996424,189540.878,190590.903,,15,pictographs.
screen,html.Screen,0_4_1_0_1_16,2021-11-12T11:22:53.747Z,,,,,,,,,,,,,,,,11,,,,,,,,,,,,,,441.89699995232513,,response,,,4,E,,,,,Space,keypress(Space),,,,lyrical,----- -- ---- --- -- --- -------- ------------ ---------- --<br>- ------- ------ --------- -- ------------ It --- ---- -----<br>------ ---- ---- ------ ------ ------- --- ----- ---------<br>---- --- -------- -------- --- --- -- ------- --- --- -----<br>-- --- ------ ------- --- --- -------- ---- --------- --<br>---------- -- -------- ----------------,191033.69999998808,191032.79999995232,190574.234,190585.89999997616,190590.903,191041.27,,16,It
screen,html.Screen,0_4_1_0_1_17,2021-11-12T11:22:54.179Z,,,,,,,,,,,,,,,,11,,,,,,,,,,,,,,423.52999995232676,,response,,,4,E,,,,,Space,keypress(Space),,,,lyrical,----- -- ---- --- -- --- -------- ------------ ---------- --<br>- ------- ------ --------- -- ------------ -- has ---- -----<br>------ ---- ---- ------ ------ ------- --- ----- ---------<br>---- --- -------- -------- --- --- -- ------- --- --- -----<br>-- --- ------ ------- --- --- -------- ---- --------- --<br>---------- -- -------- ----------------,191465.69999998808,191464.79999995232,191024.598,191034,191041.27,191474.601,,17,has
screen,html.Screen,0_4_1_0_1_18,2021-11-12T11:22:54.603Z,,,,,,,,,,,,,,,,11,,,,,,,,,,,,,,414.59899998808396,,response,,,4,E,,,,,Space,keypress(Space),,,,lyrical,----- -- ---- --- -- --- -------- ------------ ---------- --<br>- ------- ------ --------- -- ------------ -- --- been -----<br>------ ---- ---- ------ ------ ------- --- ----- ---------<br>---- --- -------- -------- --- --- -- ------- --- --- -----<br>-- --- ------ ------- --- --- -------- ---- --------- --<br>---------- -- -------- ----------------,191890,191889.19999998808,191457.931,191466,191474.601,191891.438,,18,been
screen,html.Screen,0_4_1_0_1_19,2021-11-12T11:22:55.147Z,,,,,,,,,,,,,,,,11,,,,,,,,,,,,,,541.3619999523216,,response,,,4,E,,,,,Space,keypress(Space),,,,lyrical,----- -- ---- --- -- --- -------- ------------ ---------- --<br>- ------- ------ --------- -- ------------ -- --- ---- found<br>------ ---- ---- ------ ------ ------- --- ----- ---------<br>---- --- -------- -------- --- --- -- ------- --- --- -----<br>-- --- ------ ------- --- --- -------- ---- --------- --<br>---------- -- -------- ----------------,192433.59999996424,192432.79999995232,191874.767,191890.29999995232,191891.438,192441.367,,19,found
screen,html.Screen,0_4_1_0_1_20,2021-11-12T11:22:55.747Z,,,,,,,,,,,,,,,,11,,,,,,,,,,,,,,591.3329999880807,,response,,,4,E,,,,,Space,keypress(Space),,,,lyrical,----- -- ---- --- -- --- -------- ------------ ---------- --<br>- ------- ------ --------- -- ------------ -- --- ---- -----<br>carved ---- ---- ------ ------ ------- --- ----- ---------<br>---- --- -------- -------- --- --- -- ------- --- --- -----<br>-- --- ------ ------- --- --- -------- ---- --------- --<br>---------- -- -------- ----------------,193033.69999998808,193032.69999998808,192424.699,192433.79999995232,192441.367,193041.792,,20,carved
screen,html.Screen,0_4_1_0_1_21,2021-11-12T11:22:56.371Z,,,,,,,,,,,,,,,,11,,,,,,,,,,,,,,614.8079999642505,,response,,,4,E,,,,,Space,keypress(Space),,,,lyrical,----- -- ---- --- -- --- -------- ------------ ---------- --<br>- ------- ------ --------- -- ------------ -- --- ---- -----<br>------ into ---- ------ ------ ------- --- ----- ---------<br>---- --- -------- -------- --- --- -- ------- --- --- -----<br>-- --- ------ ------- --- --- -------- ---- --------- --<br>---------- -- -------- ----------------,193657.5,193656.59999996424,193025.12,193034,193041.792,193675.15,,21,into
screen,html.Screen,0_4_1_0_1_22,2021-11-12T11:22:56.867Z,,,,,,,,,,,,,,,,11,,,,,,,,,,,,,,477.5499999880849,,response,,,4,E,,,,,Space,keypress(Space),,,,lyrical,----- -- ---- --- -- --- -------- ------------ ---------- --<br>- ------- ------ --------- -- ------------ -- --- ---- -----<br>------ ---- many ------ ------ ------- --- ----- ---------<br>---- --- -------- -------- --- --- -- ------- --- --- -----<br>-- --- ------ ------- --- --- -------- ---- --------- --<br>---------- -- -------- ----------------,194153.5,194152.69999998808,193658.48,193657.69999998808,193675.15,194158.649,,22,many
screen,html.Screen,0_4_1_0_1_23,2021-11-12T11:22:57.347Z,,,,,,,,,,,,,,,,11,,,,,,,,,,,,,,473.9509999642323,,response,,,4,E,,,,,Space,keypress(Space),,,,lyrical,----- -- ---- --- -- --- -------- ------------ ---------- --<br>- ------- ------ --------- -- ------------ -- --- ---- -----<br>------ ---- ---- oblong ------ ------- --- ----- ---------<br>---- --- -------- -------- --- --- -- ------- --- --- -----<br>-- --- ------ ------- --- --- -------- ---- --------- --<br>---------- -- -------- ----------------,194633.5,194632.59999996424,194141.979,194153.79999995232,194158.649,194642.073,,23,oblong
screen,html.Screen,0_4_1_0_1_24,2021-11-12T11:22:57.891Z,,,,,,,,,,,,,,,,11,,,,,,,,,,,,,,534.6269999880751,,response,,,4,E,,,,,Space,keypress(Space),,,,lyrical,----- -- ---- --- -- --- -------- ------------ ---------- --<br>- ------- ------ --------- -- ------------ -- --- ---- -----<br>------ ---- ---- ------ wooden ------- --- ----- ---------<br>---- --- -------- -------- --- --- -- ------- --- --- -----<br>-- --- ------ ------- --- --- -------- ---- --------- --<br>---------- -- -------- ----------------,195177.5,195176.69999998808,194625.403,194633.69999998808,194642.073,195192.278,,24,wooden
screen,html.Screen,0_4_1_0_1_25,2021-11-12T11:22:58.322Z,,,,,,,,,,,,,,,,11,,,,,,,,,,,,,,416.22200000000885,,response,,,4,E,,,,,Space,keypress(Space),,,,lyrical,----- -- ---- --- -- --- -------- ------------ ---------- --<br>- ------- ------ --------- -- ------------ -- --- ---- -----<br>------ ---- ---- ------ ------ tablets --- ----- ---------<br>---- --- -------- -------- --- --- -- ------- --- --- -----<br>-- --- ------ ------- --- --- -------- ---- --------- --<br>---------- -- -------- ----------------,195609.29999995232,195608.5,195175.607,195177.69999998808,195192.278,195625.6,,25,tablets
screen,html.Screen,0_4_1_0_1_26,2021-11-12T11:22:58.826Z,,,,,,,,,,,,,,,,11,,,,,,,,,,,,,,486.9999999642314,,response,,,4,E,,,,,Space,keypress(Space),,,,lyrical,----- -- ---- --- -- --- -------- ------------ ---------- --<br>- ------- ------ --------- -- ------------ -- --- ---- -----<br>------ ---- ---- ------ ------ ------- and ----- ---------<br>---- --- -------- -------- --- --- -- ------- --- --- -----<br>-- --- ------ ------- --- --- -------- ---- --------- --<br>---------- -- -------- ----------------,196113.39999997616,196112.59999996424,195608.931,195609.59999996424,195625.6,196125.769,,26,and
screen,html.Screen,0_4_1_0_1_27,2021-11-12T11:22:59.306Z,,,,,,,,,,,,,,,,11,,,,,,,,,,,,,,466.830999964237,,response,,,4,E,,,,,Space,keypress(Space),,,,lyrical,----- -- ---- --- -- --- -------- ------------ ---------- --<br>- ------- ------ --------- -- ------------ -- --- ---- -----<br>------ ---- ---- ------ ------ ------- --- other ---------<br>---- --- -------- -------- --- --- -- ------- --- --- -----<br>-- --- ------ ------- --- --- -------- ---- --------- --<br>---------- -- -------- ----------------,196593.39999997616,196592.59999996424,196109.099,196113.69999998808,196125.769,196609.235,,27,other
screen,html.Screen,0_4_1_0_1_28,2021-11-12T11:22:59.746Z,,,,,,,,,,,,,,,,11,,,,,,,,,,,,,,423.3649999642512,,response,,,4,E,,,,,Space,keypress(Space),,,,lyrical,----- -- ---- --- -- --- -------- ------------ ---------- --<br>- ------- ------ --------- -- ------------ -- --- ---- -----<br>------ ---- ---- ------ ------ ------- --- ----- artifacts<br>---- --- -------- -------- --- --- -- ------- --- --- -----<br>-- --- ------ ------- --- --- -------- ---- --------- --<br>---------- -- -------- ----------------,197033.29999995232,197032.59999996424,196592.565,196593.59999996424,196609.235,197042.809,,28,artifacts
screen,html.Screen,0_4_1_0_1_29,2021-11-12T11:23:00.354Z,,,,,,,,,,,,,,,,11,,,,,,,,,,,,,,597.6909999999916,,response,,,4,E,,,,,Space,keypress(Space),,,,lyrical,----- -- ---- --- -- --- -------- ------------ ---------- --<br>- ------- ------ --------- -- ------------ -- --- ---- -----<br>------ ---- ---- ------ ------ ------- --- ----- ---------<br>from --- -------- -------- --- --- -- ------- --- --- -----<br>-- --- ------ ------- --- --- -------- ---- --------- --<br>---------- -- -------- ----------------,197641.29999995232,197640.5,197026.137,197033.5,197042.809,197642.846,,29,from
screen,html.Screen,0_4_1_0_1_30,2021-11-12T11:23:00.898Z,,,,,,,,,,,,,,,,11,,,,,,,,,,,,,,541.5539999761677,,response,,,4,E,,,,,Space,keypress(Space),,,,lyrical,----- -- ---- --- -- --- -------- ------------ ---------- --<br>- ------- ------ --------- -- ------------ -- --- ---- -----<br>------ ---- ---- ------ ------ ------- --- ----- ---------<br>---- the -------- -------- --- --- -- ------- --- --- -----<br>-- --- ------ ------- --- --- -------- ---- --------- --<br>---------- -- -------- ----------------,198185.29999995232,198184.39999997616,197626.176,197641.5,197642.846,198193.014,,30,the
screen,html.Screen,0_4_1_0_1_31,2021-11-12T11:23:01.570Z,,,,,,,,,,,,,,,,11,,,,,,,,,,,,,,663.3859999761626,,response,,,4,E,,,,,Space,keypress(Space),,,,lyrical,----- -- ---- --- -- --- -------- ------------ ---------- --<br>- ------- ------ --------- -- ------------ -- --- ---- -----<br>------ ---- ---- ------ ------ ------- --- ----- ---------<br>---- --- island's -------- --- --- -- ------- --- --- -----<br>-- --- ------ ------- --- --- -------- ---- --------- --<br>---------- -- -------- ----------------,198857.19999998808,198856.39999997616,198176.344,198185.59999996424,198193.014,198859.804,,31,island's
screen,html.Screen,0_4_1_0_1_32,2021-11-12T11:23:02.258Z,,,,,,,,,,,,,,,,11,,,,,,,,,,,,,,684.5959999761544,,response,,,4,E,,,,,Space,keypress(Space),,,,lyrical,----- -- ---- --- -- --- -------- ------------ ---------- --<br>- ------- ------ --------- -- ------------ -- --- ---- -----<br>------ ---- ---- ------ ------ ------- --- ----- ---------<br>---- --- -------- history. --- --- -- ------- --- --- -----<br>-- --- ------ ------- --- --- -------- ---- --------- --<br>---------- -- -------- ----------------,199545.19999998808,199544.39999997616,198843.134,198857.39999997616,198859.804,199560.008,,32,history.
screen,html.Screen,0_4_1_0_1_33,2021-11-12T11:23:02.730Z,,,,,,,,,,,,,,,,11,,,,,,,,,,,,,,456.3919999761565,,response,,,4,E,,,,,Space,keypress(Space),,,,lyrical,----- -- ---- --- -- --- -------- ------------ ---------- --<br>- ------- ------ --------- -- ------------ -- --- ---- -----<br>------ ---- ---- ------ ------ ------- --- ----- ---------<br>---- --- -------- -------- The --- -- ------- --- --- -----<br>-- --- ------ ------- --- --- -------- ---- --------- --<br>---------- -- -------- ----------------,200017.19999998808,200016.39999997616,199543.338,199545.39999997616,199560.008,200026.764,,33,The
screen,html.Screen,0_4_1_0_1_34,2021-11-12T11:23:03.538Z,,,,,,,,,,,,,,,,11,,,,,,,,,,,,,,797.5359999523207,,response,,,4,E,,,,,Space,keypress(Space),,,,lyrical,----- -- ---- --- -- --- -------- ------------ ---------- --<br>- ------- ------ --------- -- ------------ -- --- ---- -----<br>------ ---- ---- ------ ------ ------- --- ----- ---------<br>---- --- -------- -------- --- art -- ------- --- --- -----<br>-- --- ------ ------- --- --- -------- ---- --------- --<br>---------- -- -------- ----------------,200825.09999996424,200824.29999995232,200010.094,200017.39999997616,200026.764,200826.954,,34,art
screen,html.Screen,0_4_1_0_1_35,2021-11-12T11:23:04.042Z,,,,,,,,,,,,,,,,11,,,,,,,,,,,,,,501.24599998808117,,response,,,4,E,,,,,Space,keypress(Space),,,,lyrical,----- -- ---- --- -- --- -------- ------------ ---------- --<br>- ------- ------ --------- -- ------------ -- --- ---- -----<br>------ ---- ---- ------ ------ ------- --- ----- ---------<br>---- --- -------- -------- --- --- of ------- --- --- -----<br>-- --- ------ ------- --- --- -------- ---- --------- --<br>---------- -- -------- ----------------,201329.09999996424,201328.19999998808,200810.284,200825.39999997616,200826.954,201343.943,,35,of
screen,html.Screen,0_4_1_0_1_36,2021-11-12T11:23:04.763Z,,,,,,,,,,,,,,,,11,,,,,,,,,,,,,,704.6569999642379,,response,,,4,E,,,,,Space,keypress(Space),,,,lyrical,----- -- ---- --- -- --- -------- ------------ ---------- --<br>- ------- ------ --------- -- ------------ -- --- ---- -----<br>------ ---- ---- ------ ------ ------- --- ----- ---------<br>---- --- -------- -------- --- --- -- writing --- --- -----<br>-- --- ------ ------- --- --- -------- ---- --------- --<br>---------- -- -------- ----------------,202049.5,202048.59999996424,201327.271,201329.29999995232,201343.943,202060.662,,36,writing
screen,html.Screen,0_4_1_0_1_37,2021-11-12T11:23:05.162Z,,,,,,,,,,,,,,,,11,,,,,,,,,,,,,,387.43799996422604,,response,,,4,E,,,,,Space,keypress(Space),,,,lyrical,----- -- ---- --- -- --- -------- ------------ ---------- --<br>- ------- ------ --------- -- ------------ -- --- ---- -----<br>------ ---- ---- ------ ------ ------- --- ----- ---------<br>---- --- -------- -------- --- --- -- ------- was --- -----<br>-- --- ------ ------- --- --- -------- ---- --------- --<br>---------- -- -------- ----------------,202449,202448.09999996424,202043.992,202049.69999998808,202060.662,202460.788,,37,was
screen,html.Screen,0_4_1_0_1_38,2021-11-12T11:23:05.610Z,,,,,,,,,,,,,,,,11,,,,,,,,,,,,,,435.4119999880786,,response,,,4,E,,,,,Space,keypress(Space),,,,lyrical,----- -- ---- --- -- --- -------- ------------ ---------- --<br>- ------- ------ --------- -- ------------ -- --- ---- -----<br>------ ---- ---- ------ ------ ------- --- ----- ---------<br>---- --- -------- -------- --- --- -- ------- --- not -----<br>-- --- ------ ------- --- --- -------- ---- --------- --<br>---------- -- -------- ----------------,202897,202896.19999998808,202444.118,202449.19999998808,202460.788,202910.799,,38,not
screen,html.Screen,0_4_1_0_1_39,2021-11-12T11:23:06.034Z,,,,,,,,,,,,,,,,11,,,,,,,,,,,,,,409.30099996423814,,response,,,4,E,,,,,Space,keypress(Space),,,,lyrical,----- -- ---- --- -- --- -------- ------------ ---------- --<br>- ------- ------ --------- -- ------------ -- --- ---- -----<br>------ ---- ---- ------ ------ ------- --- ----- ---------<br>---- --- -------- -------- --- --- -- ------- --- --- known<br>-- --- ------ ------- --- --- -------- ---- --------- --<br>---------- -- -------- ----------------,203321,203320.09999996424,202894.13,202897.19999998808,202910.799,203327.628,,39,known
screen,html.Screen,0_4_1_0_1_40,2021-11-12T11:23:06.562Z,,,,,,,,,,,,,,,,11,,,,,,,,,,,,,,520.4719999642402,,response,,,4,E,,,,,Space,keypress(Space),,,,lyrical,----- -- ---- --- -- --- -------- ------------ ---------- --<br>- ------- ------ --------- -- ------------ -- --- ---- -----<br>------ ---- ---- ------ ------ ------- --- ----- ---------<br>---- --- -------- -------- --- --- -- ------- --- --- -----<br>in --- ------ ------- --- --- -------- ---- --------- --<br>---------- -- -------- ----------------,203848.89999997616,203848.09999996424,203310.958,203321.19999998808,203327.628,203861.064,,40,in
screen,html.Screen,0_4_1_0_1_41,2021-11-12T11:23:07.098Z,,,,,,,,,,,,,,,,11,,,,,,,,,,,,,,523.135999988066,,response,,,4,E,,,,,Space,keypress(Space),,,,lyrical,----- -- ---- --- -- --- -------- ------------ ---------- --<br>- ------- ------ --------- -- ------------ -- --- ---- -----<br>------ ---- ---- ------ ------ ------- --- ----- ---------<br>---- --- -------- -------- --- --- -- ------- --- --- -----<br>-- any ------ ------- --- --- -------- ---- --------- --<br>---------- -- -------- ----------------,204385,204384.19999998808,203844.394,203849.09999996424,203861.064,204394.639,,41,any
screen,html.Screen,0_4_1_0_1_42,2021-11-12T11:23:07.722Z,,,,,,,,,,,,,,,,11,,,,,,,,,,,,,,613.3610000000044,,response,,,4,E,,,,,Space,keypress(Space),,,,lyrical,----- -- ---- --- -- --- -------- ------------ ---------- --<br>- ------- ------ --------- -- ------------ -- --- ---- -----<br>------ ---- ---- ------ ------ ------- --- ----- ---------<br>---- --- -------- -------- --- --- -- ------- --- --- -----<br>-- --- nearby ------- --- --- -------- ---- --------- --<br>---------- -- -------- ----------------,205009,205008,204377.968,204385.09999996424,204394.639,205011.371,,42,nearby
screen,html.Screen,0_4_1_0_1_43,2021-11-12T11:23:08.114Z,,,,,,,,,,,,,,,,11,,,,,,,,,,,,,,388.7289999642235,,response,,,4,E,,,,,Space,keypress(Space),,,,lyrical,----- -- ---- --- -- --- -------- ------------ ---------- --<br>- ------- ------ --------- -- ------------ -- --- ---- -----<br>------ ---- ---- ------ ------ ------- --- ----- ---------<br>---- --- -------- -------- --- --- -- ------- --- --- -----<br>-- --- ------ islands --- --- -------- ---- --------- --<br>---------- -- -------- ----------------,205400.89999997616,205400.09999996424,204994.701,205009.09999996424,205011.371,205411.593,,43,islands
screen,html.Screen,0_4_1_0_1_44,2021-11-12T11:23:08.602Z,,,,,,,,,,,,,,,,11,,,,,,,,,,,,,,476.4070000000065,,response,,,4,E,,,,,Space,keypress(Space),,,,lyrical,----- -- ---- --- -- --- -------- ------------ ---------- --<br>- ------- ------ --------- -- ------------ -- --- ---- -----<br>------ ---- ---- ------ ------ ------- --- ----- ---------<br>---- --- -------- -------- --- --- -- ------- --- --- -----<br>-- --- ------ ------- and --- -------- ---- --------- --<br>---------- -- -------- ----------------,205888.79999995232,205888,205394.922,205401,205411.593,205895.036,,44,and
screen,html.Screen,0_4_1_0_1_45,2021-11-12T11:23:08.994Z,,,,,,,,,,,,,,,,11,,,,,,,,,,,,,,384.9640000000072,,response,,,4,E,,,,,Space,keypress(Space),,,,lyrical,----- -- ---- --- -- --- -------- ------------ ---------- --<br>- ------- ------ --------- -- ------------ -- --- ---- -----<br>------ ---- ---- ------ ------ ------- --- ----- ---------<br>---- --- -------- -------- --- --- -- ------- --- --- -----<br>-- --- ------ ------- --- the -------- ---- --------- --<br>---------- -- -------- ----------------,206280.79999995232,206280,205878.365,205889.09999996424,205895.036,206295.01,,45,the
screen,html.Screen,0_4_1_0_1_46,2021-11-12T11:23:09.466Z,,,,,,,,,,,,,,,,11,,,,,,,,,,,,,,456.9899999999907,,response,,,4,E,,,,,Space,keypress(Space),,,,lyrical,----- -- ---- --- -- --- -------- ------------ ---------- --<br>- ------- ------ --------- -- ------------ -- --- ---- -----<br>------ ---- ---- ------ ------ ------- --- ----- ---------<br>---- --- -------- -------- --- --- -- ------- --- --- -----<br>-- --- ------ ------- --- --- script's ---- --------- --<br>---------- -- -------- ----------------,206752.79999995232,206752,206278.341,206281.09999996424,206295.01,206761.83,,46,script's
screen,html.Screen,0_4_1_0_1_47,2021-11-12T11:23:09.914Z,,,,,,,,,,,,,,,,11,,,,,,,,,,,,,,438.1700000000128,,response,,,4,E,,,,,Space,keypress(Space),,,,lyrical,----- -- ---- --- -- --- -------- ------------ ---------- --<br>- ------- ------ --------- -- ------------ -- --- ---- -----<br>------ ---- ---- ------ ------ ------- --- ----- ---------<br>---- --- -------- -------- --- --- -- ------- --- --- -----<br>-- --- ------ ------- --- --- -------- mere --------- --<br>---------- -- -------- ----------------,207200.79999995232,207200,206745.16,206753,206761.83,207212.089,,47,mere
screen,html.Screen,0_4_1_0_1_48,2021-11-12T11:23:10.410Z,,,,,,,,,,,,,,,,11,,,,,,,,,,,,,,483.8109999761509,,response,,,4,E,,,,,Space,keypress(Space),,,,lyrical,----- -- ---- --- -- --- -------- ------------ ---------- --<br>- ------- ------ --------- -- ------------ -- --- ---- -----<br>------ ---- ---- ------ ------ ------- --- ----- ---------<br>---- --- -------- -------- --- --- -- ------- --- --- -----<br>-- --- ------ ------- --- --- -------- ---- existence --<br>---------- -- -------- ----------------,207696.79999995232,207695.89999997616,207195.417,207201,207212.089,207712.135,,48,existence
screen,html.Screen,0_4_1_0_1_49,2021-11-12T11:23:10.810Z,,,,,,,,,,,,,,,,11,,,,,,,,,,,,,,383.76499997614883,,response,,,4,E,,,,,Space,keypress(Space),,,,lyrical,----- -- ---- --- -- --- -------- ------------ ---------- --<br>- ------- ------ --------- -- ------------ -- --- ---- -----<br>------ ---- ---- ------ ------ ------- --- ----- ---------<br>---- --- -------- -------- --- --- -- ------- --- --- -----<br>-- --- ------ ------- --- --- -------- ---- --------- is<br>---------- -- -------- ----------------,208096.79999995232,208095.89999997616,207695.465,207697,207712.135,208112.245,,49,is
screen,html.Screen,0_4_1_0_1_50,2021-11-12T11:23:11.402Z,,,,,,,,,,,,,,,,11,,,,,,,,,,,,,,575.5549999523209,,response,,,4,E,,,,,Space,keypress(Space),,,,lyrical,----- -- ---- --- -- --- -------- ------------ ---------- --<br>- ------- ------ --------- -- ------------ -- --- ---- -----<br>------ ---- ---- ------ ------ ------- --- ----- ---------<br>---- --- -------- -------- --- --- -- ------- --- --- -----<br>-- --- ------ ------- --- --- -------- ---- --------- --<br>sufficient -- -------- ----------------,208688.59999996424,208687.79999995232,208095.575,208097,208112.245,208695.688,,50,sufficient
screen,html.Screen,0_4_1_0_1_51,2021-11-12T11:23:11.810Z,,,,,,,,,,,,,,,,11,,,,,,,,,,,,,,400.11199995232164,,response,,,4,E,,,,,Space,keypress(Space),,,,lyrical,----- -- ---- --- -- --- -------- ------------ ---------- --<br>- ------- ------ --------- -- ------------ -- --- ---- -----<br>------ ---- ---- ------ ------ ------- --- ----- ---------<br>---- --- -------- -------- --- --- -- ------- --- --- -----<br>-- --- ------ ------- --- --- -------- ---- --------- --<br>---------- to -------- ----------------,209096.69999998808,209095.79999995232,208679.018,208688.79999995232,208695.688,209112.36,,51,to
