sender,sender_type,sender_id,timestamp,meta,,Blues,Classical,Country,Dance,Electronic,Folk,Gospel,Hip-Hop,Jazz,Latin,Musical/Film,New-age,Pop,Provo_ID,R&B,Rap,Reggae,Religious,Rock,Soul,Swing,Traditional,age,artist_name,correct,correctResponse,distraction,duration,education,ended_on,familiarity,gender,item,list,music_frequency,offensiveness,pleasantness,preference,response,response_action,snippet_file,song_name,song_rating,sound,text,time_commit,time_end,time_render,time_run,time_show,time_switch,url,word,word_ID
Instructions,html.Page,0_0,2021-11-12T11:53:14.588Z,"{""labjs_version"":""20.2.3"",""labjs_build"":{""flavor"":""production"",""commit"":""7ea907d66ca8aeef8054924ca5d82ffbe11e34e5""},""location"":""https://run.pavlovia.org/mvasilev/lab_music_f/"",""userAgent"":""Mozilla/5.0 (Windows NT 6.1; Win64; x64) AppleWebKit/537.36 (KHTML, like Gecko) Chrome/95.0.4638.69 Safari/537.36"",""platform"":""Win32"",""language"":""en-US"",""locale"":""en-US"",""timeZone"":""Europe/London"",""timezoneOffset"":0,""screen_width"":1920,""screen_height"":1080,""scroll_width"":1920,""scroll_height"":959,""window_innerWidth"":1920,""window_innerHeight"":1007,""devicePixelRatio"":1}",,,,,,,,,,,,,,,,,,,,,,,,,,,,,11780.784999976158,,form submission,,,,,,,,,,,,,,,,21038.19999998808,21037.399999976158,9239.95,9252.5,9256.615,21039.591,{},,
Headphones,html.Page,0_1,2021-11-12T11:53:17.186Z,,,,,,,,,,,,,,,,,,,,,,,,,,,,,,2596.7090000119206,,form submission,,,,,,,,,,,,,,,,23636.599999964237,23636.30000001192,21022.919,21038.69999998808,21039.591,23639.124,,,
Holding screen,html.Screen,0_2_0_0,2021-11-12T11:53:27.176Z,,,,,,,,,,,,,,,,,,,,,,,,,,,,,,9999.437000000002,,timeout,,,,,,,,,,,,,,,,33626,33621.896,23622.459,23637,23639.124,33638.561,,,
screen,html.Screen,0_2_0_1_0,2021-11-12T11:53:27.981Z,,,,,,,,,,,,,,,,53,,,,,,,,,,,,,,791.3389999761566,,response,,,99,,,,,,Space,keypress(Space),,,,,When -- ----- -- ------ - ------- --- ----------<br>------------- ------ ------ ---- ---- ------- ----- -- ----<br>-------- ------- -- ---------- --- - --- ----- ----- ----<br>---- --- --- ----- --- ---- ---- ------- ----- ---- -------<br>--- --- -- ----- -- --- ---- -- --- ---- -- ------ ------<br>--- ----- -- ----,34431.09999996424,34429.89999997616,33621.896,33626.30000001192,33638.561,34438.508,,0,When
screen,html.Screen,0_2_0_1_1,2021-11-12T11:53:28.396Z,,,,,,,,,,,,,,,,53,,,,,,,,,,,,,,407.2920000119193,,response,,,99,,,,,,Space,keypress(Space),,,,,---- it ----- -- ------ - ------- --- ----------<br>------------- ------ ------ ---- ---- ------- ----- -- ----<br>-------- ------- -- ---------- --- - --- ----- ----- ----<br>---- --- --- ----- --- ---- ---- ------- ----- ---- -------<br>--- --- -- ----- -- --- ---- -- --- ---- -- ------ ------<br>--- ----- -- ----,34846.5,34845.80000001192,34421.843,34431.30000001192,34438.508,34855.254,,1,it
screen,html.Screen,0_2_0_1_2,2021-11-12T11:53:28.836Z,,,,,,,,,,,,,,,,53,,,,,,,,,,,,,,430.5460000119201,,response,,,99,,,,,,Space,keypress(Space),,,,,---- -- comes -- ------ - ------- --- ----------<br>------------- ------ ------ ---- ---- ------- ----- -- ----<br>-------- ------- -- ---------- --- - --- ----- ----- ----<br>---- --- --- ----- --- ---- ---- ------- ----- ---- -------<br>--- --- -- ----- -- --- ---- -- --- ---- -- ------ ------<br>--- ----- -- ----,35286.5,35285.80000001192,34838.588,34846.59999996424,34855.254,35288.453,,2,comes
screen,html.Screen,0_2_0_1_3,2021-11-12T11:53:29.252Z,,,,,,,,,,,,,,,,53,,,,,,,,,,,,,,413.3470000119196,,response,,,99,,,,,,Space,keypress(Space),,,,,---- -- ----- to ------ - ------- --- ----------<br>------------- ------ ------ ---- ---- ------- ----- -- ----<br>-------- ------- -- ---------- --- - --- ----- ----- ----<br>---- --- --- ----- --- ---- ---- ------- ----- ---- -------<br>--- --- -- ----- -- --- ---- -- --- ---- -- ------ ------<br>--- ----- -- ----,35702.5,35701.80000001192,35271.789,35286.59999996424,35288.453,35705.15,,3,to
screen,html.Screen,0_2_0_1_4,2021-11-12T11:53:29.724Z,,,,,,,,,,,,,,,,53,,,,,,,,,,,,,,468.6500000119195,,response,,,99,,,,,,Space,keypress(Space),,,,,---- -- ----- -- having - ------- --- ----------<br>------------- ------ ------ ---- ---- ------- ----- -- ----<br>-------- ------- -- ---------- --- - --- ----- ----- ----<br>---- --- --- ----- --- ---- ---- ------- ----- ---- -------<br>--- --- -- ----- -- --- ---- -- --- ---- -- ------ ------<br>--- ----- -- ----,36174.69999998808,36173.80000001192,35688.485,35702.80000001192,35705.15,36188.423,,4,having
screen,html.Screen,0_2_0_1_5,2021-11-12T11:53:30.156Z,,,,,,,,,,,,,,,,53,,,,,,,,,,,,,,417.27699998807657,,response,,,99,,,,,,Space,keypress(Space),,,,,---- -- ----- -- ------ a ------- --- ----------<br>------------- ------ ------ ---- ---- ------- ----- -- ----<br>-------- ------- -- ---------- --- - --- ----- ----- ----<br>---- --- --- ----- --- ---- ---- ------- ----- ---- -------<br>--- --- -- ----- -- --- ---- -- --- ---- -- ------ ------<br>--- ----- -- ----,36606.39999997616,36605.69999998808,36171.758,36174.80000001192,36188.423,36621.792,,5,a
screen,html.Screen,0_2_0_1_6,2021-11-12T11:53:30.612Z,,,,,,,,,,,,,,,,53,,,,,,,,,,,,,,439.9079999880778,,response,,,99,,,,,,Space,keypress(Space),,,,,---- -- ----- -- ------ - lasting --- ----------<br>------------- ------ ------ ---- ---- ------- ----- -- ----<br>-------- ------- -- ---------- --- - --- ----- ----- ----<br>---- --- --- ----- --- ---- ---- ------- ----- ---- -------<br>--- --- -- ----- -- --- ---- -- --- ---- -- ------ ------<br>--- ----- -- ----,37062.39999997616,37061.69999998808,36605.126,36606.69999998808,36621.792,37071.642,,6,lasting
screen,html.Screen,0_2_0_1_7,2021-11-12T11:53:31.092Z,,,,,,,,,,,,,,,,53,,,,,,,,,,,,,,470.05799998807925,,response,,,99,,,,,,Space,keypress(Space),,,,,---- -- ----- -- ------ - ------- and ----------<br>------------- ------ ------ ---- ---- ------- ----- -- ----<br>-------- ------- -- ---------- --- - --- ----- ----- ----<br>---- --- --- ----- --- ---- ---- ------- ----- ---- -------<br>--- --- -- ----- -- --- ---- -- --- ---- -- ------ ------<br>--- ----- -- ----,37542.39999997616,37541.69999998808,37054.978,37062.59999996424,37071.642,37555.086,,7,and
screen,html.Screen,0_2_0_1_8,2021-11-12T11:53:31.604Z,,,,,,,,,,,,,,,,53,,,,,,,,,,,,,,498.6139999880761,,response,,,99,,,,,,Space,keypress(Space),,,,,---- -- ----- -- ------ - ------- --- fulfilling<br>------------- ------ ------ ---- ---- ------- ----- -- ----<br>-------- ------- -- ---------- --- - --- ----- ----- ----<br>---- --- --- ----- --- ---- ---- ------- ----- ---- -------<br>--- --- -- ----- -- --- ---- -- --- ---- -- ------ ------<br>--- ----- -- ----,38054.5,38053.69999998808,37538.42,37542.59999996424,37555.086,38071.66,,8,fulfilling
screen,html.Screen,0_2_0_1_9,2021-11-12T11:53:32.036Z,,,,,,,,,,,,,,,,53,,,,,,,,,,,,,,413.9399999642337,,response,,,99,,,,,,Space,keypress(Space),,,,,"---- -- ----- -- ------ - ------- --- ----------<br>relationship, ------ ------ ---- ---- ------- ----- -- ----<br>-------- ------- -- ---------- --- - --- ----- ----- ----<br>---- --- --- ----- --- ---- ---- ------- ----- ---- -------<br>--- --- -- ----- -- --- ---- -- --- ---- -- ------ ------<br>--- ----- -- ----",38486.39999997616,38485.59999996424,38054.995,38054.80000001192,38071.66,38488.304,,9,"relationship,"
screen,html.Screen,0_2_0_1_10,2021-11-12T11:53:32.532Z,,,,,,,,,,,,,,,,53,,,,,,,,,,,,,,493.29599996424076,,response,,,99,,,,,,Space,keypress(Space),,,,,---- -- ----- -- ------ - ------- --- ----------<br>------------- common ------ ---- ---- ------- ----- -- ----<br>-------- ------- -- ---------- --- - --- ----- ----- ----<br>---- --- --- ----- --- ---- ---- ------- ----- ---- -------<br>--- --- -- ----- -- --- ---- -- --- ---- -- ------ ------<br>--- ----- -- ----,38982.30000001192,38981.59999996424,38471.639,38486.5,38488.304,38988.272,,10,common
screen,html.Screen,0_2_0_1_11,2021-11-12T11:53:33.004Z,,,,,,,,,,,,,,,,53,,,,,,,,,,,,,,465.32799996424,,response,,,99,,,,,,Space,keypress(Space),,,,,---- -- ----- -- ------ - ------- --- ----------<br>------------- ------ wisdom ---- ---- ------- ----- -- ----<br>-------- ------- -- ---------- --- - --- ----- ----- ----<br>---- --- --- ----- --- ---- ---- ------- ----- ---- -------<br>--- --- -- ----- -- --- ---- -- --- ---- -- ------ ------<br>--- ----- -- ----,39454.19999998808,39453.59999996424,38971.607,38982.39999997616,38988.272,39454.891,,11,wisdom
screen,html.Screen,0_2_0_1_12,2021-11-12T11:53:33.396Z,,,,,,,,,,,,,,,,53,,,,,,,,,,,,,,390.60899999999674,,response,,,99,,,,,,Space,keypress(Space),,,,,---- -- ----- -- ------ - ------- --- ----------<br>------------- ------ ------ says ---- ------- ----- -- ----<br>-------- ------- -- ---------- --- - --- ----- ----- ----<br>---- --- --- ----- --- ---- ---- ------- ----- ---- -------<br>--- --- -- ----- -- --- ---- -- --- ---- -- ------ ------<br>--- ----- -- ----,39846.09999996424,39845.5,39438.226,39454.39999997616,39454.891,39854.888,,12,says
screen,html.Screen,0_2_0_1_13,2021-11-12T11:53:33.892Z,,,,,,,,,,,,,,,,53,,,,,,,,,,,,,,486.612000000001,,response,,,99,,,,,,Space,keypress(Space),,,,,---- -- ----- -- ------ - ------- --- ----------<br>------------- ------ ------ ---- that ------- ----- -- ----<br>-------- ------- -- ---------- --- - --- ----- ----- ----<br>---- --- --- ----- --- ---- ---- ------- ----- ---- -------<br>--- --- -- ----- -- --- ---- -- --- ---- -- ------ ------<br>--- ----- -- ----,40342.19999998808,40341.5,39838.223,39846.30000001192,39854.888,40354.863,,13,that
screen,html.Screen,0_2_0_1_14,2021-11-12T11:53:34.372Z,,,,,,,,,,,,,,,,53,,,,,,,,,,,,,,466.63700000000244,,response,,,99,,,,,,Space,keypress(Space),,,,,---- -- ----- -- ------ - ------- --- ----------<br>------------- ------ ------ ---- ---- feeling ----- -- ----<br>-------- ------- -- ---------- --- - --- ----- ----- ----<br>---- --- --- ----- --- ---- ---- ------- ----- ---- -------<br>--- --- -- ----- -- --- ---- -- --- ---- -- ------ ------<br>--- ----- -- ----,40822.09999996424,40821.5,40338.198,40342.39999997616,40354.863,40838.158,,14,feeling
screen,html.Screen,0_2_0_1_15,2021-11-12T11:53:34.780Z,,,,,,,,,,,,,,,,53,,,,,,,,,,,,,,391.3419999999969,,response,,,99,,,,,,Space,keypress(Space),,,,,---- -- ----- -- ------ - ------- --- ----------<br>------------- ------ ------ ---- ---- ------- close -- ----<br>-------- ------- -- ---------- --- - --- ----- ----- ----<br>---- --- --- ----- --- ---- ---- ------- ----- ---- -------<br>--- --- -- ----- -- --- ---- -- --- ---- -- ------ ------<br>--- ----- -- ----,41230.09999996424,41229.5,40821.493,40822.19999998808,40838.158,41238.137,,15,close
screen,html.Screen,0_2_0_1_16,2021-11-12T11:53:35.156Z,,,,,,,,,,,,,,,,53,,,,,,,,,,,,,,367.36299999999756,,response,,,99,,,,,,Space,keypress(Space),,,,,---- -- ----- -- ------ - ------- --- ----------<br>------------- ------ ------ ---- ---- ------- ----- to ----<br>-------- ------- -- ---------- --- - --- ----- ----- ----<br>---- --- --- ----- --- ---- ---- ------- ----- ---- -------<br>--- --- -- ----- -- --- ---- -- --- ---- -- ------ ------<br>--- ----- -- ----,41606.09999996424,41605.5,41221.472,41230.19999998808,41238.137,41621.432,,16,to
screen,html.Screen,0_2_0_1_17,2021-11-12T11:53:35.588Z,,,,,,,,,,,,,,,,53,,,,,,,,,,,,,,415.96799997615744,,response,,,99,,,,,,Space,keypress(Space),,,,,---- -- ----- -- ------ - ------- --- ----------<br>------------- ------ ------ ---- ---- ------- ----- -- your<br>-------- ------- -- ---------- --- - --- ----- ----- ----<br>---- --- --- ----- --- ---- ---- ------- ----- ---- -------<br>--- --- -- ----- -- --- ---- -- --- ---- -- ------ ------<br>--- ----- -- ----,42038,42037.39999997616,41604.767,41606.30000001192,41621.432,42054.742,,17,your
screen,html.Screen,0_2_0_1_18,2021-11-12T11:53:35.987Z,,,,,,,,,,,,,,,,53,,,,,,,,,,,,,,382.6579999761598,,response,,,99,,,,,,Space,keypress(Space),,,,,---- -- ----- -- ------ - ------- --- ----------<br>------------- ------ ------ ---- ---- ------- ----- -- ----<br>romantic ------- -- ---------- --- - --- ----- ----- ----<br>---- --- --- ----- --- ---- ---- ------- ----- ---- -------<br>--- --- -- ----- -- --- ---- -- --- ---- -- ------ ------<br>--- ----- -- ----,42437.89999997616,42437.39999997616,42038.077,42038.09999996424,42054.742,42454.769,,18,romantic
screen,html.Screen,0_2_0_1_19,2021-11-12T11:53:36.412Z,,,,,,,,,,,,,,,,53,,,,,,,,,,,,,,406.73099999999977,,response,,,99,,,,,,Space,keypress(Space),,,,,---- -- ----- -- ------ - ------- --- ----------<br>------------- ------ ------ ---- ---- ------- ----- -- ----<br>-------- partner -- ---------- --- - --- ----- ----- ----<br>---- --- --- ----- --- ---- ---- ------- ----- ---- -------<br>--- --- -- ----- -- --- ---- -- --- ---- -- ------ ------<br>--- ----- -- ----,42862.09999996424,42861.5,42438.103,42438.09999996424,42454.769,42871.32,,19,partner
screen,html.Screen,0_2_0_1_20,2021-11-12T11:53:36.811Z,,,,,,,,,,,,,,,,53,,,,,,,,,,,,,,389.9800000119212,,response,,,99,,,,,,Space,keypress(Space),,,,,---- -- ----- -- ------ - ------- --- ----------<br>------------- ------ ------ ---- ---- ------- ----- -- ----<br>-------- ------- is ---------- --- - --- ----- ----- ----<br>---- --- --- ----- --- ---- ---- ------- ----- ---- -------<br>--- --- -- ----- -- --- ---- -- --- ---- -- ------ ------<br>--- ----- -- ----,43261.80000001192,43261.30000001192,42854.656,42862.30000001192,42871.32,43271.335,,20,is
screen,html.Screen,0_2_0_1_21,2021-11-12T11:53:37.251Z,,,,,,,,,,,,,,,,53,,,,,,,,,,,,,,429.9650000119218,,response,,,99,,,,,,Space,keypress(Space),,,,,---- -- ----- -- ------ - ------- --- ----------<br>------------- ------ ------ ---- ---- ------- ----- -- ----<br>-------- ------- -- paramount. --- - --- ----- ----- ----<br>---- --- --- ----- --- ---- ---- ------- ----- ---- -------<br>--- --- -- ----- -- --- ---- -- --- ---- -- ------ ------<br>--- ----- -- ----,43701.89999997616,43701.30000001192,43254.67,43262,43271.335,43704.708,,21,paramount.
screen,html.Screen,0_2_0_1_22,2021-11-12T11:53:37.643Z,,,,,,,,,,,,,,,,53,,,,,,,,,,,,,,388.5920000119222,,response,,,99,,,,,,Space,keypress(Space),,,,,---- -- ----- -- ------ - ------- --- ----------<br>------------- ------ ------ ---- ---- ------- ----- -- ----<br>-------- ------- -- ---------- But - --- ----- ----- ----<br>---- --- --- ----- --- ---- ---- ------- ----- ---- -------<br>--- --- -- ----- -- --- ---- -- --- ---- -- ------ ------<br>--- ----- -- ----,44093.89999997616,44093.30000001192,43688.042,43702.19999998808,43704.708,44104.64,,22,But
screen,html.Screen,0_2_0_1_23,2021-11-12T11:53:38.027Z,,,,,,,,,,,,,,,,53,,,,,,,,,,,,,,372.55999998807965,,response,,,99,,,,,,Space,keypress(Space),,,,,---- -- ----- -- ------ - ------- --- ----------<br>------------- ------ ------ ---- ---- ------- ----- -- ----<br>-------- ------- -- ---------- --- a --- ----- ----- ----<br>---- --- --- ----- --- ---- ---- ------- ----- ---- -------<br>--- --- -- ----- -- --- ---- -- --- ---- -- ------ ------<br>--- ----- -- ----,44477.80000001192,44477.19999998808,44087.975,44094.09999996424,44104.64,44487.933,,23,a
screen,html.Screen,0_2_0_1_24,2021-11-12T11:53:38.427Z,,,,,,,,,,,,,,,,53,,,,,,,,,,,,,,389.2669999880818,,response,,,99,,,,,,Space,keypress(Space),,,,,---- -- ----- -- ------ - ------- --- ----------<br>------------- ------ ------ ---- ---- ------- ----- -- ----<br>-------- ------- -- ---------- --- - new ----- ----- ----<br>---- --- --- ----- --- ---- ---- ------- ----- ---- -------<br>--- --- -- ----- -- --- ---- -- --- ---- -- ------ ------<br>--- ----- -- ----,44877.80000001192,44877.19999998808,44471.268,44478,44487.933,44887.843,,24,new
screen,html.Screen,0_2_0_1_25,2021-11-12T11:53:38.843Z,,,,,,,,,,,,,,,,53,,,,,,,,,,,,,,405.3569999880783,,response,,,99,,,,,,Space,keypress(Space),,,,,---- -- ----- -- ------ - ------- --- ----------<br>------------- ------ ------ ---- ---- ------- ----- -- ----<br>-------- ------- -- ---------- --- - --- study ----- ----<br>---- --- --- ----- --- ---- ---- ------- ----- ---- -------<br>--- --- -- ----- -- --- ---- -- --- ---- -- ------ ------<br>--- ----- -- ----,45293.80000001192,45293.19999998808,44871.179,44878,44887.843,45304.589,,25,study
screen,html.Screen,0_2_0_1_26,2021-11-12T11:53:39.291Z,,,,,,,,,,,,,,,,53,,,,,,,,,,,,,,436.61099998807913,,response,,,99,,,,,,Space,keypress(Space),,,,,---- -- ----- -- ------ - ------- --- ----------<br>------------- ------ ------ ---- ---- ------- ----- -- ----<br>-------- ------- -- ---------- --- - --- ----- finds ----<br>---- --- --- ----- --- ---- ---- ------- ----- ---- -------<br>--- --- -- ----- -- --- ---- -- --- ---- -- ------ ------<br>--- ----- -- ----,45741.80000001192,45741.19999998808,45287.923,45294,45304.589,45754.523,,26,finds
screen,html.Screen,0_2_0_1_27,2021-11-12T11:53:39.787Z,,,,,,,,,,,,,,,,53,,,,,,,,,,,,,,482.676999988078,,response,,,99,,,,,,Space,keypress(Space),,,,,---- -- ----- -- ------ - ------- --- ----------<br>------------- ------ ------ ---- ---- ------- ----- -- ----<br>-------- ------- -- ---------- --- - --- ----- ----- that<br>---- --- --- ----- --- ---- ---- ------- ----- ---- -------<br>--- --- -- ----- -- --- ---- -- --- ---- -- ------ ------<br>--- ----- -- ----,46237.69999998808,46237.19999998808,45737.858,45742,45754.523,46254.467,,27,that
screen,html.Screen,0_2_0_1_28,2021-11-12T11:53:40.235Z,,,,,,,,,,,,,,,,53,,,,,,,,,,,,,,430.6329999642403,,response,,,99,,,,,,Space,keypress(Space),,,,,---- -- ----- -- ------ - ------- --- ----------<br>------------- ------ ------ ---- ---- ------- ----- -- ----<br>-------- ------- -- ---------- --- - --- ----- ----- ----<br>it's --- --- ----- --- ---- ---- ------- ----- ---- -------<br>--- --- -- ----- -- --- ---- -- --- ---- -- ------ ------<br>--- ----- -- ----,46685.69999998808,46685.09999996424,46237.802,46238,46254.467,46687.833,,28,it's
screen,html.Screen,0_2_0_1_29,2021-11-12T11:53:40.619Z,,,,,,,,,,,,,,,,53,,,,,,,,,,,,,,381.2669999642385,,response,,,99,,,,,,Space,keypress(Space),,,,,---- -- ----- -- ------ - ------- --- ----------<br>------------- ------ ------ ---- ---- ------- ----- -- ----<br>-------- ------- -- ---------- --- - --- ----- ----- ----<br>---- not --- ----- --- ---- ---- ------- ----- ---- -------<br>--- --- -- ----- -- --- ---- -- --- ---- -- ------ ------<br>--- ----- -- ----,47069.69999998808,47069.09999996424,46671.167,46685.89999997616,46687.833,47071.104,,29,not
screen,html.Screen,0_2_0_1_30,2021-11-12T11:53:41.147Z,,,,,,,,,,,,,,,,53,,,,,,,,,,,,,,525.9959999642379,,response,,,99,,,,,,Space,keypress(Space),,,,,---- -- ----- -- ------ - ------- --- ----------<br>------------- ------ ------ ---- ---- ------- ----- -- ----<br>-------- ------- -- ---------- --- - --- ----- ----- ----<br>---- --- how ----- --- ---- ---- ------- ----- ---- -------<br>--- --- -- ----- -- --- ---- -- --- ---- -- ------ ------<br>--- ----- -- ----,47597.69999998808,47597.09999996424,47054.439,47069.89999997616,47071.104,47604.398,,30,how
screen,html.Screen,0_2_0_1_31,2021-11-12T11:53:41.579Z,,,,,,,,,,,,,,,,53,,,,,,,,,,,,,,424.70199996423617,,response,,,99,,,,,,Space,keypress(Space),,,,,---- -- ----- -- ------ - ------- --- ----------<br>------------- ------ ------ ---- ---- ------- ----- -- ----<br>-------- ------- -- ---------- --- - --- ----- ----- ----<br>---- --- --- close --- ---- ---- ------- ----- ---- -------<br>--- --- -- ----- -- --- ---- -- --- ---- -- ------ ------<br>--- ----- -- ----,48029.69999998808,48029.09999996424,47587.733,47597.89999997616,47604.398,48037.746,,31,close
screen,html.Screen,0_2_0_1_32,2021-11-12T11:53:41.939Z,,,,,,,,,,,,,,,,53,,,,,,,,,,,,,,351.15399997615896,,response,,,99,,,,,,Space,keypress(Space),,,,,---- -- ----- -- ------ - ------- --- ----------<br>------------- ------ ------ ---- ---- ------- ----- -- ----<br>-------- ------- -- ---------- --- - --- ----- ----- ----<br>---- --- --- ----- you ---- ---- ------- ----- ---- -------<br>--- --- -- ----- -- --- ---- -- --- ---- -- ------ ------<br>--- ----- -- ----,48389.59999996424,48388.89999997616,48021.08,48029.89999997616,48037.746,48404.361,,32,you
screen,html.Screen,0_2_0_1_33,2021-11-12T11:53:42.267Z,,,,,,,,,,,,,,,,53,,,,,,,,,,,,,,312.538999976161,,response,,,99,,,,,,Space,keypress(Space),,,,,---- -- ----- -- ------ - ------- --- ----------<br>------------- ------ ------ ---- ---- ------- ----- -- ----<br>-------- ------- -- ---------- --- - --- ----- ----- ----<br>---- --- --- ----- --- feel ---- ------- ----- ---- -------<br>--- --- -- ----- -- --- ---- -- --- ---- -- ------ ------<br>--- ----- -- ----,48717.59999996424,48716.89999997616,48387.696,48389.80000001192,48404.361,48721,,33,feel
screen,html.Screen,0_2_0_1_34,2021-11-12T11:53:42.643Z,,,,,,,,,,,,,,,,53,,,,,,,,,,,,,,372,,response,,,99,,,,,,Space,keypress(Space),,,,,---- -- ----- -- ------ - ------- --- ----------<br>------------- ------ ------ ---- ---- ------- ----- -- ----<br>-------- ------- -- ---------- --- - --- ----- ----- ----<br>---- --- --- ----- --- ---- that ------- ----- ---- -------<br>--- --- -- ----- -- --- ---- -- --- ---- -- ------ ------<br>--- ----- -- ----,49093.59999996424,49093,48704.335,48717.69999998808,48721,49104.394,,34,that
screen,html.Screen,0_2_0_1_35,2021-11-12T11:53:43.275Z,,,,,,,,,,,,,,,,53,,,,,,,,,,,,,,620.5059999761579,,response,,,99,,,,,,Space,keypress(Space),,,,,---- -- ----- -- ------ - ------- --- ----------<br>------------- ------ ------ ---- ---- ------- ----- -- ----<br>-------- ------- -- ---------- --- - --- ----- ----- ----<br>---- --- --- ----- --- ---- ---- matters ----- ---- -------<br>--- --- -- ----- -- --- ---- -- --- ---- -- ------ ------<br>--- ----- -- ----,49725.59999996424,49724.89999997616,49087.728,49093.80000001192,49104.394,49737.616,,35,matters
screen,html.Screen,0_2_0_1_36,2021-11-12T11:53:43.699Z,,,,,,,,,,,,,,,,53,,,,,,,,,,,,,,411.28399997615634,,response,,,99,,,,,,Space,keypress(Space),,,,,"---- -- ----- -- ------ - ------- --- ----------<br>------------- ------ ------ ---- ---- ------- ----- -- ----<br>-------- ------- -- ---------- --- - --- ----- ----- ----<br>---- --- --- ----- --- ---- ---- ------- most, ---- -------<br>--- --- -- ----- -- --- ---- -- --- ---- -- ------ ------<br>--- ----- -- ----",50149.59999996424,50148.89999997616,49720.951,49727.39999997616,49737.616,50154.282,,36,"most,"
screen,html.Screen,0_2_0_1_37,2021-11-12T11:53:44.171Z,,,,,,,,,,,,,,,,53,,,,,,,,,,,,,,466.6179999761589,,response,,,99,,,,,,Space,keypress(Space),,,,,---- -- ----- -- ------ - ------- --- ----------<br>------------- ------ ------ ---- ---- ------- ----- -- ----<br>-------- ------- -- ---------- --- - --- ----- ----- ----<br>---- --- --- ----- --- ---- ---- ------- ----- it's -------<br>--- --- -- ----- -- --- ---- -- --- ---- -- ------ ------<br>--- ----- -- ----,50621.5,50620.89999997616,50137.617,50149.89999997616,50154.282,50637.504,,37,it's
screen,html.Screen,0_2_0_1_38,2021-11-12T11:53:44.659Z,,,,,,,,,,,,,,,,53,,,,,,,,,,,,,,471.3959999761573,,response,,,99,,,,,,Space,keypress(Space),,,,,---- -- ----- -- ------ - ------- --- ----------<br>------------- ------ ------ ---- ---- ------- ----- -- ----<br>-------- ------- -- ---------- --- - --- ----- ----- ----<br>---- --- --- ----- --- ---- ---- ------- ----- ---- whether<br>--- --- -- ----- -- --- ---- -- --- ---- -- ------ ------<br>--- ----- -- ----,51109.5,51108.89999997616,50620.84,50621.59999996424,50637.504,51120.924,,38,whether
screen,html.Screen,0_2_0_1_39,2021-11-12T11:53:45.083Z,,,,,,,,,,,,,,,,53,,,,,,,,,,,,,,411.87600001192186,,response,,,99,,,,,,Space,keypress(Space),,,,,---- -- ----- -- ------ - ------- --- ----------<br>------------- ------ ------ ---- ---- ------- ----- -- ----<br>-------- ------- -- ---------- --- - --- ----- ----- ----<br>---- --- --- ----- --- ---- ---- ------- ----- ---- -------<br>you --- -- ----- -- --- ---- -- --- ---- -- ------ ------<br>--- ----- -- ----,51533.39999997616,51532.80000001192,51104.258,51109.59999996424,51120.924,51537.428,,39,you
screen,html.Screen,0_2_0_1_40,2021-11-12T11:53:45.587Z,,,,,,,,,,,,,,,,53,,,,,,,,,,,,,,499.47199997615826,,response,,,99,,,,,,Space,keypress(Space),,,,,---- -- ----- -- ------ - ------- --- ----------<br>------------- ------ ------ ---- ---- ------- ----- -- ----<br>-------- ------- -- ---------- --- - --- ----- ----- ----<br>---- --- --- ----- --- ---- ---- ------- ----- ---- -------<br>--- are -- ----- -- --- ---- -- --- ---- -- ------ ------<br>--- ----- -- ----,52037.5,52036.89999997616,51520.764,51533.59999996424,51537.428,52054.181,,40,are
screen,html.Screen,0_2_0_1_41,2021-11-12T11:53:46.355Z,,,,,,,,,,,,,,,,53,,,,,,,,,,,,,,750.6190000119241,,response,,,99,,,,,,Space,keypress(Space),,,,,---- -- ----- -- ------ - ------- --- ----------<br>------------- ------ ------ ---- ---- ------- ----- -- ----<br>-------- ------- -- ---------- --- - --- ----- ----- ----<br>---- --- --- ----- --- ---- ---- ------- ----- ---- -------<br>--- --- as ----- -- --- ---- -- --- ---- -- ------ ------<br>--- ----- -- ----,52805.59999996424,52804.80000001192,52037.515,52037.69999998808,52054.181,52820.569,,41,as
screen,html.Screen,0_2_0_1_42,2021-11-12T11:53:46.851Z,,,,,,,,,,,,,,,,53,,,,,,,,,,,,,,480.330999976155,,response,,,99,,,,,,Space,keypress(Space),,,,,---- -- ----- -- ------ - ------- --- ----------<br>------------- ------ ------ ---- ---- ------- ----- -- ----<br>-------- ------- -- ---------- --- - --- ----- ----- ----<br>---- --- --- ----- --- ---- ---- ------- ----- ---- -------<br>--- --- -- close -- --- ---- -- --- ---- -- ------ ------<br>--- ----- -- ----,53301.5,53300.89999997616,52803.906,52805.69999998808,52820.569,53304.113,,42,close
screen,html.Screen,0_2_0_1_43,2021-11-12T11:53:47.227Z,,,,,,,,,,,,,,,,53,,,,,,,,,,,,,,372.5869999880815,,response,,,99,,,,,,Space,keypress(Space),,,,,---- -- ----- -- ------ - ------- --- ----------<br>------------- ------ ------ ---- ---- ------- ----- -- ----<br>-------- ------- -- ---------- --- - --- ----- ----- ----<br>---- --- --- ----- --- ---- ---- ------- ----- ---- -------<br>--- --- -- ----- as --- ---- -- --- ---- -- ------ ------<br>--- ----- -- ----,53677.30000001192,53676.69999998808,53287.447,53301.69999998808,53304.113,53687.382,,43,as
screen,html.Screen,0_2_0_1_44,2021-11-12T11:53:47.683Z,,,,,,,,,,,,,,,,53,,,,,,,,,,,,,,445.2179999642394,,response,,,99,,,,,,Space,keypress(Space),,,,,---- -- ----- -- ------ - ------- --- ----------<br>------------- ------ ------ ---- ---- ------- ----- -- ----<br>-------- ------- -- ---------- --- - --- ----- ----- ----<br>---- --- --- ----- --- ---- ---- ------- ----- ---- -------<br>--- --- -- ----- -- you ---- -- --- ---- -- ------ ------<br>--- ----- -- ----,54133.19999998808,54132.59999996424,53670.717,53677.39999997616,53687.382,54137.345,,44,you
screen,html.Screen,0_2_0_1_45,2021-11-12T11:53:48.211Z,,,,,,,,,,,,,,,,53,,,,,,,,,,,,,,523.3549999880779,,response,,,99,,,,,,Space,keypress(Space),,,,,---- -- ----- -- ------ - ------- --- ----------<br>------------- ------ ------ ---- ---- ------- ----- -- ----<br>-------- ------- -- ---------- --- - --- ----- ----- ----<br>---- --- --- ----- --- ---- ---- ------- ----- ---- -------<br>--- --- -- ----- -- --- want -- --- ---- -- ------ ------<br>--- ----- -- ----,54661.30000001192,54660.69999998808,54120.68,54133.39999997616,54137.345,54670.623,,45,want
screen,html.Screen,0_2_0_1_46,2021-11-12T11:53:48.595Z,,,,,,,,,,,,,,,,53,,,,,,,,,,,,,,373.9769999642376,,response,,,99,,,,,,Space,keypress(Space),,,,,---- -- ----- -- ------ - ------- --- ----------<br>------------- ------ ------ ---- ---- ------- ----- -- ----<br>-------- ------- -- ---------- --- - --- ----- ----- ----<br>---- --- --- ----- --- ---- ---- ------- ----- ---- -------<br>--- --- -- ----- -- --- ---- to --- ---- -- ------ ------<br>--- ----- -- ----,55045.30000001192,55044.59999996424,54653.958,54661.39999997616,54670.623,55053.945,,46,to
screen,html.Screen,0_2_0_1_47,2021-11-12T11:53:48.931Z,,,,,,,,,,,,,,,,53,,,,,,,,,,,,,,326.6549999642375,,response,,,99,,,,,,Space,keypress(Space),,,,,"---- -- ----- -- ------ - ------- --- ----------<br>------------- ------ ------ ---- ---- ------- ----- -- ----<br>-------- ------- -- ---------- --- - --- ----- ----- ----<br>---- --- --- ----- --- ---- ---- ------- ----- ---- -------<br>--- --- -- ----- -- --- ---- -- be, ---- -- ------ ------<br>--- ----- -- ----",55381.09999996424,55380.59999996424,55037.28,55045.5,55053.945,55387.262,,47,"be,"
screen,html.Screen,0_2_0_1_48,2021-11-12T11:53:49.235Z,,,,,,,,,,,,,,,,53,,,,,,,,,,,,,,297.23799999999756,,response,,,99,,,,,,Space,keypress(Space),,,,,---- -- ----- -- ------ - ------- --- ----------<br>------------- ------ ------ ---- ---- ------- ----- -- ----<br>-------- ------- -- ---------- --- - --- ----- ----- ----<br>---- --- --- ----- --- ---- ---- ------- ----- ---- -------<br>--- --- -- ----- -- --- ---- -- --- even -- ------ ------<br>--- ----- -- ----,55685.09999996424,55684.5,55370.597,55381.30000001192,55387.262,55687.297,,48,even
screen,html.Screen,0_2_0_1_49,2021-11-12T11:53:49.547Z,,,,,,,,,,,,,,,,53,,,,,,,,,,,,,,309.20300000000134,,response,,,99,,,,,,Space,keypress(Space),,,,,---- -- ----- -- ------ - ------- --- ----------<br>------------- ------ ------ ---- ---- ------- ----- -- ----<br>-------- ------- -- ---------- --- - --- ----- ----- ----<br>---- --- --- ----- --- ---- ---- ------- ----- ---- -------<br>--- --- -- ----- -- --- ---- -- --- ---- if ------ ------<br>--- ----- -- ----,55997.09999996424,55996.5,55670.631,55685.30000001192,55687.297,56003.859,,49,if
screen,html.Screen,0_2_0_1_50,2021-11-12T11:53:49.843Z,,,,,,,,,,,,,,,,53,,,,,,,,,,,,,,288.64100000000326,,response,,,99,,,,,,Space,keypress(Space),,,,,---- -- ----- -- ------ - ------- --- ----------<br>------------- ------ ------ ---- ---- ------- ----- -- ----<br>-------- ------- -- ---------- --- - --- ----- ----- ----<br>---- --- --- ----- --- ---- ---- ------- ----- ---- -------<br>--- --- -- ----- -- --- ---- -- --- ---- -- that's ------<br>--- ----- -- ----,56293.09999996424,56292.5,55987.195,55997.19999998808,56003.859,56303.874,,50,that's
screen,html.Screen,0_2_0_1_51,2021-11-12T11:53:50.187Z,,,,,,,,,,,,,,,,53,,,,,,,,,,,,,,332.62599999999657,,response,,,99,,,,,,Space,keypress(Space),,,,,---- -- ----- -- ------ - ------- --- ----------<br>------------- ------ ------ ---- ---- ------- ----- -- ----<br>-------- ------- -- ---------- --- - --- ----- ----- ----<br>---- --- --- ----- --- ---- ---- ------- ----- ---- -------<br>--- --- -- ----- -- --- ---- -- --- ---- -- ------ really<br>--- ----- -- ----,56637.09999996424,56636.5,56287.209,56293.19999998808,56303.874,56653.893,,51,really
screen,html.Screen,0_2_0_1_52,2021-11-12T11:53:50.579Z,,,,,,,,,,,,,,,,53,,,,,,,,,,,,,,374.6070000000036,,response,,,99,,,,,,Space,keypress(Space),,,,,---- -- ----- -- ------ - ------- --- ----------<br>------------- ------ ------ ---- ---- ------- ----- -- ----<br>-------- ------- -- ---------- --- - --- ----- ----- ----<br>---- --- --- ----- --- ---- ---- ------- ----- ---- -------<br>--- --- -- ----- -- --- ---- -- --- ---- -- ------ ------<br>not ----- -- ----,57029.09999996424,57028.5,56637.227,56637.19999998808,56653.893,57037.177,,52,not
screen,html.Screen,0_2_0_1_53,2021-11-12T11:53:50.867Z,,,,,,,,,,,,,,,,53,,,,,,,,,,,,,,279.2229999761548,,response,,,99,,,,,,Space,keypress(Space),,,,,---- -- ----- -- ------ - ------- --- ----------<br>------------- ------ ------ ---- ---- ------- ----- -- ----<br>-------- ------- -- ---------- --- - --- ----- ----- ----<br>---- --- --- ----- --- ---- ---- ------- ----- ---- -------<br>--- --- -- ----- -- --- ---- -- --- ---- -- ------ ------<br>--- close -- ----,57317,57316.39999997616,57020.512,57029.30000001192,57037.177,57320.447,,53,close
screen,html.Screen,0_2_0_1_54,2021-11-12T11:53:51.171Z,,,,,,,,,,,,,,,,53,,,,,,,,,,,,,,299.952999976158,,response,,,99,,,,,,Space,keypress(Space),,,,,---- -- ----- -- ------ - ------- --- ----------<br>------------- ------ ------ ---- ---- ------- ----- -- ----<br>-------- ------- -- ---------- --- - --- ----- ----- ----<br>---- --- --- ----- --- ---- ---- ------- ----- ---- -------<br>--- --- -- ----- -- --- ---- -- --- ---- -- ------ ------<br>--- ----- at ----,57621,57620.39999997616,57303.783,57317.19999998808,57320.447,57637.126,,54,at
screen,html.Screen,0_2_0_1_55,2021-11-12T11:53:51.539Z,,,,,,,,,,,,,,,,53,,,,,,,,,,,,,,351.2739999761616,,response,,,99,,,,,,Space,keypress(Space),,,,,---- -- ----- -- ------ - ------- --- ----------<br>------------- ------ ------ ---- ---- ------- ----- -- ----<br>-------- ------- -- ---------- --- - --- ----- ----- ----<br>---- --- --- ----- --- ---- ---- ------- ----- ---- -------<br>--- --- -- ----- -- --- ---- -- --- ---- -- ------ ------<br>--- ----- -- all.,57989,57988.39999997616,57620.461,57621.09999996424,57637.126,58003.811,,55,all.
Item 99,flow.Loop,0_2_0_1,2021-11-12T11:53:51.541Z,,,,,,,,,,,,,,,,,,,,,,,,,,,,,,24349.838999976157,,completion,,,,F,,,,,,,,,,silence,,57991.80000001192,57988.39999997616,33621.896,33626.19999998808,33638.561,58003.811,,,
Question 1,html.Screen,0_2_0_2,2021-11-12T11:53:58.221Z,,,,,,,,,,,,,,,,,,,,,,,,,,,true,FALSE,,6663.388999988078,,response,,,99,F,,,,,FALSE,click #choice-2,,,,silence,,64668.19999998808,64667.19999998808,57987.145,57992.09999996424,58003.811,64670.003,,,
Question 2,html.Screen,0_2_0_3,2021-11-12T11:54:06.654Z,,,,,,,,,,,,,,,,,,,,,,,,,,,true,TRUE,,8430.497000000003,,response,,,99,F,,,,,TRUE,click #choice-1,,,,silence,,73101.5,73100.5,64653.338,64668.39999997616,64670.003,73102.943,,,
Item 99,flow.Sequence,0_2_0,2021-11-12T11:54:06.655Z,,,,,,,,,,,,,,,,,,,,,,,,,,,,,,49461.376000000004,,completion,,,,,,,,,,,,,,,,73101.80000001192,73100.5,23622.459,23636.899999976158,23639.124,73102.943,,,
Holding screen,html.Screen,0_2_1_0,2021-11-12T11:54:16.639Z,,,,,,,,,,,,,,,,,,,,,,,,,,,,,,9999.270000000004,,timeout,,,,,,,,,,,,,,,,83086.59999996424,83085.548,73086.273,73102.09999996424,73102.943,83102.213,,,
screen,html.Screen,0_2_1_1_0,2021-11-12T11:54:17.420Z,,,,,,,,,,,,,,,,54,,,,,,,,,,,,,,764.6869999761548,,response,,,100,,,,,,Space,keypress(Space),,,,,At --- ---- --- ------ ----- ------- ---- -- --- ------- --<br>------- ---------- ------ -- ----- -- ----- -- ---- ------<br>--- ----- --- --- ------ -------- ----- --- ------ ----- --<br>----- ----- ---------- --- --- ------ ------ ---- -- ------<br>------- --- ------ ----- --- ---- ------- -- ---- --- --<br>------- ------,83867.5,83866.89999997616,83085.548,83086.80000001192,83102.213,83868.813,,0,At
screen,html.Screen,0_2_1_1_1,2021-11-12T11:54:17.980Z,,,,,,,,,,,,,,,,54,,,,,,,,,,,,,,557.9870000119263,,response,,,100,,,,,,Space,keypress(Space),,,,,-- the ---- --- ------ ----- ------- ---- -- --- ------- --<br>------- ---------- ------ -- ----- -- ----- -- ---- ------<br>--- ----- --- --- ------ -------- ----- --- ------ ----- --<br>----- ----- ---------- --- --- ------ ------ ---- -- ------<br>------- --- ------ ----- --- ---- ------- -- ---- --- --<br>------- ------,84427.39999997616,84426.80000001192,83852.148,83867.69999998808,83868.813,84435.476,,1,the
screen,html.Screen,0_2_1_1_2,2021-11-12T11:54:18.812Z,,,,,,,,,,,,,,,,54,,,,,,,,,,,,,,823.223999988084,,response,,,100,,,,,,Space,keypress(Space),,,,,-- --- time --- ------ ----- ------- ---- -- --- ------- --<br>------- ---------- ------ -- ----- -- ----- -- ---- ------<br>--- ----- --- --- ------ -------- ----- --- ------ ----- --<br>----- ----- ---------- --- --- ------ ------ ---- -- ------<br>------- --- ------ ----- --- ---- ------- -- ---- --- --<br>------- ------,85259.39999997616,85258.69999998808,84418.811,84427.5,84435.476,85268.742,,2,time
screen,html.Screen,0_2_1_1_3,2021-11-12T11:54:19.340Z,,,,,,,,,,,,,,,,54,,,,,,,,,,,,,,518.2580000000016,,response,,,100,,,,,,Space,keypress(Space),,,,,-- --- ---- the ------ ----- ------- ---- -- --- ------- --<br>------- ---------- ------ -- ----- -- ----- -- ---- ------<br>--- ----- --- --- ------ -------- ----- --- ------ ----- --<br>----- ----- ---------- --- --- ------ ------ ---- -- ------<br>------- --- ------ ----- --- ---- ------- -- ---- --- --<br>------- ------,85787.5,85787,85252.077,85259.59999996424,85268.742,85802.048,,3,the
screen,html.Screen,0_2_1_1_4,2021-11-12T11:54:19.780Z,,,,,,,,,,,,,,,,54,,,,,,,,,,,,,,424.65199998808384,,response,,,100,,,,,,Space,keypress(Space),,,,,-- --- ---- --- French ----- ------- ---- -- --- ------- --<br>------- ---------- ------ -- ----- -- ----- -- ---- ------<br>--- ----- --- --- ------ -------- ----- --- ------ ----- --<br>----- ----- ---------- --- --- ------ ------ ---- -- ------<br>------- --- ------ ----- --- ---- ------- -- ---- --- --<br>------- ------,86227.30000001192,86226.69999998808,85785.383,85788.5,85802.048,86235.382,,4,French
screen,html.Screen,0_2_1_1_5,2021-11-12T11:54:20.172Z,,,,,,,,,,,,,,,,54,,,,,,,,,,,,,,383.3179999880813,,response,,,100,,,,,,Space,keypress(Space),,,,,-- --- ---- --- ------ crown ------- ---- -- --- ------- --<br>------- ---------- ------ -- ----- -- ----- -- ---- ------<br>--- ----- --- --- ------ -------- ----- --- ------ ----- --<br>----- ----- ---------- --- --- ------ ------ ---- -- ------<br>------- --- ------ ----- --- ---- ------- -- ---- --- --<br>------- ------,86619.39999997616,86618.69999998808,86218.717,86227.5,86235.382,86635.352,,5,crown
screen,html.Screen,0_2_1_1_6,2021-11-12T11:54:20.620Z,,,,,,,,,,,,,,,,54,,,,,,,,,,,,,,431.24799996423826,,response,,,100,,,,,,Space,keypress(Space),,,,,-- --- ---- --- ------ ----- secured ---- -- --- ------- --<br>------- ---------- ------ -- ----- -- ----- -- ---- ------<br>--- ----- --- --- ------ -------- ----- --- ------ ----- --<br>----- ----- ---------- --- --- ------ ------ ---- -- ------<br>------- --- ------ ----- --- ---- ------- -- ---- --- --<br>------- ------,87067.19999998808,87066.59999996424,86618.687,86619.59999996424,86635.352,87068.639,,6,secured
screen,html.Screen,0_2_1_1_7,2021-11-12T11:54:21.116Z,,,,,,,,,,,,,,,,54,,,,,,,,,,,,,,493.96099996424164,,response,,,100,,,,,,Space,keypress(Space),,,,,-- --- ---- --- ------ ----- ------- much -- --- ------- --<br>------- ---------- ------ -- ----- -- ----- -- ---- ------<br>--- ----- --- --- ------ -------- ----- --- ------ ----- --<br>----- ----- ---------- --- --- ------ ------ ---- -- ------<br>------- --- ------ ----- --- ---- ------- -- ---- --- --<br>------- ------,87563.09999996424,87562.59999996424,87051.974,87067.39999997616,87068.639,87568.612,,7,much
screen,html.Screen,0_2_1_1_8,2021-11-12T11:54:21.604Z,,,,,,,,,,,,,,,,54,,,,,,,,,,,,,,482.08799998808536,,response,,,100,,,,,,Space,keypress(Space),,,,,-- --- ---- --- ------ ----- ------- ---- of --- ------- --<br>------- ---------- ------ -- ----- -- ----- -- ---- ------<br>--- ----- --- --- ------ -------- ----- --- ------ ----- --<br>----- ----- ---------- --- --- ------ ------ ---- -- ------<br>------- --- ------ ----- --- ---- ------- -- ---- --- --<br>------- ------,88051.19999998808,88050.69999998808,87551.947,87563.30000001192,87568.612,88051.929,,8,of
screen,html.Screen,0_2_1_1_9,2021-11-12T11:54:22.060Z,,,,,,,,,,,,,,,,54,,,,,,,,,,,,,,454.5709999999963,,response,,,100,,,,,,Space,keypress(Space),,,,,-- --- ---- --- ------ ----- ------- ---- -- its ------- --<br>------- ---------- ------ -- ----- -- ----- -- ---- ------<br>--- ----- --- --- ------ -------- ----- --- ------ ----- --<br>----- ----- ---------- --- --- ------ ------ ---- -- ------<br>------- --- ------ ----- --- ---- ------- -- ---- --- --<br>------- ------,88507.09999996424,88506.5,88035.264,88051.39999997616,88051.929,88518.472,,9,its
screen,html.Screen,0_2_1_1_10,2021-11-12T11:54:22.604Z,,,,,,,,,,,,,,,,54,,,,,,,,,,,,,,532.0280000000057,,response,,,100,,,,,,Space,keypress(Space),,,,,-- --- ---- --- ------ ----- ------- ---- -- --- revenue --<br>------- ---------- ------ -- ----- -- ----- -- ---- ------<br>--- ----- --- --- ------ -------- ----- --- ------ ----- --<br>----- ----- ---------- --- --- ------ ------ ---- -- ------<br>------- --- ------ ----- --- ---- ------- -- ---- --- --<br>------- ------,89051.09999996424,89050.5,88501.808,88507.19999998808,88518.472,89051.927,,10,revenue
screen,html.Screen,0_2_1_1_11,2021-11-12T11:54:23.028Z,,,,,,,,,,,,,,,,54,,,,,,,,,,,,,,422.4729999761621,,response,,,100,,,,,,Space,keypress(Space),,,,,-- --- ---- --- ------ ----- ------- ---- -- --- ------- by<br>------- ---------- ------ -- ----- -- ----- -- ---- ------<br>--- ----- --- --- ------ -------- ----- --- ------ ----- --<br>----- ----- ---------- --- --- ------ ------ ---- -- ------<br>------- --- ------ ----- --- ---- ------- -- ---- --- --<br>------- ------,89475.09999996424,89474.39999997616,89035.261,89051.19999998808,89051.927,89485.22,,11,by
screen,html.Screen,0_2_1_1_12,2021-11-12T11:54:23.428Z,,,,,,,,,,,,,,,,54,,,,,,,,,,,,,,389.179999976157,,response,,,100,,,,,,Space,keypress(Space),,,,,-- --- ---- --- ------ ----- ------- ---- -- --- ------- --<br>issuing ---------- ------ -- ----- -- ----- -- ---- ------<br>--- ----- --- --- ------ -------- ----- --- ------ ----- --<br>----- ----- ---------- --- --- ------ ------ ---- -- ------<br>------- --- ------ ----- --- ---- ------- -- ---- --- --<br>------- ------,89875,89874.39999997616,89468.554,89475.19999998808,89485.22,89885.145,,12,issuing
screen,html.Screen,0_2_1_1_13,2021-11-12T11:54:23.836Z,,,,,,,,,,,,,,,,54,,,,,,,,,,,,,,397.25499997615407,,response,,,100,,,,,,Space,keypress(Space),,,,,-- --- ---- --- ------ ----- ------- ---- -- --- ------- --<br>------- government ------ -- ----- -- ----- -- ---- ------<br>--- ----- --- --- ------ -------- ----- --- ------ ----- --<br>----- ----- ---------- --- --- ------ ------ ---- -- ------<br>------- --- ------ ----- --- ---- ------- -- ---- --- --<br>------- ------,90283,90282.39999997616,89868.48,89875.19999998808,89885.145,90285.11,,13,government
screen,html.Screen,0_2_1_1_14,2021-11-12T11:54:24.492Z,,,,,,,,,,,,,,,,54,,,,,,,,,,,,,,653.1900000119203,,response,,,100,,,,,,Space,keypress(Space),,,,,-- --- ---- --- ------ ----- ------- ---- -- --- ------- --<br>------- ---------- bonds. -- ----- -- ----- -- ---- ------<br>--- ----- --- --- ------ -------- ----- --- ------ ----- --<br>----- ----- ---------- --- --- ------ ------ ---- -- ------<br>------- --- ------ ----- --- ---- ------- -- ---- --- --<br>------- ------,90939,90938.30000001192,90268.445,90283.19999998808,90285.11,90951.733,,14,bonds.
screen,html.Screen,0_2_1_1_15,2021-11-12T11:54:24.876Z,,,,,,,,,,,,,,,,54,,,,,,,,,,,,,,370.56700001192803,,response,,,100,,,,,,Space,keypress(Space),,,,,-- --- ---- --- ------ ----- ------- ---- -- --- ------- --<br>------- ---------- ------ In ----- -- ----- -- ---- ------<br>--- ----- --- --- ------ -------- ----- --- ------ ----- --<br>----- ----- ---------- --- --- ------ ------ ---- -- ------<br>------- --- ------ ----- --- ---- ------- -- ---- --- --<br>------- ------,91322.89999997616,91322.30000001192,90935.068,90939.19999998808,90951.733,91335.051,,15,In
screen,html.Screen,0_2_1_1_16,2021-11-12T11:54:26.644Z,,,,,,,,,,,,,,,,54,,,,,,,,,,,,,,1755.2490000119142,,response,,,100,,,,,,Space,keypress(Space),,,,,"-- --- ---- --- ------ ----- ------- ---- -- --- ------- --<br>------- ---------- ------ -- 1727, -- ----- -- ---- ------<br>--- ----- --- --- ------ -------- ----- --- ------ ----- --<br>----- ----- ---------- --- --- ------ ------ ---- -- ------<br>------- --- ------ ----- --- ---- ------- -- ---- --- --<br>------- ------",93090.89999997616,93090.30000001192,91318.386,91323.09999996424,91335.051,93101.558,,16,"1727,"
screen,html.Screen,0_2_1_1_17,2021-11-12T11:54:27.180Z,,,,,,,,,,,,,,,,54,,,,,,,,,,,,,,524.6419999880745,,response,,,100,,,,,,Space,keypress(Space),,,,,-- --- ---- --- ------ ----- ------- ---- -- --- ------- --<br>------- ---------- ------ -- ----- in ----- -- ---- ------<br>--- ----- --- --- ------ -------- ----- --- ------ ----- --<br>----- ----- ---------- --- --- ------ ------ ---- -- ------<br>------- --- ------ ----- --- ---- ------- -- ---- --- --<br>------- ------,93626.89999997616,93626.19999998808,93084.893,93091,93101.558,93634.885,,17,in
screen,html.Screen,0_2_1_1_18,2021-11-12T11:54:27.644Z,,,,,,,,,,,,,,,,54,,,,,,,,,,,,,,455.3149999880843,,response,,,100,,,,,,Space,keypress(Space),,,,,-- --- ---- --- ------ ----- ------- ---- -- --- ------- --<br>------- ---------- ------ -- ----- -- order -- ---- ------<br>--- ----- --- --- ------ -------- ----- --- ------ ----- --<br>----- ----- ---------- --- --- ------ ------ ---- -- ------<br>------- --- ------ ----- --- ---- ------- -- ---- --- --<br>------- ------,94090.89999997616,94090.19999998808,93618.22,93627.09999996424,93634.885,94101.543,,18,order
screen,html.Screen,0_2_1_1_19,2021-11-12T11:54:28.060Z,,,,,,,,,,,,,,,,54,,,,,,,,,,,,,,404.65699998807395,,response,,,100,,,,,,Space,keypress(Space),,,,,-- --- ---- --- ------ ----- ------- ---- -- --- ------- --<br>------- ---------- ------ -- ----- -- ----- to ---- ------<br>--- ----- --- --- ------ -------- ----- --- ------ ----- --<br>----- ----- ---------- --- --- ------ ------ ---- -- ------<br>------- --- ------ ----- --- ---- ------- -- ---- --- --<br>------- ------,94506.80000001192,94506.19999998808,94084.878,94091,94101.543,94518.188,,19,to
screen,html.Screen,0_2_1_1_20,2021-11-12T11:54:28.484Z,,,,,,,,,,,,,,,,54,,,,,,,,,,,,,,412.0119999880844,,response,,,100,,,,,,Space,keypress(Space),,,,,-- --- ---- --- ------ ----- ------- ---- -- --- ------- --<br>------- ---------- ------ -- ----- -- ----- -- save ------<br>--- ----- --- --- ------ -------- ----- --- ------ ----- --<br>----- ----- ---------- --- --- ------ ------ ---- -- ------<br>------- --- ------ ----- --- ---- ------- -- ---- --- --<br>------- ------,94930.69999998808,94930.19999998808,94501.523,94506.89999997616,94518.188,94934.901,,20,save
screen,html.Screen,0_2_1_1_21,2021-11-12T11:54:28.932Z,,,,,,,,,,,,,,,,54,,,,,,,,,,,,,,443.1989999642392,,response,,,100,,,,,,Space,keypress(Space),,,,,"-- --- ---- --- ------ ----- ------- ---- -- --- ------- --<br>------- ---------- ------ -- ----- -- ----- -- ---- money,<br>--- ----- --- --- ------ -------- ----- --- ------ ----- --<br>----- ----- ---------- --- --- ------ ------ ---- -- ------<br>------- --- ------ ----- --- ---- ------- -- ---- --- --<br>------- ------",95378.69999998808,95378.09999996424,94918.235,94930.89999997616,94934.901,95384.819,,21,"money,"
screen,html.Screen,0_2_1_1_22,2021-11-12T11:54:29.292Z,,,,,,,,,,,,,,,,54,,,,,,,,,,,,,,353.18099999999686,,response,,,100,,,,,,Space,keypress(Space),,,,,-- --- ---- --- ------ ----- ------- ---- -- --- ------- --<br>------- ---------- ------ -- ----- -- ----- -- ---- ------<br>the ----- --- --- ------ -------- ----- --- ------ ----- --<br>----- ----- ---------- --- --- ------ ------ ---- -- ------<br>------- --- ------ ----- --- ---- ------- -- ---- --- --<br>------- ------,95738.59999996424,95738,95368.154,95378.89999997616,95384.819,95751.404,,22,the
screen,html.Screen,0_2_1_1_23,2021-11-12T11:54:29.564Z,,,,,,,,,,,,,,,,54,,,,,,,,,,,,,,258.89600001192593,,response,,,100,,,,,,Space,keypress(Space),,,,,-- --- ---- --- ------ ----- ------- ---- -- --- ------- --<br>------- ---------- ------ -- ----- -- ----- -- ---- ------<br>--- state --- --- ------ -------- ----- --- ------ ----- --<br>----- ----- ---------- --- --- ------ ------ ---- -- ------<br>------- --- ------ ----- --- ---- ------- -- ---- --- --<br>------- ------,96010.89999997616,96010.30000001192,95734.74,95738.80000001192,95751.404,96018.105,,23,state
screen,html.Screen,0_2_1_1_24,2021-11-12T11:54:29.956Z,,,,,,,,,,,,,,,,54,,,,,,,,,,,,,,383.9949999642413,,response,,,100,,,,,,Space,keypress(Space),,,,,-- --- ---- --- ------ ----- ------- ---- -- --- ------- --<br>------- ---------- ------ -- ----- -- ----- -- ---- ------<br>--- ----- cut --- ------ -------- ----- --- ------ ----- --<br>----- ----- ---------- --- --- ------ ------ ---- -- ------<br>------- --- ------ ----- --- ---- ------- -- ---- --- --<br>------- ------,96402.59999996424,96402.09999996424,96001.44,96011,96018.105,96418.153,,24,cut
screen,html.Screen,0_2_1_1_25,2021-11-12T11:54:30.284Z,,,,,,,,,,,,,,,,54,,,,,,,,,,,,,,311.8469999999943,,response,,,100,,,,,,Space,keypress(Space),,,,,-- --- ---- --- ------ ----- ------- ---- -- --- ------- --<br>------- ---------- ------ -- ----- -- ----- -- ---- ------<br>--- ----- --- the ------ -------- ----- --- ------ ----- --<br>----- ----- ---------- --- --- ------ ------ ---- -- ------<br>------- --- ------ ----- --- ---- ------- -- ---- --- --<br>------- ------,96730.59999996424,96730,96401.487,96402.80000001192,96418.153,96734.743,,25,the
screen,html.Screen,0_2_1_1_26,2021-11-12T11:54:30.628Z,,,,,,,,,,,,,,,,54,,,,,,,,,,,,,,339.356999964235,,response,,,100,,,,,,Space,keypress(Space),,,,,-- --- ---- --- ------ ----- ------- ---- -- --- ------- --<br>------- ---------- ------ -- ----- -- ----- -- ---- ------<br>--- ----- --- --- bonds' -------- ----- --- ------ ----- --<br>----- ----- ---------- --- --- ------ ------ ---- -- ------<br>------- --- ------ ----- --- ---- ------- -- ---- --- --<br>------- ------,97074.69999998808,97074.09999996424,96718.078,96730.80000001192,96734.743,97084.729,,26,bonds'
screen,html.Screen,0_2_1_1_27,2021-11-12T11:54:31.020Z,,,,,,,,,,,,,,,,54,,,,,,,,,,,,,,381.27099999999336,,response,,,100,,,,,,Space,keypress(Space),,,,,-- --- ---- --- ------ ----- ------- ---- -- --- ------- --<br>------- ---------- ------ -- ----- -- ----- -- ---- ------<br>--- ----- --- --- ------ interest ----- --- ------ ----- --<br>----- ----- ---------- --- --- ------ ------ ---- -- ------<br>------- --- ------ ----- --- ---- ------- -- ---- --- --<br>------- ------,97466.59999996424,97466,97068.064,97074.89999997616,97084.729,97467.933,,27,interest
screen,html.Screen,0_2_1_1_28,2021-11-12T11:54:31.419Z,,,,,,,,,,,,,,,,54,,,,,,,,,,,,,,397.9669999761536,,response,,,100,,,,,,Space,keypress(Space),,,,,-- --- ---- --- ------ ----- ------- ---- -- --- ------- --<br>------- ---------- ------ -- ----- -- ----- -- ---- ------<br>--- ----- --- --- ------ -------- rate. --- ------ ----- --<br>----- ----- ---------- --- --- ------ ------ ---- -- ------<br>------- --- ------ ----- --- ---- ------- -- ---- --- --<br>------- ------,97866.5,97865.89999997616,97451.27,97466.80000001192,97467.933,97867.915,,28,rate.
screen,html.Screen,0_2_1_1_29,2021-11-12T11:54:31.867Z,,,,,,,,,,,,,,,,54,,,,,,,,,,,,,,445.98499997616454,,response,,,100,,,,,,Space,keypress(Space),,,,,-- --- ---- --- ------ ----- ------- ---- -- --- ------- --<br>------- ---------- ------ -- ----- -- ----- -- ---- ------<br>--- ----- --- --- ------ -------- ----- The ------ ----- --<br>----- ----- ---------- --- --- ------ ------ ---- -- ------<br>------- --- ------ ----- --- ---- ------- -- ---- --- --<br>------- ------,98314.59999996424,98313.89999997616,97851.251,97866.69999998808,97867.915,98318.058,,29,The
screen,html.Screen,0_2_1_1_30,2021-11-12T11:54:32.195Z,,,,,,,,,,,,,,,,54,,,,,,,,,,,,,,323.8419999761536,,response,,,100,,,,,,Space,keypress(Space),,,,,-- --- ---- --- ------ ----- ------- ---- -- --- ------- --<br>------- ---------- ------ -- ----- -- ----- -- ---- ------<br>--- ----- --- --- ------ -------- ----- --- market ----- --<br>----- ----- ---------- --- --- ------ ------ ---- -- ------<br>------- --- ------ ----- --- ---- ------- -- ---- --- --<br>------- ------,98642.5,98641.89999997616,98301.391,98314.80000001192,98318.058,98651.283,,30,market
screen,html.Screen,0_2_1_1_31,2021-11-12T11:54:32.563Z,,,,,,,,,,,,,,,,54,,,,,,,,,,,,,,358.61699997616233,,response,,,100,,,,,,Space,keypress(Space),,,,,-- --- ---- --- ------ ----- ------- ---- -- --- ------- --<br>------- ---------- ------ -- ----- -- ----- -- ---- ------<br>--- ----- --- --- ------ -------- ----- --- ------ value --<br>----- ----- ---------- --- --- ------ ------ ---- -- ------<br>------- --- ------ ----- --- ---- ------- -- ---- --- --<br>------- ------,99010.39999997616,99009.89999997616,98634.618,98642.69999998808,98651.283,99017.928,,31,value
screen,html.Screen,0_2_1_1_32,2021-11-12T11:54:32.891Z,,,,,,,,,,,,,,,,54,,,,,,,,,,,,,,319.87200001192105,,response,,,100,,,,,,Space,keypress(Space),,,,,-- --- ---- --- ------ ----- ------- ---- -- --- ------- --<br>------- ---------- ------ -- ----- -- ----- -- ---- ------<br>--- ----- --- --- ------ -------- ----- --- ------ ----- of<br>----- ----- ---------- --- --- ------ ------ ---- -- ------<br>------- --- ------ ----- --- ---- ------- -- ---- --- --<br>------- ------,99338.39999997616,99337.80000001192,99001.263,99010.59999996424,99017.928,99351.239,,32,of
screen,html.Screen,0_2_1_1_33,2021-11-12T11:54:33.219Z,,,,,,,,,,,,,,,,54,,,,,,,,,,,,,,314.66099997615675,,response,,,100,,,,,,Space,keypress(Space),,,,,-- --- ---- --- ------ ----- ------- ---- -- --- ------- --<br>------- ---------- ------ -- ----- -- ----- -- ---- ------<br>--- ----- --- --- ------ -------- ----- --- ------ ----- --<br>these ----- ---------- --- --- ------ ------ ---- -- ------<br>------- --- ------ ----- --- ---- ------- -- ---- --- --<br>------- ------,99666.5,99665.89999997616,99334.574,99338.59999996424,99351.239,99667.895,,33,these
screen,html.Screen,0_2_1_1_34,2021-11-12T11:54:33.523Z,,,,,,,,,,,,,,,,54,,,,,,,,,,,,,,301.90500001191685,,response,,,100,,,,,,Space,keypress(Space),,,,,-- --- ---- --- ------ ----- ------- ---- -- --- ------- --<br>------- ---------- ------ -- ----- -- ----- -- ---- ------<br>--- ----- --- --- ------ -------- ----- --- ------ ----- --<br>----- bonds ---------- --- --- ------ ------ ---- -- ------<br>------- --- ------ ----- --- ---- ------- -- ---- --- --<br>------- ------,99970.39999997616,99969.80000001192,99651.23,99666.69999998808,99667.895,99984.538,,34,bonds
screen,html.Screen,0_2_1_1_35,2021-11-12T11:54:34.075Z,,,,,,,,,,,,,,,,54,,,,,,,,,,,,,,537.2620000119205,,response,,,100,,,,,,Space,keypress(Space),,,,,"-- --- ---- --- ------ ----- ------- ---- -- --- ------- --<br>------- ---------- ------ -- ----- -- ----- -- ---- ------<br>--- ----- --- --- ------ -------- ----- --- ------ ----- --<br>----- ----- plummeted, --- --- ------ ------ ---- -- ------<br>------- --- ------ ----- --- ---- ------- -- ---- --- --<br>------- ------",100522.39999997616,100521.80000001192,99967.873,99970.59999996424,99984.538,100534.494,,35,"plummeted,"
screen,html.Screen,0_2_1_1_36,2021-11-12T11:54:34.555Z,,,,,,,,,,,,,,,,54,,,,,,,,,,,,,,467.205999988073,,response,,,100,,,,,,Space,keypress(Space),,,,,-- --- ---- --- ------ ----- ------- ---- -- --- ------- --<br>------- ---------- ------ -- ----- -- ----- -- ---- ------<br>--- ----- --- --- ------ -------- ----- --- ------ ----- --<br>----- ----- ---------- and --- ------ ------ ---- -- ------<br>------- --- ------ ----- --- ---- ------- -- ---- --- --<br>------- ------,101002.30000001192,101001.69999998808,100517.829,100522.59999996424,100534.494,101017.778,,36,and
screen,html.Screen,0_2_1_1_37,2021-11-12T11:54:34.875Z,,,,,,,,,,,,,,,,54,,,,,,,,,,,,,,303.92199998807337,,response,,,100,,,,,,Space,keypress(Space),,,,,-- --- ---- --- ------ ----- ------- ---- -- --- ------- --<br>------- ---------- ------ -- ----- -- ----- -- ---- ------<br>--- ----- --- --- ------ -------- ----- --- ------ ----- --<br>----- ----- ---------- --- the ------ ------ ---- -- ------<br>------- --- ------ ----- --- ---- ------- -- ---- --- --<br>------- ------,101322.30000001192,101321.69999998808,101001.113,101002.5,101017.778,101334.44,,37,the
screen,html.Screen,0_2_1_1_38,2021-11-12T11:54:35.155Z,,,,,,,,,,,,,,,,54,,,,,,,,,,,,,,267.25999998807674,,response,,,100,,,,,,Space,keypress(Space),,,,,-- --- ---- --- ------ ----- ------- ---- -- --- ------- --<br>------- ---------- ------ -- ----- -- ----- -- ---- ------<br>--- ----- --- --- ------ -------- ----- --- ------ ----- --<br>----- ----- ---------- --- --- market ------ ---- -- ------<br>------- --- ------ ----- --- ---- ------- -- ---- --- --<br>------- ------,101602.19999998808,101601.69999998808,101317.775,101322.5,101334.44,101617.767,,38,market
screen,html.Screen,0_2_1_1_39,2021-11-12T11:54:35.483Z,,,,,,,,,,,,,,,,54,,,,,,,,,,,,,,312.0330000119138,,response,,,100,,,,,,Space,keypress(Space),,,,,-- --- ---- --- ------ ----- ------- ---- -- --- ------- --<br>------- ---------- ------ -- ----- -- ----- -- ---- ------<br>--- ----- --- --- ------ -------- ----- --- ------ ----- --<br>----- ----- ---------- --- --- ------ became ---- -- ------<br>------- --- ------ ----- --- ---- ------- -- ---- --- --<br>------- ------,101930.39999997616,101929.80000001192,101601.102,101602.39999997616,101617.767,101934.406,,39,became
screen,html.Screen,0_2_1_1_40,2021-11-12T11:54:35.899Z,,,,,,,,,,,,,,,,54,,,,,,,,,,,,,,411.19399996423454,,response,,,100,,,,,,Space,keypress(Space),,,,,-- --- ---- --- ------ ----- ------- ---- -- --- ------- --<br>------- ---------- ------ -- ----- -- ----- -- ---- ------<br>--- ----- --- --- ------ -------- ----- --- ------ ----- --<br>----- ----- ---------- --- --- ------ ------ wary -- ------<br>------- --- ------ ----- --- ---- ------- -- ---- --- --<br>------- ------,102346.19999998808,102345.59999996424,101917.741,101930.5,101934.406,102351.105,,40,wary
screen,html.Screen,0_2_1_1_41,2021-11-12T11:54:36.475Z,,,,,,,,,,,,,,,,54,,,,,,,,,,,,,,570.5949999880831,,response,,,100,,,,,,Space,keypress(Space),,,,,-- --- ---- --- ------ ----- ------- ---- -- --- ------- --<br>------- ---------- ------ -- ----- -- ----- -- ---- ------<br>--- ----- --- --- ------ -------- ----- --- ------ ----- --<br>----- ----- ---------- --- --- ------ ------ ---- of ------<br>------- --- ------ ----- --- ---- ------- -- ---- --- --<br>------- ------,102922.30000001192,102921.69999998808,102334.439,102346.39999997616,102351.105,102934.276,,41,of
screen,html.Screen,0_2_1_1_42,2021-11-12T11:54:36.931Z,,,,,,,,,,,,,,,,54,,,,,,,,,,,,,,443.3239999642392,,response,,,100,,,,,,Space,keypress(Space),,,,,-- --- ---- --- ------ ----- ------- ---- -- --- ------- --<br>------- ---------- ------ -- ----- -- ----- -- ---- ------<br>--- ----- --- --- ------ -------- ----- --- ------ ----- --<br>----- ----- ---------- --- --- ------ ------ ---- -- French<br>------- --- ------ ----- --- ---- ------- -- ---- --- --<br>------- ------,103378.19999998808,103377.59999996424,102917.612,102922.39999997616,102934.276,103384.352,,42,French
screen,html.Screen,0_2_1_1_43,2021-11-12T11:54:37.259Z,,,,,,,,,,,,,,,,54,,,,,,,,,,,,,,321.24799996423826,,response,,,100,,,,,,Space,keypress(Space),,,,,-- --- ---- --- ------ ----- ------- ---- -- --- ------- --<br>------- ---------- ------ -- ----- -- ----- -- ---- ------<br>--- ----- --- --- ------ -------- ----- --- ------ ----- --<br>----- ----- ---------- --- --- ------ ------ ---- -- ------<br>credit. --- ------ ----- --- ---- ------- -- ---- --- --<br>------- ------,103706.19999998808,103705.59999996424,103367.686,103378.30000001192,103384.352,103717.619,,43,credit.
screen,html.Screen,0_2_1_1_44,2021-11-12T11:54:37.643Z,,,,,,,,,,,,,,,,54,,,,,,,,,,,,,,371.88099999999395,,response,,,100,,,,,,Space,keypress(Space),,,,,-- --- ---- --- ------ ----- ------- ---- -- --- ------- --<br>------- ---------- ------ -- ----- -- ----- -- ---- ------<br>--- ----- --- --- ------ -------- ----- --- ------ ----- --<br>----- ----- ---------- --- --- ------ ------ ---- -- ------<br>------- The ------ ----- --- ---- ------- -- ---- --- --<br>------- ------,104090.09999996424,104089.5,103700.954,103706.30000001192,103717.619,104100.937,,44,The
screen,html.Screen,0_2_1_1_45,2021-11-12T11:54:37.995Z,,,,,,,,,,,,,,,,54,,,,,,,,,,,,,,340.56299999999464,,response,,,100,,,,,,Space,keypress(Space),,,,,-- --- ---- --- ------ ----- ------- ---- -- --- ------- --<br>------- ---------- ------ -- ----- -- ----- -- ---- ------<br>--- ----- --- --- ------ -------- ----- --- ------ ----- --<br>----- ----- ---------- --- --- ------ ------ ---- -- ------<br>------- --- French ----- --- ---- ------- -- ---- --- --<br>------- ------,104442.09999996424,104441.5,104084.272,104090.30000001192,104100.937,104450.928,,45,French
screen,html.Screen,0_2_1_1_46,2021-11-12T11:54:38.339Z,,,,,,,,,,,,,,,,54,,,,,,,,,,,,,,334.67199996423733,,response,,,100,,,,,,Space,keypress(Space),,,,,-- --- ---- --- ------ ----- ------- ---- -- --- ------- --<br>------- ---------- ------ -- ----- -- ----- -- ---- ------<br>--- ----- --- --- ------ -------- ----- --- ------ ----- --<br>----- ----- ---------- --- --- ------ ------ ---- -- ------<br>------- --- ------ state --- ---- ------- -- ---- --- --<br>------- ------,104786.19999998808,104785.59999996424,104434.263,104442.19999998808,104450.928,104800.913,,46,state
screen,html.Screen,0_2_1_1_47,2021-11-12T11:54:38.747Z,,,,,,,,,,,,,,,,54,,,,,,,,,,,,,,392.58699999999953,,response,,,100,,,,,,Space,keypress(Space),,,,,-- --- ---- --- ------ ----- ------- ---- -- --- ------- --<br>------- ---------- ------ -- ----- -- ----- -- ---- ------<br>--- ----- --- --- ------ -------- ----- --- ------ ----- --<br>----- ----- ---------- --- --- ------ ------ ---- -- ------<br>------- --- ------ ----- was ---- ------- -- ---- --- --<br>------- ------,105194.09999996424,105193.5,104784.248,104786.30000001192,104800.913,105200.879,,47,was
screen,html.Screen,0_2_1_1_48,2021-11-12T11:54:39.155Z,,,,,,,,,,,,,,,,54,,,,,,,,,,,,,,400.6209999999992,,response,,,100,,,,,,Space,keypress(Space),,,,,-- --- ---- --- ------ ----- ------- ---- -- --- ------- --<br>------- ---------- ------ -- ----- -- ----- -- ---- ------<br>--- ----- --- --- ------ -------- ----- --- ------ ----- --<br>----- ----- ---------- --- --- ------ ------ ---- -- ------<br>------- --- ------ ----- --- left ------- -- ---- --- --<br>------- ------,105602.09999996424,105601.5,105184.214,105194.19999998808,105200.879,105617.517,,48,left
screen,html.Screen,0_2_1_1_49,2021-11-12T11:54:39.675Z,,,,,,,,,,,,,,,,54,,,,,,,,,,,,,,504.0829999642301,,response,,,100,,,,,,Space,keypress(Space),,,,,-- --- ---- --- ------ ----- ------- ---- -- --- ------- --<br>------- ---------- ------ -- ----- -- ----- -- ---- ------<br>--- ----- --- --- ------ -------- ----- --- ------ ----- --<br>----- ----- ---------- --- --- ------ ------ ---- -- ------<br>------- --- ------ ----- --- ---- without -- ---- --- --<br>------- ------,106122.30000001192,106121.59999996424,105600.852,105602.30000001192,105617.517,106134.157,,49,without
screen,html.Screen,0_2_1_1_50,2021-11-12T11:54:40.107Z,,,,,,,,,,,,,,,,54,,,,,,,,,,,,,,419.2429999761516,,response,,,100,,,,,,Space,keypress(Space),,,,,-- --- ---- --- ------ ----- ------- ---- -- --- ------- --<br>------- ---------- ------ -- ----- -- ----- -- ---- ------<br>--- ----- --- --- ------ -------- ----- --- ------ ----- --<br>----- ----- ---------- --- --- ------ ------ ---- -- ------<br>------- --- ------ ----- --- ---- ------- an ---- --- --<br>------- ------,106553.89999997616,106553.39999997616,106117.492,106122.5,106134.157,106567.516,,50,an
screen,html.Screen,0_2_1_1_51,2021-11-12T11:54:40.499Z,,,,,,,,,,,,,,,,54,,,,,,,,,,,,,,377.8839999761549,,response,,,100,,,,,,Space,keypress(Space),,,,,-- --- ---- --- ------ ----- ------- ---- -- --- ------- --<br>------- ---------- ------ -- ----- -- ----- -- ---- ------<br>--- ----- --- --- ------ -------- ----- --- ------ ----- --<br>----- ----- ---------- --- --- ------ ------ ---- -- ------<br>------- --- ------ ----- --- ---- ------- -- easy --- --<br>------- ------,106946,106945.39999997616,106550.85,106554.09999996424,106567.516,106950.723,,51,easy
screen,html.Screen,0_2_1_1_52,2021-11-12T11:54:40.939Z,,,,,,,,,,,,,,,,54,,,,,,,,,,,,,,434.5770000119228,,response,,,100,,,,,,Space,keypress(Space),,,,,-- --- ---- --- ------ ----- ------- ---- -- --- ------- --<br>------- ---------- ------ -- ----- -- ----- -- ---- ------<br>--- ----- --- --- ------ -------- ----- --- ------ ----- --<br>----- ----- ---------- --- --- ------ ------ ---- -- ------<br>------- --- ------ ----- --- ---- ------- -- ---- way --<br>------- ------,107386,107385.30000001192,106934.059,106946.30000001192,106950.723,107400.781,,52,way
screen,html.Screen,0_2_1_1_53,2021-11-12T11:54:41.403Z,,,,,,,,,,,,,,,,54,,,,,,,,,,,,,,448.51900001191825,,response,,,100,,,,,,Space,keypress(Space),,,,,-- --- ---- --- ------ ----- ------- ---- -- --- ------- --<br>------- ---------- ------ -- ----- -- ----- -- ---- ------<br>--- ----- --- --- ------ -------- ----- --- ------ ----- --<br>----- ----- ---------- --- --- ------ ------ ---- -- ------<br>------- --- ------ ----- --- ---- ------- -- ---- --- of<br>------- ------,107849.89999997616,107849.30000001192,107384.115,107386.30000001192,107400.781,107867.362,,53,of
screen,html.Screen,0_2_1_1_54,2021-11-12T11:54:41.787Z,,,,,,,,,,,,,,,,54,,,,,,,,,,,,,,365.9380000119272,,response,,,100,,,,,,Space,keypress(Space),,,,,-- --- ---- --- ------ ----- ------- ---- -- --- ------- --<br>------- ---------- ------ -- ----- -- ----- -- ---- ------<br>--- ----- --- --- ------ -------- ----- --- ------ ----- --<br>----- ----- ---------- --- --- ------ ------ ---- -- ------<br>------- --- ------ ----- --- ---- ------- -- ---- --- --<br>raising ------,108233.89999997616,108233.30000001192,107850.697,107850.19999998808,107867.362,108250.694,,54,raising
screen,html.Screen,0_2_1_1_55,2021-11-12T11:54:42.211Z,,,,,,,,,,,,,,,,54,,,,,,,,,,,,,,406.6060000119178,,response,,,100,,,,,,Space,keypress(Space),,,,,-- --- ---- --- ------ ----- ------- ---- -- --- ------- --<br>------- ---------- ------ -- ----- -- ----- -- ---- ------<br>--- ----- --- --- ------ -------- ----- --- ------ ----- --<br>----- ----- ---------- --- --- ------ ------ ---- -- ------<br>------- --- ------ ----- --- ---- ------- -- ---- --- --<br>------- money.,108658,108657.30000001192,108234.029,108234.09999996424,108250.694,108667.323,,55,money.
Item 100,flow.Loop,0_2_1_1,2021-11-12T11:54:42.211Z,,,,,,,,,,,,,,,,,,,,,,,,,,,,,,25555.087000011918,,completion,,,,F,,,,,,,,,,silence,,108658.19999998808,108657.30000001192,83085.548,83086.80000001192,83102.213,108667.323,,,
Question 1,html.Screen,0_2_1_2,2021-11-12T11:54:44.841Z,,,,,,,,,,,,,,,,,,,,,,,,,,,true,TRUE,,2620.076999976154,,response,,,100,F,,,,,TRUE,click #choice-1,,,,silence,,111288.19999998808,111287.39999997616,108650.658,108658.39999997616,108667.323,111300.505,,,
Question 2,html.Screen,0_2_1_3,2021-11-12T11:54:46.718Z,,,,,,,,,,,,,,,,,,,,,,,,,,,true,FALSE,,1863.3949999761535,,response,,,100,F,,,,,FALSE,click #choice-2,,,,silence,,113164.69999998808,113163.89999997616,111283.84,111288.39999997616,111300.505,113167.044,,,
Item 100,flow.Sequence,0_2_1,2021-11-12T11:54:46.718Z,,,,,,,,,,,,,,,,,,,,,,,,,,,,,,40060.95699997616,,completion,,,,,,,,,,,,,,,,113164.89999997616,113163.89999997616,73086.273,73102,73102.943,113167.044,,,
End of Practice,html.Page,0_2_2,2021-11-12T11:54:49.681Z,,,,,,,,,,,,,,,,,,,,,,,,,,,,,,2960.1559999880847,,form submission,,,,,,,,,,,,,,,,116127.69999998808,116127.19999998808,113150.379,113165.09999996424,113167.044,116133.567,,,
Practice,flow.Sequence,0_2,2021-11-12T11:54:49.681Z,,,,,,,,,,,,,,,,,,,,,,,,,,,,,,92488.07599998808,,completion,,,,,,,,,,,,,,,,116128,116127.19999998808,23622.459,23636.899999976158,23639.124,116133.567,,,
Trap_instruction,html.Page,0_3_0,2021-11-12T11:54:54.898Z,,,,,,,,,,,,,,,,,,,,,,,,,,,,,,5208.032999964242,,form submission,,,,,,,,,,,,,,,,121342,121341.59999996424,116116.901,116128.09999996424,116133.567,121349.716,,,
trap_trial,html.Screen,0_3_1,2021-11-12T11:54:57.753Z,,,,,,,,,,,,,,,,,,,,,,,,,,,true,1,,2845.7839999999997,,response,,,,,,,,,1,click #choice-1,,,,,,124196.39999997616,124195.5,121333.051,121342.09999996424,121349.716,124207.839,,,
end of trap trial,html.Page,0_3_2,2021-11-12T11:54:59.349Z,,,,,,,,,,,,,,,,,,,,,,,,,,,,,,1584.560999976151,,form submission,,,,,,,,,,,,,,,,125792.80000001192,125792.39999997616,124191.225,124196.69999998808,124207.839,125799.63,,,
Trap 1,flow.Sequence,0_3,2021-11-12T11:54:59.349Z,,,,,,,,,,,,,,,,,,,,,,,,,,,,,,9658.832999976163,,completion,,,,,,,,,,,,,,,,125793,125792.39999997616,116116.901,116128,116133.567,125799.63,,,
Standby,html.Page,0_4_0,2021-11-12T11:55:07.340Z,,,,,,,,,,,,,,,,,,,,,,,,,,,,,,7999.179999999993,,timeout,,,,,,,,,,,,,,,,133783.69999998808,133782.145,125782.965,125793.19999998808,125799.63,133798.81,,,
Holding screen,html.Screen,0_4_1_0_0,2021-11-12T11:55:14.339Z,,,,,,,,,,,,,,,,,,,,,,,,,,,,,,6999.841000000015,,timeout,,,,,,,,,,,,,,,,140782.69999998808,140781.986,133782.145,133784,133798.81,140798.651,,,
screen,html.Screen,0_4_1_0_1_0,2021-11-12T11:55:15.053Z,,,,,,,,,,,,,,,,51,,,,,,,,,,,,,,696.9489999642246,,response,,,13,F,,,,,Space,keypress(Space),,,,instrumental,American -------- --- --- ---- --- --- ------ -- --------<br>---- --------- --- ------- ------------ ---------- ---------<br>--- ---------- ------- ---------- ------- -- -------- ----<br>---- --- ------ ----- ------ -- ---- --- ----- -- - -------<br>-------- -- --- --- -- ----- ----------- ----- -----------<br>---- --- ---------- --- ---- --- -- ----------,141496.39999997616,141495.59999996424,140781.986,140783,140798.651,141498.619,,0,American
screen,html.Screen,0_4_1_0_1_1,2021-11-12T11:55:15.460Z,,,,,,,,,,,,,,,,51,,,,,,,,,,,,,,404.6810000119149,,response,,,13,F,,,,,Space,keypress(Space),,,,instrumental,-------- industry --- --- ---- --- --- ------ -- --------<br>---- --------- --- ------- ------------ ---------- ---------<br>--- ---------- ------- ---------- ------- -- -------- ----<br>---- --- ------ ----- ------ -- ---- --- ----- -- - -------<br>-------- -- --- --- -- ----- ----------- ----- -----------<br>---- --- ---------- --- ---- --- -- ----------,141904,141903.30000001192,141481.954,141496.59999996424,141498.619,141915.304,,1,industry
screen,html.Screen,0_4_1_0_1_2,2021-11-12T11:55:15.852Z,,,,,,,,,,,,,,,,51,,,,,,,,,,,,,,379.9960000119172,,response,,,13,F,,,,,Space,keypress(Space),,,,instrumental,-------- -------- may --- ---- --- --- ------ -- --------<br>---- --------- --- ------- ------------ ---------- ---------<br>--- ---------- ------- ---------- ------- -- -------- ----<br>---- --- ------ ----- ------ -- ---- --- ----- -- - -------<br>-------- -- --- --- -- ----- ----------- ----- -----------<br>---- --- ---------- --- ---- --- -- ----------,142295.80000001192,142295.30000001192,141898.639,141904.30000001192,141915.304,142298.517,,2,may
screen,html.Screen,0_4_1_0_1_3,2021-11-12T11:55:16.228Z,,,,,,,,,,,,,,,,51,,,,,,,,,,,,,,372.6829999880865,,response,,,13,F,,,,,Space,keypress(Space),,,,instrumental,-------- -------- --- not ---- --- --- ------ -- --------<br>---- --------- --- ------- ------------ ---------- ---------<br>--- ---------- ------- ---------- ------- -- -------- ----<br>---- --- ------ ----- ------ -- ---- --- ----- -- - -------<br>-------- -- --- --- -- ----- ----------- ----- -----------<br>---- --- ---------- --- ---- --- -- ----------,142671.80000001192,142671.19999998808,142281.853,142296,142298.517,142681.985,,3,not
screen,html.Screen,0_4_1_0_1_4,2021-11-12T11:55:16.628Z,,,,,,,,,,,,,,,,51,,,,,,,,,,,,,,389.3150000119349,,response,,,13,F,,,,,Space,keypress(Space),,,,instrumental,-------- -------- --- --- know --- --- ------ -- --------<br>---- --------- --- ------- ------------ ---------- ---------<br>--- ---------- ------- ---------- ------- -- -------- ----<br>---- --- ------ ----- ------ -- ---- --- ----- -- - -------<br>-------- -- --- --- -- ----- ----------- ----- -----------<br>---- --- ---------- --- ---- --- -- ----------,143071.80000001192,143071.30000001192,142665.318,142672,142681.985,143081.837,,4,know
screen,html.Screen,0_4_1_0_1_5,2021-11-12T11:55:17.004Z,,,,,,,,,,,,,,,,51,,,,,,,,,,,,,,365.2629999642377,,response,,,13,F,,,,,Space,keypress(Space),,,,instrumental,"-------- -------- --- --- ---- it, --- ------ -- --------<br>---- --------- --- ------- ------------ ---------- ---------<br>--- ---------- ------- ---------- ------- -- -------- ----<br>---- --- ------ ----- ------ -- ---- --- ----- -- - -------<br>-------- -- --- --- -- ----- ----------- ----- -----------<br>---- --- ---------- --- ---- --- -- ----------",143447.80000001192,143447.09999996424,143065.173,143072,143081.837,143448.53,,5,"it,"
screen,html.Screen,0_4_1_0_1_6,2021-11-12T11:55:17.364Z,,,,,,,,,,,,,,,,51,,,,,,,,,,,,,,358.66999998808024,,response,,,13,F,,,,,Space,keypress(Space),,,,instrumental,-------- -------- --- --- ---- --- but ------ -- --------<br>---- --------- --- ------- ------------ ---------- ---------<br>--- ---------- ------- ---------- ------- -- -------- ----<br>---- --- ------ ----- ------ -- ---- --- ----- -- - -------<br>-------- -- --- --- -- ----- ----------- ----- -----------<br>---- --- ---------- --- ---- --- -- ----------,143807.80000001192,143807.19999998808,143431.865,143447.89999997616,143448.53,143815.176,,6,but
screen,html.Screen,0_4_1_0_1_7,2021-11-12T11:55:17.788Z,,,,,,,,,,,,,,,,51,,,,,,,,,,,,,,415.92399996423046,,response,,,13,F,,,,,Space,keypress(Space),,,,instrumental,-------- -------- --- --- ---- --- --- debate -- --------<br>---- --------- --- ------- ------------ ---------- ---------<br>--- ---------- ------- ---------- ------- -- -------- ----<br>---- --- ------ ----- ------ -- ---- --- ----- -- - -------<br>-------- -- --- --- -- ----- ----------- ----- -----------<br>---- --- ---------- --- ---- --- -- ----------,144231.80000001192,144231.09999996424,143798.511,143807.89999997616,143815.176,144248.527,,7,debate
screen,html.Screen,0_4_1_0_1_8,2021-11-12T11:55:18.124Z,,,,,,,,,,,,,,,,51,,,,,,,,,,,,,,318.57299996423535,,response,,,13,F,,,,,Space,keypress(Space),,,,instrumental,-------- -------- --- --- ---- --- --- ------ in --------<br>---- --------- --- ------- ------------ ---------- ---------<br>--- ---------- ------- ---------- ------- -- -------- ----<br>---- --- ------ ----- ------ -- ---- --- ----- -- - -------<br>-------- -- --- --- -- ----- ----------- ----- -----------<br>---- --- ---------- --- ---- --- -- ----------,144567.69999998808,144567.09999996424,144231.861,144232,144248.527,144581.793,,8,in
screen,html.Screen,0_4_1_0_1_9,2021-11-12T11:55:18.428Z,,,,,,,,,,,,,,,,51,,,,,,,,,,,,,,289.3069999642321,,response,,,13,F,,,,,Space,keypress(Space),,,,instrumental,-------- -------- --- --- ---- --- --- ------ -- Congress<br>---- --------- --- ------- ------------ ---------- ---------<br>--- ---------- ------- ---------- ------- -- -------- ----<br>---- --- ------ ----- ------ -- ---- --- ----- -- - -------<br>-------- -- --- --- -- ----- ----------- ----- -----------<br>---- --- ---------- --- ---- --- -- ----------,144871.69999998808,144871.09999996424,144565.128,144567.89999997616,144581.793,144881.677,,9,Congress
screen,html.Screen,0_4_1_0_1_10,2021-11-12T11:55:18.828Z,,,,,,,,,,,,,,,,51,,,,,,,,,,,,,,389.42299996424117,,response,,,13,F,,,,,Space,keypress(Space),,,,instrumental,-------- -------- --- --- ---- --- --- ------ -- --------<br>over --------- --- ------- ------------ ---------- ---------<br>--- ---------- ------- ---------- ------- -- -------- ----<br>---- --- ------ ----- ------ -- ---- --- ----- -- - -------<br>-------- -- --- --- -- ----- ----------- ----- -----------<br>---- --- ---------- --- ---- --- -- ----------,145271.69999998808,145271.09999996424,144865.014,144871.80000001192,144881.677,145281.784,,10,over
screen,html.Screen,0_4_1_0_1_11,2021-11-12T11:55:19.140Z,,,,,,,,,,,,,,,,51,,,,,,,,,,,,,,301.2159999999858,,response,,,13,F,,,,,Space,keypress(Space),,,,instrumental,-------- -------- --- --- ---- --- --- ------ -- --------<br>---- reforming --- ------- ------------ ---------- ---------<br>--- ---------- ------- ---------- ------- -- -------- ----<br>---- --- ------ ----- ------ -- ---- --- ----- -- - -------<br>-------- -- --- --- -- ----- ----------- ----- -----------<br>---- --- ---------- --- ---- --- -- ----------,145583.59999996424,145583,145265.118,145271.89999997616,145281.784,145598.318,,11,reforming
screen,html.Screen,0_4_1_0_1_12,2021-11-12T11:55:19.492Z,,,,,,,,,,,,,,,,51,,,,,,,,,,,,,,336.6820000000007,,response,,,13,F,,,,,Space,keypress(Space),,,,instrumental,-------- -------- --- --- ---- --- --- ------ -- --------<br>---- --------- the ------- ------------ ---------- ---------<br>--- ---------- ------- ---------- ------- -- -------- ----<br>---- --- ------ ----- ------ -- ---- --- ----- -- - -------<br>-------- -- --- --- -- ----- ----------- ----- -----------<br>---- --- ---------- --- ---- --- -- ----------,145935.59999996424,145935,145581.654,145583.80000001192,145598.318,145948.39,,12,the
screen,html.Screen,0_4_1_0_1_13,2021-11-12T11:55:19.876Z,,,,,,,,,,,,,,,,51,,,,,,,,,,,,,,370.5099999761442,,response,,,13,F,,,,,Space,keypress(Space),,,,instrumental,-------- -------- --- --- ---- --- --- ------ -- --------<br>---- --------- --- federal ------------ ---------- ---------<br>--- ---------- ------- ---------- ------- -- -------- ----<br>---- --- ------ ----- ------ -- ---- --- ----- -- - -------<br>-------- -- --- --- -- ----- ----------- ----- -----------<br>---- --- ---------- --- ---- --- -- ----------,146319.59999996424,146318.89999997616,145931.724,145935.69999998808,145948.39,146331.709,,13,federal
screen,html.Screen,0_4_1_0_1_14,2021-11-12T11:55:20.220Z,,,,,,,,,,,,,,,,51,,,,,,,,,,,,,,331.1909999761556,,response,,,13,F,,,,,Space,keypress(Space),,,,instrumental,-------- -------- --- --- ---- --- --- ------ -- --------<br>---- --------- --- ------- government's ---------- ---------<br>--- ---------- ------- ---------- ------- -- -------- ----<br>---- --- ------ ----- ------ -- ---- --- ----- -- - -------<br>-------- -- --- --- -- ----- ----------- ----- -----------<br>---- --- ---------- --- ---- --- -- ----------,146663.5,146662.89999997616,146315.043,146319.69999998808,146331.709,146665.042,,14,government's
screen,html.Screen,0_4_1_0_1_15,2021-11-12T11:55:20.596Z,,,,,,,,,,,,,,,,51,,,,,,,,,,,,,,373.95800000001327,,response,,,13,F,,,,,Space,keypress(Space),,,,instrumental,-------- -------- --- --- ---- --- --- ------ -- --------<br>---- --------- --- ------- ------------ regulatory ---------<br>--- ---------- ------- ---------- ------- -- -------- ----<br>---- --- ------ ----- ------ -- ---- --- ----- -- - -------<br>-------- -- --- --- -- ----- ----------- ----- -----------<br>---- --- ---------- --- ---- --- -- ----------,147039.59999996424,147039,146648.376,146663.69999998808,146665.042,147048.248,,15,regulatory
screen,html.Screen,0_4_1_0_1_16,2021-11-12T11:55:21.012Z,,,,,,,,,,,,,,,,51,,,,,,,,,,,,,,406.6519999761658,,response,,,13,F,,,,,Space,keypress(Space),,,,instrumental,-------- -------- --- --- ---- --- --- ------ -- --------<br>---- --------- --- ------- ------------ ---------- apparatus<br>--- ---------- ------- ---------- ------- -- -------- ----<br>---- --- ------ ----- ------ -- ---- --- ----- -- - -------<br>-------- -- --- --- -- ----- ----------- ----- -----------<br>---- --- ---------- --- ---- --- -- ----------,147455.5,147454.89999997616,147031.584,147039.80000001192,147048.248,147464.975,,16,apparatus
screen,html.Screen,0_4_1_0_1_17,2021-11-12T11:55:21.476Z,,,,,,,,,,,,,,,,51,,,,,,,,,,,,,,453.9249999761523,,response,,,13,F,,,,,Space,keypress(Space),,,,instrumental,-------- -------- --- --- ---- --- --- ------ -- --------<br>---- --------- --- ------- ------------ ---------- ---------<br>may ---------- ------- ---------- ------- -- -------- ----<br>---- --- ------ ----- ------ -- ---- --- ----- -- - -------<br>-------- -- --- --- -- ----- ----------- ----- -----------<br>---- --- ---------- --- ---- --- -- ----------,147919.5,147918.89999997616,147448.309,147455.69999998808,147464.975,147931.628,,17,may
screen,html.Screen,0_4_1_0_1_18,2021-11-12T11:55:21.883Z,,,,,,,,,,,,,,,,51,,,,,,,,,,,,,,395.17200001192396,,response,,,13,F,,,,,Space,keypress(Space),,,,instrumental,-------- -------- --- --- ---- --- --- ------ -- --------<br>---- --------- --- ------- ------------ ---------- ---------<br>--- profoundly ------- ---------- ------- -- -------- ----<br>---- --- ------ ----- ------ -- ---- --- ----- -- - -------<br>-------- -- --- --- -- ----- ----------- ----- -----------<br>---- --- ---------- --- ---- --- -- ----------,148327.39999997616,148326.80000001192,147914.962,147919.69999998808,147931.628,148331.433,,18,profoundly
screen,html.Screen,0_4_1_0_1_19,2021-11-12T11:55:22.324Z,,,,,,,,,,,,,,,,51,,,,,,,,,,,,,,435.36700001193094,,response,,,13,F,,,,,Space,keypress(Space),,,,instrumental,-------- -------- --- --- ---- --- --- ------ -- --------<br>---- --------- --- ------- ------------ ---------- ---------<br>--- ---------- improve ---------- ------- -- -------- ----<br>---- --- ------ ----- ------ -- ---- --- ----- -- - -------<br>-------- -- --- --- -- ----- ----------- ----- -----------<br>---- --- ---------- --- ---- --- -- ----------,148767.5,148766.80000001192,148314.77,148327.59999996424,148331.433,148781.551,,19,improve
screen,html.Screen,0_4_1_0_1_20,2021-11-12T11:55:22.708Z,,,,,,,,,,,,,,,,51,,,,,,,,,,,,,,369.2490000119142,,response,,,13,F,,,,,Space,keypress(Space),,,,instrumental,-------- -------- --- --- ---- --- --- ------ -- --------<br>---- --------- --- ------- ------------ ---------- ---------<br>--- ---------- ------- companies' ------- -- -------- ----<br>---- --- ------ ----- ------ -- ---- --- ----- -- - -------<br>-------- -- --- --- -- ----- ----------- ----- -----------<br>---- --- ---------- --- ---- --- -- ----------,149151.39999997616,149150.80000001192,148764.885,148767.59999996424,148781.551,149164.874,,20,companies'
screen,html.Screen,0_4_1_0_1_21,2021-11-12T11:55:23.140Z,,,,,,,,,,,,,,,,51,,,,,,,,,,,,,,417.9260000119102,,response,,,13,F,,,,,Space,keypress(Space),,,,instrumental,-------- -------- --- --- ---- --- --- ------ -- --------<br>---- --------- --- ------- ------------ ---------- ---------<br>--- ---------- ------- ---------- ability -- -------- ----<br>---- --- ------ ----- ------ -- ---- --- ----- -- - -------<br>-------- -- --- --- -- ----- ----------- ----- -----------<br>---- --- ---------- --- ---- --- -- ----------,149583.5,149582.80000001192,149148.208,149151.69999998808,149164.874,149598.122,,21,ability
screen,html.Screen,0_4_1_0_1_22,2021-11-12T11:55:23.491Z,,,,,,,,,,,,,,,,51,,,,,,,,,,,,,,336.6780000119179,,response,,,13,F,,,,,Space,keypress(Space),,,,instrumental,-------- -------- --- --- ---- --- --- ------ -- --------<br>---- --------- --- ------- ------------ ---------- ---------<br>--- ---------- ------- ---------- ------- to -------- ----<br>---- --- ------ ----- ------ -- ---- --- ----- -- - -------<br>-------- -- --- --- -- ----- ----------- ----- -----------<br>---- --- ---------- --- ---- --- -- ----------,149935.39999997616,149934.80000001192,149581.457,149583.69999998808,149598.122,149948.12,,22,to
screen,html.Screen,0_4_1_0_1_23,2021-11-12T11:55:23.923Z,,,,,,,,,,,,,,,,51,,,,,,,,,,,,,,418.5799999880837,,response,,,13,F,,,,,Space,keypress(Space),,,,instrumental,-------- -------- --- --- ---- --- --- ------ -- --------<br>---- --------- --- ------- ------------ ---------- ---------<br>--- ---------- ------- ---------- ------- -- survive. ----<br>---- --- ------ ----- ------ -- ---- --- ----- -- - -------<br>-------- -- --- --- -- ----- ----------- ----- -----------<br>---- --- ---------- --- ---- --- -- ----------,150367.30000001192,150366.69999998808,149931.455,149935.5,149948.12,150381.482,,23,survive.
screen,html.Screen,0_4_1_0_1_24,2021-11-12T11:55:24.339Z,,,,,,,,,,,,,,,,51,,,,,,,,,,,,,,401.21799998809,,response,,,13,F,,,,,Space,keypress(Space),,,,instrumental,-------- -------- --- --- ---- --- --- ------ -- --------<br>---- --------- --- ------- ------------ ---------- ---------<br>--- ---------- ------- ---------- ------- -- -------- This<br>---- --- ------ ----- ------ -- ---- --- ----- -- - -------<br>-------- -- --- --- -- ----- ----------- ----- -----------<br>---- --- ---------- --- ---- --- -- ----------,150783.30000001192,150782.69999998808,150364.816,150367.5,150381.482,150798.077,,24,This
screen,html.Screen,0_4_1_0_1_25,2021-11-12T11:55:24.675Z,,,,,,,,,,,,,,,,51,,,,,,,,,,,,,,320.522999964247,,response,,,13,F,,,,,Space,keypress(Space),,,,instrumental,-------- -------- --- --- ---- --- --- ------ -- --------<br>---- --------- --- ------- ------------ ---------- ---------<br>--- ---------- ------- ---------- ------- -- -------- ----<br>week --- ------ ----- ------ -- ---- --- ----- -- - -------<br>-------- -- --- --- -- ----- ----------- ----- -----------<br>---- --- ---------- --- ---- --- -- ----------,151119.19999998808,151118.59999996424,150781.412,150783.5,150798.077,151131.378,,25,week
screen,html.Screen,0_4_1_0_1_26,2021-11-12T11:55:25.043Z,,,,,,,,,,,,,,,,51,,,,,,,,,,,,,,355.22199996424024,,response,,,13,F,,,,,Space,keypress(Space),,,,instrumental,-------- -------- --- --- ---- --- --- ------ -- --------<br>---- --------- --- ------- ------------ ---------- ---------<br>--- ---------- ------- ---------- ------- -- -------- ----<br>---- the ------ ----- ------ -- ---- --- ----- -- - -------<br>-------- -- --- --- -- ----- ----------- ----- -----------<br>---- --- ---------- --- ---- --- -- ----------,151487.19999998808,151486.59999996424,151114.713,151119.39999997616,151131.378,151498.026,,26,the
screen,html.Screen,0_4_1_0_1_27,2021-11-12T11:55:25.467Z,,,,,,,,,,,,,,,,51,,,,,,,,,,,,,,412.77400001190836,,response,,,13,F,,,,,Space,keypress(Space),,,,instrumental,-------- -------- --- --- ---- --- --- ------ -- --------<br>---- --------- --- ------- ------------ ---------- ---------<br>--- ---------- ------- ---------- ------- -- -------- ----<br>---- --- Senate ----- ------ -- ---- --- ----- -- - -------<br>-------- -- --- --- -- ----- ----------- ----- -----------<br>---- --- ---------- --- ---- --- -- ----------,151911.39999997616,151910.80000001192,151481.361,151487.39999997616,151498.026,151914.675,,27,Senate
screen,html.Screen,0_4_1_0_1_28,2021-11-12T11:55:25.899Z,,,,,,,,,,,,,,,,51,,,,,,,,,,,,,,427.92499996424885,,response,,,13,F,,,,,Space,keypress(Space),,,,instrumental,-------- -------- --- --- ---- --- --- ------ -- --------<br>---- --------- --- ------- ------------ ---------- ---------<br>--- ---------- ------- ---------- ------- -- -------- ----<br>---- --- ------ seems ------ -- ---- --- ----- -- - -------<br>-------- -- --- --- -- ----- ----------- ----- -----------<br>---- --- ---------- --- ---- --- -- ----------,152343.19999998808,152342.59999996424,151898.01,151911.59999996424,151914.675,152348.025,,28,seems
screen,html.Screen,0_4_1_0_1_29,2021-11-12T11:55:26.299Z,,,,,,,,,,,,,,,,51,,,,,,,,,,,,,,394.4750000000058,,response,,,13,F,,,,,Space,keypress(Space),,,,instrumental,-------- -------- --- --- ---- --- --- ------ -- --------<br>---- --------- --- ------- ------------ ---------- ---------<br>--- ---------- ------- ---------- ------- -- -------- ----<br>---- --- ------ ----- poised -- ---- --- ----- -- - -------<br>-------- -- --- --- -- ----- ----------- ----- -----------<br>---- --- ---------- --- ---- --- -- ----------,152743.09999996424,152742.5,152331.359,152343.39999997616,152348.025,152747.957,,29,poised
screen,html.Screen,0_4_1_0_1_30,2021-11-12T11:55:26.707Z,,,,,,,,,,,,,,,,51,,,,,,,,,,,,,,402.5430000000051,,response,,,13,F,,,,,Space,keypress(Space),,,,instrumental,-------- -------- --- --- ---- --- --- ------ -- --------<br>---- --------- --- ------- ------------ ---------- ---------<br>--- ---------- ------- ---------- ------- -- -------- ----<br>---- --- ------ ----- ------ to ---- --- ----- -- - -------<br>-------- -- --- --- -- ----- ----------- ----- -----------<br>---- --- ---------- --- ---- --- -- ----------,153151.09999996424,153150.5,152731.292,152743.30000001192,152747.957,153164.649,,30,to
screen,html.Screen,0_4_1_0_1_31,2021-11-12T11:55:27.179Z,,,,,,,,,,,,,,,,51,,,,,,,,,,,,,,457.9509999642323,,response,,,13,F,,,,,Space,keypress(Space),,,,instrumental,-------- -------- --- --- ---- --- --- ------ -- --------<br>---- --------- --- ------- ------------ ---------- ---------<br>--- ---------- ------- ---------- ------- -- -------- ----<br>---- --- ------ ----- ------ -- join --- ----- -- - -------<br>-------- -- --- --- -- ----- ----------- ----- -----------<br>---- --- ---------- --- ---- --- -- ----------,153623.19999998808,153622.59999996424,153147.983,153151.19999998808,153164.649,153631.188,,31,join
screen,html.Screen,0_4_1_0_1_32,2021-11-12T11:55:27.571Z,,,,,,,,,,,,,,,,51,,,,,,,,,,,,,,383.41199996424257,,response,,,13,F,,,,,Space,keypress(Space),,,,instrumental,-------- -------- --- --- ---- --- --- ------ -- --------<br>---- --------- --- ------- ------------ ---------- ---------<br>--- ---------- ------- ---------- ------- -- -------- ----<br>---- --- ------ ----- ------ -- ---- the ----- -- - -------<br>-------- -- --- --- -- ----- ----------- ----- -----------<br>---- --- ---------- --- ---- --- -- ----------,154015.19999998808,154014.59999996424,153614.524,153623.39999997616,153631.188,154031.114,,32,the
screen,html.Screen,0_4_1_0_1_33,2021-11-12T11:55:27.931Z,,,,,,,,,,,,,,,,51,,,,,,,,,,,,,,343.3859999999986,,response,,,13,F,,,,,Space,keypress(Space),,,,instrumental,-------- -------- --- --- ---- --- --- ------ -- --------<br>---- --------- --- ------- ------------ ---------- ---------<br>--- ---------- ------- ---------- ------- -- -------- ----<br>---- --- ------ ----- ------ -- ---- --- House -- - -------<br>-------- -- --- --- -- ----- ----------- ----- -----------<br>---- --- ---------- --- ---- --- -- ----------,154375.09999996424,154374.5,154014.45,154015.39999997616,154031.114,154381.232,,33,House
screen,html.Screen,0_4_1_0_1_34,2021-11-12T11:55:28.267Z,,,,,,,,,,,,,,,,51,,,,,,,,,,,,,,329.26800000001094,,response,,,13,F,,,,,Space,keypress(Space),,,,instrumental,-------- -------- --- --- ---- --- --- ------ -- --------<br>---- --------- --- ------- ------------ ---------- ---------<br>--- ---------- ------- ---------- ------- -- -------- ----<br>---- --- ------ ----- ------ -- ---- --- ----- in - -------<br>-------- -- --- --- -- ----- ----------- ----- -----------<br>---- --- ---------- --- ---- --- -- ----------,154711.09999996424,154710.5,154364.566,154375.19999998808,154381.232,154714.453,,34,in
screen,html.Screen,0_4_1_0_1_35,2021-11-12T11:55:28.595Z,,,,,,,,,,,,,,,,51,,,,,,,,,,,,,,324.0469999999914,,response,,,13,F,,,,,Space,keypress(Space),,,,instrumental,-------- -------- --- --- ---- --- --- ------ -- --------<br>---- --------- --- ------- ------------ ---------- ---------<br>--- ---------- ------- ---------- ------- -- -------- ----<br>---- --- ------ ----- ------ -- ---- --- ----- -- a -------<br>-------- -- --- --- -- ----- ----------- ----- -----------<br>---- --- ---------- --- ---- --- -- ----------,155039.09999996424,155038.5,154697.789,154711.30000001192,154714.453,155047.849,,35,a
screen,html.Screen,0_4_1_0_1_36,2021-11-12T11:55:29.003Z,,,,,,,,,,,,,,,,51,,,,,,,,,,,,,,398.6510000000126,,response,,,13,F,,,,,Space,keypress(Space),,,,instrumental,-------- -------- --- --- ---- --- --- ------ -- --------<br>---- --------- --- ------- ------------ ---------- ---------<br>--- ---------- ------- ---------- ------- -- -------- ----<br>---- --- ------ ----- ------ -- ---- --- ----- -- - massive<br>-------- -- --- --- -- ----- ----------- ----- -----------<br>---- --- ---------- --- ---- --- -- ----------,155447.09999996424,155446.5,155031.183,155039.19999998808,155047.849,155447.786,,36,massive
screen,html.Screen,0_4_1_0_1_37,2021-11-12T11:55:29.403Z,,,,,,,,,,,,,,,,51,,,,,,,,,,,,,,398.61399997616536,,response,,,13,F,,,,,Space,keypress(Space),,,,instrumental,-------- -------- --- --- ---- --- --- ------ -- --------<br>---- --------- --- ------- ------------ ---------- ---------<br>--- ---------- ------- ---------- ------- -- -------- ----<br>---- --- ------ ----- ------ -- ---- --- ----- -- - -------<br>overhaul -- --- --- -- ----- ----------- ----- -----------<br>---- --- ---------- --- ---- --- -- ----------,155847,155846.39999997616,155431.121,155447.30000001192,155447.786,155847.685,,37,overhaul
screen,html.Screen,0_4_1_0_1_38,2021-11-12T11:55:29.755Z,,,,,,,,,,,,,,,,51,,,,,,,,,,,,,,350.71499997616047,,response,,,13,F,,,,,Space,keypress(Space),,,,instrumental,-------- -------- --- --- ---- --- --- ------ -- --------<br>---- --------- --- ------- ------------ ---------- ---------<br>--- ---------- ------- ---------- ------- -- -------- ----<br>---- --- ------ ----- ------ -- ---- --- ----- -- - -------<br>-------- of --- --- -- ----- ----------- ----- -----------<br>---- --- ---------- --- ---- --- -- ----------,156199,156198.39999997616,155831.021,155847.09999996424,155847.685,156214.391,,38,of
screen,html.Screen,0_4_1_0_1_39,2021-11-12T11:55:30.099Z,,,,,,,,,,,,,,,,51,,,,,,,,,,,,,,328.0089999761549,,response,,,13,F,,,,,Space,keypress(Space),,,,instrumental,-------- -------- --- --- ---- --- --- ------ -- --------<br>---- --------- --- ------- ------------ ---------- ---------<br>--- ---------- ------- ---------- ------- -- -------- ----<br>---- --- ------ ----- ------ -- ---- --- ----- -- - -------<br>-------- -- the --- -- ----- ----------- ----- -----------<br>---- --- ---------- --- ---- --- -- ----------,156542.89999997616,156542.39999997616,156197.726,156199.19999998808,156214.391,156547.802,,39,the
screen,html.Screen,0_4_1_0_1_40,2021-11-12T11:55:30.459Z,,,,,,,,,,,,,,,,51,,,,,,,,,,,,,,354.4980000119249,,response,,,13,F,,,,,Space,keypress(Space),,,,instrumental,-------- -------- --- --- ---- --- --- ------ -- --------<br>---- --------- --- ------- ------------ ---------- ---------<br>--- ---------- ------- ---------- ------- -- -------- ----<br>---- --- ------ ----- ------ -- ---- --- ----- -- - -------<br>-------- -- --- way -- ----- ----------- ----- -----------<br>---- --- ---------- --- ---- --- -- ----------,156902.89999997616,156902.30000001192,156531.135,156543.19999998808,156547.802,156914.222,,40,way
screen,html.Screen,0_4_1_0_1_41,2021-11-12T11:55:30.787Z,,,,,,,,,,,,,,,,51,,,,,,,,,,,,,,316.1779999761493,,response,,,13,F,,,,,Space,keypress(Space),,,,instrumental,-------- -------- --- --- ---- --- --- ------ -- --------<br>---- --------- --- ------- ------------ ---------- ---------<br>--- ---------- ------- ---------- ------- -- -------- ----<br>---- --- ------ ----- ------ -- ---- --- ----- -- - -------<br>-------- -- --- --- in ----- ----------- ----- -----------<br>---- --- ---------- --- ---- --- -- ----------,157230.89999997616,157230.39999997616,156897.56,156903.09999996424,156914.222,157247.757,,41,in
screen,html.Screen,0_4_1_0_1_42,2021-11-12T11:55:31.147Z,,,,,,,,,,,,,,,,51,,,,,,,,,,,,,,342.6429999761458,,response,,,13,F,,,,,Space,keypress(Space),,,,instrumental,-------- -------- --- --- ---- --- --- ------ -- --------<br>---- --------- --- ------- ------------ ---------- ---------<br>--- ---------- ------- ---------- ------- -- -------- ----<br>---- --- ------ ----- ------ -- ---- --- ----- -- - -------<br>-------- -- --- --- -- which ----------- ----- -----------<br>---- --- ---------- --- ---- --- -- ----------,157590.89999997616,157590.39999997616,157231.089,157231.09999996424,157247.757,157597.685,,42,which
screen,html.Screen,0_4_1_0_1_43,2021-11-12T11:55:31.843Z,,,,,,,,,,,,,,,,51,,,,,,,,,,,,,,688.6150000119233,,response,,,13,F,,,,,Space,keypress(Space),,,,instrumental,-------- -------- --- --- ---- --- --- ------ -- --------<br>---- --------- --- ------- ------------ ---------- ---------<br>--- ---------- ------- ---------- ------- -- -------- ----<br>---- --- ------ ----- ------ -- ---- --- ----- -- - -------<br>-------- -- --- --- -- ----- bureaucrats ----- -----------<br>---- --- ---------- --- ---- --- -- ----------,158286.89999997616,158286.30000001192,157581.02,157591.09999996424,157597.685,158297.457,,43,bureaucrats
screen,html.Screen,0_4_1_0_1_44,2021-11-12T11:55:32.251Z,,,,,,,,,,,,,,,,51,,,,,,,,,,,,,,396.7429999880842,,response,,,13,F,,,,,Space,keypress(Space),,,,instrumental,-------- -------- --- --- ---- --- --- ------ -- --------<br>---- --------- --- ------- ------------ ---------- ---------<br>--- ---------- ------- ---------- ------- -- -------- ----<br>---- --- ------ ----- ------ -- ---- --- ----- -- - -------<br>-------- -- --- --- -- ----- ----------- enact -----------<br>---- --- ---------- --- ---- --- -- ----------,158694.80000001192,158694.19999998808,158280.794,158287.19999998808,158297.457,158697.501,,44,enact
screen,html.Screen,0_4_1_0_1_45,2021-11-12T11:55:32.731Z,,,,,,,,,,,,,,,,51,,,,,,,,,,,,,,476.79900001193164,,response,,,13,F,,,,,Space,keypress(Space),,,,instrumental,-------- -------- --- --- ---- --- --- ------ -- --------<br>---- --------- --- ------- ------------ ---------- ---------<br>--- ---------- ------- ---------- ------- -- -------- ----<br>---- --- ------ ----- ------ -- ---- --- ----- -- - -------<br>-------- -- --- --- -- ----- ----------- ----- regulations<br>---- --- ---------- --- ---- --- -- ----------,159174.89999997616,159174.30000001192,158680.837,158695,158697.501,159180.953,,45,regulations
screen,html.Screen,0_4_1_0_1_46,2021-11-12T11:55:33.147Z,,,,,,,,,,,,,,,,51,,,,,,,,,,,,,,409.24699998807046,,response,,,13,F,,,,,Space,keypress(Space),,,,instrumental,-------- -------- --- --- ---- --- --- ------ -- --------<br>---- --------- --- ------- ------------ ---------- ---------<br>--- ---------- ------- ---------- ------- -- -------- ----<br>---- --- ------ ----- ------ -- ---- --- ----- -- - -------<br>-------- -- --- --- -- ----- ----------- ----- -----------<br>that --- ---------- --- ---- --- -- ----------,159590.89999997616,159590.19999998808,159164.287,159175,159180.953,159597.553,,46,that
screen,html.Screen,0_4_1_0_1_47,2021-11-12T11:55:33.523Z,,,,,,,,,,,,,,,,51,,,,,,,,,,,,,,368.64699998806464,,response,,,13,F,,,,,Space,keypress(Space),,,,instrumental,-------- -------- --- --- ---- --- --- ------ -- --------<br>---- --------- --- ------- ------------ ---------- ---------<br>--- ---------- ------- ---------- ------- -- -------- ----<br>---- --- ------ ----- ------ -- ---- --- ----- -- - -------<br>-------- -- --- --- -- ----- ----------- ----- -----------<br>---- are ---------- --- ---- --- -- ----------,159966.80000001192,159966.19999998808,159580.888,159591.09999996424,159597.553,159980.79,,47,are
screen,html.Screen,0_4_1_0_1_48,2021-11-12T11:55:33.963Z,,,,,,,,,,,,,,,,51,,,,,,,,,,,,,,425.30999996422906,,response,,,13,F,,,,,Space,keypress(Space),,,,instrumental,-------- -------- --- --- ---- --- --- ------ -- --------<br>---- --------- --- ------- ------------ ---------- ---------<br>--- ---------- ------- ---------- ------- -- -------- ----<br>---- --- ------ ----- ------ -- ---- --- ----- -- - -------<br>-------- -- --- --- -- ----- ----------- ----- -----------<br>---- --- strangling --- ---- --- -- ----------,160406.69999998808,160406.09999996424,159964.126,159966.89999997616,159980.79,160414.19,,48,strangling
screen,html.Screen,0_4_1_0_1_49,2021-11-12T11:55:34.403Z,,,,,,,,,,,,,,,,51,,,,,,,,,,,,,,431.9099999642349,,response,,,13,F,,,,,Space,keypress(Space),,,,instrumental,-------- -------- --- --- ---- --- --- ------ -- --------<br>---- --------- --- ------- ------------ ---------- ---------<br>--- ---------- ------- ---------- ------- -- -------- ----<br>---- --- ------ ----- ------ -- ---- --- ----- -- - -------<br>-------- -- --- --- -- ----- ----------- ----- -----------<br>---- --- ---------- the ---- --- -- ----------,160846.69999998808,160846.09999996424,160397.524,160406.89999997616,160414.19,160847.386,,49,the
screen,html.Screen,0_4_1_0_1_50,2021-11-12T11:55:34.843Z,,,,,,,,,,,,,,,,51,,,,,,,,,,,,,,438.6140000000014,,response,,,13,F,,,,,Space,keypress(Space),,,,instrumental,-------- -------- --- --- ---- --- --- ------ -- --------<br>---- --------- --- ------- ------------ ---------- ---------<br>--- ---------- ------- ---------- ------- -- -------- ----<br>---- --- ------ ----- ------ -- ---- --- ----- -- - -------<br>-------- -- --- --- -- ----- ----------- ----- -----------<br>---- --- ---------- --- life --- -- ----------,161286.69999998808,161286,160830.722,160846.89999997616,160847.386,161297.463,,50,life
