sender,sender_type,sender_id,timestamp,meta,,Blues,Classical,Country,Dance,Electronic,Folk,Gospel,Hip-Hop,Jazz,Latin,Musical/Film,New-age,Pop,Provo_ID,R&B,Rap,Reggae,Religious,Rock,Soul,Swing,Traditional,age,artist_name,correct,correctResponse,distraction,duration,education,ended_on,familiarity,gender,item,list,music_frequency,offensiveness,pleasantness,preference,response,response_action,snippet_file,song_name,song_rating,sound,text,time_commit,time_end,time_render,time_run,time_show,time_switch,url,word,word_ID
Instructions,html.Page,0_0,2021-12-10T10:29:03.682Z,"{""labjs_version"":""20.2.3"",""labjs_build"":{""flavor"":""production"",""commit"":""7ea907d66ca8aeef8054924ca5d82ffbe11e34e5""},""location"":""https://run.pavlovia.org/mvasilev/lab_music_f/"",""userAgent"":""Mozilla/5.0 (Windows NT 6.1; Win64; x64) AppleWebKit/537.36 (KHTML, like Gecko) Chrome/96.0.4664.93 Safari/537.36"",""platform"":""Win32"",""language"":""en-US"",""locale"":""en-US"",""timeZone"":""Europe/London"",""timezoneOffset"":0,""screen_width"":1920,""screen_height"":1080,""scroll_width"":1920,""scroll_height"":959,""window_innerWidth"":1920,""window_innerHeight"":1007,""devicePixelRatio"":1}",,,,,,,,,,,,,,,,,,,,,,,,,,,,,48252.791000047684,,form submission,,,,,,,,,,,,,,,,57780.5,57779.200000047684,9476.399,9493.900000095367,9526.409,57775.384,{},,
Headphones,html.Page,0_1,2021-12-10T10:29:06.375Z,,,,,,,,,,,,,,,,,,,,,,,,,,,,,,2694.2160000238437,,form submission,,,,,,,,,,,,,,,,60470,60469.60000002384,57758.706,57781.200000047684,57775.384,60475.159,,,
Holding screen,html.Screen,0_2_0_0,2021-12-10T10:29:16.370Z,,,,,,,,,,,,,,,,,,,,,,,,,,,,,,10000.668000000005,,timeout,,,,,,,,,,,,,,,,70465.30000007153,70459.157,60458.478,60470.5,60475.159,70475.827,,,
screen,html.Screen,0_2_0_1_0,2021-12-10T10:29:18.110Z,,,,,,,,,,,,,,,,53,,,,,,,,,,,,,,1728.373000047679,,response,,,99,,,,,,Space,keypress(Space),,,,,When -- ----- -- ------ - ------- --- ----------<br>------------- ------ ------ ---- ---- ------- ----- -- ----<br>-------- ------- -- ---------- --- - --- ----- ----- ----<br>---- --- --- ----- --- ---- ---- ------- ----- ---- -------<br>--- --- -- ----- -- --- ---- -- --- ---- -- ------ ------<br>--- ----- -- ----,72205.60000002384,72204.20000004768,70459.157,70465.70000004768,70475.827,72209.83,,0,When
screen,html.Screen,0_2_0_1_1,2021-12-10T10:29:19.238Z,,,,,,,,,,,,,,,,53,,,,,,,,,,,,,,1121.870000047682,,response,,,99,,,,,,Space,keypress(Space),,,,,---- it ----- -- ------ - ------- --- ----------<br>------------- ------ ------ ---- ---- ------- ----- -- ----<br>-------- ------- -- ---------- --- - --- ----- ----- ----<br>---- --- --- ----- --- ---- ---- ------- ----- ---- -------<br>--- --- -- ----- -- --- ---- -- --- ---- -- ------ ------<br>--- ----- -- ----,73332.70000004768,73331.70000004768,72193.159,72206,72209.83,73343.248,,1,it
screen,html.Screen,0_2_0_1_2,2021-12-10T10:29:20.389Z,,,,,,,,,,,,,,,,53,,,,,,,,,,,,,,1140.4520000476768,,response,,,99,,,,,,Space,keypress(Space),,,,,---- -- comes -- ------ - ------- --- ----------<br>------------- ------ ------ ---- ---- ------- ----- -- ----<br>-------- ------- -- ---------- --- - --- ----- ----- ----<br>---- --- --- ----- --- ---- ---- ------- ----- ---- -------<br>--- --- -- ----- -- --- ---- -- --- ---- -- ------ ------<br>--- ----- -- ----,74484.60000002384,74483.70000004768,73326.578,73333,73343.248,74493.567,,2,comes
screen,html.Screen,0_2_0_1_3,2021-12-10T10:29:21.293Z,,,,,,,,,,,,,,,,53,,,,,,,,,,,,,,894.1330000476883,,response,,,99,,,,,,Space,keypress(Space),,,,,---- -- ----- to ------ - ------- --- ----------<br>------------- ------ ------ ---- ---- ------- ----- -- ----<br>-------- ------- -- ---------- --- - --- ----- ----- ----<br>---- --- --- ----- --- ---- ---- ------- ----- ---- -------<br>--- --- -- ----- -- --- ---- -- --- ---- -- ------ ------<br>--- ----- -- ----,75388.60000002384,75387.70000004768,74476.897,74484.90000009537,74493.567,75393.876,,3,to
screen,html.Screen,0_2_0_1_4,2021-12-10T10:29:22.254Z,,,,,,,,,,,,,,,,53,,,,,,,,,,,,,,953.724000023838,,response,,,99,,,,,,Space,keypress(Space),,,,,---- -- ----- -- having - ------- --- ----------<br>------------- ------ ------ ---- ---- ------- ----- -- ----<br>-------- ------- -- ---------- --- - --- ----- ----- ----<br>---- --- --- ----- --- ---- ---- ------- ----- ---- -------<br>--- --- -- ----- -- --- ---- -- --- ---- -- ------ ------<br>--- ----- -- ----,76348.80000007153,76347.60000002384,75377.206,75389.10000002384,75393.876,76360.886,,4,having
screen,html.Screen,0_2_0_1_5,2021-12-10T10:29:22.821Z,,,,,,,,,,,,,,,,53,,,,,,,,,,,,,,554.7140000238433,,response,,,99,,,,,,Space,keypress(Space),,,,,---- -- ----- -- ------ a ------- --- ----------<br>------------- ------ ------ ---- ---- ------- ----- -- ----<br>-------- ------- -- ---------- --- - --- ----- ----- ----<br>---- --- --- ----- --- ---- ---- ------- ----- ---- -------<br>--- --- -- ----- -- --- ---- -- --- ---- -- ------ ------<br>--- ----- -- ----,76916.5,76915.60000002384,76344.215,76349.10000002384,76360.886,76927.621,,5,a
screen,html.Screen,0_2_0_1_6,2021-12-10T10:29:23.357Z,,,,,,,,,,,,,,,,53,,,,,,,,,,,,,,523.8790000000008,,response,,,99,,,,,,Space,keypress(Space),,,,,---- -- ----- -- ------ - lasting --- ----------<br>------------- ------ ------ ---- ---- ------- ----- -- ----<br>-------- ------- -- ---------- --- - --- ----- ----- ----<br>---- --- --- ----- --- ---- ---- ------- ----- ---- -------<br>--- --- -- ----- -- --- ---- -- --- ---- -- ------ ------<br>--- ----- -- ----,77452.5,77451.5,76910.951,76917,76927.621,77461.116,,6,lasting
screen,html.Screen,0_2_0_1_7,2021-12-10T10:29:23.829Z,,,,,,,,,,,,,,,,53,,,,,,,,,,,,,,462.38400000000547,,response,,,99,,,,,,Space,keypress(Space),,,,,---- -- ----- -- ------ - ------- and ----------<br>------------- ------ ------ ---- ---- ------- ----- -- ----<br>-------- ------- -- ---------- --- - --- ----- ----- ----<br>---- --- --- ----- --- ---- ---- ------- ----- ---- -------<br>--- --- -- ----- -- --- ---- -- --- ---- -- ------ ------<br>--- ----- -- ----,77924.5,77923.5,77444.446,77452.80000007153,77461.116,77927.877,,7,and
screen,html.Screen,0_2_0_1_8,2021-12-10T10:29:24.509Z,,,,,,,,,,,,,,,,53,,,,,,,,,,,,,,675.6230000000069,,response,,,99,,,,,,Space,keypress(Space),,,,,---- -- ----- -- ------ - ------- --- fulfilling<br>------------- ------ ------ ---- ---- ------- ----- -- ----<br>-------- ------- -- ---------- --- - --- ----- ----- ----<br>---- --- --- ----- --- ---- ---- ------- ----- ---- -------<br>--- --- -- ----- -- --- ---- -- --- ---- -- ------ ------<br>--- ----- -- ----,78604.5,78603.5,77911.207,77924.70000004768,77927.877,78611.408,,8,fulfilling
screen,html.Screen,0_2_0_1_9,2021-12-10T10:29:25.517Z,,,,,,,,,,,,,,,,53,,,,,,,,,,,,,,999.9920000953716,,response,,,99,,,,,,Space,keypress(Space),,,,,"---- -- ----- -- ------ - ------- --- ----------<br>relationship, ------ ------ ---- ---- ------- ----- -- ----<br>-------- ------- -- ---------- --- - --- ----- ----- ----<br>---- --- --- ----- --- ---- ---- ------- ----- ---- -------<br>--- --- -- ----- -- --- ---- -- --- ---- -- ------ ------<br>--- ----- -- ----",79612.40000009537,79611.40000009537,78594.738,78604.80000007153,78611.408,79628.297,,9,"relationship,"
screen,html.Screen,0_2_0_1_10,2021-12-10T10:29:26.213Z,,,,,,,,,,,,,,,,53,,,,,,,,,,,,,,679.1030000953615,,response,,,99,,,,,,Space,keypress(Space),,,,,---- -- ----- -- ------ - ------- --- ----------<br>------------- common ------ ---- ---- ------- ----- -- ----<br>-------- ------- -- ---------- --- - --- ----- ----- ----<br>---- --- --- ----- --- ---- ---- ------- ----- ---- -------<br>--- --- -- ----- -- --- ---- -- --- ---- -- ------ ------<br>--- ----- -- ----,80308.20000004768,80307.40000009537,79611.627,79612.60000002384,79628.297,80311.811,,10,common
screen,html.Screen,0_2_0_1_11,2021-12-10T10:29:26.893Z,,,,,,,,,,,,,,,,53,,,,,,,,,,,,,,675.4890000715241,,response,,,99,,,,,,Space,keypress(Space),,,,,---- -- ----- -- ------ - ------- --- ----------<br>------------- ------ wisdom ---- ---- ------- ----- -- ----<br>-------- ------- -- ---------- --- - --- ----- ----- ----<br>---- --- --- ----- --- ---- ---- ------- ----- ---- -------<br>--- --- -- ----- -- --- ---- -- --- ---- -- ------ ------<br>--- ----- -- ----,80988.30000007153,80987.30000007153,80295.141,80308.60000002384,80311.811,80995.411,,11,wisdom
screen,html.Screen,0_2_0_1_12,2021-12-10T10:29:27.373Z,,,,,,,,,,,,,,,,53,,,,,,,,,,,,,,471.78900004769093,,response,,,99,,,,,,Space,keypress(Space),,,,,---- -- ----- -- ------ - ------- --- ----------<br>------------- ------ ------ says ---- ------- ----- -- ----<br>-------- ------- -- ---------- --- - --- ----- ----- ----<br>---- --- --- ----- --- ---- ---- ------- ----- ---- -------<br>--- --- -- ----- -- --- ---- -- --- ---- -- ------ ------<br>--- ----- -- ----,81468.10000002384,81467.20000004768,80978.74,80988.5,80995.411,81478.83,,12,says
screen,html.Screen,0_2_0_1_13,2021-12-10T10:29:27.885Z,,,,,,,,,,,,,,,,53,,,,,,,,,,,,,,500.4700000715238,,response,,,99,,,,,,Space,keypress(Space),,,,,---- -- ----- -- ------ - ------- --- ----------<br>------------- ------ ------ ---- that ------- ----- -- ----<br>-------- ------- -- ---------- --- - --- ----- ----- ----<br>---- --- --- ----- --- ---- ---- ------- ----- ---- -------<br>--- --- -- ----- -- --- ---- -- --- ---- -- ------ ------<br>--- ----- -- ----,81980.20000004768,81979.30000007153,81462.16,81468.40000009537,81478.83,81995.589,,13,that
screen,html.Screen,0_2_0_1_14,2021-12-10T10:29:28.341Z,,,,,,,,,,,,,,,,53,,,,,,,,,,,,,,440.01100002383464,,response,,,99,,,,,,Space,keypress(Space),,,,,---- -- ----- -- ------ - ------- --- ----------<br>------------- ------ ------ ---- ---- feeling ----- -- ----<br>-------- ------- -- ---------- --- - --- ----- ----- ----<br>---- --- --- ----- --- ---- ---- ------- ----- ---- -------<br>--- --- -- ----- -- --- ---- -- --- ---- -- ------ ------<br>--- ----- -- ----,82436.5,82435.60000002384,81978.919,81980.40000009537,81995.589,82445.791,,14,feeling
screen,html.Screen,0_2_0_1_15,2021-12-10T10:29:28.877Z,,,,,,,,,,,,,,,,53,,,,,,,,,,,,,,525.5090000715281,,response,,,99,,,,,,Space,keypress(Space),,,,,---- -- ----- -- ------ - ------- --- ----------<br>------------- ------ ------ ---- ---- ------- close -- ----<br>-------- ------- -- ---------- --- - --- ----- ----- ----<br>---- --- --- ----- --- ---- ---- ------- ----- ---- -------<br>--- --- -- ----- -- --- ---- -- --- ---- -- ------ ------<br>--- ----- -- ----,82972.10000002384,82971.30000007153,82429.12,82436.80000007153,82445.791,82979.203,,15,close
screen,html.Screen,0_2_0_1_16,2021-12-10T10:29:29.301Z,,,,,,,,,,,,,,,,53,,,,,,,,,,,,,,415.99700004768965,,response,,,99,,,,,,Space,keypress(Space),,,,,---- -- ----- -- ------ - ------- --- ----------<br>------------- ------ ------ ---- ---- ------- ----- to ----<br>-------- ------- -- ---------- --- - --- ----- ----- ----<br>---- --- --- ----- --- ---- ---- ------- ----- ---- -------<br>--- --- -- ----- -- --- ---- -- --- ---- -- ------ ------<br>--- ----- -- ----,83396,83395.20000004768,82962.533,82972.40000009537,82979.203,83412.704,,16,to
screen,html.Screen,0_2_0_1_17,2021-12-10T10:29:29.813Z,,,,,,,,,,,,,,,,53,,,,,,,,,,,,,,494.4960000476858,,response,,,99,,,,,,Space,keypress(Space),,,,,---- -- ----- -- ------ - ------- --- ----------<br>------------- ------ ------ ---- ---- ------- ----- -- your<br>-------- ------- -- ---------- --- - --- ----- ----- ----<br>---- --- --- ----- --- ---- ---- ------- ----- ---- -------<br>--- --- -- ----- -- --- ---- -- --- ---- -- ------ ------<br>--- ----- -- ----,83908.10000002384,83907.20000004768,83396.033,83396.30000007153,83412.704,83912.799,,17,your
screen,html.Screen,0_2_0_1_18,2021-12-10T10:29:30.277Z,,,,,,,,,,,,,,,,53,,,,,,,,,,,,,,458.40100004768465,,response,,,99,,,,,,Space,keypress(Space),,,,,---- -- ----- -- ------ - ------- --- ----------<br>------------- ------ ------ ---- ---- ------- ----- -- ----<br>romantic ------- -- ---------- --- - --- ----- ----- ----<br>---- --- --- ----- --- ---- ---- ------- ----- ---- -------<br>--- --- -- ----- -- --- ---- -- --- ---- -- ------ ------<br>--- ----- -- ----,84372,84371.20000004768,83896.129,83908.30000007153,83912.799,84379.575,,18,romantic
screen,html.Screen,0_2_0_1_19,2021-12-10T10:29:30.757Z,,,,,,,,,,,,,,,,53,,,,,,,,,,,,,,471.6250000476866,,response,,,99,,,,,,Space,keypress(Space),,,,,---- -- ----- -- ------ - ------- --- ----------<br>------------- ------ ------ ---- ---- ------- ----- -- ----<br>-------- partner -- ---------- --- - --- ----- ----- ----<br>---- --- --- ----- --- ---- ---- ------- ----- ---- -------<br>--- --- -- ----- -- --- ---- -- --- ---- -- ------ ------<br>--- ----- -- ----,84852,84851.20000004768,84362.905,84372.20000004768,84379.575,84863.019,,19,partner
screen,html.Screen,0_2_0_1_20,2021-12-10T10:29:31.237Z,,,,,,,,,,,,,,,,53,,,,,,,,,,,,,,468.0810000238416,,response,,,99,,,,,,Space,keypress(Space),,,,,---- -- ----- -- ------ - ------- --- ----------<br>------------- ------ ------ ---- ---- ------- ----- -- ----<br>-------- ------- is ---------- --- - --- ----- ----- ----<br>---- --- --- ----- --- ---- ---- ------- ----- ---- -------<br>--- --- -- ----- -- --- ---- -- --- ---- -- ------ ------<br>--- ----- -- ----,85331.90000009537,85331.10000002384,84846.349,84852.20000004768,84863.019,85346.488,,20,is
screen,html.Screen,0_2_0_1_21,2021-12-10T10:29:31.757Z,,,,,,,,,,,,,,,,53,,,,,,,,,,,,,,504.812000071528,,response,,,99,,,,,,Space,keypress(Space),,,,,---- -- ----- -- ------ - ------- --- ----------<br>------------- ------ ------ ---- ---- ------- ----- -- ----<br>-------- ------- -- paramount. --- - --- ----- ----- ----<br>---- --- --- ----- --- ---- ---- ------- ----- ---- -------<br>--- --- -- ----- -- --- ---- -- --- ---- -- ------ ------<br>--- ----- -- ----,85852.10000002384,85851.30000007153,85329.818,85332.20000004768,85346.488,85863.182,,21,paramount.
screen,html.Screen,0_2_0_1_22,2021-12-10T10:29:32.261Z,,,,,,,,,,,,,,,,53,,,,,,,,,,,,,,491.91800002384116,,response,,,99,,,,,,Space,keypress(Space),,,,,---- -- ----- -- ------ - ------- --- ----------<br>------------- ------ ------ ---- ---- ------- ----- -- ----<br>-------- ------- -- ---------- But - --- ----- ----- ----<br>---- --- --- ----- --- ---- ---- ------- ----- ---- -------<br>--- --- -- ----- -- --- ---- -- --- ---- -- ------ ------<br>--- ----- -- ----,86355.90000009537,86355.10000002384,85846.513,85852.5,85863.182,86363.53,,22,But
screen,html.Screen,0_2_0_1_23,2021-12-10T10:29:32.749Z,,,,,,,,,,,,,,,,53,,,,,,,,,,,,,,479.47000000000116,,response,,,99,,,,,,Space,keypress(Space),,,,,---- -- ----- -- ------ - ------- --- ----------<br>------------- ------ ------ ---- ---- ------- ----- -- ----<br>-------- ------- -- ---------- --- a --- ----- ----- ----<br>---- --- --- ----- --- ---- ---- ------- ----- ---- -------<br>--- --- -- ----- -- --- ---- -- --- ---- -- ------ ------<br>--- ----- -- ----,86843.90000009537,86843,86346.858,86356.10000002384,86363.53,86846.859,,23,a
screen,html.Screen,0_2_0_1_24,2021-12-10T10:29:33.221Z,,,,,,,,,,,,,,,,53,,,,,,,,,,,,,,468.2410000238451,,response,,,99,,,,,,Space,keypress(Space),,,,,---- -- ----- -- ------ - ------- --- ----------<br>------------- ------ ------ ---- ---- ------- ----- -- ----<br>-------- ------- -- ---------- --- - new ----- ----- ----<br>---- --- --- ----- --- ---- ---- ------- ----- ---- -------<br>--- --- -- ----- -- --- ---- -- --- ---- -- ------ ------<br>--- ----- -- ----,87315.80000007153,87315.10000002384,86830.189,86844.10000002384,86846.859,87330.29,,24,new
screen,html.Screen,0_2_0_1_25,2021-12-10T10:29:33.685Z,,,,,,,,,,,,,,,,53,,,,,,,,,,,,,,448.7100000000064,,response,,,99,,,,,,Space,keypress(Space),,,,,---- -- ----- -- ------ - ------- --- ----------<br>------------- ------ ------ ---- ---- ------- ----- -- ----<br>-------- ------- -- ---------- --- - --- study ----- ----<br>---- --- --- ----- --- ---- ---- ------- ----- ---- -------<br>--- --- -- ----- -- --- ---- -- --- ---- -- ------ ------<br>--- ----- -- ----,87779.90000009537,87779,87313.62,87316.10000002384,87330.29,87797.088,,25,study
screen,html.Screen,0_2_0_1_26,2021-12-10T10:29:34.133Z,,,,,,,,,,,,,,,,53,,,,,,,,,,,,,,429.9119999999966,,response,,,99,,,,,,Space,keypress(Space),,,,,---- -- ----- -- ------ - ------- --- ----------<br>------------- ------ ------ ---- ---- ------- ----- -- ----<br>-------- ------- -- ---------- --- - --- ----- finds ----<br>---- --- --- ----- --- ---- ---- ------- ----- ---- -------<br>--- --- -- ----- -- --- ---- -- --- ---- -- ------ ------<br>--- ----- -- ----,88227.80000007153,88227,87780.418,87780.10000002384,87797.088,88230.675,,26,finds
screen,html.Screen,0_2_0_1_27,2021-12-10T10:29:34.605Z,,,,,,,,,,,,,,,,53,,,,,,,,,,,,,,468.3249999999971,,response,,,99,,,,,,Space,keypress(Space),,,,,---- -- ----- -- ------ - ------- --- ----------<br>------------- ------ ------ ---- ---- ------- ----- -- ----<br>-------- ------- -- ---------- --- - --- ----- ----- that<br>---- --- --- ----- --- ---- ---- ------- ----- ---- -------<br>--- --- -- ----- -- --- ---- -- --- ---- -- ------ ------<br>--- ----- -- ----,88699.80000007153,88699,88214.003,88228.10000002384,88230.675,88714.04,,27,that
screen,html.Screen,0_2_0_1_28,2021-12-10T10:29:35.077Z,,,,,,,,,,,,,,,,53,,,,,,,,,,,,,,456.86000009537383,,response,,,99,,,,,,Space,keypress(Space),,,,,---- -- ----- -- ------ - ------- --- ----------<br>------------- ------ ------ ---- ---- ------- ----- -- ----<br>-------- ------- -- ---------- --- - --- ----- ----- ----<br>it's --- --- ----- --- ---- ---- ------- ----- ---- -------<br>--- --- -- ----- -- --- ---- -- --- ---- -- ------ ------<br>--- ----- -- ----,89171.80000007153,89170.90000009537,88697.37,88700,88714.04,89180.872,,28,it's
screen,html.Screen,0_2_0_1_29,2021-12-10T10:29:35.541Z,,,,,,,,,,,,,,,,53,,,,,,,,,,,,,,454.0280000953644,,response,,,99,,,,,,Space,keypress(Space),,,,,---- -- ----- -- ------ - ------- --- ----------<br>------------- ------ ------ ---- ---- ------- ----- -- ----<br>-------- ------- -- ---------- --- - --- ----- ----- ----<br>---- not --- ----- --- ---- ---- ------- ----- ---- -------<br>--- --- -- ----- -- --- ---- -- --- ---- -- ------ ------<br>--- ----- -- ----,89635.70000004768,89634.90000009537,89164.201,89172,89180.872,89647.515,,29,not
screen,html.Screen,0_2_0_1_30,2021-12-10T10:29:35.989Z,,,,,,,,,,,,,,,,53,,,,,,,,,,,,,,435.385000095368,,response,,,99,,,,,,Space,keypress(Space),,,,,---- -- ----- -- ------ - ------- --- ----------<br>------------- ------ ------ ---- ---- ------- ----- -- ----<br>-------- ------- -- ---------- --- - --- ----- ----- ----<br>---- --- how ----- --- ---- ---- ------- ----- ---- -------<br>--- --- -- ----- -- --- ---- -- --- ---- -- ------ ------<br>--- ----- -- ----,90083.70000004768,90082.90000009537,89630.846,89635.90000009537,89647.515,90097.819,,30,how
screen,html.Screen,0_2_0_1_31,2021-12-10T10:29:36.413Z,,,,,,,,,,,,,,,,53,,,,,,,,,,,,,,409.0810000953643,,response,,,99,,,,,,Space,keypress(Space),,,,,---- -- ----- -- ------ - ------- --- ----------<br>------------- ------ ------ ---- ---- ------- ----- -- ----<br>-------- ------- -- ---------- --- - --- ----- ----- ----<br>---- --- --- close --- ---- ---- ------- ----- ---- -------<br>--- --- -- ----- -- --- ---- -- --- ---- -- ------ ------<br>--- ----- -- ----,90507.60000002384,90506.90000009537,90081.147,90084,90097.819,90514.515,,31,close
screen,html.Screen,0_2_0_1_32,2021-12-10T10:29:36.828Z,,,,,,,,,,,,,,,,53,,,,,,,,,,,,,,408.28500007152616,,response,,,99,,,,,,Space,keypress(Space),,,,,---- -- ----- -- ------ - ------- --- ----------<br>------------- ------ ------ ---- ---- ------- ----- -- ----<br>-------- ------- -- ---------- --- - --- ----- ----- ----<br>---- --- --- ----- you ---- ---- ------- ----- ---- -------<br>--- --- -- ----- -- --- ---- -- --- ---- -- ------ ------<br>--- ----- -- ----,90923.60000002384,90922.80000007153,90497.845,90508,90514.515,90931.289,,32,you
screen,html.Screen,0_2_0_1_33,2021-12-10T10:29:37.460Z,,,,,,,,,,,,,,,,53,,,,,,,,,,,,,,623.5110000715213,,response,,,99,,,,,,Space,keypress(Space),,,,,---- -- ----- -- ------ - ------- --- ----------<br>------------- ------ ------ ---- ---- ------- ----- -- ----<br>-------- ------- -- ---------- --- - --- ----- ----- ----<br>---- --- --- ----- --- feel ---- ------- ----- ---- -------<br>--- --- -- ----- -- --- ---- -- --- ---- -- ------ ------<br>--- ----- -- ----,91555.60000002384,91554.80000007153,90914.619,90923.90000009537,90931.289,91564.749,,33,feel
screen,html.Screen,0_2_0_1_34,2021-12-10T10:29:37.869Z,,,,,,,,,,,,,,,,53,,,,,,,,,,,,,,398.0510000715294,,response,,,99,,,,,,Space,keypress(Space),,,,,---- -- ----- -- ------ - ------- --- ----------<br>------------- ------ ------ ---- ---- ------- ----- -- ----<br>-------- ------- -- ---------- --- - --- ----- ----- ----<br>---- --- --- ----- --- ---- that ------- ----- ---- -------<br>--- --- -- ----- -- --- ---- -- --- ---- -- ------ ------<br>--- ----- -- ----,91963.70000004768,91962.80000007153,91548.079,91555.80000007153,91564.749,91964.95,,34,that
screen,html.Screen,0_2_0_1_35,2021-12-10T10:29:38.373Z,,,,,,,,,,,,,,,,53,,,,,,,,,,,,,,502.2500000476866,,response,,,99,,,,,,Space,keypress(Space),,,,,---- -- ----- -- ------ - ------- --- ----------<br>------------- ------ ------ ---- ---- ------- ----- -- ----<br>-------- ------- -- ---------- --- - --- ----- ----- ----<br>---- --- --- ----- --- ---- ---- matters ----- ---- -------<br>--- --- -- ----- -- --- ---- -- --- ---- -- ------ ------<br>--- ----- -- ----,92467.90000009537,92467.20000004768,91948.279,91964,91964.95,92481.565,,35,matters
screen,html.Screen,0_2_0_1_36,2021-12-10T10:29:38.861Z,,,,,,,,,,,,,,,,53,,,,,,,,,,,,,,473.23500007152325,,response,,,99,,,,,,Space,keypress(Space),,,,,"---- -- ----- -- ------ - ------- --- ----------<br>------------- ------ ------ ---- ---- ------- ----- -- ----<br>-------- ------- -- ---------- --- - --- ----- ----- ----<br>---- --- --- ----- --- ---- ---- ------- most, ---- -------<br>--- --- -- ----- -- --- ---- -- --- ---- -- ------ ------<br>--- ----- -- ----",92955.70000004768,92954.80000007153,92464.896,92468.20000004768,92481.565,92965.234,,36,"most,"
screen,html.Screen,0_2_0_1_37,2021-12-10T10:29:39.292Z,,,,,,,,,,,,,,,,53,,,,,,,,,,,,,,421.466000047687,,response,,,99,,,,,,Space,keypress(Space),,,,,---- -- ----- -- ------ - ------- --- ----------<br>------------- ------ ------ ---- ---- ------- ----- -- ----<br>-------- ------- -- ---------- --- - --- ----- ----- ----<br>---- --- --- ----- --- ---- ---- ------- ----- it's -------<br>--- --- -- ----- -- --- ---- -- --- ---- -- ------ ------<br>--- ----- -- ----,93387.5,93386.70000004768,92948.562,92956,92965.234,93398.6,,37,it's
screen,html.Screen,0_2_0_1_38,2021-12-10T10:29:39.828Z,,,,,,,,,,,,,,,,53,,,,,,,,,,,,,,524.1000000476779,,response,,,99,,,,,,Space,keypress(Space),,,,,---- -- ----- -- ------ - ------- --- ----------<br>------------- ------ ------ ---- ---- ------- ----- -- ----<br>-------- ------- -- ---------- --- - --- ----- ----- ----<br>---- --- --- ----- --- ---- ---- ------- ----- ---- whether<br>--- --- -- ----- -- --- ---- -- --- ---- -- ------ ------<br>--- ----- -- ----,93923.5,93922.70000004768,93381.93,93387.70000004768,93398.6,93932.035,,38,whether
screen,html.Screen,0_2_0_1_39,2021-12-10T10:29:40.308Z,,,,,,,,,,,,,,,,53,,,,,,,,,,,,,,470.56500002383837,,response,,,99,,,,,,Space,keypress(Space),,,,,---- -- ----- -- ------ - ------- --- ----------<br>------------- ------ ------ ---- ---- ------- ----- -- ----<br>-------- ------- -- ---------- --- - --- ----- ----- ----<br>---- --- --- ----- --- ---- ---- ------- ----- ---- -------<br>you --- -- ----- -- --- ---- -- --- ---- -- ------ ------<br>--- ----- -- ----,94403.40000009537,94402.60000002384,93915.365,93923.70000004768,93932.035,94415.553,,39,you
screen,html.Screen,0_2_0_1_40,2021-12-10T10:29:40.732Z,,,,,,,,,,,,,,,,53,,,,,,,,,,,,,,411.047000023842,,response,,,99,,,,,,Space,keypress(Space),,,,,---- -- ----- -- ------ - ------- --- ----------<br>------------- ------ ------ ---- ---- ------- ----- -- ----<br>-------- ------- -- ---------- --- - --- ----- ----- ----<br>---- --- --- ----- --- ---- ---- ------- ----- ---- -------<br>--- are -- ----- -- --- ---- -- --- ---- -- ------ ------<br>--- ----- -- ----,94827.5,94826.60000002384,94398.882,94403.70000004768,94415.553,94832.343,,40,are
screen,html.Screen,0_2_0_1_41,2021-12-10T10:29:41.172Z,,,,,,,,,,,,,,,,53,,,,,,,,,,,,,,434.2570000238484,,response,,,99,,,,,,Space,keypress(Space),,,,,---- -- ----- -- ------ - ------- --- ----------<br>------------- ------ ------ ---- ---- ------- ----- -- ----<br>-------- ------- -- ---------- --- - --- ----- ----- ----<br>---- --- --- ----- --- ---- ---- ------- ----- ---- -------<br>--- --- as ----- -- --- ---- -- --- ---- -- ------ ------<br>--- ----- -- ----,95267.40000009537,95266.60000002384,94815.672,94827.70000004768,94832.343,95282.411,,41,as
screen,html.Screen,0_2_0_1_42,2021-12-10T10:29:41.580Z,,,,,,,,,,,,,,,,53,,,,,,,,,,,,,,392.1890000238491,,response,,,99,,,,,,Space,keypress(Space),,,,,---- -- ----- -- ------ - ------- --- ----------<br>------------- ------ ------ ---- ---- ------- ----- -- ----<br>-------- ------- -- ---------- --- - --- ----- ----- ----<br>---- --- --- ----- --- ---- ---- ------- ----- ---- -------<br>--- --- -- close -- --- ---- -- --- ---- -- ------ ------<br>--- ----- -- ----,95675.40000009537,95674.60000002384,95265.741,95267.70000004768,95282.411,95682.567,,42,close
screen,html.Screen,0_2_0_1_43,2021-12-10T10:29:42.036Z,,,,,,,,,,,,,,,,53,,,,,,,,,,,,,,447.93300000000454,,response,,,99,,,,,,Space,keypress(Space),,,,,---- -- ----- -- ------ - ------- --- ----------<br>------------- ------ ------ ---- ---- ------- ----- -- ----<br>-------- ------- -- ---------- --- - --- ----- ----- ----<br>---- --- --- ----- --- ---- ---- ------- ----- ---- -------<br>--- --- -- ----- as --- ---- -- --- ---- -- ------ ------<br>--- ----- -- ----,96131.30000007153,96130.5,95665.896,95675.60000002384,95682.567,96132.638,,43,as
screen,html.Screen,0_2_0_1_44,2021-12-10T10:29:42.444Z,,,,,,,,,,,,,,,,53,,,,,,,,,,,,,,405.96200002383557,,response,,,99,,,,,,Space,keypress(Space),,,,,---- -- ----- -- ------ - ------- --- ----------<br>------------- ------ ------ ---- ---- ------- ----- -- ----<br>-------- ------- -- ---------- --- - --- ----- ----- ----<br>---- --- --- ----- --- ---- ---- ------- ----- ---- -------<br>--- --- -- ----- -- you ---- -- --- ---- -- ------ ------<br>--- ----- -- ----,96539.30000007153,96538.60000002384,96115.968,96131.60000002384,96132.638,96549.396,,44,you
screen,html.Screen,0_2_0_1_45,2021-12-10T10:29:42.860Z,,,,,,,,,,,,,,,,53,,,,,,,,,,,,,,405.2040000238485,,response,,,99,,,,,,Space,keypress(Space),,,,,---- -- ----- -- ------ - ------- --- ----------<br>------------- ------ ------ ---- ---- ------- ----- -- ----<br>-------- ------- -- ---------- --- - --- ----- ----- ----<br>---- --- --- ----- --- ---- ---- ------- ----- ---- -------<br>--- --- -- ----- -- --- want -- --- ---- -- ------ ------<br>--- ----- -- ----,96955.30000007153,96954.60000002384,96532.726,96539.5,96549.396,96966.223,,45,want
screen,html.Screen,0_2_0_1_46,2021-12-10T10:29:43.268Z,,,,,,,,,,,,,,,,53,,,,,,,,,,,,,,396.27700000000186,,response,,,99,,,,,,Space,keypress(Space),,,,,---- -- ----- -- ------ - ------- --- ----------<br>------------- ------ ------ ---- ---- ------- ----- -- ----<br>-------- ------- -- ---------- --- - --- ----- ----- ----<br>---- --- --- ----- --- ---- ---- ------- ----- ---- -------<br>--- --- -- ----- -- --- ---- to --- ---- -- ------ ------<br>--- ----- -- ----,97363.30000007153,97362.5,96949.552,96955.5,96966.223,97366.295,,46,to
screen,html.Screen,0_2_0_1_47,2021-12-10T10:29:43.708Z,,,,,,,,,,,,,,,,53,,,,,,,,,,,,,,436.20500000000175,,response,,,99,,,,,,Space,keypress(Space),,,,,"---- -- ----- -- ------ - ------- --- ----------<br>------------- ------ ------ ---- ---- ------- ----- -- ----<br>-------- ------- -- ---------- --- - --- ----- ----- ----<br>---- --- --- ----- --- ---- ---- ------- ----- ---- -------<br>--- --- -- ----- -- --- ---- -- be, ---- -- ------ ------<br>--- ----- -- ----",97803.20000004768,97802.5,97349.625,97363.5,97366.295,97816.399,,47,"be,"
screen,html.Screen,0_2_0_1_48,2021-12-10T10:29:44.612Z,,,,,,,,,,,,,,,,53,,,,,,,,,,,,,,890.0010000953625,,response,,,99,,,,,,Space,keypress(Space),,,,,---- -- ----- -- ------ - ------- --- ----------<br>------------- ------ ------ ---- ---- ------- ----- -- ----<br>-------- ------- -- ---------- --- - --- ----- ----- ----<br>---- --- --- ----- --- ---- ---- ------- ----- ---- -------<br>--- --- -- ----- -- --- ---- -- --- even -- ------ ------<br>--- ----- -- ----,98707.20000004768,98706.40000009537,97799.729,97803.40000009537,97816.399,98716.695,,48,even
screen,html.Screen,0_2_0_1_49,2021-12-10T10:29:45.044Z,,,,,,,,,,,,,,,,53,,,,,,,,,,,,,,421.70500009536045,,response,,,99,,,,,,Space,keypress(Space),,,,,---- -- ----- -- ------ - ------- --- ----------<br>------------- ------ ------ ---- ---- ------- ----- -- ----<br>-------- ------- -- ---------- --- - --- ----- ----- ----<br>---- --- --- ----- --- ---- ---- ------- ----- ---- -------<br>--- --- -- ----- -- --- ---- -- --- ---- if ------ ------<br>--- ----- -- ----,99139.20000004768,99138.40000009537,98700.024,98707.40000009537,98716.695,99150.073,,49,if
screen,html.Screen,0_2_0_1_50,2021-12-10T10:29:45.468Z,,,,,,,,,,,,,,,,53,,,,,,,,,,,,,,412.3270000953635,,response,,,99,,,,,,Space,keypress(Space),,,,,---- -- ----- -- ------ - ------- --- ----------<br>------------- ------ ------ ---- ---- ------- ----- -- ----<br>-------- ------- -- ---------- --- - --- ----- ----- ----<br>---- --- --- ----- --- ---- ---- ------- ----- ---- -------<br>--- --- -- ----- -- --- ---- -- --- ---- -- that's ------<br>--- ----- -- ----,99563.20000004768,99562.40000009537,99133.403,99139.40000009537,99150.073,99566.869,,50,that's
screen,html.Screen,0_2_0_1_51,2021-12-10T10:29:45.876Z,,,,,,,,,,,,,,,,53,,,,,,,,,,,,,,403.5310000953614,,response,,,99,,,,,,Space,keypress(Space),,,,,---- -- ----- -- ------ - ------- --- ----------<br>------------- ------ ------ ---- ---- ------- ----- -- ----<br>-------- ------- -- ---------- --- - --- ----- ----- ----<br>---- --- --- ----- --- ---- ---- ------- ----- ---- -------<br>--- --- -- ----- -- --- ---- -- --- ---- -- ------ really<br>--- ----- -- ----,99971.10000002384,99970.40000009537,99550.199,99563.40000009537,99566.869,99983.56,,51,really
screen,html.Screen,0_2_0_1_52,2021-12-10T10:29:46.268Z,,,,,,,,,,,,,,,,53,,,,,,,,,,,,,,378.84000009536976,,response,,,99,,,,,,Space,keypress(Space),,,,,---- -- ----- -- ------ - ------- --- ----------<br>------------- ------ ------ ---- ---- ------- ----- -- ----<br>-------- ------- -- ---------- --- - --- ----- ----- ----<br>---- --- --- ----- --- ---- ---- ------- ----- ---- -------<br>--- --- -- ----- -- --- ---- -- --- ---- -- ------ ------<br>not ----- -- ----,100363.20000004768,100362.40000009537,99966.891,99971.40000009537,99983.56,100367.164,,52,not
screen,html.Screen,0_2_0_1_53,2021-12-10T10:29:46.644Z,,,,,,,,,,,,,,,,53,,,,,,,,,,,,,,371.2360000953631,,response,,,99,,,,,,Space,keypress(Space),,,,,---- -- ----- -- ------ - ------- --- ----------<br>------------- ------ ------ ---- ---- ------- ----- -- ----<br>-------- ------- -- ---------- --- - --- ----- ----- ----<br>---- --- --- ----- --- ---- ---- ------- ----- ---- -------<br>--- --- -- ----- -- --- ---- -- --- ---- -- ------ ------<br>--- close -- ----,100739.10000002384,100738.40000009537,100350.492,100363.40000009537,100367.164,100750.521,,53,close
screen,html.Screen,0_2_0_1_54,2021-12-10T10:29:47.004Z,,,,,,,,,,,,,,,,53,,,,,,,,,,,,,,347.67900004769035,,response,,,99,,,,,,Space,keypress(Space),,,,,---- -- ----- -- ------ - ------- --- ----------<br>------------- ------ ------ ---- ---- ------- ----- -- ----<br>-------- ------- -- ---------- --- - --- ----- ----- ----<br>---- --- --- ----- --- ---- ---- ------- ----- ---- -------<br>--- --- -- ----- -- --- ---- -- --- ---- -- ------ ------<br>--- ----- at ----,101099,101098.20000004768,100733.851,100739.40000009537,100750.521,101100.591,,54,at
screen,html.Screen,0_2_0_1_55,2021-12-10T10:29:47.380Z,,,,,,,,,,,,,,,,53,,,,,,,,,,,,,,373.7090000715252,,response,,,99,,,,,,Space,keypress(Space),,,,,---- -- ----- -- ------ - ------- --- ----------<br>------------- ------ ------ ---- ---- ------- ----- -- ----<br>-------- ------- -- ---------- --- - --- ----- ----- ----<br>---- --- --- ----- --- ---- ---- ------- ----- ---- -------<br>--- --- -- ----- -- --- ---- -- --- ---- -- ------ ------<br>--- ----- -- all.,101475.10000002384,101474.30000007153,101083.921,101099.20000004768,101100.591,101484.035,,55,all.
Item 99,flow.Loop,0_2_0_1,2021-12-10T10:29:47.384Z,,,,,,,,,,,,,,,,,,,,,,,,,,,,,,30998.47300007152,,completion,,,,F,,,,,,,,,,silence,,101479.5,101474.30000007153,70459.157,70465.70000004768,70475.827,101484.035,,,
Question 1,html.Screen,0_2_0_2,2021-12-10T10:29:51.532Z,,,,,,,,,,,,,,,,,,,,,,,,,,,true,FALSE,,4141.865000095364,,response,,,99,F,,,,,FALSE,click #choice-2,,,,silence,,105627.30000007153,105625.90000009537,101467.365,101479.70000004768,101484.035,105635.136,,,
Question 2,html.Screen,0_2_0_3,2021-12-10T10:29:55.524Z,,,,,,,,,,,,,,,,,,,,,,,,,,,true,TRUE,,3982.564000047685,,response,,,99,F,,,,,TRUE,click #choice-1,,,,silence,,109619,109617.70000004768,105618.466,105627.60000002384,105635.136,109619.456,,,
Item 99,flow.Sequence,0_2_0,2021-12-10T10:29:55.524Z,,,,,,,,,,,,,,,,,,,,,,,,,,,,,,49142.541000047684,,completion,,,,,,,,,,,,,,,,109619.30000007153,109617.70000004768,60458.478,60470.5,60475.159,109619.456,,,
Holding screen,html.Screen,0_2_1_0,2021-12-10T10:30:05.512Z,,,,,,,,,,,,,,,,,,,,,,,,,,,,,,10002.487999999998,,timeout,,,,,,,,,,,,,,,,119606.70000004768,119605.274,109602.786,109619.70000004768,109619.456,119621.944,,,
screen,html.Screen,0_2_1_1_0,2021-12-10T10:30:06.647Z,,,,,,,,,,,,,,,,54,,,,,,,,,,,,,,1115.8560000715224,,response,,,100,,,,,,Space,keypress(Space),,,,,At --- ---- --- ------ ----- ------- ---- -- --- ------- --<br>------- ---------- ------ -- ----- -- ----- -- ---- ------<br>--- ----- --- --- ------ -------- ----- --- ------ ----- --<br>----- ----- ---------- --- --- ------ ------ ---- -- ------<br>------- --- ------ ----- --- ---- ------- -- ---- --- --<br>------- ------,120738.5,120737.80000007153,119605.274,119607.20000004768,119621.944,120755.72,,0,At
screen,html.Screen,0_2_1_1_1,2021-12-10T10:30:07.030Z,,,,,,,,,,,,,,,,54,,,,,,,,,,,,,,365.5800000715244,,response,,,100,,,,,,Space,keypress(Space),,,,,-- the ---- --- ------ ----- ------- ---- -- --- ------- --<br>------- ---------- ------ -- ----- -- ----- -- ---- ------<br>--- ----- --- --- ------ -------- ----- --- ------ ----- --<br>----- ----- ---------- --- --- ------ ------ ---- -- ------<br>------- --- ------ ----- --- ---- ------- -- ---- --- --<br>------- ------,121122,121121.30000007153,120739.049,120738.80000007153,120755.72,121139.12,,1,the
screen,html.Screen,0_2_1_1_2,2021-12-10T10:30:07.413Z,,,,,,,,,,,,,,,,54,,,,,,,,,,,,,,365.7800000953721,,response,,,100,,,,,,Space,keypress(Space),,,,,-- --- time --- ------ ----- ------- ---- -- --- ------- --<br>------- ---------- ------ -- ----- -- ----- -- ---- ------<br>--- ----- --- --- ------ -------- ----- --- ------ ----- --<br>----- ----- ---------- --- --- ------ ------ ---- -- ------<br>------- --- ------ ----- --- ---- ------- -- ---- --- --<br>------- ------,121505.40000009537,121504.90000009537,121122.45,121122.30000007153,121139.12,121505.947,,2,time
screen,html.Screen,0_2_1_1_3,2021-12-10T10:30:07.798Z,,,,,,,,,,,,,,,,54,,,,,,,,,,,,,,383.35300007152546,,response,,,100,,,,,,Space,keypress(Space),,,,,-- --- ---- the ------ ----- ------- ---- -- --- ------- --<br>------- ---------- ------ -- ----- -- ----- -- ---- ------<br>--- ----- --- --- ------ -------- ----- --- ------ ----- --<br>----- ----- ---------- --- --- ------ ------ ---- -- ------<br>------- --- ------ ----- --- ---- ------- -- ---- --- --<br>------- ------,121890.10000002384,121889.30000007153,121489.276,121505.5,121505.947,121905.995,,3,the
screen,html.Screen,0_2_1_1_4,2021-12-10T10:30:08.190Z,,,,,,,,,,,,,,,,54,,,,,,,,,,,,,,375.2050000476884,,response,,,100,,,,,,Space,keypress(Space),,,,,-- --- ---- --- French ----- ------- ---- -- --- ------- --<br>------- ---------- ------ -- ----- -- ----- -- ---- ------<br>--- ----- --- --- ------ -------- ----- --- ------ ----- --<br>----- ----- ---------- --- --- ------ ------ ---- -- ------<br>------- --- ------ ----- --- ---- ------- -- ---- --- --<br>------- ------,122282.10000002384,122281.20000004768,121889.325,121890.30000007153,121905.995,122289.29,,4,French
screen,html.Screen,0_2_1_1_5,2021-12-10T10:30:08.974Z,,,,,,,,,,,,,,,,54,,,,,,,,,,,,,,775.9100000476901,,response,,,100,,,,,,Space,keypress(Space),,,,,-- --- ---- --- ------ crown ------- ---- -- --- ------- --<br>------- ---------- ------ -- ----- -- ----- -- ---- ------<br>--- ----- --- --- ------ -------- ----- --- ------ ----- --<br>----- ----- ---------- --- --- ------ ------ ---- -- ------<br>------- --- ------ ----- --- ---- ------- -- ---- --- --<br>------- ------,123065.90000009537,123065.20000004768,122272.622,122282.30000007153,122289.29,123073.159,,5,crown
screen,html.Screen,0_2_1_1_6,2021-12-10T10:30:09.557Z,,,,,,,,,,,,,,,,54,,,,,,,,,,,,,,575.8410000000003,,response,,,100,,,,,,Space,keypress(Space),,,,,-- --- ---- --- ------ ----- secured ---- -- --- ------- --<br>------- ---------- ------ -- ----- -- ----- -- ---- ------<br>--- ----- --- --- ------ -------- ----- --- ------ ----- --<br>----- ----- ---------- --- --- ------ ------ ---- -- ------<br>------- --- ------ ----- --- ---- ------- -- ---- --- --<br>------- ------,123649.60000002384,123649,123056.486,123066.20000004768,123073.159,123656.521,,6,secured
screen,html.Screen,0_2_1_1_7,2021-12-10T10:30:10.214Z,,,,,,,,,,,,,,,,54,,,,,,,,,,,,,,648.5790000238485,,response,,,100,,,,,,Space,keypress(Space),,,,,-- --- ---- --- ------ ----- ------- much -- --- ------- --<br>------- ---------- ------ -- ----- -- ----- -- ---- ------<br>--- ----- --- --- ------ -------- ----- --- ------ ----- --<br>----- ----- ---------- --- --- ------ ------ ---- -- ------<br>------- --- ------ ----- --- ---- ------- -- ---- --- --<br>------- ------,124305.80000007153,124305.10000002384,123639.85,123649.70000004768,123656.521,124306.604,,7,much
screen,html.Screen,0_2_1_1_8,2021-12-10T10:30:10.814Z,,,,,,,,,,,,,,,,54,,,,,,,,,,,,,,598.4960000238352,,response,,,100,,,,,,Space,keypress(Space),,,,,-- --- ---- --- ------ ----- ------- ---- of --- ------- --<br>------- ---------- ------ -- ----- -- ----- -- ---- ------<br>--- ----- --- --- ------ -------- ----- --- ------ ----- --<br>----- ----- ---------- --- --- ------ ------ ---- -- ------<br>------- --- ------ ----- --- ---- ------- -- ---- --- --<br>------- ------,124905.90000009537,124905.10000002384,124289.934,124305.90000009537,124306.604,124906.783,,8,of
screen,html.Screen,0_2_1_1_9,2021-12-10T10:30:11.358Z,,,,,,,,,,,,,,,,54,,,,,,,,,,,,,,542.2170000000042,,response,,,100,,,,,,Space,keypress(Space),,,,,-- --- ---- --- ------ ----- ------- ---- -- its ------- --<br>------- ---------- ------ -- ----- -- ----- -- ---- ------<br>--- ----- --- --- ------ -------- ----- --- ------ ----- --<br>----- ----- ---------- --- --- ------ ------ ---- -- ------<br>------- --- ------ ----- --- ---- ------- -- ---- --- --<br>------- ------,125449.80000007153,125449,124890.113,124906.10000002384,124906.783,125456.817,,9,its
screen,html.Screen,0_2_1_1_10,2021-12-10T10:30:11.830Z,,,,,,,,,,,,,,,,54,,,,,,,,,,,,,,464.18300000000454,,response,,,100,,,,,,Space,keypress(Space),,,,,-- --- ---- --- ------ ----- ------- ---- -- --- revenue --<br>------- ---------- ------ -- ----- -- ----- -- ---- ------<br>--- ----- --- --- ------ -------- ----- --- ------ ----- --<br>----- ----- ---------- --- --- ------ ------ ---- -- ------<br>------- --- ------ ----- --- ---- ------- -- ---- --- --<br>------- ------,125921.80000007153,125921,125440.148,125450.10000002384,125456.817,125923.811,,10,revenue
screen,html.Screen,0_2_1_1_11,2021-12-10T10:30:12.254Z,,,,,,,,,,,,,,,,54,,,,,,,,,,,,,,421.1889999999985,,response,,,100,,,,,,Space,keypress(Space),,,,,-- --- ---- --- ------ ----- ------- ---- -- --- ------- by<br>------- ---------- ------ -- ----- -- ----- -- ---- ------<br>--- ----- --- --- ------ -------- ----- --- ------ ----- --<br>----- ----- ---------- --- --- ------ ------ ---- -- ------<br>------- --- ------ ----- --- ---- ------- -- ---- --- --<br>------- ------,126345.70000004768,126345,125907.139,125922,125923.811,126357.172,,11,by
screen,html.Screen,0_2_1_1_12,2021-12-10T10:30:12.678Z,,,,,,,,,,,,,,,,54,,,,,,,,,,,,,,411.7280000953615,,response,,,100,,,,,,Space,keypress(Space),,,,,-- --- ---- --- ------ ----- ------- ---- -- --- ------- --<br>issuing ---------- ------ -- ----- -- ----- -- ---- ------<br>--- ----- --- --- ------ -------- ----- --- ------ ----- --<br>----- ----- ---------- --- --- ------ ------ ---- -- ------<br>------- --- ------ ----- --- ---- ------- -- ---- --- --<br>------- ------,126770,126768.90000009537,126340.502,126346.10000002384,126357.172,126773.952,,12,issuing
screen,html.Screen,0_2_1_1_13,2021-12-10T10:30:13.102Z,,,,,,,,,,,,,,,,54,,,,,,,,,,,,,,419.0479999999952,,response,,,100,,,,,,Space,keypress(Space),,,,,-- --- ---- --- ------ ----- ------- ---- -- --- ------- --<br>------- government ------ -- ----- -- ----- -- ---- ------<br>--- ----- --- --- ------ -------- ----- --- ------ ----- --<br>----- ----- ---------- --- --- ------ ------ ---- -- ------<br>------- --- ------ ----- --- ---- ------- -- ---- --- --<br>------- ------,127193.70000004768,127193,126757.282,126770.10000002384,126773.952,127207.366,,13,government
screen,html.Screen,0_2_1_1_14,2021-12-10T10:30:13.542Z,,,,,,,,,,,,,,,,54,,,,,,,,,,,,,,425.5340000953729,,response,,,100,,,,,,Space,keypress(Space),,,,,-- --- ---- --- ------ ----- ------- ---- -- --- ------- --<br>------- ---------- bonds. -- ----- -- ----- -- ---- ------<br>--- ----- --- --- ------ -------- ----- --- ------ ----- --<br>----- ----- ---------- --- --- ------ ------ ---- -- ------<br>------- --- ------ ----- --- ---- ------- -- ---- --- --<br>------- ------,127633.70000004768,127632.90000009537,127190.696,127193.90000009537,127207.366,127640.897,,14,bonds.
screen,html.Screen,0_2_1_1_15,2021-12-10T10:30:13.974Z,,,,,,,,,,,,,,,,54,,,,,,,,,,,,,,424.0030000953702,,response,,,100,,,,,,Space,keypress(Space),,,,,-- --- ---- --- ------ ----- ------- ---- -- --- ------- --<br>------- ---------- ------ In ----- -- ----- -- ---- ------<br>--- ----- --- --- ------ -------- ----- --- ------ ----- --<br>----- ----- ---------- --- --- ------ ------ ---- -- ------<br>------- --- ------ ----- --- ---- ------- -- ---- --- --<br>------- ------,128065.60000002384,128064.90000009537,127624.226,127634,127640.897,128074.283,,15,In
screen,html.Screen,0_2_1_1_16,2021-12-10T10:30:14.406Z,,,,,,,,,,,,,,,,54,,,,,,,,,,,,,,422.51700007152976,,response,,,100,,,,,,Space,keypress(Space),,,,,"-- --- ---- --- ------ ----- ------- ---- -- --- ------- --<br>------- ---------- ------ -- 1727, -- ----- -- ---- ------<br>--- ----- --- --- ------ -------- ----- --- ------ ----- --<br>----- ----- ---------- --- --- ------ ------ ---- -- ------<br>------- --- ------ ----- --- ---- ------- -- ---- --- --<br>------- ------",128497.70000004768,128496.80000007153,128057.613,128065.90000009537,128074.283,128507.629,,16,"1727,"
screen,html.Screen,0_2_1_1_17,2021-12-10T10:30:14.878Z,,,,,,,,,,,,,,,,54,,,,,,,,,,,,,,461.2710000953666,,response,,,100,,,,,,Space,keypress(Space),,,,,-- --- ---- --- ------ ----- ------- ---- -- --- ------- --<br>------- ---------- ------ -- ----- in ----- -- ---- ------<br>--- ----- --- --- ------ -------- ----- --- ------ ----- --<br>----- ----- ---------- --- --- ------ ------ ---- -- ------<br>------- --- ------ ----- --- ---- ------- -- ---- --- --<br>------- ------,128969.70000004768,128968.90000009537,128490.96,128497.90000009537,128507.629,128974.603,,17,in
screen,html.Screen,0_2_1_1_18,2021-12-10T10:30:15.382Z,,,,,,,,,,,,,,,,54,,,,,,,,,,,,,,498.29700009536464,,response,,,100,,,,,,Space,keypress(Space),,,,,-- --- ---- --- ------ ----- ------- ---- -- --- ------- --<br>------- ---------- ------ -- ----- -- order -- ---- ------<br>--- ----- --- --- ------ -------- ----- --- ------ ----- --<br>----- ----- ---------- --- --- ------ ------ ---- -- ------<br>------- --- ------ ----- --- ---- ------- -- ---- --- --<br>------- ------,129473.60000002384,129472.90000009537,128957.931,128969.90000009537,128974.603,129474.65,,18,order
screen,html.Screen,0_2_1_1_19,2021-12-10T10:30:15.822Z,,,,,,,,,,,,,,,,54,,,,,,,,,,,,,,438.25000009537325,,response,,,100,,,,,,Space,keypress(Space),,,,,-- --- ---- --- ------ ----- ------- ---- -- --- ------- --<br>------- ---------- ------ -- ----- -- ----- to ---- ------<br>--- ----- --- --- ------ -------- ----- --- ------ ----- --<br>----- ----- ---------- --- --- ------ ------ ---- -- ------<br>------- --- ------ ----- --- ---- ------- -- ---- --- --<br>------- ------,129913.60000002384,129912.90000009537,129457.98,129473.90000009537,129474.65,129924.721,,19,to
screen,html.Screen,0_2_1_1_20,2021-12-10T10:30:16.238Z,,,,,,,,,,,,,,,,54,,,,,,,,,,,,,,404.07900007152057,,response,,,100,,,,,,Space,keypress(Space),,,,,-- --- ---- --- ------ ----- ------- ---- -- --- ------- --<br>------- ---------- ------ -- ----- -- ----- -- save ------<br>--- ----- --- --- ------ -------- ----- --- ------ ----- --<br>----- ----- ---------- --- --- ------ ------ ---- -- ------<br>------- --- ------ ----- --- ---- ------- -- ---- --- --<br>------- ------,130329.60000002384,130328.80000007153,129908.051,129913.80000007153,129924.721,130341.565,,20,save
screen,html.Screen,0_2_1_1_21,2021-12-10T10:30:16.622Z,,,,,,,,,,,,,,,,54,,,,,,,,,,,,,,371.23500007152325,,response,,,100,,,,,,Space,keypress(Space),,,,,"-- --- ---- --- ------ ----- ------- ---- -- --- ------- --<br>------- ---------- ------ -- ----- -- ----- -- ---- money,<br>--- ----- --- --- ------ -------- ----- --- ------ ----- --<br>----- ----- ---------- --- --- ------ ------ ---- -- ------<br>------- --- ------ ----- --- ---- ------- -- ---- --- --<br>------- ------",130713.60000002384,130712.80000007153,130324.894,130329.80000007153,130341.565,130725.032,,21,"money,"
screen,html.Screen,0_2_1_1_22,2021-12-10T10:30:17.030Z,,,,,,,,,,,,,,,,54,,,,,,,,,,,,,,395.9679999999935,,response,,,100,,,,,,Space,keypress(Space),,,,,-- --- ---- --- ------ ----- ------- ---- -- --- ------- --<br>------- ---------- ------ -- ----- -- ----- -- ---- ------<br>the ----- --- --- ------ -------- ----- --- ------ ----- --<br>----- ----- ---------- --- --- ------ ------ ---- -- ------<br>------- --- ------ ----- --- ---- ------- -- ---- --- --<br>------- ------,131121.90000009537,131121,130708.361,130713.80000007153,130725.032,131125.08,,22,the
screen,html.Screen,0_2_1_1_23,2021-12-10T10:30:17.461Z,,,,,,,,,,,,,,,,54,,,,,,,,,,,,,,427.6200000476965,,response,,,100,,,,,,Space,keypress(Space),,,,,-- --- ---- --- ------ ----- ------- ---- -- --- ------- --<br>------- ---------- ------ -- ----- -- ----- -- ---- ------<br>--- state --- --- ------ -------- ----- --- ------ ----- --<br>----- ----- ---------- --- --- ------ ------ ---- -- ------<br>------- --- ------ ----- --- ---- ------- -- ---- --- --<br>------- ------,131553.5,131552.70000004768,131108.41,131122.10000002384,131125.08,131558.529,,23,state
screen,html.Screen,0_2_1_1_24,2021-12-10T10:30:17.901Z,,,,,,,,,,,,,,,,54,,,,,,,,,,,,,,434.271000071516,,response,,,100,,,,,,Space,keypress(Space),,,,,-- --- ---- --- ------ ----- ------- ---- -- --- ------- --<br>------- ---------- ------ -- ----- -- ----- -- ---- ------<br>--- ----- cut --- ------ -------- ----- --- ------ ----- --<br>----- ----- ---------- --- --- ------ ------ ---- -- ------<br>------- --- ------ ----- --- ---- ------- -- ---- --- --<br>------- ------,131993.5,131992.80000007153,131541.859,131553.70000004768,131558.529,132008.686,,24,cut
screen,html.Screen,0_2_1_1_25,2021-12-10T10:30:18.317Z,,,,,,,,,,,,,,,,54,,,,,,,,,,,,,,400.01400004769675,,response,,,100,,,,,,Space,keypress(Space),,,,,-- --- ---- --- ------ ----- ------- ---- -- --- ------- --<br>------- ---------- ------ -- ----- -- ----- -- ---- ------<br>--- ----- --- the ------ -------- ----- --- ------ ----- --<br>----- ----- ---------- --- --- ------ ------ ---- -- ------<br>------- --- ------ ----- --- ---- ------- -- ---- --- --<br>------- ------,132409.5,132408.70000004768,131992.015,131993.80000007153,132008.686,132425.342,,25,the
screen,html.Screen,0_2_1_1_26,2021-12-10T10:30:18.805Z,,,,,,,,,,,,,,,,54,,,,,,,,,,,,,,471.3580000476795,,response,,,100,,,,,,Space,keypress(Space),,,,,-- --- ---- --- ------ ----- ------- ---- -- --- ------- --<br>------- ---------- ------ -- ----- -- ----- -- ---- ------<br>--- ----- --- --- bonds' -------- ----- --- ------ ----- --<br>----- ----- ---------- --- --- ------ ------ ---- -- ------<br>------- --- ------ ----- --- ---- ------- -- ---- --- --<br>------- ------,132897.5,132896.70000004768,132408.673,132409.70000004768,132425.342,132908.968,,26,bonds'
screen,html.Screen,0_2_1_1_27,2021-12-10T10:30:19.221Z,,,,,,,,,,,,,,,,54,,,,,,,,,,,,,,403.6320000238484,,response,,,100,,,,,,Space,keypress(Space),,,,,-- --- ---- --- ------ ----- ------- ---- -- --- ------- --<br>------- ---------- ------ -- ----- -- ----- -- ---- ------<br>--- ----- --- --- ------ interest ----- --- ------ ----- --<br>----- ----- ---------- --- --- ------ ------ ---- -- ------<br>------- --- ------ ----- --- ---- ------- -- ---- --- --<br>------- ------,133313.30000007153,133312.60000002384,132892.296,132897.70000004768,132908.968,133325.643,,27,interest
screen,html.Screen,0_2_1_1_28,2021-12-10T10:30:19.645Z,,,,,,,,,,,,,,,,54,,,,,,,,,,,,,,410.9570000238309,,response,,,100,,,,,,Space,keypress(Space),,,,,-- --- ---- --- ------ ----- ------- ---- -- --- ------- --<br>------- ---------- ------ -- ----- -- ----- -- ---- ------<br>--- ----- --- --- ------ -------- rate. --- ------ ----- --<br>----- ----- ---------- --- --- ------ ------ ---- -- ------<br>------- --- ------ ----- --- ---- ------- -- ---- --- --<br>------- ------,133737.30000007153,133736.60000002384,133308.973,133313.60000002384,133325.643,133742.471,,28,rate.
screen,html.Screen,0_2_1_1_29,2021-12-10T10:30:20.045Z,,,,,,,,,,,,,,,,54,,,,,,,,,,,,,,394.02900000000955,,response,,,100,,,,,,Space,keypress(Space),,,,,-- --- ---- --- ------ ----- ------- ---- -- --- ------- --<br>------- ---------- ------ -- ----- -- ----- -- ---- ------<br>--- ----- --- --- ------ -------- ----- The ------ ----- --<br>----- ----- ---------- --- --- ------ ------ ---- -- ------<br>------- --- ------ ----- --- ---- ------- -- ---- --- --<br>------- ------,134137.40000009537,134136.5,133725.8,133737.60000002384,133742.471,134142.532,,29,The
screen,html.Screen,0_2_1_1_30,2021-12-10T10:30:20.477Z,,,,,,,,,,,,,,,,54,,,,,,,,,,,,,,425.9679999999935,,response,,,100,,,,,,Space,keypress(Space),,,,,-- --- ---- --- ------ ----- ------- ---- -- --- ------- --<br>------- ---------- ------ -- ----- -- ----- -- ---- ------<br>--- ----- --- --- ------ -------- ----- --- market ----- --<br>----- ----- ---------- --- --- ------ ------ ---- -- ------<br>------- --- ------ ----- --- ---- ------- -- ---- --- --<br>------- ------,134569.30000007153,134568.5,134125.862,134137.60000002384,134142.532,134575.974,,30,market
screen,html.Screen,0_2_1_1_31,2021-12-10T10:30:20.837Z,,,,,,,,,,,,,,,,54,,,,,,,,,,,,,,352.5260000000126,,response,,,100,,,,,,Space,keypress(Space),,,,,-- --- ---- --- ------ ----- ------- ---- -- --- ------- --<br>------- ---------- ------ -- ----- -- ----- -- ---- ------<br>--- ----- --- --- ------ -------- ----- --- ------ value --<br>----- ----- ---------- --- --- ------ ------ ---- -- ------<br>------- --- ------ ----- --- ---- ------- -- ---- --- --<br>------- ------,134929.40000009537,134928.5,134559.304,134569.5,134575.974,134942.717,,31,value
screen,html.Screen,0_2_1_1_32,2021-12-10T10:30:21.213Z,,,,,,,,,,,,,,,,54,,,,,,,,,,,,,,361.7829999999958,,response,,,100,,,,,,Space,keypress(Space),,,,,-- --- ---- --- ------ ----- ------- ---- -- --- ------- --<br>------- ---------- ------ -- ----- -- ----- -- ---- ------<br>--- ----- --- --- ------ -------- ----- --- ------ ----- of<br>----- ----- ---------- --- --- ------ ------ ---- -- ------<br>------- --- ------ ----- --- ---- ------- -- ---- --- --<br>------- ------,135305.40000009537,135304.5,134926.047,134929.70000004768,134942.717,135309.538,,32,of
screen,html.Screen,0_2_1_1_33,2021-12-10T10:30:21.541Z,,,,,,,,,,,,,,,,54,,,,,,,,,,,,,,322.96199999999953,,response,,,100,,,,,,Space,keypress(Space),,,,,-- --- ---- --- ------ ----- ------- ---- -- --- ------- --<br>------- ---------- ------ -- ----- -- ----- -- ---- ------<br>--- ----- --- --- ------ -------- ----- --- ------ ----- --<br>these ----- ---------- --- --- ------ ------ ---- -- ------<br>------- --- ------ ----- --- ---- ------- -- ---- --- --<br>------- ------,135633.40000009537,135632.5,135292.867,135305.60000002384,135309.538,135642.963,,33,these
screen,html.Screen,0_2_1_1_34,2021-12-10T10:30:21.837Z,,,,,,,,,,,,,,,,54,,,,,,,,,,,,,,285.63700002385303,,response,,,100,,,,,,Space,keypress(Space),,,,,-- --- ---- --- ------ ----- ------- ---- -- --- ------- --<br>------- ---------- ------ -- ----- -- ----- -- ---- ------<br>--- ----- --- --- ------ -------- ----- --- ------ ----- --<br>----- bonds ---------- --- --- ------ ------ ---- -- ------<br>------- --- ------ ----- --- ---- ------- -- ---- --- --<br>------- ------,135929.40000009537,135928.60000002384,135626.292,135633.5,135642.963,135943.047,,34,bonds
screen,html.Screen,0_2_1_1_35,2021-12-10T10:30:22.141Z,,,,,,,,,,,,,,,,54,,,,,,,,,,,,,,289.4530000000086,,response,,,100,,,,,,Space,keypress(Space),,,,,"-- --- ---- --- ------ ----- ------- ---- -- --- ------- --<br>------- ---------- ------ -- ----- -- ----- -- ---- ------<br>--- ----- --- --- ------ -------- ----- --- ------ ----- --<br>----- ----- plummeted, --- --- ------ ------ ---- -- ------<br>------- --- ------ ----- --- ---- ------- -- ---- --- --<br>------- ------",136233.30000007153,136232.5,135926.376,135929.70000004768,135943.047,136243.074,,35,"plummeted,"
screen,html.Screen,0_2_1_1_36,2021-12-10T10:30:22.501Z,,,,,,,,,,,,,,,,54,,,,,,,,,,,,,,349.42600000000675,,response,,,100,,,,,,Space,keypress(Space),,,,,-- --- ---- --- ------ ----- ------- ---- -- --- ------- --<br>------- ---------- ------ -- ----- -- ----- -- ---- ------<br>--- ----- --- --- ------ -------- ----- --- ------ ----- --<br>----- ----- ---------- and --- ------ ------ ---- -- ------<br>------- --- ------ ----- --- ---- ------- -- ---- --- --<br>------- ------,136593.20000004768,136592.5,136226.404,136233.5,136243.074,136609.888,,36,and
screen,html.Screen,0_2_1_1_37,2021-12-10T10:30:22.845Z,,,,,,,,,,,,,,,,54,,,,,,,,,,,,,,326.6119999999937,,response,,,100,,,,,,Space,keypress(Space),,,,,-- --- ---- --- ------ ----- ------- ---- -- --- ------- --<br>------- ---------- ------ -- ----- -- ----- -- ---- ------<br>--- ----- --- --- ------ -------- ----- --- ------ ----- --<br>----- ----- ---------- --- the ------ ------ ---- -- ------<br>------- --- ------ ----- --- ---- ------- -- ---- --- --<br>------- ------,136937.40000009537,136936.5,136593.217,136593.5,136609.888,136943.276,,37,the
screen,html.Screen,0_2_1_1_38,2021-12-10T10:30:23.149Z,,,,,,,,,,,,,,,,54,,,,,,,,,,,,,,297.12400009535486,,response,,,100,,,,,,Space,keypress(Space),,,,,-- --- ---- --- ------ ----- ------- ---- -- --- ------- --<br>------- ---------- ------ -- ----- -- ----- -- ---- ------<br>--- ----- --- --- ------ -------- ----- --- ------ ----- --<br>----- ----- ---------- --- --- market ------ ---- -- ------<br>------- --- ------ ----- --- ---- ------- -- ---- --- --<br>------- ------,137241.30000007153,137240.40000009537,136926.606,136937.60000002384,136943.276,137243.348,,38,market
screen,html.Screen,0_2_1_1_39,2021-12-10T10:30:23.525Z,,,,,,,,,,,,,,,,54,,,,,,,,,,,,,,373.0520000953693,,response,,,100,,,,,,Space,keypress(Space),,,,,-- --- ---- --- ------ ----- ------- ---- -- --- ------- --<br>------- ---------- ------ -- ----- -- ----- -- ---- ------<br>--- ----- --- --- ------ -------- ----- --- ------ ----- --<br>----- ----- ---------- --- --- ------ became ---- -- ------<br>------- --- ------ ----- --- ---- ------- -- ---- --- --<br>------- ------,137617.20000004768,137616.40000009537,137226.678,137241.5,137243.348,137626.771,,39,became
screen,html.Screen,0_2_1_1_40,2021-12-10T10:30:23.861Z,,,,,,,,,,,,,,,,54,,,,,,,,,,,,,,325.6290000953595,,response,,,100,,,,,,Space,keypress(Space),,,,,-- --- ---- --- ------ ----- ------- ---- -- --- ------- --<br>------- ---------- ------ -- ----- -- ----- -- ---- ------<br>--- ----- --- --- ------ -------- ----- --- ------ ----- --<br>----- ----- ---------- --- --- ------ ------ wary -- ------<br>------- --- ------ ----- --- ---- ------- -- ---- --- --<br>------- ------,137953.30000007153,137952.40000009537,137610.101,137617.40000009537,137626.771,137960.199,,40,wary
screen,html.Screen,0_2_1_1_41,2021-12-10T10:30:24.173Z,,,,,,,,,,,,,,,,54,,,,,,,,,,,,,,304.2010000953742,,response,,,100,,,,,,Space,keypress(Space),,,,,-- --- ---- --- ------ ----- ------- ---- -- --- ------- --<br>------- ---------- ------ -- ----- -- ----- -- ---- ------<br>--- ----- --- --- ------ -------- ----- --- ------ ----- --<br>----- ----- ---------- --- --- ------ ------ ---- of ------<br>------- --- ------ ----- --- ---- ------- -- ---- --- --<br>------- ------,138265.20000004768,138264.40000009537,137943.529,137953.5,137960.199,138276.949,,41,of
screen,html.Screen,0_2_1_1_42,2021-12-10T10:30:24.565Z,,,,,,,,,,,,,,,,54,,,,,,,,,,,,,,379.3510000715323,,response,,,100,,,,,,Space,keypress(Space),,,,,-- --- ---- --- ------ ----- ------- ---- -- --- ------- --<br>------- ---------- ------ -- ----- -- ----- -- ---- ------<br>--- ----- --- --- ------ -------- ----- --- ------ ----- --<br>----- ----- ---------- --- --- ------ ------ ---- -- French<br>------- --- ------ ----- --- ---- ------- -- ---- --- --<br>------- ------,138657.20000004768,138656.30000007153,138260.279,138265.40000009537,138276.949,138660.411,,42,French
screen,html.Screen,0_2_1_1_43,2021-12-10T10:30:24.885Z,,,,,,,,,,,,,,,,54,,,,,,,,,,,,,,315.98900009537465,,response,,,100,,,,,,Space,keypress(Space),,,,,-- --- ---- --- ------ ----- ------- ---- -- --- ------- --<br>------- ---------- ------ -- ----- -- ----- -- ---- ------<br>--- ----- --- --- ------ -------- ----- --- ------ ----- --<br>----- ----- ---------- --- --- ------ ------ ---- -- ------<br>credit. --- ------ ----- --- ---- ------- -- ---- --- --<br>------- ------,138977.20000004768,138976.40000009537,138643.74,138657.40000009537,138660.411,138993.837,,43,credit.
screen,html.Screen,0_2_1_1_44,2021-12-10T10:30:25.253Z,,,,,,,,,,,,,,,,54,,,,,,,,,,,,,,350.5630000953679,,response,,,100,,,,,,Space,keypress(Space),,,,,-- --- ---- --- ------ ----- ------- ---- -- --- ------- --<br>------- ---------- ------ -- ----- -- ----- -- ---- ------<br>--- ----- --- --- ------ -------- ----- --- ------ ----- --<br>----- ----- ---------- --- --- ------ ------ ---- -- ------<br>------- The ------ ----- --- ---- ------- -- ---- --- --<br>------- ------,139345.30000007153,139344.40000009537,138977.166,138977.40000009537,138993.837,139360.56,,44,The
screen,html.Screen,0_2_1_1_45,2021-12-10T10:30:25.661Z,,,,,,,,,,,,,,,,54,,,,,,,,,,,,,,391.7400000715279,,response,,,100,,,,,,Space,keypress(Space),,,,,-- --- ---- --- ------ ----- ------- ---- -- --- ------- --<br>------- ---------- ------ -- ----- -- ----- -- ---- ------<br>--- ----- --- --- ------ -------- ----- --- ------ ----- --<br>----- ----- ---------- --- --- ------ ------ ---- -- ------<br>------- --- French ----- --- ---- ------- -- ---- --- --<br>------- ------,139753.10000002384,139752.30000007153,139343.89,139345.5,139360.56,139760.667,,45,French
screen,html.Screen,0_2_1_1_46,2021-12-10T10:30:26.005Z,,,,,,,,,,,,,,,,54,,,,,,,,,,,,,,335.533000047697,,response,,,100,,,,,,Space,keypress(Space),,,,,-- --- ---- --- ------ ----- ------- ---- -- --- ------- --<br>------- ---------- ------ -- ----- -- ----- -- ---- ------<br>--- ----- --- --- ------ -------- ----- --- ------ ----- --<br>----- ----- ---------- --- --- ------ ------ ---- -- ------<br>------- --- ------ state --- ---- ------- -- ---- --- --<br>------- ------,140097,140096.20000004768,139743.997,139753.30000007153,139760.667,140110.735,,46,state
screen,html.Screen,0_2_1_1_47,2021-12-10T10:30:26.405Z,,,,,,,,,,,,,,,,54,,,,,,,,,,,,,,385.56500007153954,,response,,,100,,,,,,Space,keypress(Space),,,,,-- --- ---- --- ------ ----- ------- ---- -- --- ------- --<br>------- ---------- ------ -- ----- -- ----- -- ---- ------<br>--- ----- --- --- ------ -------- ----- --- ------ ----- --<br>----- ----- ---------- --- --- ------ ------ ---- -- ------<br>------- --- ------ ----- was ---- ------- -- ---- --- --<br>------- ------,140497.10000002384,140496.30000007153,140094.065,140097.40000009537,140110.735,140510.842,,47,was
screen,html.Screen,0_2_1_1_48,2021-12-10T10:30:26.797Z,,,,,,,,,,,,,,,,54,,,,,,,,,,,,,,377.3580000476795,,response,,,100,,,,,,Space,keypress(Space),,,,,-- --- ---- --- ------ ----- ------- ---- -- --- ------- --<br>------- ---------- ------ -- ----- -- ----- -- ---- ------<br>--- ----- --- --- ------ -------- ----- --- ------ ----- --<br>----- ----- ---------- --- --- ------ ------ ---- -- ------<br>------- --- ------ ----- --- left ------- -- ---- --- --<br>------- ------,140889,140888.20000004768,140494.172,140497.30000007153,140510.842,140894.343,,48,left
screen,html.Screen,0_2_1_1_49,2021-12-10T10:30:27.101Z,,,,,,,,,,,,,,,,54,,,,,,,,,,,,,,298.2570000238484,,response,,,100,,,,,,Space,keypress(Space),,,,,-- --- ---- --- ------ ----- ------- ---- -- --- ------- --<br>------- ---------- ------ -- ----- -- ----- -- ---- ------<br>--- ----- --- --- ------ -------- ----- --- ------ ----- --<br>----- ----- ---------- --- --- ------ ------ ---- -- ------<br>------- --- ------ ----- --- ---- without -- ---- --- --<br>------- ------,141193.30000007153,141192.60000002384,140877.672,140889.30000007153,140894.343,141194.368,,49,without
screen,html.Screen,0_2_1_1_50,2021-12-10T10:30:27.461Z,,,,,,,,,,,,,,,,54,,,,,,,,,,,,,,357.83200004769606,,response,,,100,,,,,,Space,keypress(Space),,,,,-- --- ---- --- ------ ----- ------- ---- -- --- ------- --<br>------- ---------- ------ -- ----- -- ----- -- ---- ------<br>--- ----- --- --- ------ -------- ----- --- ------ ----- --<br>----- ----- ---------- --- --- ------ ------ ---- -- ------<br>------- --- ------ ----- --- ---- ------- an ---- --- --<br>------- ------,141553,141552.20000004768,141177.698,141193.5,141194.368,141561.136,,50,an
screen,html.Screen,0_2_1_1_51,2021-12-10T10:30:27.829Z,,,,,,,,,,,,,,,,54,,,,,,,,,,,,,,359.0640000476851,,response,,,100,,,,,,Space,keypress(Space),,,,,-- --- ---- --- ------ ----- ------- ---- -- --- ------- --<br>------- ---------- ------ -- ----- -- ----- -- ---- ------<br>--- ----- --- --- ------ -------- ----- --- ------ ----- --<br>----- ----- ---------- --- --- ------ ------ ---- -- ------<br>------- --- ------ ----- --- ---- ------- -- easy --- --<br>------- ------,141921.10000002384,141920.20000004768,141544.466,141553.20000004768,141561.136,141927.931,,51,easy
screen,html.Screen,0_2_1_1_52,2021-12-10T10:30:28.181Z,,,,,,,,,,,,,,,,54,,,,,,,,,,,,,,344.16900002383045,,response,,,100,,,,,,Space,keypress(Space),,,,,-- --- ---- --- ------ ----- ------- ---- -- --- ------- --<br>------- ---------- ------ -- ----- -- ----- -- ---- ------<br>--- ----- --- --- ------ -------- ----- --- ------ ----- --<br>----- ----- ---------- --- --- ------ ------ ---- -- ------<br>------- --- ------ ----- --- ---- ------- -- ---- way --<br>------- ------,142273,142272.10000002384,141911.26,141921.40000009537,141927.931,142277.975,,52,way
screen,html.Screen,0_2_1_1_53,2021-12-10T10:30:28.485Z,,,,,,,,,,,,,,,,54,,,,,,,,,,,,,,298.2250000476779,,response,,,100,,,,,,Space,keypress(Space),,,,,-- --- ---- --- ------ ----- ------- ---- -- --- ------- --<br>------- ---------- ------ -- ----- -- ----- -- ---- ------<br>--- ----- --- --- ------ -------- ----- --- ------ ----- --<br>----- ----- ---------- --- --- ------ ------ ---- -- ------<br>------- --- ------ ----- --- ---- ------- -- ---- --- of<br>------- ------,142576.90000009537,142576.20000004768,142261.305,142273.20000004768,142277.975,142578.065,,53,of
screen,html.Screen,0_2_1_1_54,2021-12-10T10:30:28.821Z,,,,,,,,,,,,,,,,54,,,,,,,,,,,,,,334.1350000476814,,response,,,100,,,,,,Space,keypress(Space),,,,,-- --- ---- --- ------ ----- ------- ---- -- --- ------- --<br>------- ---------- ------ -- ----- -- ----- -- ---- ------<br>--- ----- --- --- ------ -------- ----- --- ------ ----- --<br>----- ----- ---------- --- --- ------ ------ ---- -- ------<br>------- --- ------ ----- --- ---- ------- -- ---- --- --<br>raising ------,142913,142912.20000004768,142561.395,142577.20000004768,142578.065,142928.191,,54,raising
screen,html.Screen,0_2_1_1_55,2021-12-10T10:30:29.325Z,,,,,,,,,,,,,,,,54,,,,,,,,,,,,,,487.90900002385024,,response,,,100,,,,,,Space,keypress(Space),,,,,-- --- ---- --- ------ ----- ------- ---- -- --- ------- --<br>------- ---------- ------ -- ----- -- ----- -- ---- ------<br>--- ----- --- --- ------ -------- ----- --- ------ ----- --<br>----- ----- ---------- --- --- ------ ------ ---- -- ------<br>------- --- ------ ----- --- ---- ------- -- ---- --- --<br>------- money.,143416.80000007153,143416.10000002384,142911.52,142913.30000007153,142928.191,143428.286,,55,money.
Item 100,flow.Loop,0_2_1_1,2021-12-10T10:30:29.325Z,,,,,,,,,,,,,,,,,,,,,,,,,,,,,,23794.15600002384,,completion,,,,F,,,,,,,,,,silence,,143417.40000009537,143416.10000002384,119605.274,119606.90000009537,119621.944,143428.286,,,
Question 1,html.Screen,0_2_1_2,2021-12-10T10:30:31.541Z,,,,,,,,,,,,,,,,,,,,,,,,,,,true,TRUE,,2203.514000071533,,response,,,100,F,,,,,TRUE,click #choice-1,,,,silence,,145633,145631.80000007153,143411.616,143417.5,143428.286,145645.53,,,
Question 2,html.Screen,0_2_1_3,2021-12-10T10:30:34.117Z,,,,,,,,,,,,,,,,,,,,,,,,,,,true,FALSE,,2561.970000000001,,response,,,100,F,,,,,FALSE,click #choice-2,,,,silence,,148208.80000007153,148207.5,145628.86,145633.30000007153,145645.53,148212.815,,,
Item 100,flow.Sequence,0_2_1,2021-12-10T10:30:34.117Z,,,,,,,,,,,,,,,,,,,,,,,,,,,,,,38588.043999999994,,completion,,,,,,,,,,,,,,,,148209.10000002384,148207.5,109602.786,109619.60000002384,109619.456,148212.815,,,
End of Practice,html.Page,0_2_2,2021-12-10T10:30:37.870Z,,,,,,,,,,,,,,,,,,,,,,,,,,,,,,3748.1849999999977,,form submission,,,,,,,,,,,,,,,,151961.60000002384,151961,148196.145,148209.40000009537,148212.815,151963.764,,,
Practice,flow.Sequence,0_2,2021-12-10T10:30:37.870Z,,,,,,,,,,,,,,,,,,,,,,,,,,,,,,91485.841,,completion,,,,,,,,,,,,,,,,151962,151961,60458.478,60470.300000071526,60475.159,151963.764,,,
Trap_instruction,html.Page,0_3_0,2021-12-10T10:30:39.301Z,,,,,,,,,,,,,,,,,,,,,,,,,,,,,,1429.03600007153,,form submission,,,,,,,,,,,,,,,,153393.30000007153,153392.80000007153,151947.094,151962.40000009537,151963.764,153414.082,,,
trap_trial,html.Screen,0_3_1,2021-12-10T10:30:42.205Z,,,,,,,,,,,,,,,,,,,,,,,,,,,true,1,,2881.2180000715307,,response,,,,,,,,,1,click #choice-1,,,,,,156296.60000002384,156295.30000007153,153380.744,153393.5,153414.082,156296.294,,,
end of trap trial,html.Page,0_3_2,2021-12-10T10:30:44.813Z,,,,,,,,,,,,,,,,,,,,,,,,,,,,,,2608.2060000000056,,form submission,,,,,,,,,,,,,,,,158905,158904.5,156279.635,156296.80000007153,156296.294,158915.565,,,
Trap 1,flow.Sequence,0_3,2021-12-10T10:30:44.813Z,,,,,,,,,,,,,,,,,,,,,,,,,,,,,,6940.736000000004,,completion,,,,,,,,,,,,,,,,158905.40000009537,158904.5,151947.094,151962.30000007153,151963.764,158915.565,,,
Standby,html.Page,0_4_0,2021-12-10T10:30:52.810Z,,,,,,,,,,,,,,,,,,,,,,,,,,,,,,8001.630000000005,,timeout,,,,,,,,,,,,,,,,166901.60000002384,166900.525,158898.895,158905.80000007153,158915.565,166917.195,,,
Holding screen,html.Screen,0_4_1_0_0,2021-12-10T10:30:59.812Z,,,,,,,,,,,,,,,,,,,,,,,,,,,,,,7002.380999999994,,timeout,,,,,,,,,,,,,,,,173904.30000007153,173902.905,166900.525,166902,166917.195,173919.576,,,
screen,html.Screen,0_4_1_0_1_0,2021-12-10T10:31:01.292Z,,,,,,,,,,,,,,,,48,,,,,,,,,,,,,,1463.2240000715246,,response,,,10,F,,,,,Space,keypress(Space),,,,instrumental,As -- --- ------ ------- --------- ----------- --------<br>--------- -------- --- ------- -- ------- ---- -- ------<br>-- --- -------- -------- ---------- ---- ---- ---- ------<br>-- --------- -- ---- -- --- -- --- ------- -- - -----<br>---------- -- -- -- ---- ----- -- ------ -- --- ------<br>-------,175383.80000007153,175382.80000007153,173902.905,173904.80000007153,173919.576,175386.432,,0,As
screen,html.Screen,0_4_1_0_1_1,2021-12-10T10:31:01.659Z,,,,,,,,,,,,,,,,48,,,,,,,,,,,,,,364.0679999999993,,response,,,10,F,,,,,Space,keypress(Space),,,,instrumental,-- in --- ------ ------- --------- ----------- --------<br>--------- -------- --- ------- -- ------- ---- -- ------<br>-- --- -------- -------- ---------- ---- ---- ---- ------<br>-- --------- -- ---- -- --- -- --- ------- -- - -----<br>---------- -- -- -- ---- ----- -- ------ -- --- ------<br>-------,175751.30000007153,175750.5,175369.762,175384.10000002384,175386.432,175753.374,,1,in
screen,html.Screen,0_4_1_0_1_2,2021-12-10T10:31:02.059Z,,,,,,,,,,,,,,,,48,,,,,,,,,,,,,,397.0260000953567,,response,,,10,F,,,,,Space,keypress(Space),,,,instrumental,-- -- the ------ ------- --------- ----------- --------<br>--------- -------- --- ------- -- ------- ---- -- ------<br>-- --- -------- -------- ---------- ---- ---- ---- ------<br>-- --------- -- ---- -- --- -- --- ------- -- - -----<br>---------- -- -- -- ---- ----- -- ------ -- --- ------<br>-------,176151.30000007153,176150.40000009537,175736.703,175751.70000004768,175753.374,176153.495,,2,the
screen,html.Screen,0_4_1_0_1_3,2021-12-10T10:31:02.475Z,,,,,,,,,,,,,,,,48,,,,,,,,,,,,,,413.1050000238465,,response,,,10,F,,,,,Space,keypress(Space),,,,instrumental,-- -- --- United ------- --------- ----------- --------<br>--------- -------- --- ------- -- ------- ---- -- ------<br>-- --- -------- -------- ---------- ---- ---- ---- ------<br>-- --------- -- ---- -- --- -- --- ------- -- - -----<br>---------- -- -- -- ---- ----- -- ------ -- --- ------<br>-------,176567.5,176566.60000002384,176136.824,176151.5,176153.495,176570.278,,3,United
screen,html.Screen,0_4_1_0_1_4,2021-12-10T10:31:02.923Z,,,,,,,,,,,,,,,,48,,,,,,,,,,,,,,444.0220000715344,,response,,,10,F,,,,,Space,keypress(Space),,,,instrumental,"-- -- --- ------ States, --------- ----------- --------<br>--------- -------- --- ------- -- ------- ---- -- ------<br>-- --- -------- -------- ---------- ---- ---- ---- ------<br>-- --------- -- ---- -- --- -- --- ------- -- - -----<br>---------- -- -- -- ---- ----- -- ------ -- --- ------<br>-------",177015.20000004768,177014.30000007153,176553.607,176567.80000007153,176570.278,177020.365,,4,"States,"
screen,html.Screen,0_4_1_0_1_5,2021-12-10T10:31:03.387Z,,,,,,,,,,,,,,,,48,,,,,,,,,,,,,,458.03500009537674,,response,,,10,F,,,,,Space,keypress(Space),,,,instrumental,-- -- --- ------ ------- Colombian ----------- --------<br>--------- -------- --- ------- -- ------- ---- -- ------<br>-- --- -------- -------- ---------- ---- ---- ---- ------<br>-- --------- -- ---- -- --- -- --- ------- -- - -----<br>---------- -- -- -- ---- ----- -- ------ -- --- ------<br>-------,177479.10000002384,177478.40000009537,177003.695,177015.5,177020.365,177487.154,,5,Colombian
screen,html.Screen,0_4_1_0_1_6,2021-12-10T10:31:03.963Z,,,,,,,,,,,,,,,,48,,,,,,,,,,,,,,567.146000071516,,response,,,10,F,,,,,Space,keypress(Space),,,,instrumental,-- -- --- ------ ------- --------- legislation --------<br>--------- -------- --- ------- -- ------- ---- -- ------<br>-- --- -------- -------- ---------- ---- ---- ---- ------<br>-- --------- -- ---- -- --- -- --- ------- -- - -----<br>---------- -- -- -- ---- ----- -- ------ -- --- ------<br>-------,178055.10000002384,178054.30000007153,177470.484,177479.40000009537,177487.154,178070.608,,6,legislation
screen,html.Screen,0_4_1_0_1_7,2021-12-10T10:31:04.387Z,,,,,,,,,,,,,,,,48,,,,,,,,,,,,,,407.6920000715181,,response,,,10,F,,,,,Space,keypress(Space),,,,instrumental,-- -- --- ------ ------- --------- ----------- requires<br>--------- -------- --- ------- -- ------- ---- -- ------<br>-- --- -------- -------- ---------- ---- ---- ---- ------<br>-- --------- -- ---- -- --- -- --- ------- -- - -----<br>---------- -- -- -- ---- ----- -- ------ -- --- ------<br>-------,178479,178478.30000007153,178053.938,178055.40000009537,178070.608,178487.281,,7,requires
screen,html.Screen,0_4_1_0_1_8,2021-12-10T10:31:04.819Z,,,,,,,,,,,,,,,,48,,,,,,,,,,,,,,423.01900007153745,,response,,,10,F,,,,,Space,keypress(Space),,,,instrumental,-- -- --- ------ ------- --------- ----------- --------<br>travelers -------- --- ------- -- ------- ---- -- ------<br>-- --- -------- -------- ---------- ---- ---- ---- ------<br>-- --------- -- ---- -- --- -- --- ------- -- - -----<br>---------- -- -- -- ---- ----- -- ------ -- --- ------<br>-------,178911.10000002384,178910.30000007153,178470.612,178479.20000004768,178487.281,178920.789,,8,travelers
screen,html.Screen,0_4_1_0_1_9,2021-12-10T10:31:05.227Z,,,,,,,,,,,,,,,,48,,,,,,,,,,,,,,397.41100004769396,,response,,,10,F,,,,,Space,keypress(Space),,,,instrumental,-- -- --- ------ ------- --------- ----------- --------<br>--------- entering --- ------- -- ------- ---- -- ------<br>-- --- -------- -------- ---------- ---- ---- ---- ------<br>-- --------- -- ---- -- --- -- --- ------- -- - -----<br>---------- -- -- -- ---- ----- -- ------ -- --- ------<br>-------,179319.10000002384,179318.20000004768,178904.119,178911.30000007153,178920.789,179320.916,,9,entering
screen,html.Screen,0_4_1_0_1_10,2021-12-10T10:31:05.611Z,,,,,,,,,,,,,,,,48,,,,,,,,,,,,,,381.1840000238444,,response,,,10,F,,,,,Space,keypress(Space),,,,instrumental,-- -- --- ------ ------- --------- ----------- --------<br>--------- -------- the ------- -- ------- ---- -- ------<br>-- --- -------- -------- ---------- ---- ---- ---- ------<br>-- --------- -- ---- -- --- -- --- ------- -- - -----<br>---------- -- -- -- ---- ----- -- ------ -- --- ------<br>-------,179702.90000009537,179702.10000002384,179304.246,179319.5,179320.916,179704.469,,10,the
screen,html.Screen,0_4_1_0_1_11,2021-12-10T10:31:06.035Z,,,,,,,,,,,,,,,,48,,,,,,,,,,,,,,421.73100004767184,,response,,,10,F,,,,,Space,keypress(Space),,,,instrumental,-- -- --- ------ ------- --------- ----------- --------<br>--------- -------- --- country -- ------- ---- -- ------<br>-- --- -------- -------- ---------- ---- ---- ---- ------<br>-- --------- -- ---- -- --- -- --- ------- -- - -----<br>---------- -- -- -- ---- ----- -- ------ -- --- ------<br>-------,180127,180126.20000004768,179687.797,179703.10000002384,179704.469,180137.809,,11,country
screen,html.Screen,0_4_1_0_1_12,2021-12-10T10:31:06.515Z,,,,,,,,,,,,,,,,48,,,,,,,,,,,,,,468.39100004767533,,response,,,10,F,,,,,Space,keypress(Space),,,,instrumental,-- -- --- ------ ------- --------- ----------- --------<br>--------- -------- --- ------- to ------- ---- -- ------<br>-- --- -------- -------- ---------- ---- ---- ---- ------<br>-- --------- -- ---- -- --- -- --- ------- -- - -----<br>---------- -- -- -- ---- ----- -- ------ -- --- ------<br>-------,180607,180606.20000004768,180121.139,180127.20000004768,180137.809,180621.347,,12,to
screen,html.Screen,0_4_1_0_1_13,2021-12-10T10:31:06.926Z,,,,,,,,,,,,,,,,48,,,,,,,,,,,,,,392.85300004767487,,response,,,10,F,,,,,Space,keypress(Space),,,,instrumental,-- -- --- ------ ------- --------- ----------- --------<br>--------- -------- --- ------- -- declare ---- -- ------<br>-- --- -------- -------- ---------- ---- ---- ---- ------<br>-- --------- -- ---- -- --- -- --- ------- -- - -----<br>---------- -- -- -- ---- ----- -- ------ -- --- ------<br>-------,181014.90000009537,181014.20000004768,180604.676,180607.20000004768,180621.347,181021.39,,13,declare
screen,html.Screen,0_4_1_0_1_14,2021-12-10T10:31:07.366Z,,,,,,,,,,,,,,,,48,,,,,,,,,,,,,,432.7100000238279,,response,,,10,F,,,,,Space,keypress(Space),,,,instrumental,-- -- --- ------ ------- --------- ----------- --------<br>--------- -------- --- ------- -- ------- cash -- ------<br>-- --- -------- -------- ---------- ---- ---- ---- ------<br>-- --------- -- ---- -- --- -- --- ------- -- - -----<br>---------- -- -- -- ---- ----- -- ------ -- --- ------<br>-------,181455,181454.10000002384,181004.72,181015.20000004768,181021.39,181471.551,,14,cash
screen,html.Screen,0_4_1_0_1_15,2021-12-10T10:31:07.790Z,,,,,,,,,,,,,,,,48,,,,,,,,,,,,,,406.5490000238351,,response,,,10,F,,,,,Space,keypress(Space),,,,instrumental,-- -- --- ------ ------- --------- ----------- --------<br>--------- -------- --- ------- -- ------- ---- in ------<br>-- --- -------- -------- ---------- ---- ---- ---- ------<br>-- --------- -- ---- -- --- -- --- ------- -- - -----<br>---------- -- -- -- ---- ----- -- ------ -- --- ------<br>-------,181878.90000009537,181878.10000002384,181454.88,181455.20000004768,181471.551,181888.283,,15,in
screen,html.Screen,0_4_1_0_1_16,2021-12-10T10:31:08.278Z,,,,,,,,,,,,,,,,48,,,,,,,,,,,,,,477.81700002384605,,response,,,10,F,,,,,Space,keypress(Space),,,,instrumental,-- -- --- ------ ------- --------- ----------- --------<br>--------- -------- --- ------- -- ------- ---- -- excess<br>-- --- -------- -------- ---------- ---- ---- ---- ------<br>-- --------- -- ---- -- --- -- --- ------- -- - -----<br>---------- -- -- -- ---- ----- -- ------ -- --- ------<br>-------,182366.90000009537,182366.10000002384,181871.613,181879.20000004768,181888.283,182371.734,,16,excess
screen,html.Screen,0_4_1_0_1_17,2021-12-10T10:31:08.694Z,,,,,,,,,,,,,,,,48,,,,,,,,,,,,,,410.1660000953707,,response,,,10,F,,,,,Space,keypress(Space),,,,instrumental,-- -- --- ------ ------- --------- ----------- --------<br>--------- -------- --- ------- -- ------- ---- -- ------<br>of --- -------- -------- ---------- ---- ---- ---- ------<br>-- --------- -- ---- -- --- -- --- ------- -- - -----<br>---------- -- -- -- ---- ----- -- ------ -- --- ------<br>-------,182782.80000007153,182781.90000009537,182355.064,182367.20000004768,182371.734,182788.592,,17,of
screen,html.Screen,0_4_1_0_1_18,2021-12-10T10:31:09.062Z,,,,,,,,,,,,,,,,48,,,,,,,,,,,,,,361.4079999999958,,response,,,10,F,,,,,Space,keypress(Space),,,,instrumental,-- -- --- ------ ------- --------- ----------- --------<br>--------- -------- --- ------- -- ------- ---- -- ------<br>-- ten -------- -------- ---------- ---- ---- ---- ------<br>-- --------- -- ---- -- --- -- --- ------- -- - -----<br>---------- -- -- -- ---- ----- -- ------ -- --- ------<br>-------,183150.90000009537,183150,182771.921,182783,182788.592,183155.16,,18,ten
screen,html.Screen,0_4_1_0_1_19,2021-12-10T10:31:09.390Z,,,,,,,,,,,,,,,,48,,,,,,,,,,,,,,322.94000002383837,,response,,,10,F,,,,,Space,keypress(Space),,,,instrumental,-- -- --- ------ ------- --------- ----------- --------<br>--------- -------- --- ------- -- ------- ---- -- ------<br>-- --- thousand -------- ---------- ---- ---- ---- ------<br>-- --------- -- ---- -- --- -- --- ------- -- - -----<br>---------- -- -- -- ---- ----- -- ------ -- --- ------<br>-------,183478.80000007153,183478.10000002384,183138.492,183151.10000002384,183155.16,183488.655,,19,thousand
screen,html.Screen,0_4_1_0_1_20,2021-12-10T10:31:09.814Z,,,,,,,,,,,,,,,,48,,,,,,,,,,,,,,413.2450000953686,,response,,,10,F,,,,,Space,keypress(Space),,,,instrumental,-- -- --- ------ ------- --------- ----------- --------<br>--------- -------- --- ------- -- ------- ---- -- ------<br>-- --- -------- dollars. ---------- ---- ---- ---- ------<br>-- --------- -- ---- -- --- -- --- ------- -- - -----<br>---------- -- -- -- ---- ----- -- ------ -- --- ------<br>-------,183902.70000004768,183901.90000009537,183471.985,183479.10000002384,183488.655,183905.567,,20,dollars.
screen,html.Screen,0_4_1_0_1_21,2021-12-10T10:31:10.294Z,,,,,,,,,,,,,,,,48,,,,,,,,,,,,,,476.3330000953574,,response,,,10,F,,,,,Space,keypress(Space),,,,instrumental,-- -- --- ------ ------- --------- ----------- --------<br>--------- -------- --- ------- -- ------- ---- -- ------<br>-- --- -------- -------- Concealing ---- ---- ---- ------<br>-- --------- -- ---- -- --- -- --- ------- -- - -----<br>---------- -- -- -- ---- ----- -- ------ -- --- ------<br>-------,184382.70000004768,184381.90000009537,183888.895,183903,183905.567,184388.932,,21,Concealing
screen,html.Screen,0_4_1_0_1_22,2021-12-10T10:31:10.670Z,,,,,,,,,,,,,,,,48,,,,,,,,,,,,,,368.96800009536673,,response,,,10,F,,,,,Space,keypress(Space),,,,instrumental,-- -- --- ------ ------- --------- ----------- --------<br>--------- -------- --- ------- -- ------- ---- -- ------<br>-- --- -------- -------- ---------- more ---- ---- ------<br>-- --------- -- ---- -- --- -- --- ------- -- - -----<br>---------- -- -- -- ---- ----- -- ------ -- --- ------<br>-------,184758.70000004768,184757.90000009537,184372.262,184382.90000009537,184388.932,184772.377,,22,more
screen,html.Screen,0_4_1_0_1_23,2021-12-10T10:31:11.102Z,,,,,,,,,,,,,,,,48,,,,,,,,,,,,,,417.52300009535975,,response,,,10,F,,,,,Space,keypress(Space),,,,instrumental,-- -- --- ------ ------- --------- ----------- --------<br>--------- -------- --- ------- -- ------- ---- -- ------<br>-- --- -------- -------- ---------- ---- than ---- ------<br>-- --------- -- ---- -- --- -- --- ------- -- - -----<br>---------- -- -- -- ---- ----- -- ------ -- --- ------<br>-------,185190.80000007153,185189.90000009537,184755.707,184759,184772.377,185205.773,,23,than
screen,html.Screen,0_4_1_0_1_24,2021-12-10T10:31:11.446Z,,,,,,,,,,,,,,,,48,,,,,,,,,,,,,,328.4270000476972,,response,,,10,F,,,,,Space,keypress(Space),,,,instrumental,-- -- --- ------ ------- --------- ----------- --------<br>--------- -------- --- ------- -- ------- ---- -- ------<br>-- --- -------- -------- ---------- ---- ---- that ------<br>-- --------- -- ---- -- --- -- --- ------- -- - -----<br>---------- -- -- -- ---- ----- -- ------ -- --- ------<br>-------,185535.10000002384,185534.20000004768,185189.103,185191,185205.773,185539.182,,24,that
screen,html.Screen,0_4_1_0_1_25,2021-12-10T10:31:11.798Z,,,,,,,,,,,,,,,,48,,,,,,,,,,,,,,346.71800009536673,,response,,,10,F,,,,,Space,keypress(Space),,,,instrumental,-- -- --- ------ ------- --------- ----------- --------<br>--------- -------- --- ------- -- ------- ---- -- ------<br>-- --- -------- -------- ---------- ---- ---- ---- amount<br>-- --------- -- ---- -- --- -- --- ------- -- - -----<br>---------- -- -- -- ---- ----- -- ------ -- --- ------<br>-------,185886.70000004768,185885.90000009537,185522.512,185535.5,185539.182,185889.408,,25,amount
screen,html.Screen,0_4_1_0_1_26,2021-12-10T10:31:12.158Z,,,,,,,,,,,,,,,,48,,,,,,,,,,,,,,356.4920000953716,,response,,,10,F,,,,,Space,keypress(Space),,,,instrumental,-- -- --- ------ ------- --------- ----------- --------<br>--------- -------- --- ------- -- ------- ---- -- ------<br>-- --- -------- -------- ---------- ---- ---- ---- ------<br>to --------- -- ---- -- --- -- --- ------- -- - -----<br>---------- -- -- -- ---- ----- -- ------ -- --- ------<br>-------,186246.60000002384,186245.90000009537,185872.736,185887,185889.408,186256.103,,26,to
screen,html.Screen,0_4_1_0_1_27,2021-12-10T10:31:12.518Z,,,,,,,,,,,,,,,,48,,,,,,,,,,,,,,349.6970000715228,,response,,,10,F,,,,,Space,keypress(Space),,,,instrumental,-- -- --- ------ ------- --------- ----------- --------<br>--------- -------- --- ------- -- ------- ---- -- ------<br>-- --- -------- -------- ---------- ---- ---- ---- ------<br>-- transport -- ---- -- --- -- --- ------- -- - -----<br>---------- -- -- -- ---- ----- -- ------ -- --- ------<br>-------,186606.70000004768,186605.80000007153,186239.433,186246.90000009537,186256.103,186622.894,,27,transport
screen,html.Screen,0_4_1_0_1_28,2021-12-10T10:31:12.878Z,,,,,,,,,,,,,,,,48,,,,,,,,,,,,,,343.0060000953672,,response,,,10,F,,,,,Space,keypress(Space),,,,instrumental,-- -- --- ------ ------- --------- ----------- --------<br>--------- -------- --- ------- -- ------- ---- -- ------<br>-- --- -------- -------- ---------- ---- ---- ---- ------<br>-- --------- it ---- -- --- -- --- ------- -- - -----<br>---------- -- -- -- ---- ----- -- ------ -- --- ------<br>-------,186966.70000004768,186965.90000009537,186606.223,186607,186622.894,186972.94,,28,it
screen,html.Screen,0_4_1_0_1_29,2021-12-10T10:31:13.206Z,,,,,,,,,,,,,,,,48,,,,,,,,,,,,,,320.86000007152325,,response,,,10,F,,,,,Space,keypress(Space),,,,instrumental,-- -- --- ------ ------- --------- ----------- --------<br>--------- -------- --- ------- -- ------- ---- -- ------<br>-- --- -------- -------- ---------- ---- ---- ---- ------<br>-- --------- -- into -- --- -- --- ------- -- - -----<br>---------- -- -- -- ---- ----- -- ------ -- --- ------<br>-------,187294.70000004768,187293.80000007153,186956.27,186966.90000009537,186972.94,187306.374,,29,into
screen,html.Screen,0_4_1_0_1_30,2021-12-10T10:31:13.590Z,,,,,,,,,,,,,,,,48,,,,,,,,,,,,,,371.42600007151486,,response,,,10,F,,,,,Space,keypress(Space),,,,instrumental,-- -- --- ------ ------- --------- ----------- --------<br>--------- -------- --- ------- -- ------- ---- -- ------<br>-- --- -------- -------- ---------- ---- ---- ---- ------<br>-- --------- -- ---- or --- -- --- ------- -- - -----<br>---------- -- -- -- ---- ----- -- ------ -- --- ------<br>-------,187678.60000002384,187677.80000007153,187289.704,187294.90000009537,187306.374,187689.842,,30,or
screen,html.Screen,0_4_1_0_1_31,2021-12-10T10:31:13.894Z,,,,,,,,,,,,,,,,48,,,,,,,,,,,,,,291.8580000476795,,response,,,10,F,,,,,Space,keypress(Space),,,,instrumental,-- -- --- ------ ------- --------- ----------- --------<br>--------- -------- --- ------- -- ------- ---- -- ------<br>-- --- -------- -------- ---------- ---- ---- ---- ------<br>-- --------- -- ---- -- out -- --- ------- -- - -----<br>---------- -- -- -- ---- ----- -- ------ -- --- ------<br>-------,187982.5,187981.70000004768,187673.171,187678.90000009537,187689.842,187989.887,,31,out
screen,html.Screen,0_4_1_0_1_32,2021-12-10T10:31:14.214Z,,,,,,,,,,,,,,,,48,,,,,,,,,,,,,,311.8130000476958,,response,,,10,F,,,,,Space,keypress(Space),,,,instrumental,-- -- --- ------ ------- --------- ----------- --------<br>--------- -------- --- ------- -- ------- ---- -- ------<br>-- --- -------- -------- ---------- ---- ---- ---- ------<br>-- --------- -- ---- -- --- of --- ------- -- - -----<br>---------- -- -- -- ---- ----- -- ------ -- --- ------<br>-------,188302.5,188301.70000004768,187973.217,187982.80000007153,187989.887,188306.631,,32,of
screen,html.Screen,0_4_1_0_1_33,2021-12-10T10:31:14.518Z,,,,,,,,,,,,,,,,48,,,,,,,,,,,,,,299.1690000715316,,response,,,10,F,,,,,Space,keypress(Space),,,,instrumental,-- -- --- ------ ------- --------- ----------- --------<br>--------- -------- --- ------- -- ------- ---- -- ------<br>-- --- -------- -------- ---------- ---- ---- ---- ------<br>-- --------- -- ---- -- --- -- the ------- -- - -----<br>---------- -- -- -- ---- ----- -- ------ -- --- ------<br>-------,188606.60000002384,188605.80000007153,188289.961,188302.80000007153,188306.631,188623.373,,33,the
screen,html.Screen,0_4_1_0_1_34,2021-12-10T10:31:14.830Z,,,,,,,,,,,,,,,,48,,,,,,,,,,,,,,294.3270000476914,,response,,,10,F,,,,,Space,keypress(Space),,,,instrumental,-- -- --- ------ ------- --------- ----------- --------<br>--------- -------- --- ------- -- ------- ---- -- ------<br>-- --- -------- -------- ---------- ---- ---- ---- ------<br>-- --------- -- ---- -- --- -- --- country -- - -----<br>---------- -- -- -- ---- ----- -- ------ -- --- ------<br>-------,188918.5,188917.70000004768,188606.703,188606.90000009537,188623.373,188923.351,,34,country
screen,html.Screen,0_4_1_0_1_35,2021-12-10T10:31:15.182Z,,,,,,,,,,,,,,,,48,,,,,,,,,,,,,,346.3490000476886,,response,,,10,F,,,,,Space,keypress(Space),,,,instrumental,-- -- --- ------ ------- --------- ----------- --------<br>--------- -------- --- ------- -- ------- ---- -- ------<br>-- --- -------- -------- ---------- ---- ---- ---- ------<br>-- --------- -- ---- -- --- -- --- ------- is - -----<br>---------- -- -- -- ---- ----- -- ------ -- --- ------<br>-------,189270.60000002384,189269.70000004768,188906.683,188918.70000004768,188923.351,189273.511,,35,is
screen,html.Screen,0_4_1_0_1_36,2021-12-10T10:31:15.526Z,,,,,,,,,,,,,,,,48,,,,,,,,,,,,,,340.1890000476851,,response,,,10,F,,,,,Space,keypress(Space),,,,instrumental,-- -- --- ------ ------- --------- ----------- --------<br>--------- -------- --- ------- -- ------- ---- -- ------<br>-- --- -------- -------- ---------- ---- ---- ---- ------<br>-- --------- -- ---- -- --- -- --- ------- -- a -----<br>---------- -- -- -- ---- ----- -- ------ -- --- ------<br>-------,189614.40000009537,189613.70000004768,189256.841,189270.80000007153,189273.511,189623.603,,36,a
screen,html.Screen,0_4_1_0_1_37,2021-12-10T10:31:15.838Z,,,,,,,,,,,,,,,,48,,,,,,,,,,,,,,302.0970000476809,,response,,,10,F,,,,,Space,keypress(Space),,,,instrumental,-- -- --- ------ ------- --------- ----------- --------<br>--------- -------- --- ------- -- ------- ---- -- ------<br>-- --- -------- -------- ---------- ---- ---- ---- ------<br>-- --------- -- ---- -- --- -- --- ------- -- - crime<br>---------- -- -- -- ---- ----- -- ------ -- --- ------<br>-------,189926.60000002384,189925.70000004768,189606.933,189614.70000004768,189623.603,189940.456,,37,crime
screen,html.Screen,0_4_1_0_1_38,2021-12-10T10:31:16.230Z,,,,,,,,,,,,,,,,48,,,,,,,,,,,,,,377.2440000476781,,response,,,10,F,,,,,Space,keypress(Space),,,,instrumental,-- -- --- ------ ------- --------- ----------- --------<br>--------- -------- --- ------- -- ------- ---- -- ------<br>-- --- -------- -------- ---------- ---- ---- ---- ------<br>-- --------- -- ---- -- --- -- --- ------- -- - -----<br>punishable -- -- -- ---- ----- -- ------ -- --- ------<br>-------,190318.40000009537,190317.70000004768,189923.784,189927,189940.456,190323.797,,38,punishable
screen,html.Screen,0_4_1_0_1_39,2021-12-10T10:31:16.589Z,,,,,,,,,,,,,,,,48,,,,,,,,,,,,,,353.8030000238505,,response,,,10,F,,,,,Space,keypress(Space),,,,instrumental,-- -- --- ------ ------- --------- ----------- --------<br>--------- -------- --- ------- -- ------- ---- -- ------<br>-- --- -------- -------- ---------- ---- ---- ---- ------<br>-- --------- -- ---- -- --- -- --- ------- -- - -----<br>---------- by -- -- ---- ----- -- ------ -- --- ------<br>-------,190678.40000009537,190677.60000002384,190307.127,190318.70000004768,190323.797,190690.619,,39,by
screen,html.Screen,0_4_1_0_1_40,2021-12-10T10:31:16.902Z,,,,,,,,,,,,,,,,48,,,,,,,,,,,,,,299.1810000715195,,response,,,10,F,,,,,Space,keypress(Space),,,,instrumental,-- -- --- ------ ------- --------- ----------- --------<br>--------- -------- --- ------- -- ------- ---- -- ------<br>-- --- -------- -------- ---------- ---- ---- ---- ------<br>-- --------- -- ---- -- --- -- --- ------- -- - -----<br>---------- -- up -- ---- ----- -- ------ -- --- ------<br>-------,190990.60000002384,190989.80000007153,190673.948,190678.70000004768,190690.619,191007.367,,40,up
screen,html.Screen,0_4_1_0_1_41,2021-12-10T10:31:17.182Z,,,,,,,,,,,,,,,,48,,,,,,,,,,,,,,262.2330000238435,,response,,,10,F,,,,,Space,keypress(Space),,,,instrumental,-- -- --- ------ ------- --------- ----------- --------<br>--------- -------- --- ------- -- ------- ---- -- ------<br>-- --- -------- -------- ---------- ---- ---- ---- ------<br>-- --------- -- ---- -- --- -- --- ------- -- - -----<br>---------- -- -- to ---- ----- -- ------ -- --- ------<br>-------,191270.40000009537,191269.60000002384,190990.696,190990.80000007153,191007.367,191274.11,,41,to
screen,html.Screen,0_4_1_0_1_42,2021-12-10T10:31:17.493Z,,,,,,,,,,,,,,,,48,,,,,,,,,,,,,,307.39000000001397,,response,,,10,F,,,,,Space,keypress(Space),,,,instrumental,-- -- --- ------ ------- --------- ----------- --------<br>--------- -------- --- ------- -- ------- ---- -- ------<br>-- --- -------- -------- ---------- ---- ---- ---- ------<br>-- --------- -- ---- -- --- -- --- ------- -- - -----<br>---------- -- -- -- five ----- -- ------ -- --- ------<br>-------,191582.30000007153,191581.5,191257.439,191270.60000002384,191274.11,191590.834,,42,five
screen,html.Screen,0_4_1_0_1_43,2021-12-10T10:31:17.789Z,,,,,,,,,,,,,,,,48,,,,,,,,,,,,,,286.7660000238393,,response,,,10,F,,,,,Space,keypress(Space),,,,instrumental,-- -- --- ------ ------- --------- ----------- --------<br>--------- -------- --- ------- -- ------- ---- -- ------<br>-- --- -------- -------- ---------- ---- ---- ---- ------<br>-- --------- -- ---- -- --- -- --- ------- -- - -----<br>---------- -- -- -- ---- years -- ------ -- --- ------<br>-------,191878.40000009537,191877.60000002384,191574.164,191582.5,191590.834,191890.891,,43,years
screen,html.Screen,0_4_1_0_1_44,2021-12-10T10:31:18.101Z,,,,,,,,,,,,,,,,48,,,,,,,,,,,,,,298.7090000238386,,response,,,10,F,,,,,Space,keypress(Space),,,,instrumental,-- -- --- ------ ------- --------- ----------- --------<br>--------- -------- --- ------- -- ------- ---- -- ------<br>-- --- -------- -------- ---------- ---- ---- ---- ------<br>-- --------- -- ---- -- --- -- --- ------- -- - -----<br>---------- -- -- -- ---- ----- in ------ -- --- ------<br>-------,192190.30000007153,192189.60000002384,191874.221,191878.60000002384,191890.891,192207.656,,44,in
screen,html.Screen,0_4_1_0_1_45,2021-12-10T10:31:18.421Z,,,,,,,,,,,,,,,,48,,,,,,,,,,,,,,301.94400002385373,,response,,,10,F,,,,,Space,keypress(Space),,,,instrumental,-- -- --- ------ ------- --------- ----------- --------<br>--------- -------- --- ------- -- ------- ---- -- ------<br>-- --- -------- -------- ---------- ---- ---- ---- ------<br>-- --------- -- ---- -- --- -- --- ------- -- - -----<br>---------- -- -- -- ---- ----- -- prison -- --- ------<br>-------,192510.40000009537,192509.60000002384,192190.986,192190.60000002384,192207.656,192524.436,,45,prison
screen,html.Screen,0_4_1_0_1_46,2021-12-10T10:31:18.717Z,,,,,,,,,,,,,,,,48,,,,,,,,,,,,,,281.1640000238549,,response,,,10,F,,,,,Space,keypress(Space),,,,instrumental,-- -- --- ------ ------- --------- ----------- --------<br>--------- -------- --- ------- -- ------- ---- -- ------<br>-- --- -------- -------- ---------- ---- ---- ---- ------<br>-- --------- -- ---- -- --- -- --- ------- -- - -----<br>---------- -- -- -- ---- ----- -- ------ in --- ------<br>-------,192806.30000007153,192805.60000002384,192507.765,192510.5,192524.436,192807.798,,46,in
screen,html.Screen,0_4_1_0_1_47,2021-12-10T10:31:19.029Z,,,,,,,,,,,,,,,,48,,,,,,,,,,,,,,309.8020000238321,,response,,,10,F,,,,,Space,keypress(Space),,,,instrumental,-- -- --- ------ ------- --------- ----------- --------<br>--------- -------- --- ------- -- ------- ---- -- ------<br>-- --- -------- -------- ---------- ---- ---- ---- ------<br>-- --------- -- ---- -- --- -- --- ------- -- - -----<br>---------- -- -- -- ---- ----- -- ------ -- the ------<br>-------,193118.30000007153,193117.60000002384,192791.128,192806.60000002384,192807.798,193124.44,,47,the
screen,html.Screen,0_4_1_0_1_48,2021-12-10T10:31:19.421Z,,,,,,,,,,,,,,,,48,,,,,,,,,,,,,,385.0599999999977,,response,,,10,F,,,,,Space,keypress(Space),,,,instrumental,-- -- --- ------ ------- --------- ----------- --------<br>--------- -------- --- ------- -- ------- ---- -- ------<br>-- --- -------- -------- ---------- ---- ---- ---- ------<br>-- --------- -- ---- -- --- -- --- ------- -- - -----<br>---------- -- -- -- ---- ----- -- ------ -- --- United<br>-------,193510.30000007153,193509.5,193107.772,193118.5,193124.44,193524.708,,48,United
screen,html.Screen,0_4_1_0_1_49,2021-12-10T10:31:19.781Z,,,,,,,,,,,,,,,,48,,,,,,,,,,,,,,344.79199999998673,,response,,,10,F,,,,,Space,keypress(Space),,,,instrumental,-- -- --- ------ ------- --------- ----------- --------<br>--------- -------- --- ------- -- ------- ---- -- ------<br>-- --- -------- -------- ---------- ---- ---- ---- ------<br>-- --------- -- ---- -- --- -- --- ------- -- - -----<br>---------- -- -- -- ---- ----- -- ------ -- --- ------<br>States.,193870.30000007153,193869.5,193508.036,193510.5,193524.708,193874.792,,49,States.
Item 10,flow.Loop,0_4_1_0_1,2021-12-10T10:31:19.782Z,,,,,,,,,,,,,,,,,,,,,,,,,,,,,,19949.924,,completion,,,,,,,,,,,,,,,,193870.70000004768,193869.5,173902.905,173904.70000004768,173919.576,193874.792,,,
Question 1,html.Screen,0_4_1_0_2,2021-12-10T10:31:21.965Z,,,,,,,,,,,,,,,,,,,,,,,,,,,true,TRUE,,2178.408000047697,,response,,,10,F,,,,,TRUE,click #choice-1,,,,instrumental,,196054.30000007153,196053.20000004768,193858.121,193870.90000009537,193874.792,196058.662,,,
Question 2,html.Screen,0_4_1_0_3,2021-12-10T10:31:23.645Z,,,,,,,,,,,,,,,,,,,,,,,,,,,true,TRUE,,1674.4380000238307,,response,,,10,F,,,,,TRUE,click #choice-1,,,,instrumental,,197734.30000007153,197733.10000002384,196041.992,196054.5,196058.662,197742.362,,,
Item 10,flow.Sequence,0_4_1_0,2021-12-10T10:31:23.646Z,,,,,,,,,,,,,,,,,,,,,,,,,,,,,,30815.905000023835,,completion,,,,,,,,,,,,,,,,197734.70000004768,197733.10000002384,166900.525,166902,166917.195,197742.362,,,
Holding screen,html.Screen,0_4_1_1_0,2021-12-10T10:31:30.640Z,,,,,,,,,,,,,,,,,,,,,,,,,,,,,,7001.744999999995,,timeout,,,,,,,,,,,,,,,,204729,204727.437,197725.692,197735,197742.362,204744.107,,,
screen,html.Screen,0_4_1_1_1_0,2021-12-10T10:31:31.869Z,,,,,,,,,,,,,,,,2,,,,,,,,,,,,,,1213.0930000476947,,response,,,1,F,,,,,Space,keypress(Space),,,,instrumental,Two ---- ------ --- ------- ---------- ------- ----------<br>--- --------- --- ----------- ------- ----- ------- ---<br>--------- ---- -- --- ---- -- --------- -- ---- -------<br>-- --------- ------ --- ----- ------ ---- --- --------- --<br>------ - ---- -- --- ----------- ------- ---- ----- -----<br>--- -------- - ------ ---- -- ----- ---- --- --- -----------<br>-- -------,205958.20000004768,205957.20000004768,204727.437,204729.30000007153,204744.107,205961.268,,0,Two
screen,html.Screen,0_4_1_1_1_1,2021-12-10T10:31:32.509Z,,,,,,,,,,,,,,,,2,,,,,,,,,,,,,,635.5320000715146,,response,,,1,F,,,,,Space,keypress(Space),,,,instrumental,--- days ------ --- ------- ---------- ------- ----------<br>--- --------- --- ----------- ------- ----- ------- ---<br>--------- ---- -- --- ---- -- --------- -- ---- -------<br>-- --------- ------ --- ----- ------ ---- --- --------- --<br>------ - ---- -- --- ----------- ------- ---- ----- -----<br>--- -------- - ------ ---- -- ----- ---- --- --- -----------<br>-- -------,206597.70000004768,206596.80000007153,205944.597,205958.5,205961.268,206611.192,,1,days
screen,html.Screen,0_4_1_1_1_2,2021-12-10T10:31:33.085Z,,,,,,,,,,,,,,,,2,,,,,,,,,,,,,,561.6080000715156,,response,,,1,F,,,,,Space,keypress(Space),,,,instrumental,"--- ---- later, --- ------- ---------- ------- ----------<br>--- --------- --- ----------- ------- ----- ------- ---<br>--------- ---- -- --- ---- -- --------- -- ---- -------<br>-- --------- ------ --- ----- ------ ---- --- --------- --<br>------ - ---- -- --- ----------- ------- ---- ----- -----<br>--- -------- - ------ ---- -- ----- ---- --- --- -----------<br>-- -------",207173.70000004768,207172.80000007153,206594.523,206597.90000009537,206611.192,207178.271,,2,"later,"
