sender,sender_type,sender_id,timestamp,meta,,Blues,Classical,Country,Dance,Electronic,Folk,Gospel,Hip-Hop,Jazz,Latin,Musical/Film,New-age,Pop,Provo_ID,R&B,Rap,Reggae,Religious,Rock,Soul,Swing,Traditional,age,artist_name,correct,correctResponse,distraction,duration,education,ended_on,familiarity,gender,item,list,music_frequency,offensiveness,pleasantness,preference,response,response_action,snippet_file,song_name,song_rating,sound,text,time_commit,time_end,time_render,time_run,time_show,time_switch,url,word,word_ID
Instructions,html.Page,0_0,2021-12-02T11:56:15.960Z,"{""labjs_version"":""20.2.3"",""labjs_build"":{""flavor"":""production"",""commit"":""7ea907d66ca8aeef8054924ca5d82ffbe11e34e5""},""location"":""https://run.pavlovia.org/mvasilev/lab_music_c/"",""userAgent"":""Mozilla/5.0 (Windows NT 6.1; Win64; x64) AppleWebKit/537.36 (KHTML, like Gecko) Chrome/96.0.4664.45 Safari/537.36"",""platform"":""Win32"",""language"":""en-US"",""locale"":""en-US"",""timeZone"":""Europe/London"",""timezoneOffset"":0,""screen_width"":1920,""screen_height"":1080,""scroll_width"":1920,""scroll_height"":959,""window_innerWidth"":1920,""window_innerHeight"":1007,""devicePixelRatio"":1}",,,,,,,,,,,,,,,,,,,,,,,,,,,,,49709.21400000037,,form submission,,,,,,,,,,,,,,,,62998.59999999963,62997.40000000037,13254.846,13270,13288.186,63002.122,{},,
Headphones,html.Page,0_1,2021-12-02T11:56:21.594Z,,,,,,,,,,,,,,,,,,,,,,,,,,,,,,5629.877999999997,,form submission,,,,,,,,,,,,,,,,68632.59999999963,68632,62985.45,62999.29999999888,63002.122,68636.831,,,
Holding screen,html.Screen,0_2_0_0,2021-12-02T11:56:31.591Z,,,,,,,,,,,,,,,,,,,,,,,,,,,,,,10002.606999999989,,timeout,,,,,,,,,,,,,,,,78629,78622.768,68620.161,68633.19999999925,68636.831,78639.438,,,
screen,html.Screen,0_2_0_1_0,2021-12-02T11:56:32.914Z,,,,,,,,,,,,,,,,53,,,,,,,,,,,,,,1310.9620000003779,,response,,,99,,,,,,Space,keypress(Space),,,,,When -- ----- -- ------ - ------- --- ----------<br>------------- ------ ------ ---- ---- ------- ----- -- ----<br>-------- ------- -- ---------- --- - --- ----- ----- ----<br>---- --- --- ----- --- ---- ---- ------- ----- ---- -------<br>--- --- -- ----- -- --- ---- -- --- ---- -- ------ ------<br>--- ----- -- ----,79951.90000000037,79950.40000000037,78622.768,78629.5,78639.438,79956.657,,0,When
screen,html.Screen,0_2_0_1_1,2021-12-02T11:56:33.313Z,,,,,,,,,,,,,,,,53,,,,,,,,,,,,,,393.6429999988759,,response,,,99,,,,,,Space,keypress(Space),,,,,---- it ----- -- ------ - ------- --- ----------<br>------------- ------ ------ ---- ---- ------- ----- -- ----<br>-------- ------- -- ---------- --- - --- ----- ----- ----<br>---- --- --- ----- --- ---- ---- ------- ----- ---- -------<br>--- --- -- ----- -- --- ---- -- --- ---- -- ------ ------<br>--- ----- -- ----,80351.19999999925,80350.29999999888,79939.986,79952.19999999925,79956.657,80356.588,,1,it
screen,html.Screen,0_2_0_1_2,2021-12-02T11:56:34.121Z,,,,,,,,,,,,,,,,53,,,,,,,,,,,,,,801.711999998879,,response,,,99,,,,,,Space,keypress(Space),,,,,---- -- comes -- ------ - ------- --- ----------<br>------------- ------ ------ ---- ---- ------- ----- -- ----<br>-------- ------- -- ---------- --- - --- ----- ----- ----<br>---- --- --- ----- --- ---- ---- ------- ----- ---- -------<br>--- --- -- ----- -- --- ---- -- --- ---- -- ------ ------<br>--- ----- -- ----,81159.19999999925,81158.29999999888,80339.918,80351.5,80356.588,81173.647,,2,comes
screen,html.Screen,0_2_0_1_3,2021-12-02T11:56:34.497Z,,,,,,,,,,,,,,,,53,,,,,,,,,,,,,,360.6529999988852,,response,,,99,,,,,,Space,keypress(Space),,,,,---- -- ----- to ------ - ------- --- ----------<br>------------- ------ ------ ---- ---- ------- ----- -- ----<br>-------- ------- -- ---------- --- - --- ----- ----- ----<br>---- --- --- ----- --- ---- ---- ------- ----- ---- -------<br>--- --- -- ----- -- --- ---- -- --- ---- -- ------ ------<br>--- ----- -- ----,81535.19999999925,81534.29999999888,81156.976,81159.40000000037,81173.647,81540.376,,3,to
screen,html.Screen,0_2_0_1_4,2021-12-02T11:56:35.209Z,,,,,,,,,,,,,,,,53,,,,,,,,,,,,,,705.9239999988786,,response,,,99,,,,,,Space,keypress(Space),,,,,---- -- ----- -- having - ------- --- ----------<br>------------- ------ ------ ---- ---- ------- ----- -- ----<br>-------- ------- -- ---------- --- - --- ----- ----- ----<br>---- --- --- ----- --- ---- ---- ------- ----- ---- -------<br>--- --- -- ----- -- --- ---- -- --- ---- -- ------ ------<br>--- ----- -- ----,82247.29999999888,82246.29999999888,81523.706,81535.69999999925,81540.376,82257.153,,4,having
screen,html.Screen,0_2_0_1_5,2021-12-02T11:56:35.873Z,,,,,,,,,,,,,,,,53,,,,,,,,,,,,,,653.0469999992492,,response,,,99,,,,,,Space,keypress(Space),,,,,---- -- ----- -- ------ a ------- --- ----------<br>------------- ------ ------ ---- ---- ------- ----- -- ----<br>-------- ------- -- ---------- --- - --- ----- ----- ----<br>---- --- --- ----- --- ---- ---- ------- ----- ---- -------<br>--- --- -- ----- -- --- ---- -- --- ---- -- ------ ------<br>--- ----- -- ----,82911.09999999963,82910.19999999925,82240.483,82247.69999999925,82257.153,82924.209,,5,a
screen,html.Screen,0_2_0_1_6,2021-12-02T11:56:36.657Z,,,,,,,,,,,,,,,,53,,,,,,,,,,,,,,769.9909999992524,,response,,,99,,,,,,Space,keypress(Space),,,,,---- -- ----- -- ------ - lasting --- ----------<br>------------- ------ ------ ---- ---- ------- ----- -- ----<br>-------- ------- -- ---------- --- - --- ----- ----- ----<br>---- --- --- ----- --- ---- ---- ------- ----- ---- -------<br>--- --- -- ----- -- --- ---- -- --- ---- -- ------ ------<br>--- ----- -- ----,83695.09999999963,83694.19999999925,82907.537,82911.59999999963,82924.209,83707.591,,6,lasting
screen,html.Screen,0_2_0_1_7,2021-12-02T11:56:37.321Z,,,,,,,,,,,,,,,,53,,,,,,,,,,,,,,650.6089999992546,,response,,,99,,,,,,Space,keypress(Space),,,,,---- -- ----- -- ------ - ------- and ----------<br>------------- ------ ------ ---- ---- ------- ----- -- ----<br>-------- ------- -- ---------- --- - --- ----- ----- ----<br>---- --- --- ----- --- ---- ---- ------- ----- ---- -------<br>--- --- -- ----- -- --- ---- -- --- ---- -- ------ ------<br>--- ----- -- ----,84359.09999999963,84358.19999999925,83690.921,83695.5,83707.591,84374.421,,7,and
screen,html.Screen,0_2_0_1_8,2021-12-02T11:56:38.025Z,,,,,,,,,,,,,,,,53,,,,,,,,,,,,,,688.0789999999979,,response,,,99,,,,,,Space,keypress(Space),,,,,---- -- ----- -- ------ - ------- --- fulfilling<br>------------- ------ ------ ---- ---- ------- ----- -- ----<br>-------- ------- -- ---------- --- - --- ----- ----- ----<br>---- --- --- ----- --- ---- ---- ------- ----- ---- -------<br>--- --- -- ----- -- --- ---- -- --- ---- -- ------ ------<br>--- ----- -- ----,85063.59999999963,85062.5,84357.751,84359.40000000037,84374.421,85074.551,,8,fulfilling
screen,html.Screen,0_2_0_1_9,2021-12-02T11:56:38.753Z,,,,,,,,,,,,,,,,53,,,,,,,,,,,,,,715.4489999999932,,response,,,99,,,,,,Space,keypress(Space),,,,,"---- -- ----- -- ------ - ------- --- ----------<br>relationship, ------ ------ ---- ---- ------- ----- -- ----<br>-------- ------- -- ---------- --- - --- ----- ----- ----<br>---- --- --- ----- --- ---- ---- ------- ----- ---- -------<br>--- --- -- ----- -- --- ---- -- --- ---- -- ------ ------<br>--- ----- -- ----",85790.90000000037,85790,85057.881,85063.90000000037,85074.551,85808.222,,9,"relationship,"
screen,html.Screen,0_2_0_1_10,2021-12-02T11:56:39.361Z,,,,,,,,,,,,,,,,53,,,,,,,,,,,,,,589.6780000003782,,response,,,99,,,,,,Space,keypress(Space),,,,,---- -- ----- -- ------ - ------- --- ----------<br>------------- common ------ ---- ---- ------- ----- -- ----<br>-------- ------- -- ---------- --- - --- ----- ----- ----<br>---- --- --- ----- --- ---- ---- ------- ----- ---- -------<br>--- --- -- ----- -- --- ---- -- --- ---- -- ------ ------<br>--- ----- -- ----,86399,86397.90000000037,85791.551,85791.19999999925,85808.222,86408.344,,10,common
screen,html.Screen,0_2_0_1_11,2021-12-02T11:56:40.096Z,,,,,,,,,,,,,,,,53,,,,,,,,,,,,,,725.4559999988851,,response,,,99,,,,,,Space,keypress(Space),,,,,---- -- ----- -- ------ - ------- --- ----------<br>------------- ------ wisdom ---- ---- ------- ----- -- ----<br>-------- ------- -- ---------- --- - --- ----- ----- ----<br>---- --- --- ----- --- ---- ---- ------- ----- ---- -------<br>--- --- -- ----- -- --- ---- -- --- ---- -- ------ ------<br>--- ----- -- ----,87134.29999999888,87133.79999999888,86391.673,86399.19999999925,86408.344,87141.879,,11,wisdom
screen,html.Screen,0_2_0_1_12,2021-12-02T11:56:40.673Z,,,,,,,,,,,,,,,,53,,,,,,,,,,,,,,568.0210000003717,,response,,,99,,,,,,Space,keypress(Space),,,,,---- -- ----- -- ------ - ------- --- ----------<br>------------- ------ ------ says ---- ------- ----- -- ----<br>-------- ------- -- ---------- --- - --- ----- ----- ----<br>---- --- --- ----- --- ---- ---- ------- ----- ---- -------<br>--- --- -- ----- -- --- ---- -- --- ---- -- ------ ------<br>--- ----- -- ----,87710.69999999925,87709.90000000037,87125.208,87134.40000000037,87141.879,87725.329,,12,says
screen,html.Screen,0_2_0_1_13,2021-12-02T11:56:41.049Z,,,,,,,,,,,,,,,,53,,,,,,,,,,,,,,360.5710000003746,,response,,,99,,,,,,Space,keypress(Space),,,,,---- -- ----- -- ------ - ------- --- ----------<br>------------- ------ ------ ---- that ------- ----- -- ----<br>-------- ------- -- ---------- --- - --- ----- ----- ----<br>---- --- --- ----- --- ---- ---- ------- ----- ---- -------<br>--- --- -- ----- -- --- ---- -- --- ---- -- ------ ------<br>--- ----- -- ----,88086.69999999925,88085.90000000037,87708.659,87710.90000000037,87725.329,88092.073,,13,that
screen,html.Screen,0_2_0_1_14,2021-12-02T11:56:41.449Z,,,,,,,,,,,,,,,,53,,,,,,,,,,,,,,393.92699999999604,,response,,,99,,,,,,Space,keypress(Space),,,,,---- -- ----- -- ------ - ------- --- ----------<br>------------- ------ ------ ---- ---- feeling ----- -- ----<br>-------- ------- -- ---------- --- - --- ----- ----- ----<br>---- --- --- ----- --- ---- ---- ------- ----- ---- -------<br>--- --- -- ----- -- --- ---- -- --- ---- -- ------ ------<br>--- ----- -- ----,88486.79999999888,88486,88075.403,88087,88092.073,88492.254,,14,feeling
screen,html.Screen,0_2_0_1_15,2021-12-02T11:56:41.753Z,,,,,,,,,,,,,,,,53,,,,,,,,,,,,,,297.6460000003717,,response,,,99,,,,,,Space,keypress(Space),,,,,---- -- ----- -- ------ - ------- --- ----------<br>------------- ------ ------ ---- ---- ------- close -- ----<br>-------- ------- -- ---------- --- - --- ----- ----- ----<br>---- --- --- ----- --- ---- ---- ------- ----- ---- -------<br>--- --- -- ----- -- --- ---- -- --- ---- -- ------ ------<br>--- ----- -- ----,88790.79999999888,88789.90000000037,88475.583,88487,88492.254,88792.272,,15,close
screen,html.Screen,0_2_0_1_16,2021-12-02T11:56:42.073Z,,,,,,,,,,,,,,,,53,,,,,,,,,,,,,,317.6280000003753,,response,,,99,,,,,,Space,keypress(Space),,,,,---- -- ----- -- ------ - ------- --- ----------<br>------------- ------ ------ ---- ---- ------- ----- to ----<br>-------- ------- -- ---------- --- - --- ----- ----- ----<br>---- --- --- ----- --- ---- ---- ------- ----- ---- -------<br>--- --- -- ----- -- --- ---- -- --- ---- -- ------ ------<br>--- ----- -- ----,89110.69999999925,89109.90000000037,88775.602,88791,88792.272,89125.744,,16,to
screen,html.Screen,0_2_0_1_17,2021-12-02T11:56:42.449Z,,,,,,,,,,,,,,,,53,,,,,,,,,,,,,,360.1560000003665,,response,,,99,,,,,,Space,keypress(Space),,,,,---- -- ----- -- ------ - ------- --- ----------<br>------------- ------ ------ ---- ---- ------- ----- -- your<br>-------- ------- -- ---------- --- - --- ----- ----- ----<br>---- --- --- ----- --- ---- ---- ------- ----- ---- -------<br>--- --- -- ----- -- --- ---- -- --- ---- -- ------ ------<br>--- ----- -- ----,89486.69999999925,89485.90000000037,89109.073,89110.90000000037,89125.744,89492.515,,17,your
screen,html.Screen,0_2_0_1_18,2021-12-02T11:56:42.833Z,,,,,,,,,,,,,,,,53,,,,,,,,,,,,,,377.3850000003731,,response,,,99,,,,,,Space,keypress(Space),,,,,---- -- ----- -- ------ - ------- --- ----------<br>------------- ------ ------ ---- ---- ------- ----- -- ----<br>romantic ------- -- ---------- --- - --- ----- ----- ----<br>---- --- --- ----- --- ---- ---- ------- ----- ---- -------<br>--- --- -- ----- -- --- ---- -- --- ---- -- ------ ------<br>--- ----- -- ----,89870.69999999925,89869.90000000037,89475.844,89486.90000000037,89492.515,89875.828,,18,romantic
screen,html.Screen,0_2_0_1_19,2021-12-02T11:56:43.120Z,,,,,,,,,,,,,,,,53,,,,,,,,,,,,,,282.07200000037847,,response,,,99,,,,,,Space,keypress(Space),,,,,---- -- ----- -- ------ - ------- --- ----------<br>------------- ------ ------ ---- ---- ------- ----- -- ----<br>-------- partner -- ---------- --- - --- ----- ----- ----<br>---- --- --- ----- --- ---- ---- ------- ----- ---- -------<br>--- --- -- ----- -- --- ---- -- --- ---- -- ------ ------<br>--- ----- -- ----,90158.59999999963,90157.90000000037,89859.159,89870.90000000037,89875.828,90176.063,,19,partner
screen,html.Screen,0_2_0_1_20,2021-12-02T11:56:43.840Z,,,,,,,,,,,,,,,,53,,,,,,,,,,,,,,701.7369999988878,,response,,,99,,,,,,Space,keypress(Space),,,,,---- -- ----- -- ------ - ------- --- ----------<br>------------- ------ ------ ---- ---- ------- ----- -- ----<br>-------- ------- is ---------- --- - --- ----- ----- ----<br>---- --- --- ----- --- ---- ---- ------- ----- ---- -------<br>--- --- -- ----- -- --- ---- -- --- ---- -- ------ ------<br>--- ----- -- ----,90878.69999999925,90877.79999999888,90159.391,90158.90000000037,90176.063,90892.9,,20,is
screen,html.Screen,0_2_0_1_21,2021-12-02T11:56:44.208Z,,,,,,,,,,,,,,,,53,,,,,,,,,,,,,,352.89999999888823,,response,,,99,,,,,,Space,keypress(Space),,,,,---- -- ----- -- ------ - ------- --- ----------<br>------------- ------ ------ ---- ---- ------- ----- -- ----<br>-------- ------- -- paramount. --- - --- ----- ----- ----<br>---- --- --- ----- --- ---- ---- ------- ----- ---- -------<br>--- --- -- ----- -- --- ---- -- --- ---- -- ------ ------<br>--- ----- -- ----,91246.59999999963,91245.79999999888,90876.229,90878.90000000037,90892.9,91259.544,,21,paramount.
screen,html.Screen,0_2_0_1_22,2021-12-02T11:56:45.032Z,,,,,,,,,,,,,,,,53,,,,,,,,,,,,,,810.1559999992605,,response,,,99,,,,,,Space,keypress(Space),,,,,---- -- ----- -- ------ - ------- --- ----------<br>------------- ------ ------ ---- ---- ------- ----- -- ----<br>-------- ------- -- ---------- But - --- ----- ----- ----<br>---- --- --- ----- --- ---- ---- ------- ----- ---- -------<br>--- --- -- ----- -- --- ---- -- --- ---- -- ------ ------<br>--- ----- -- ----,92070.59999999963,92069.69999999925,91242.875,91247.09999999963,91259.544,92076.477,,22,But
screen,html.Screen,0_2_0_1_23,2021-12-02T11:56:45.432Z,,,,,,,,,,,,,,,,53,,,,,,,,,,,,,,393.32299999888346,,response,,,99,,,,,,Space,keypress(Space),,,,,---- -- ----- -- ------ - ------- --- ----------<br>------------- ------ ------ ---- ---- ------- ----- -- ----<br>-------- ------- -- ---------- --- a --- ----- ----- ----<br>---- --- --- ----- --- ---- ---- ------- ----- ---- -------<br>--- --- -- ----- -- --- ---- -- --- ---- -- ------ ------<br>--- ----- -- ----,92470.59999999963,92469.79999999888,92059.807,92070.79999999888,92076.477,92476.655,,23,a
screen,html.Screen,0_2_0_1_24,2021-12-02T11:56:45.776Z,,,,,,,,,,,,,,,,53,,,,,,,,,,,,,,337.1449999988836,,response,,,99,,,,,,Space,keypress(Space),,,,,---- -- ----- -- ------ - ------- --- ----------<br>------------- ------ ------ ---- ---- ------- ----- -- ----<br>-------- ------- -- ---------- --- - new ----- ----- ----<br>---- --- --- ----- --- ---- ---- ------- ----- ---- -------<br>--- --- -- ----- -- --- ---- -- --- ---- -- ------ ------<br>--- ----- -- ----,92814.5,92813.79999999888,92459.984,92470.69999999925,92476.655,92826.694,,24,new
screen,html.Screen,0_2_0_1_25,2021-12-02T11:56:46.080Z,,,,,,,,,,,,,,,,53,,,,,,,,,,,,,,291.0059999992518,,response,,,99,,,,,,Space,keypress(Space),,,,,---- -- ----- -- ------ - ------- --- ----------<br>------------- ------ ------ ---- ---- ------- ----- -- ----<br>-------- ------- -- ---------- --- - --- study ----- ----<br>---- --- --- ----- --- ---- ---- ------- ----- ---- -------<br>--- --- -- ----- -- --- ---- -- --- ---- -- ------ ------<br>--- ----- -- ----,93118.5,93117.69999999925,92810.024,92814.79999999888,92826.694,93126.785,,25,study
screen,html.Screen,0_2_0_1_26,2021-12-02T11:56:46.416Z,,,,,,,,,,,,,,,,53,,,,,,,,,,,,,,326.91499999925145,,response,,,99,,,,,,Space,keypress(Space),,,,,---- -- ----- -- ------ - ------- --- ----------<br>------------- ------ ------ ---- ---- ------- ----- -- ----<br>-------- ------- -- ---------- --- - --- ----- finds ----<br>---- --- --- ----- --- ---- ---- ------- ----- ---- -------<br>--- --- -- ----- -- --- ---- -- --- ---- -- ------ ------<br>--- ----- -- ----,93454.59999999963,93453.69999999925,93110.115,93118.69999999925,93126.785,93460.121,,26,finds
screen,html.Screen,0_2_0_1_27,2021-12-02T11:56:46.832Z,,,,,,,,,,,,,,,,53,,,,,,,,,,,,,,409.57899999925576,,response,,,99,,,,,,Space,keypress(Space),,,,,---- -- ----- -- ------ - ------- --- ----------<br>------------- ------ ------ ---- ---- ------- ----- -- ----<br>-------- ------- -- ---------- --- - --- ----- ----- that<br>---- --- --- ----- --- ---- ---- ------- ----- ---- -------<br>--- --- -- ----- -- --- ---- -- --- ---- -- ------ ------<br>--- ----- -- ----,93870.40000000037,93869.69999999925,93443.452,93454.69999999925,93460.121,93877.062,,27,that
screen,html.Screen,0_2_0_1_28,2021-12-02T11:56:47.392Z,,,,,,,,,,,,,,,,53,,,,,,,,,,,,,,552.6379999992496,,response,,,99,,,,,,Space,keypress(Space),,,,,---- -- ----- -- ------ - ------- --- ----------<br>------------- ------ ------ ---- ---- ------- ----- -- ----<br>-------- ------- -- ---------- --- - --- ----- ----- ----<br>it's --- --- ----- --- ---- ---- ------- ----- ---- -------<br>--- --- -- ----- -- --- ---- -- --- ---- -- ------ ------<br>--- ----- -- ----,94430.5,94429.69999999925,93860.39,93870.69999999925,93877.062,94443.621,,28,it's
screen,html.Screen,0_2_0_1_29,2021-12-02T11:56:47.792Z,,,,,,,,,,,,,,,,53,,,,,,,,,,,,,,386.07899999925576,,response,,,99,,,,,,Space,keypress(Space),,,,,---- -- ----- -- ------ - ------- --- ----------<br>------------- ------ ------ ---- ---- ------- ----- -- ----<br>-------- ------- -- ---------- --- - --- ----- ----- ----<br>---- not --- ----- --- ---- ---- ------- ----- ---- -------<br>--- --- -- ----- -- --- ---- -- --- ---- -- ------ ------<br>--- ----- -- ----,94830.5,94829.69999999925,94426.953,94430.69999999925,94443.621,94844.037,,29,not
screen,html.Screen,0_2_0_1_30,2021-12-02T11:56:48.169Z,,,,,,,,,,,,,,,,53,,,,,,,,,,,,,,362.06299999963085,,response,,,99,,,,,,Space,keypress(Space),,,,,---- -- ----- -- ------ - ------- --- ----------<br>------------- ------ ------ ---- ---- ------- ----- -- ----<br>-------- ------- -- ---------- --- - --- ----- ----- ----<br>---- --- how ----- --- ---- ---- ------- ----- ---- -------<br>--- --- -- ----- -- --- ---- -- --- ---- -- ------ ------<br>--- ----- -- ----,95206.79999999888,95206.09999999963,94827.364,94830.69999999925,94844.037,95210.564,,30,how
screen,html.Screen,0_2_0_1_31,2021-12-02T11:56:48.536Z,,,,,,,,,,,,,,,,53,,,,,,,,,,,,,,363.035999999629,,response,,,99,,,,,,Space,keypress(Space),,,,,---- -- ----- -- ------ - ------- --- ----------<br>------------- ------ ------ ---- ---- ------- ----- -- ----<br>-------- ------- -- ---------- --- - --- ----- ----- ----<br>---- --- --- close --- ---- ---- ------- ----- ---- -------<br>--- --- -- ----- -- --- ---- -- --- ---- -- ------ ------<br>--- ----- -- ----,95574.40000000037,95573.59999999963,95193.895,95207.09999999963,95210.564,95577.549,,31,close
screen,html.Screen,0_2_0_1_32,2021-12-02T11:56:48.880Z,,,,,,,,,,,,,,,,53,,,,,,,,,,,,,,340.0509999996284,,response,,,99,,,,,,Space,keypress(Space),,,,,---- -- ----- -- ------ - ------- --- ----------<br>------------- ------ ------ ---- ---- ------- ----- -- ----<br>-------- ------- -- ---------- --- - --- ----- ----- ----<br>---- --- --- ----- you ---- ---- ------- ----- ---- -------<br>--- --- -- ----- -- --- ---- -- --- ---- -- ------ ------<br>--- ----- -- ----,95918.40000000037,95917.59999999963,95560.876,95574.69999999925,95577.549,95927.5,,32,you
screen,html.Screen,0_2_0_1_33,2021-12-02T11:56:49.288Z,,,,,,,,,,,,,,,,53,,,,,,,,,,,,,,398.09999999962747,,response,,,99,,,,,,Space,keypress(Space),,,,,---- -- ----- -- ------ - ------- --- ----------<br>------------- ------ ------ ---- ---- ------- ----- -- ----<br>-------- ------- -- ---------- --- - --- ----- ----- ----<br>---- --- --- ----- --- feel ---- ------- ----- ---- -------<br>--- --- -- ----- -- --- ---- -- --- ---- -- ------ ------<br>--- ----- -- ----,96326.29999999888,96325.59999999963,95910.83,95918.69999999925,95927.5,96327.671,,33,feel
screen,html.Screen,0_2_0_1_34,2021-12-02T11:56:49.656Z,,,,,,,,,,,,,,,,53,,,,,,,,,,,,,,365.9289999996254,,response,,,99,,,,,,Space,keypress(Space),,,,,---- -- ----- -- ------ - ------- --- ----------<br>------------- ------ ------ ---- ---- ------- ----- -- ----<br>-------- ------- -- ---------- --- - --- ----- ----- ----<br>---- --- --- ----- --- ---- that ------- ----- ---- -------<br>--- --- -- ----- -- --- ---- -- --- ---- -- ------ ------<br>--- ----- -- ----,96694.29999999888,96693.59999999963,96311,96326.59999999963,96327.671,96711.059,,34,that
screen,html.Screen,0_2_0_1_35,2021-12-02T11:56:50.064Z,,,,,,,,,,,,,,,,53,,,,,,,,,,,,,,390.54099999963364,,response,,,99,,,,,,Space,keypress(Space),,,,,---- -- ----- -- ------ - ------- --- ----------<br>------------- ------ ------ ---- ---- ------- ----- -- ----<br>-------- ------- -- ---------- --- - --- ----- ----- ----<br>---- --- --- ----- --- ---- ---- matters ----- ---- -------<br>--- --- -- ----- -- --- ---- -- --- ---- -- ------ ------<br>--- ----- -- ----,97102.40000000037,97101.59999999963,96694.389,96694.59999999963,96711.059,97111.171,,35,matters
screen,html.Screen,0_2_0_1_36,2021-12-02T11:56:50.760Z,,,,,,,,,,,,,,,,53,,,,,,,,,,,,,,686.2290000003704,,response,,,99,,,,,,Space,keypress(Space),,,,,"---- -- ----- -- ------ - ------- --- ----------<br>------------- ------ ------ ---- ---- ------- ----- -- ----<br>-------- ------- -- ---------- --- - --- ----- ----- ----<br>---- --- --- ----- --- ---- ---- ------- most, ---- -------<br>--- --- -- ----- -- --- ---- -- --- ---- -- ------ ------<br>--- ----- -- ----",97798.40000000037,97797.40000000037,97094.501,97102.5,97111.171,97811.31,,36,"most,"
screen,html.Screen,0_2_0_1_37,2021-12-02T11:56:51.368Z,,,,,,,,,,,,,,,,53,,,,,,,,,,,,,,594.1900000000023,,response,,,99,,,,,,Space,keypress(Space),,,,,---- -- ----- -- ------ - ------- --- ----------<br>------------- ------ ------ ---- ---- ------- ----- -- ----<br>-------- ------- -- ---------- --- - --- ----- ----- ----<br>---- --- --- ----- --- ---- ---- ------- ----- it's -------<br>--- --- -- ----- -- --- ---- -- --- ---- -- ------ ------<br>--- ----- -- ----,98406.29999999888,98405.5,97794.64,97798.69999999925,97811.31,98411.551,,37,it's
screen,html.Screen,0_2_0_1_38,2021-12-02T11:56:52.232Z,,,,,,,,,,,,,,,,53,,,,,,,,,,,,,,857.8490000003658,,response,,,99,,,,,,Space,keypress(Space),,,,,---- -- ----- -- ------ - ------- --- ----------<br>------------- ------ ------ ---- ---- ------- ----- -- ----<br>-------- ------- -- ---------- --- - --- ----- ----- ----<br>---- --- --- ----- --- ---- ---- ------- ----- ---- whether<br>--- --- -- ----- -- --- ---- -- --- ---- -- ------ ------<br>--- ----- -- ----,99270.09999999963,99269.40000000037,98394.88,98406.59999999963,98411.551,99278.239,,38,whether
screen,html.Screen,0_2_0_1_39,2021-12-02T11:56:52.960Z,,,,,,,,,,,,,,,,53,,,,,,,,,,,,,,719.1610000003711,,response,,,99,,,,,,Space,keypress(Space),,,,,---- -- ----- -- ------ - ------- --- ----------<br>------------- ------ ------ ---- ---- ------- ----- -- ----<br>-------- ------- -- ---------- --- - --- ----- ----- ----<br>---- --- --- ----- --- ---- ---- ------- ----- ---- -------<br>you --- -- ----- -- --- ---- -- --- ---- -- ------ ------<br>--- ----- -- ----,99998.19999999925,99997.40000000037,99261.57,99270.40000000037,99278.239,100012.066,,39,you
screen,html.Screen,0_2_0_1_40,2021-12-02T11:56:53.392Z,,,,,,,,,,,,,,,,53,,,,,,,,,,,,,,417.23399999887624,,response,,,99,,,,,,Space,keypress(Space),,,,,---- -- ----- -- ------ - ------- --- ----------<br>------------- ------ ------ ---- ---- ------- ----- -- ----<br>-------- ------- -- ---------- --- - --- ----- ----- ----<br>---- --- --- ----- --- ---- ---- ------- ----- ---- -------<br>--- are -- ----- -- --- ---- -- --- ---- -- ------ ------<br>--- ----- -- ----,100430.09999999963,100429.29999999888,99995.394,99998.40000000037,100012.066,100445.27,,40,are
screen,html.Screen,0_2_0_1_41,2021-12-02T11:56:53.832Z,,,,,,,,,,,,,,,,53,,,,,,,,,,,,,,424.02999999887834,,response,,,99,,,,,,Space,keypress(Space),,,,,---- -- ----- -- ------ - ------- --- ----------<br>------------- ------ ------ ---- ---- ------- ----- -- ----<br>-------- ------- -- ---------- --- - --- ----- ----- ----<br>---- --- --- ----- --- ---- ---- ------- ----- ---- -------<br>--- --- as ----- -- --- ---- -- --- ---- -- ------ ------<br>--- ----- -- ----,100870,100869.29999999888,100428.601,100430.29999999888,100445.27,100878.88,,41,as
screen,html.Screen,0_2_0_1_42,2021-12-02T11:56:54.096Z,,,,,,,,,,,,,,,,53,,,,,,,,,,,,,,254.41999999887776,,response,,,99,,,,,,Space,keypress(Space),,,,,---- -- ----- -- ------ - ------- --- ----------<br>------------- ------ ------ ---- ---- ------- ----- -- ----<br>-------- ------- -- ---------- --- - --- ----- ----- ----<br>---- --- --- ----- --- ---- ---- ------- ----- ---- -------<br>--- --- -- close -- --- ---- -- --- ---- -- ------ ------<br>--- ----- -- ----,101134.09999999963,101133.29999999888,100862.209,100870.29999999888,100878.88,101145.584,,42,close
screen,html.Screen,0_2_0_1_43,2021-12-02T11:56:54.648Z,,,,,,,,,,,,,,,,53,,,,,,,,,,,,,,539.6159999992524,,response,,,99,,,,,,Space,keypress(Space),,,,,---- -- ----- -- ------ - ------- --- ----------<br>------------- ------ ------ ---- ---- ------- ----- -- ----<br>-------- ------- -- ---------- --- - --- ----- ----- ----<br>---- --- --- ----- --- ---- ---- ------- ----- ---- -------<br>--- --- -- ----- as --- ---- -- --- ---- -- ------ ------<br>--- ----- -- ----,101686,101685.19999999925,101128.914,101134.19999999925,101145.584,101695.76,,43,as
screen,html.Screen,0_2_0_1_44,2021-12-02T11:56:55.056Z,,,,,,,,,,,,,,,,53,,,,,,,,,,,,,,397.53999999888765,,response,,,99,,,,,,Space,keypress(Space),,,,,---- -- ----- -- ------ - ------- --- ----------<br>------------- ------ ------ ---- ---- ------- ----- -- ----<br>-------- ------- -- ---------- --- - --- ----- ----- ----<br>---- --- --- ----- --- ---- ---- ------- ----- ---- -------<br>--- --- -- ----- -- you ---- -- --- ---- -- ------ ------<br>--- ----- -- ----,102094.19999999925,102093.29999999888,101679.089,101686.19999999925,101695.76,102095.839,,44,you
screen,html.Screen,0_2_0_1_45,2021-12-02T11:56:55.408Z,,,,,,,,,,,,,,,,53,,,,,,,,,,,,,,349.4609999988752,,response,,,99,,,,,,Space,keypress(Space),,,,,---- -- ----- -- ------ - ------- --- ----------<br>------------- ------ ------ ---- ---- ------- ----- -- ----<br>-------- ------- -- ---------- --- - --- ----- ----- ----<br>---- --- --- ----- --- ---- ---- ------- ----- ---- -------<br>--- --- -- ----- -- --- want -- --- ---- -- ------ ------<br>--- ----- -- ----,102446,102445.29999999888,102079.169,102094.5,102095.839,102462.59,,45,want
screen,html.Screen,0_2_0_1_46,2021-12-02T11:56:55.848Z,,,,,,,,,,,,,,,,53,,,,,,,,,,,,,,422.60999999925843,,response,,,99,,,,,,Space,keypress(Space),,,,,---- -- ----- -- ------ - ------- --- ----------<br>------------- ------ ------ ---- ---- ------- ----- -- ----<br>-------- ------- -- ---------- --- - --- ----- ----- ----<br>---- --- --- ----- --- ---- ---- ------- ----- ---- -------<br>--- --- -- ----- -- --- ---- to --- ---- -- ------ ------<br>--- ----- -- ----,102886.09999999963,102885.19999999925,102445.92,102446.19999999925,102462.59,102896.039,,46,to
screen,html.Screen,0_2_0_1_47,2021-12-02T11:56:56.240Z,,,,,,,,,,,,,,,,53,,,,,,,,,,,,,,381.16099999925063,,response,,,99,,,,,,Space,keypress(Space),,,,,"---- -- ----- -- ------ - ------- --- ----------<br>------------- ------ ------ ---- ---- ------- ----- -- ----<br>-------- ------- -- ---------- --- - --- ----- ----- ----<br>---- --- --- ----- --- ---- ---- ------- ----- ---- -------<br>--- --- -- ----- -- --- ---- -- be, ---- -- ------ ------<br>--- ----- -- ----",103278,103277.19999999925,102879.369,102886.29999999888,102896.039,103279.515,,47,"be,"
screen,html.Screen,0_2_0_1_48,2021-12-02T11:56:56.928Z,,,,,,,,,,,,,,,,53,,,,,,,,,,,,,,685.6849999992555,,response,,,99,,,,,,Space,keypress(Space),,,,,---- -- ----- -- ------ - ------- --- ----------<br>------------- ------ ------ ---- ---- ------- ----- -- ----<br>-------- ------- -- ---------- --- - --- ----- ----- ----<br>---- --- --- ----- --- ---- ---- ------- ----- ---- -------<br>--- --- -- ----- -- --- ---- -- --- even -- ------ ------<br>--- ----- -- ----,103966,103965.19999999925,103262.844,103278.19999999925,103279.515,103979.522,,48,even
screen,html.Screen,0_2_0_1_49,2021-12-02T11:56:57.424Z,,,,,,,,,,,,,,,,53,,,,,,,,,,,,,,481.67799999925774,,response,,,99,,,,,,Space,keypress(Space),,,,,---- -- ----- -- ------ - ------- --- ----------<br>------------- ------ ------ ---- ---- ------- ----- -- ----<br>-------- ------- -- ---------- --- - --- ----- ----- ----<br>---- --- --- ----- --- ---- ---- ------- ----- ---- -------<br>--- --- -- ----- -- --- ---- -- --- ---- if ------ ------<br>--- ----- -- ----,104462,104461.19999999925,103962.853,103966.19999999925,103979.522,104463.239,,49,if
screen,html.Screen,0_2_0_1_50,2021-12-02T11:56:57.904Z,,,,,,,,,,,,,,,,53,,,,,,,,,,,,,,477.8609999996261,,response,,,99,,,,,,Space,keypress(Space),,,,,---- -- ----- -- ------ - ------- --- ----------<br>------------- ------ ------ ---- ---- ------- ----- -- ----<br>-------- ------- -- ---------- --- - --- ----- ----- ----<br>---- --- --- ----- --- ---- ---- ------- ----- ---- -------<br>--- --- -- ----- -- --- ---- -- --- ---- -- that's ------<br>--- ----- -- ----,104942,104941.09999999963,104446.567,104462.19999999925,104463.239,104946.627,,50,that's
screen,html.Screen,0_2_0_1_51,2021-12-02T11:56:58.384Z,,,,,,,,,,,,,,,,53,,,,,,,,,,,,,,474.97299999963434,,response,,,99,,,,,,Space,keypress(Space),,,,,---- -- ----- -- ------ - ------- --- ----------<br>------------- ------ ------ ---- ---- ------- ----- -- ----<br>-------- ------- -- ---------- --- - --- ----- ----- ----<br>---- --- --- ----- --- ---- ---- ------- ----- ---- -------<br>--- --- -- ----- -- --- ---- -- --- ---- -- ------ really<br>--- ----- -- ----,105422.40000000037,105421.59999999963,104929.956,104942.19999999925,104946.627,105430.05,,51,really
screen,html.Screen,0_2_0_1_52,2021-12-02T11:56:58.808Z,,,,,,,,,,,,,,,,53,,,,,,,,,,,,,,414.9499999999971,,response,,,99,,,,,,Space,keypress(Space),,,,,---- -- ----- -- ------ - ------- --- ----------<br>------------- ------ ------ ---- ---- ------- ----- -- ----<br>-------- ------- -- ---------- --- - --- ----- ----- ----<br>---- --- --- ----- --- ---- ---- ------- ----- ---- -------<br>--- --- -- ----- -- --- ---- -- --- ---- -- ------ ------<br>not ----- -- ----,105845.79999999888,105845,105413.38,105422.59999999963,105430.05,105846.802,,52,not
screen,html.Screen,0_2_0_1_53,2021-12-02T11:56:59.232Z,,,,,,,,,,,,,,,,53,,,,,,,,,,,,,,422.29799999963143,,response,,,99,,,,,,Space,keypress(Space),,,,,---- -- ----- -- ------ - ------- --- ----------<br>------------- ------ ------ ---- ---- ------- ----- -- ----<br>-------- ------- -- ---------- --- - --- ----- ----- ----<br>---- --- --- ----- --- ---- ---- ------- ----- ---- -------<br>--- --- -- ----- -- --- ---- -- --- ---- -- ------ ------<br>--- close -- ----,106269.90000000037,106269.09999999963,105830.132,105846,105846.802,106280.316,,53,close
screen,html.Screen,0_2_0_1_54,2021-12-02T11:56:59.664Z,,,,,,,,,,,,,,,,53,,,,,,,,,,,,,,420.7839999996213,,response,,,99,,,,,,Space,keypress(Space),,,,,---- -- ----- -- ------ - ------- --- ----------<br>------------- ------ ------ ---- ---- ------- ----- -- ----<br>-------- ------- -- ---------- --- - --- ----- ----- ----<br>---- --- --- ----- --- ---- ---- ------- ----- ---- -------<br>--- --- -- ----- -- --- ---- -- --- ---- -- ------ ------<br>--- ----- at ----,106701.90000000037,106701.09999999963,106263.645,106270.09999999963,106280.316,106713.73,,54,at
screen,html.Screen,0_2_0_1_55,2021-12-02T11:57:00.088Z,,,,,,,,,,,,,,,,53,,,,,,,,,,,,,,411.36999999963155,,response,,,99,,,,,,Space,keypress(Space),,,,,---- -- ----- -- ------ - ------- --- ----------<br>------------- ------ ------ ---- ---- ------- ----- -- ----<br>-------- ------- -- ---------- --- - --- ----- ----- ----<br>---- --- --- ----- --- ---- ---- ------- ----- ---- -------<br>--- --- -- ----- -- --- ---- -- --- ---- -- ------ ------<br>--- ----- -- all.,107125.79999999888,107125.09999999963,106697.06,106702.09999999963,106713.73,107147.177,,55,all.
Item 99,flow.Loop,0_2_0_1,2021-12-02T11:57:00.092Z,,,,,,,,,,,,,,,,,,,,,,,,,,,,,,28485.661999999633,,completion,,,,C,,,,,,,,,,silence,,107130.19999999925,107125.09999999963,78622.768,78629.29999999888,78639.438,107147.177,,,
Question 1,html.Screen,0_2_0_2,2021-12-02T11:57:13.895Z,,,,,,,,,,,,,,,,,,,,,,,,,,,true,FALSE,,13784.922999999631,,response,,,99,C,,,,,FALSE,click #choice-2,,,,silence,,120933.5,120932.09999999963,107130.507,107130.5,107147.177,120934.173,,,
Question 2,html.Screen,0_2_0_3,2021-12-02T11:57:17.914Z,,,,,,,,,,,,,,,,,,,,,,,,,,,true,TRUE,,4013.827000000005,,response,,,99,C,,,,,TRUE,click #choice-1,,,,silence,,124949.09999999963,124948,120917.503,120933.79999999888,120934.173,124968.607,,,
Item 99,flow.Sequence,0_2_0,2021-12-02T11:57:17.914Z,,,,,,,,,,,,,,,,,,,,,,,,,,,,,,56311.168999999994,,completion,,,,,,,,,,,,,,,,124949.59999999963,124948,68620.161,68633.09999999963,68636.831,124968.607,,,
Holding screen,html.Screen,0_2_1_0,2021-12-02T11:57:27.921Z,,,,,,,,,,,,,,,,,,,,,,,,,,,,,,10002.463000000003,,timeout,,,,,,,,,,,,,,,,134956,134954.4,124951.862,124949.90000000037,124968.607,134971.07,,,
screen,html.Screen,0_2_1_1_0,2021-12-02T11:57:29.498Z,,,,,,,,,,,,,,,,54,,,,,,,,,,,,,,1561.0299999996205,,response,,,100,,,,,,Space,keypress(Space),,,,,At --- ---- --- ------ ----- ------- ---- -- --- ------- --<br>------- ---------- ------ -- ----- -- ----- -- ---- ------<br>--- ----- --- --- ------ -------- ----- --- ------ ----- --<br>----- ----- ---------- --- --- ------ ------ ---- -- ------<br>------- --- ------ ----- --- ---- ------- -- ---- --- --<br>------- ------,136533.19999999925,136532.09999999963,134954.4,134956.5,134971.07,136555.126,,0,At
screen,html.Screen,0_2_1_1_1,2021-12-02T11:57:30.033Z,,,,,,,,,,,,,,,,54,,,,,,,,,,,,,,512.4739999996382,,response,,,100,,,,,,Space,keypress(Space),,,,,-- the ---- --- ------ ----- ------- ---- -- --- ------- --<br>------- ---------- ------ -- ----- -- ----- -- ---- ------<br>--- ----- --- --- ------ -------- ----- --- ------ ----- --<br>----- ----- ---------- --- --- ------ ------ ---- -- ------<br>------- --- ------ ----- --- ---- ------- -- ---- --- --<br>------- ------,137068.69999999925,137067.59999999963,136538.454,136533.40000000037,136555.126,137088.417,,1,the
screen,html.Screen,0_2_1_1_2,2021-12-02T11:57:30.513Z,,,,,,,,,,,,,,,,54,,,,,,,,,,,,,,459.18299999964074,,response,,,100,,,,,,Space,keypress(Space),,,,,-- --- time --- ------ ----- ------- ---- -- --- ------- --<br>------- ---------- ------ -- ----- -- ----- -- ---- ------<br>--- ----- --- --- ------ -------- ----- --- ------ ----- --<br>----- ----- ---------- --- --- ------ ------ ---- -- ------<br>------- --- ------ ----- --- ---- ------- -- ---- --- --<br>------- ------,137548.40000000037,137547.59999999963,137071.747,137068.90000000037,137088.417,137555.186,,2,time
screen,html.Screen,0_2_1_1_3,2021-12-02T11:57:30.969Z,,,,,,,,,,,,,,,,54,,,,,,,,,,,,,,448.4139999996405,,response,,,100,,,,,,Space,keypress(Space),,,,,-- --- ---- the ------ ----- ------- ---- -- --- ------- --<br>------- ---------- ------ -- ----- -- ----- -- ---- ------<br>--- ----- --- --- ------ -------- ----- --- ------ ----- --<br>----- ----- ---------- --- --- ------ ------ ---- -- ------<br>------- --- ------ ----- --- ---- ------- -- ---- --- --<br>------- ------,138004.59999999963,138003.59999999963,137538.516,137548.59999999963,137555.186,138022.121,,3,the
screen,html.Screen,0_2_1_1_4,2021-12-02T11:57:31.417Z,,,,,,,,,,,,,,,,54,,,,,,,,,,,,,,429.47899999961373,,response,,,100,,,,,,Space,keypress(Space),,,,,-- --- ---- --- French ----- ------- ---- -- --- ------- --<br>------- ---------- ------ -- ----- -- ----- -- ---- ------<br>--- ----- --- --- ------ -------- ----- --- ------ ----- --<br>----- ----- ---------- --- --- ------ ------ ---- -- ------<br>------- --- ------ ----- --- ---- ------- -- ---- --- --<br>------- ------,138452.5,138451.59999999963,138005.449,138004.90000000037,138022.121,138455.528,,4,French
screen,html.Screen,0_2_1_1_5,2021-12-02T11:57:31.817Z,,,,,,,,,,,,,,,,54,,,,,,,,,,,,,,396.0719999996363,,response,,,100,,,,,,Space,keypress(Space),,,,,-- --- ---- --- ------ crown ------- ---- -- --- ------- --<br>------- ---------- ------ -- ----- -- ----- -- ---- ------<br>--- ----- --- --- ------ -------- ----- --- ------ ----- --<br>----- ----- ---------- --- --- ------ ------ ---- -- ------<br>------- --- ------ ----- --- ---- ------- -- ---- --- --<br>------- ------,138852.59999999963,138851.59999999963,138438.857,138452.79999999888,138455.528,138855.491,,5,crown
screen,html.Screen,0_2_1_1_6,2021-12-02T11:57:32.241Z,,,,,,,,,,,,,,,,54,,,,,,,,,,,,,,420.1089999996184,,response,,,100,,,,,,Space,keypress(Space),,,,,-- --- ---- --- ------ ----- secured ---- -- --- ------- --<br>------- ---------- ------ -- ----- -- ----- -- ---- ------<br>--- ----- --- --- ------ -------- ----- --- ------ ----- --<br>----- ----- ---------- --- --- ------ ------ ---- -- ------<br>------- --- ------ ----- --- ---- ------- -- ---- --- --<br>------- ------,139276.40000000037,139275.59999999963,138838.822,138852.90000000037,138855.491,139289.134,,6,secured
screen,html.Screen,0_2_1_1_7,2021-12-02T11:57:32.689Z,,,,,,,,,,,,,,,,54,,,,,,,,,,,,,,434.3660000000091,,response,,,100,,,,,,Space,keypress(Space),,,,,-- --- ---- --- ------ ----- ------- much -- --- ------- --<br>------- ---------- ------ -- ----- -- ----- -- ---- ------<br>--- ----- --- --- ------ -------- ----- --- ------ ----- --<br>----- ----- ---------- --- --- ------ ------ ---- -- ------<br>------- --- ------ ----- --- ---- ------- -- ---- --- --<br>------- ------,139724.40000000037,139723.5,139272.462,139276.59999999963,139289.134,139739.212,,7,much
screen,html.Screen,0_2_1_1_8,2021-12-02T11:57:33.273Z,,,,,,,,,,,,,,,,54,,,,,,,,,,,,,,568.3879999996279,,response,,,100,,,,,,Space,keypress(Space),,,,,-- --- ---- --- ------ ----- ------- ---- of --- ------- --<br>------- ---------- ------ -- ----- -- ----- -- ---- ------<br>--- ----- --- --- ------ -------- ----- --- ------ ----- --<br>----- ----- ---------- --- --- ------ ------ ---- -- ------<br>------- --- ------ ----- --- ---- ------- -- ---- --- --<br>------- ------,140308.29999999888,140307.59999999963,139722.541,139724.59999999963,139739.212,140322.643,,8,of
screen,html.Screen,0_2_1_1_9,2021-12-02T11:57:34.009Z,,,,,,,,,,,,,,,,54,,,,,,,,,,,,,,720.8569999999891,,response,,,100,,,,,,Space,keypress(Space),,,,,-- --- ---- --- ------ ----- ------- ---- -- its ------- --<br>------- ---------- ------ -- ----- -- ----- -- ---- ------<br>--- ----- --- --- ------ -------- ----- --- ------ ----- --<br>----- ----- ---------- --- --- ------ ------ ---- -- ------<br>------- --- ------ ----- --- ---- ------- -- ---- --- --<br>------- ------,141044.29999999888,141043.5,140305.973,140308.59999999963,140322.643,141056.166,,9,its
screen,html.Screen,0_2_1_1_10,2021-12-02T11:57:34.617Z,,,,,,,,,,,,,,,,54,,,,,,,,,,,,,,595.3340000000026,,response,,,100,,,,,,Space,keypress(Space),,,,,-- --- ---- --- ------ ----- ------- ---- -- --- revenue --<br>------- ---------- ------ -- ----- -- ----- -- ---- ------<br>--- ----- --- --- ------ -------- ----- --- ------ ----- --<br>----- ----- ---------- --- --- ------ ------ ---- -- ------<br>------- --- ------ ----- --- ---- ------- -- ---- --- --<br>------- ------,141652.19999999925,141651.5,141039.496,141044.5,141056.166,141656.337,,10,revenue
screen,html.Screen,0_2_1_1_11,2021-12-02T11:57:35.361Z,,,,,,,,,,,,,,,,54,,,,,,,,,,,,,,739.063000000373,,response,,,100,,,,,,Space,keypress(Space),,,,,-- --- ---- --- ------ ----- ------- ---- -- --- ------- by<br>------- ---------- ------ -- ----- -- ----- -- ---- ------<br>--- ----- --- --- ------ -------- ----- --- ------ ----- --<br>----- ----- ---------- --- --- ------ ------ ---- -- ------<br>------- --- ------ ----- --- ---- ------- -- ---- --- --<br>------- ------,142396.19999999925,142395.40000000037,141639.667,141652.5,141656.337,142406.493,,11,by
screen,html.Screen,0_2_1_1_12,2021-12-02T11:57:35.913Z,,,,,,,,,,,,,,,,54,,,,,,,,,,,,,,540.9070000003849,,response,,,100,,,,,,Space,keypress(Space),,,,,-- --- ---- --- ------ ----- ------- ---- -- --- ------- --<br>issuing ---------- ------ -- ----- -- ----- -- ---- ------<br>--- ----- --- --- ------ -------- ----- --- ------ ----- --<br>----- ----- ---------- --- --- ------ ------ ---- -- ------<br>------- --- ------ ----- --- ---- ------- -- ---- --- --<br>------- ------,142948.19999999925,142947.40000000037,142389.823,142396.40000000037,142406.493,142956.669,,12,issuing
screen,html.Screen,0_2_1_1_13,2021-12-02T11:57:36.321Z,,,,,,,,,,,,,,,,54,,,,,,,,,,,,,,398.630999998888,,response,,,100,,,,,,Space,keypress(Space),,,,,-- --- ---- --- ------ ----- ------- ---- -- --- ------- --<br>------- government ------ -- ----- -- ----- -- ---- ------<br>--- ----- --- --- ------ -------- ----- --- ------ ----- --<br>----- ----- ---------- --- --- ------ ------ ---- -- ------<br>------- --- ------ ----- --- ---- ------- -- ---- --- --<br>------- ------,143356.09999999963,143355.29999999888,142939.999,142948.40000000037,142956.669,143373.431,,13,government
screen,html.Screen,0_2_1_1_14,2021-12-02T11:57:37.761Z,,,,,,,,,,,,,,,,54,,,,,,,,,,,,,,1421.868999998871,,response,,,100,,,,,,Space,keypress(Space),,,,,-- --- ---- --- ------ ----- ------- ---- -- --- ------- --<br>------- ---------- bonds. -- ----- -- ----- -- ---- ------<br>--- ----- --- --- ------ -------- ----- --- ------ ----- --<br>----- ----- ---------- --- --- ------ ------ ---- -- ------<br>------- --- ------ ----- --- ---- ------- -- ---- --- --<br>------- ------,144796.09999999963,144795.29999999888,143356.761,143356.29999999888,143373.431,144807.108,,14,bonds.
screen,html.Screen,0_2_1_1_15,2021-12-02T11:57:38.257Z,,,,,,,,,,,,,,,,54,,,,,,,,,,,,,,484.2920000003651,,response,,,100,,,,,,Space,keypress(Space),,,,,-- --- ---- --- ------ ----- ------- ---- -- --- ------- --<br>------- ---------- ------ In ----- -- ----- -- ---- ------<br>--- ----- --- --- ------ -------- ----- --- ------ ----- --<br>----- ----- ---------- --- --- ------ ------ ---- -- ------<br>------- --- ------ ----- --- ---- ------- -- ---- --- --<br>------- ------,145292.19999999925,145291.40000000037,144790.438,144796.40000000037,144807.108,145307.263,,15,In
screen,html.Screen,0_2_1_1_16,2021-12-02T11:57:39.865Z,,,,,,,,,,,,,,,,54,,,,,,,,,,,,,,1592.3369999996212,,response,,,100,,,,,,Space,keypress(Space),,,,,"-- --- ---- --- ------ ----- ------- ---- -- --- ------- --<br>------- ---------- ------ -- 1727, -- ----- -- ---- ------<br>--- ----- --- --- ------ -------- ----- --- ------ ----- --<br>----- ----- ---------- --- --- ------ ------ ---- -- ------<br>------- --- ------ ----- --- ---- ------- -- ---- --- --<br>------- ------",146900.5,146899.59999999963,145290.593,145292.40000000037,145307.263,146907.777,,16,"1727,"
screen,html.Screen,0_2_1_1_17,2021-12-02T11:57:40.465Z,,,,,,,,,,,,,,,,54,,,,,,,,,,,,,,591.4229999992531,,response,,,100,,,,,,Space,keypress(Space),,,,,-- --- ---- --- ------ ----- ------- ---- -- --- ------- --<br>------- ---------- ------ -- ----- in ----- -- ---- ------<br>--- ----- --- --- ------ -------- ----- --- ------ ----- --<br>----- ----- ---------- --- --- ------ ------ ---- -- ------<br>------- --- ------ ----- --- ---- ------- -- ---- --- --<br>------- ------,147500,147499.19999999925,146891.106,146900.69999999925,146907.777,147507.843,,17,in
screen,html.Screen,0_2_1_1_18,2021-12-02T11:57:40.985Z,,,,,,,,,,,,,,,,54,,,,,,,,,,,,,,511.256999999634,,response,,,100,,,,,,Space,keypress(Space),,,,,-- --- ---- --- ------ ----- ------- ---- -- --- ------- --<br>------- ---------- ------ -- ----- -- order -- ---- ------<br>--- ----- --- --- ------ -------- ----- --- ------ ----- --<br>----- ----- ---------- --- --- ------ ------ ---- -- ------<br>------- --- ------ ----- --- ---- ------- -- ---- --- --<br>------- ------,148020,148019.09999999963,147491.173,147500.29999999888,147507.843,148024.626,,18,order
screen,html.Screen,0_2_1_1_19,2021-12-02T11:57:41.473Z,,,,,,,,,,,,,,,,54,,,,,,,,,,,,,,482.4739999996382,,response,,,100,,,,,,Space,keypress(Space),,,,,-- --- ---- --- ------ ----- ------- ---- -- --- ------- --<br>------- ---------- ------ -- ----- -- ----- to ---- ------<br>--- ----- --- --- ------ -------- ----- --- ------ ----- --<br>----- ----- ---------- --- --- ------ ------ ---- -- ------<br>------- --- ------ ----- --- ---- ------- -- ---- --- --<br>------- ------,148507.90000000037,148507.09999999963,148007.956,148020.19999999925,148024.626,148524.931,,19,to
screen,html.Screen,0_2_1_1_20,2021-12-02T11:57:41.945Z,,,,,,,,,,,,,,,,54,,,,,,,,,,,,,,454.16899999961606,,response,,,100,,,,,,Space,keypress(Space),,,,,-- --- ---- --- ------ ----- ------- ---- -- --- ------- --<br>------- ---------- ------ -- ----- -- ----- -- save ------<br>--- ----- --- --- ------ -------- ----- --- ------ ----- --<br>----- ----- ---------- --- --- ------ ------ ---- -- ------<br>------- --- ------ ----- --- ---- ------- -- ---- --- --<br>------- ------,148979.90000000037,148979.09999999963,148508.259,148508.19999999925,148524.931,148991.666,,20,save
screen,html.Screen,0_2_1_1_21,2021-12-02T11:57:42.617Z,,,,,,,,,,,,,,,,54,,,,,,,,,,,,,,659.43399999963,,response,,,100,,,,,,Space,keypress(Space),,,,,"-- --- ---- --- ------ ----- ------- ---- -- --- ------- --<br>------- ---------- ------ -- ----- -- ----- -- ---- money,<br>--- ----- --- --- ------ -------- ----- --- ------ ----- --<br>----- ----- ---------- --- --- ------ ------ ---- -- ------<br>------- --- ------ ----- --- ---- ------- -- ---- --- --<br>------- ------",149651.79999999888,149651.09999999963,148974.995,148980.19999999925,148991.666,149658.444,,21,"money,"
screen,html.Screen,0_2_1_1_22,2021-12-02T11:57:43.161Z,,,,,,,,,,,,,,,,54,,,,,,,,,,,,,,536.5560000000114,,response,,,100,,,,,,Space,keypress(Space),,,,,-- --- ---- --- ------ ----- ------- ---- -- --- ------- --<br>------- ---------- ------ -- ----- -- ----- -- ---- ------<br>the ----- --- --- ------ -------- ----- --- ------ ----- --<br>----- ----- ---------- --- --- ------ ------ ---- -- ------<br>------- --- ------ ----- --- ---- ------- -- ---- --- --<br>------- ------,150195.79999999888,150195,149641.774,149652.09999999963,149658.444,150208.605,,22,the
screen,html.Screen,0_2_1_1_23,2021-12-02T11:57:43.833Z,,,,,,,,,,,,,,,,54,,,,,,,,,,,,,,658.3949999999895,,response,,,100,,,,,,Space,keypress(Space),,,,,-- --- ---- --- ------ ----- ------- ---- -- --- ------- --<br>------- ---------- ------ -- ----- -- ----- -- ---- ------<br>--- state --- --- ------ -------- ----- --- ------ ----- --<br>----- ----- ---------- --- --- ------ ------ ---- -- ------<br>------- --- ------ ----- --- ---- ------- -- ---- --- --<br>------- ------,150867.90000000037,150867,150191.935,150196,150208.605,150875.447,,23,state
screen,html.Screen,0_2_1_1_24,2021-12-02T11:57:44.344Z,,,,,,,,,,,,,,,,54,,,,,,,,,,,,,,503.55300000001444,,response,,,100,,,,,,Space,keypress(Space),,,,,-- --- ---- --- ------ ----- ------- ---- -- --- ------- --<br>------- ---------- ------ -- ----- -- ----- -- ---- ------<br>--- ----- cut --- ------ -------- ----- --- ------ ----- --<br>----- ----- ---------- --- --- ------ ------ ---- -- ------<br>------- --- ------ ----- --- ---- ------- -- ---- --- --<br>------- ------,151379.79999999888,151379,150858.777,150868.09999999963,150875.447,151392.214,,24,cut
screen,html.Screen,0_2_1_1_25,2021-12-02T11:57:44.928Z,,,,,,,,,,,,,,,,54,,,,,,,,,,,,,,570.7859999999928,,response,,,100,,,,,,Space,keypress(Space),,,,,-- --- ---- --- ------ ----- ------- ---- -- --- ------- --<br>------- ---------- ------ -- ----- -- ----- -- ---- ------<br>--- ----- --- the ------ -------- ----- --- ------ ----- --<br>----- ----- ---------- --- --- ------ ------ ---- -- ------<br>------- --- ------ ----- --- ---- ------- -- ---- --- --<br>------- ------,151963.69999999925,151963,151375.544,151380,151392.214,151975.743,,25,the
screen,html.Screen,0_2_1_1_26,2021-12-02T11:57:45.360Z,,,,,,,,,,,,,,,,54,,,,,,,,,,,,,,419.15700000038487,,response,,,100,,,,,,Space,keypress(Space),,,,,-- --- ---- --- ------ ----- ------- ---- -- --- ------- --<br>------- ---------- ------ -- ----- -- ----- -- ---- ------<br>--- ----- --- --- bonds' -------- ----- --- ------ ----- --<br>----- ----- ---------- --- --- ------ ------ ---- -- ------<br>------- --- ------ ----- --- ---- ------- -- ---- --- --<br>------- ------,152395.59999999963,152394.90000000037,151959.073,151964,151975.743,152409.245,,26,bonds'
screen,html.Screen,0_2_1_1_27,2021-12-02T11:57:45.776Z,,,,,,,,,,,,,,,,54,,,,,,,,,,,,,,401.6550000003772,,response,,,100,,,,,,Space,keypress(Space),,,,,-- --- ---- --- ------ ----- ------- ---- -- --- ------- --<br>------- ---------- ------ -- ----- -- ----- -- ---- ------<br>--- ----- --- --- ------ interest ----- --- ------ ----- --<br>----- ----- ---------- --- --- ------ ------ ---- -- ------<br>------- --- ------ ----- --- ---- ------- -- ---- --- --<br>------- ------,152811.59999999963,152810.90000000037,152392.574,152395.90000000037,152409.245,152825.975,,27,interest
screen,html.Screen,0_2_1_1_28,2021-12-02T11:57:46.184Z,,,,,,,,,,,,,,,,54,,,,,,,,,,,,,,392.9250000003667,,response,,,100,,,,,,Space,keypress(Space),,,,,-- --- ---- --- ------ ----- ------- ---- -- --- ------- --<br>------- ---------- ------ -- ----- -- ----- -- ---- ------<br>--- ----- --- --- ------ -------- rate. --- ------ ----- --<br>----- ----- ---------- --- --- ------ ------ ---- -- ------<br>------- --- ------ ----- --- ---- ------- -- ---- --- --<br>------- ------,153219.69999999925,153218.90000000037,152809.305,152811.90000000037,152825.975,153226.08,,28,rate.
screen,html.Screen,0_2_1_1_29,2021-12-02T11:57:46.848Z,,,,,,,,,,,,,,,,54,,,,,,,,,,,,,,656.8200000003853,,response,,,100,,,,,,Space,keypress(Space),,,,,-- --- ---- --- ------ ----- ------- ---- -- --- ------- --<br>------- ---------- ------ -- ----- -- ----- -- ---- ------<br>--- ----- --- --- ------ -------- ----- The ------ ----- --<br>----- ----- ---------- --- --- ------ ------ ---- -- ------<br>------- --- ------ ----- --- ---- ------- -- ---- --- --<br>------- ------,153883.59999999963,153882.90000000037,153209.41,153219.79999999888,153226.08,153892.969,,29,The
screen,html.Screen,0_2_1_1_30,2021-12-02T11:57:47.264Z,,,,,,,,,,,,,,,,54,,,,,,,,,,,,,,405.83099999887054,,response,,,100,,,,,,Space,keypress(Space),,,,,-- --- ---- --- ------ ----- ------- ---- -- --- ------- --<br>------- ---------- ------ -- ----- -- ----- -- ---- ------<br>--- ----- --- --- ------ -------- ----- --- market ----- --<br>----- ----- ---------- --- --- ------ ------ ---- -- ------<br>------- --- ------ ----- --- ---- ------- -- ---- --- --<br>------- ------,154299.5,154298.79999999888,153876.298,153883.79999999888,153892.969,154309.673,,30,market
screen,html.Screen,0_2_1_1_31,2021-12-02T11:57:47.616Z,,,,,,,,,,,,,,,,54,,,,,,,,,,,,,,341.22700000036275,,response,,,100,,,,,,Space,keypress(Space),,,,,-- --- ---- --- ------ ----- ------- ---- -- --- ------- --<br>------- ---------- ------ -- ----- -- ----- -- ---- ------<br>--- ----- --- --- ------ -------- ----- --- ------ value --<br>----- ----- ---------- --- --- ------ ------ ---- -- ------<br>------- --- ------ ----- --- ---- ------- -- ---- --- --<br>------- ------,154651.59999999963,154650.90000000037,154293.003,154299.79999999888,154309.673,154659.791,,31,value
screen,html.Screen,0_2_1_1_32,2021-12-02T11:57:47.944Z,,,,,,,,,,,,,,,,54,,,,,,,,,,,,,,319.008999998885,,response,,,100,,,,,,Space,keypress(Space),,,,,-- --- ---- --- ------ ----- ------- ---- -- --- ------- --<br>------- ---------- ------ -- ----- -- ----- -- ---- ------<br>--- ----- --- --- ------ -------- ----- --- ------ ----- of<br>----- ----- ---------- --- --- ------ ------ ---- -- ------<br>------- --- ------ ----- --- ---- ------- -- ---- --- --<br>------- ------,154979.5,154978.79999999888,154643.121,154651.90000000037,154659.791,154993.251,,32,of
screen,html.Screen,0_2_1_1_33,2021-12-02T11:57:48.312Z,,,,,,,,,,,,,,,,54,,,,,,,,,,,,,,353.44899999926565,,response,,,100,,,,,,Space,keypress(Space),,,,,-- --- ---- --- ------ ----- ------- ---- -- --- ------- --<br>------- ---------- ------ -- ----- -- ----- -- ---- ------<br>--- ----- --- --- ------ -------- ----- --- ------ ----- --<br>these ----- ---------- --- --- ------ ------ ---- -- ------<br>------- --- ------ ----- --- ---- ------- -- ---- --- --<br>------- ------,155347.5,155346.69999999925,154976.58,154979.79999999888,154993.251,155359.986,,33,these
screen,html.Screen,0_2_1_1_34,2021-12-02T11:57:48.640Z,,,,,,,,,,,,,,,,54,,,,,,,,,,,,,,314.813999998878,,response,,,100,,,,,,Space,keypress(Space),,,,,-- --- ---- --- ------ ----- ------- ---- -- --- ------- --<br>------- ---------- ------ -- ----- -- ----- -- ---- ------<br>--- ----- --- --- ------ -------- ----- --- ------ ----- --<br>----- bonds ---------- --- --- ------ ------ ---- -- ------<br>------- --- ------ ----- --- ---- ------- -- ---- --- --<br>------- ------,155675.59999999963,155674.79999999888,155343.316,155347.79999999888,155359.986,155676.736,,34,bonds
screen,html.Screen,0_2_1_1_35,2021-12-02T11:57:49.024Z,,,,,,,,,,,,,,,,54,,,,,,,,,,,,,,382.063999998878,,response,,,100,,,,,,Space,keypress(Space),,,,,"-- --- ---- --- ------ ----- ------- ---- -- --- ------- --<br>------- ---------- ------ -- ----- -- ----- -- ---- ------<br>--- ----- --- --- ------ -------- ----- --- ------ ----- --<br>----- ----- plummeted, --- --- ------ ------ ---- -- ------<br>------- --- ------ ----- --- ---- ------- -- ---- --- --<br>------- ------",156059.5,156058.79999999888,155660.066,155675.79999999888,155676.736,156076.845,,35,"plummeted,"
screen,html.Screen,0_2_1_1_36,2021-12-02T11:57:49.472Z,,,,,,,,,,,,,,,,54,,,,,,,,,,,,,,429.95499999888125,,response,,,100,,,,,,Space,keypress(Space),,,,,-- --- ---- --- ------ ----- ------- ---- -- --- ------- --<br>------- ---------- ------ -- ----- -- ----- -- ---- ------<br>--- ----- --- --- ------ -------- ----- --- ------ ----- --<br>----- ----- ---------- and --- ------ ------ ---- -- ------<br>------- --- ------ ----- --- ---- ------- -- ---- --- --<br>------- ------,156507.5,156506.79999999888,156060.175,156059.79999999888,156076.845,156510.339,,36,and
screen,html.Screen,0_2_1_1_37,2021-12-02T11:57:49.680Z,,,,,,,,,,,,,,,,54,,,,,,,,,,,,,,204.4609999988752,,response,,,100,,,,,,Space,keypress(Space),,,,,-- --- ---- --- ------ ----- ------- ---- -- --- ------- --<br>------- ---------- ------ -- ----- -- ----- -- ---- ------<br>--- ----- --- --- ------ -------- ----- --- ------ ----- --<br>----- ----- ---------- --- the ------ ------ ---- -- ------<br>------- --- ------ ----- --- ---- ------- -- ---- --- --<br>------- ------,156715.5,156714.79999999888,156493.668,156507.79999999888,156510.339,156727.014,,37,the
screen,html.Screen,0_2_1_1_38,2021-12-02T11:57:50.441Z,,,,,,,,,,,,,,,,54,,,,,,,,,,,,,,748.0859999996319,,response,,,100,,,,,,Space,keypress(Space),,,,,-- --- ---- --- ------ ----- ------- ---- -- --- ------- --<br>------- ---------- ------ -- ----- -- ----- -- ---- ------<br>--- ----- --- --- ------ -------- ----- --- ------ ----- --<br>----- ----- ---------- --- --- market ------ ---- -- ------<br>------- --- ------ ----- --- ---- ------- -- ---- --- --<br>------- ------,157475.90000000037,157475.09999999963,156710.344,156715.69999999925,156727.014,157477.194,,38,market
screen,html.Screen,0_2_1_1_39,2021-12-02T11:57:50.848Z,,,,,,,,,,,,,,,,54,,,,,,,,,,,,,,405.50599999926635,,response,,,100,,,,,,Space,keypress(Space),,,,,-- --- ---- --- ------ ----- ------- ---- -- --- ------- --<br>------- ---------- ------ -- ----- -- ----- -- ---- ------<br>--- ----- --- --- ------ -------- ----- --- ------ ----- --<br>----- ----- ---------- --- --- ------ became ---- -- ------<br>------- --- ------ ----- --- ---- ------- -- ---- --- --<br>------- ------,157883.5,157882.69999999925,157460.524,157476.09999999963,157477.194,157893.992,,39,became
screen,html.Screen,0_2_1_1_40,2021-12-02T11:57:51.160Z,,,,,,,,,,,,,,,,54,,,,,,,,,,,,,,300.6079999996291,,response,,,100,,,,,,Space,keypress(Space),,,,,-- --- ---- --- ------ ----- ------- ---- -- --- ------- --<br>------- ---------- ------ -- ----- -- ----- -- ---- ------<br>--- ----- --- --- ------ -------- ----- --- ------ ----- --<br>----- ----- ---------- --- --- ------ ------ wary -- ------<br>------- --- ------ ----- --- ---- ------- -- ---- --- --<br>------- ------,158195.5,158194.59999999963,157877.322,157883.69999999925,157893.992,158210.753,,40,wary
screen,html.Screen,0_2_1_1_41,2021-12-02T11:57:51.720Z,,,,,,,,,,,,,,,,54,,,,,,,,,,,,,,543.8469999996305,,response,,,100,,,,,,Space,keypress(Space),,,,,-- --- ---- --- ------ ----- ------- ---- -- --- ------- --<br>------- ---------- ------ -- ----- -- ----- -- ---- ------<br>--- ----- --- --- ------ -------- ----- --- ------ ----- --<br>----- ----- ---------- --- --- ------ ------ ---- of ------<br>------- --- ------ ----- --- ---- ------- -- ---- --- --<br>------- ------,158755.40000000037,158754.59999999963,158194.083,158195.69999999925,158210.753,158760.931,,41,of
screen,html.Screen,0_2_1_1_42,2021-12-02T11:57:52.144Z,,,,,,,,,,,,,,,,54,,,,,,,,,,,,,,417.76899999924353,,response,,,100,,,,,,Space,keypress(Space),,,,,-- --- ---- --- ------ ----- ------- ---- -- --- ------- --<br>------- ---------- ------ -- ----- -- ----- -- ---- ------<br>--- ----- --- --- ------ -------- ----- --- ------ ----- --<br>----- ----- ---------- --- --- ------ ------ ---- -- French<br>------- --- ------ ----- --- ---- ------- -- ---- --- --<br>------- ------,159179.40000000037,159178.69999999925,158744.26,158755.59999999963,158760.931,159194.32,,42,French
screen,html.Screen,0_2_1_1_43,2021-12-02T11:57:53.104Z,,,,,,,,,,,,,,,,54,,,,,,,,,,,,,,944.179999999993,,response,,,100,,,,,,Space,keypress(Space),,,,,-- --- ---- --- ------ ----- ------- ---- -- --- ------- --<br>------- ---------- ------ -- ----- -- ----- -- ---- ------<br>--- ----- --- --- ------ -------- ----- --- ------ ----- --<br>----- ----- ---------- --- --- ------ ------ ---- -- ------<br>credit. --- ------ ----- --- ---- ------- -- ---- --- --<br>------- ------,160139.29999999888,160138.5,159177.65,159179.59999999963,159194.32,160144.43,,43,credit.
screen,html.Screen,0_2_1_1_44,2021-12-02T11:57:53.512Z,,,,,,,,,,,,,,,,54,,,,,,,,,,,,,,402.16999999963446,,response,,,100,,,,,,Space,keypress(Space),,,,,-- --- ---- --- ------ ----- ------- ---- -- --- ------- --<br>------- ---------- ------ -- ----- -- ----- -- ---- ------<br>--- ----- --- --- ------ -------- ----- --- ------ ----- --<br>----- ----- ---------- --- --- ------ ------ ---- -- ------<br>------- The ------ ----- --- ---- ------- -- ---- --- --<br>------- ------,160547.29999999888,160546.59999999963,160127.761,160139.59999999963,160144.43,160561.493,,44,The
screen,html.Screen,0_2_1_1_45,2021-12-02T11:57:53.760Z,,,,,,,,,,,,,,,,54,,,,,,,,,,,,,,233.1069999996398,,response,,,100,,,,,,Space,keypress(Space),,,,,-- --- ---- --- ------ ----- ------- ---- -- --- ------- --<br>------- ---------- ------ -- ----- -- ----- -- ---- ------<br>--- ----- --- --- ------ -------- ----- --- ------ ----- --<br>----- ----- ---------- --- --- ------ ------ ---- -- ------<br>------- --- French ----- --- ---- ------- -- ---- --- --<br>------- ------,160795.29999999888,160794.59999999963,160544.82,160547.5,160561.493,160811.44,,45,French
screen,html.Screen,0_2_1_1_46,2021-12-02T11:57:54.240Z,,,,,,,,,,,,,,,,54,,,,,,,,,,,,,,463.0599999999977,,response,,,100,,,,,,Space,keypress(Space),,,,,-- --- ---- --- ------ ----- ------- ---- -- --- ------- --<br>------- ---------- ------ -- ----- -- ----- -- ---- ------<br>--- ----- --- --- ------ -------- ----- --- ------ ----- --<br>----- ----- ---------- --- --- ------ ------ ---- -- ------<br>------- --- ------ state --- ---- ------- -- ---- --- --<br>------- ------,161275.19999999925,161274.5,160794.77,160795.5,160811.44,161278.264,,46,state
screen,html.Screen,0_2_1_1_47,2021-12-02T11:57:54.608Z,,,,,,,,,,,,,,,,54,,,,,,,,,,,,,,364.2360000000044,,response,,,100,,,,,,Space,keypress(Space),,,,,-- --- ---- --- ------ ----- ------- ---- -- --- ------- --<br>------- ---------- ------ -- ----- -- ----- -- ---- ------<br>--- ----- --- --- ------ -------- ----- --- ------ ----- --<br>----- ----- ---------- --- --- ------ ------ ---- -- ------<br>------- --- ------ ----- was ---- ------- -- ---- --- --<br>------- ------,161643.29999999888,161642.5,161261.593,161275.5,161278.264,161644.979,,47,was
screen,html.Screen,0_2_1_1_48,2021-12-02T11:57:54.928Z,,,,,,,,,,,,,,,,54,,,,,,,,,,,,,,317.6209999996354,,response,,,100,,,,,,Space,keypress(Space),,,,,-- --- ---- --- ------ ----- ------- ---- -- --- ------- --<br>------- ---------- ------ -- ----- -- ----- -- ---- ------<br>--- ----- --- --- ------ -------- ----- --- ------ ----- --<br>----- ----- ---------- --- --- ------ ------ ---- -- ------<br>------- --- ------ ----- --- left ------- -- ---- --- --<br>------- ------,161963.19999999925,161962.59999999963,161628.309,161643.59999999963,161644.979,161978.422,,48,left
screen,html.Screen,0_2_1_1_49,2021-12-02T11:57:55.336Z,,,,,,,,,,,,,,,,54,,,,,,,,,,,,,,392.0780000000086,,response,,,100,,,,,,Space,keypress(Space),,,,,-- --- ---- --- ------ ----- ------- ---- -- --- ------- --<br>------- ---------- ------ -- ----- -- ----- -- ---- ------<br>--- ----- --- --- ------ -------- ----- --- ------ ----- --<br>----- ----- ---------- --- --- ------ ------ ---- -- ------<br>------- --- ------ ----- --- ---- without -- ---- --- --<br>------- ------,162371.29999999888,162370.5,161961.752,161963.5,161978.422,162378.394,,49,without
screen,html.Screen,0_2_1_1_50,2021-12-02T11:57:55.752Z,,,,,,,,,,,,,,,,54,,,,,,,,,,,,,,407.9059999988822,,response,,,100,,,,,,Space,keypress(Space),,,,,-- --- ---- --- ------ ----- ------- ---- -- --- ------- --<br>------- ---------- ------ -- ----- -- ----- -- ---- ------<br>--- ----- --- --- ------ -------- ----- --- ------ ----- --<br>----- ----- ---------- --- --- ------ ------ ---- -- ------<br>------- --- ------ ----- --- ---- ------- an ---- --- --<br>------- ------,162787.09999999963,162786.29999999888,162361.726,162371.59999999963,162378.394,162795.428,,50,an
screen,html.Screen,0_2_1_1_51,2021-12-02T11:57:56.152Z,,,,,,,,,,,,,,,,54,,,,,,,,,,,,,,390.9720000003581,,response,,,100,,,,,,Space,keypress(Space),,,,,-- --- ---- --- ------ ----- ------- ---- -- --- ------- --<br>------- ---------- ------ -- ----- -- ----- -- ---- ------<br>--- ----- --- --- ------ -------- ----- --- ------ ----- --<br>----- ----- ---------- --- --- ------ ------ ---- -- ------<br>------- --- ------ ----- --- ---- ------- -- easy --- --<br>------- ------,163187.29999999888,163186.40000000037,162778.755,162787.5,162795.428,163195.389,,51,easy
screen,html.Screen,0_2_1_1_52,2021-12-02T11:57:56.480Z,,,,,,,,,,,,,,,,54,,,,,,,,,,,,,,319.1110000000044,,response,,,100,,,,,,Space,keypress(Space),,,,,-- --- ---- --- ------ ----- ------- ---- -- --- ------- --<br>------- ---------- ------ -- ----- -- ----- -- ---- ------<br>--- ----- --- --- ------ -------- ----- --- ------ ----- --<br>----- ----- ---------- --- --- ------ ------ ---- -- ------<br>------- --- ------ ----- --- ---- ------- -- ---- way --<br>------- ------,163515.09999999963,163514.5,163178.719,163187.5,163195.389,163528.813,,52,way
screen,html.Screen,0_2_1_1_53,2021-12-02T11:57:56.824Z,,,,,,,,,,,,,,,,54,,,,,,,,,,,,,,329.5870000003779,,response,,,100,,,,,,Space,keypress(Space),,,,,-- --- ---- --- ------ ----- ------- ---- -- --- ------- --<br>------- ---------- ------ -- ----- -- ----- -- ---- ------<br>--- ----- --- --- ------ -------- ----- --- ------ ----- --<br>----- ----- ---------- --- --- ------ ------ ---- -- ------<br>------- --- ------ ----- --- ---- ------- -- ---- --- of<br>------- ------,163859.19999999925,163858.40000000037,163512.143,163515.40000000037,163528.813,163862.259,,53,of
screen,html.Screen,0_2_1_1_54,2021-12-02T11:57:57.360Z,,,,,,,,,,,,,,,,54,,,,,,,,,,,,,,532.1410000003816,,response,,,100,,,,,,Space,keypress(Space),,,,,-- --- ---- --- ------ ----- ------- ---- -- --- ------- --<br>------- ---------- ------ -- ----- -- ----- -- ---- ------<br>--- ----- --- --- ------ -------- ----- --- ------ ----- --<br>----- ----- ---------- --- --- ------ ------ ---- -- ------<br>------- --- ------ ----- --- ---- ------- -- ---- --- --<br>raising ------,164395.19999999925,164394.40000000037,163845.589,163859.40000000037,163862.259,164412.372,,54,raising
screen,html.Screen,0_2_1_1_55,2021-12-02T11:57:57.880Z,,,,,,,,,,,,,,,,54,,,,,,,,,,,,,,502.0280000003695,,response,,,100,,,,,,Space,keypress(Space),,,,,-- --- ---- --- ------ ----- ------- ---- -- --- ------- --<br>------- ---------- ------ -- ----- -- ----- -- ---- ------<br>--- ----- --- --- ------ -------- ----- --- ------ ----- --<br>----- ----- ---------- --- --- ------ ------ ---- -- ------<br>------- --- ------ ----- --- ---- ------- -- ---- --- --<br>------- money.,164915.09999999963,164914.40000000037,164395.702,164395.40000000037,164412.372,164929.175,,55,money.
Item 100,flow.Loop,0_2_1_1,2021-12-02T11:57:57.880Z,,,,,,,,,,,,,,,,,,,,,,,,,,,,,,29943.330000000366,,completion,,,,C,,,,,,,,,,silence,,164915.5,164914.40000000037,134954.4,134956.29999999888,134971.07,164929.175,,,
Question 1,html.Screen,0_2_1_2,2021-12-02T11:58:00.464Z,,,,,,,,,,,,,,,,,,,,,,,,,,,true,TRUE,,2568.8250000000116,,response,,,100,C,,,,,TRUE,click #choice-1,,,,silence,,167499.19999999925,167498,164912.505,164915.69999999925,164929.175,167513.217,,,
Question 2,html.Screen,0_2_1_3,2021-12-02T11:58:03.512Z,,,,,,,,,,,,,,,,,,,,,,,,,,,true,FALSE,,3032.582999998878,,response,,,100,C,,,,,FALSE,click #choice-2,,,,silence,,170547,170545.79999999888,167496.547,167499.40000000037,167513.217,170564.065,,,
Item 100,flow.Sequence,0_2_1,2021-12-02T11:58:03.512Z,,,,,,,,,,,,,,,,,,,,,,,,,,,,,,45577.19299999888,,completion,,,,,,,,,,,,,,,,170547.40000000037,170545.79999999888,124951.862,124949.79999999888,124968.607,170564.065,,,
End of Practice,html.Page,0_2_2,2021-12-02T11:58:08.336Z,,,,,,,,,,,,,,,,,,,,,,,,,,,,,,4807.034999999625,,form submission,,,,,,,,,,,,,,,,175371.5,175371.09999999963,170547.394,170547.5,170564.065,175381.885,,,
Practice,flow.Sequence,0_2,2021-12-02T11:58:08.337Z,,,,,,,,,,,,,,,,,,,,,,,,,,,,,,106734.26899999962,,completion,,,,,,,,,,,,,,,,175372.09999999963,175371.09999999963,68620.161,68633,68636.831,175381.885,,,
Trap_instruction,html.Page,0_3_0,2021-12-02T11:58:13.720Z,,,,,,,,,,,,,,,,,,,,,,,,,,,,,,5372.814999999246,,form submission,,,,,,,,,,,,,,,,180755.09999999963,180754.69999999925,175365.215,175372.29999999888,175381.885,180783.398,,,
trap_trial,html.Screen,0_3_1,2021-12-02T11:58:17.714Z,,,,,,,,,,,,,,,,,,,,,,,,,,,true,1,,3961.701999999641,,response,,,,,,,,,1,click #choice-1,,,,,,184746.29999999888,184745.09999999963,180750.058,180755.40000000037,180783.398,184750.382,,,
end of trap trial,html.Page,0_3_2,2021-12-02T11:58:20.242Z,,,,,,,,,,,,,,,,,,,,,,,,,,,,,,2524.01800000036,,form submission,,,,,,,,,,,,,,,,187274.90000000037,187274.40000000037,184733.714,184746.59999999963,184750.382,187284.952,,,
Trap 1,flow.Sequence,0_3,2021-12-02T11:58:20.243Z,,,,,,,,,,,,,,,,,,,,,,,,,,,,,,11892.515000000363,,completion,,,,,,,,,,,,,,,,187275.19999999925,187274.40000000037,175365.215,175372.29999999888,175381.885,187284.952,,,
Standby,html.Page,0_4_0,2021-12-02T11:58:28.239Z,,,,,,,,,,,,,,,,,,,,,,,,,,,,,,8002.312000000005,,timeout,,,,,,,,,,,,,,,,195271.90000000037,195270.593,187268.282,187275.5,187284.952,195287.264,,,
Holding screen,html.Screen,0_4_1_0_0,2021-12-02T11:58:35.241Z,,,,,,,,,,,,,,,,,,,,,,,,,,,,,,7001.762000000017,,timeout,,,,,,,,,,,,,,,,202273.69999999925,202272.356,195270.593,195272.29999999888,195287.264,202289.026,,,
screen,html.Screen,0_4_1_0_1_0,2021-12-02T11:58:36.465Z,,,,,,,,,,,,,,,,51,,,,,,,,,,,,,,1207.4739999999874,,response,,,13,C,,,,,Space,keypress(Space),,,,instrumental,American -------- --- --- ---- --- --- ------ -- --------<br>---- --------- --- ------- ------------ ---------- ---------<br>--- ---------- ------- ---------- ------- -- -------- ----<br>---- --- ------ ----- ------ -- ---- --- ----- -- - -------<br>-------- -- --- --- -- ----- ----------- ----- -----------<br>---- --- ---------- --- ---- --- -- ----------,203497.5,203496.5,202272.356,202274.09999999963,202289.026,203505.954,,0,American
screen,html.Screen,0_4_1_0_1_1,2021-12-02T11:58:37.193Z,,,,,,,,,,,,,,,,51,,,,,,,,,,,,,,718.5460000000021,,response,,,13,C,,,,,Space,keypress(Space),,,,instrumental,-------- industry --- --- ---- --- --- ------ -- --------<br>---- --------- --- ------- ------------ ---------- ---------<br>--- ---------- ------- ---------- ------- -- -------- ----<br>---- --- ------ ----- ------ -- ---- --- ----- -- - -------<br>-------- -- --- --- -- ----- ----------- ----- -----------<br>---- --- ---------- --- ---- --- -- ----------,204225.29999999888,204224.5,203489.284,203497.90000000037,203505.954,204239.657,,1,industry
screen,html.Screen,0_4_1_0_1_2,2021-12-02T11:58:37.809Z,,,,,,,,,,,,,,,,51,,,,,,,,,,,,,,600.8429999999935,,response,,,13,C,,,,,Space,keypress(Space),,,,instrumental,-------- -------- may --- ---- --- --- ------ -- --------<br>---- --------- --- ------- ------------ ---------- ---------<br>--- ---------- ------- ---------- ------- -- -------- ----<br>---- --- ------ ----- ------ -- ---- --- ----- -- - -------<br>-------- -- --- --- -- ----- ----------- ----- -----------<br>---- --- ---------- --- ---- --- -- ----------,204841.29999999888,204840.5,204222.986,204225.59999999963,204239.657,204856.463,,2,may
screen,html.Screen,0_4_1_0_1_3,2021-12-02T11:58:38.513Z,,,,,,,,,,,,,,,,51,,,,,,,,,,,,,,687.9370000003837,,response,,,13,C,,,,,Space,keypress(Space),,,,instrumental,-------- -------- --- not ---- --- --- ------ -- --------<br>---- --------- --- ------- ------------ ---------- ---------<br>--- ---------- ------- ---------- ------- -- -------- ----<br>---- --- ------ ----- ------ -- ---- --- ----- -- - -------<br>-------- -- --- --- -- ----- ----------- ----- -----------<br>---- --- ---------- --- ---- --- -- ----------,205545.19999999925,205544.40000000037,204839.793,204841.59999999963,204856.463,205556.641,,3,not
screen,html.Screen,0_4_1_0_1_4,2021-12-02T11:58:39.305Z,,,,,,,,,,,,,,,,51,,,,,,,,,,,,,,779.8589999999967,,response,,,13,C,,,,,Space,keypress(Space),,,,instrumental,-------- -------- --- --- know --- --- ------ -- --------<br>---- --------- --- ------- ------------ ---------- ---------<br>--- ---------- ------- ---------- ------- -- -------- ----<br>---- --- ------ ----- ------ -- ---- --- ----- -- - -------<br>-------- -- --- --- -- ----- ----------- ----- -----------<br>---- --- ---------- --- ---- --- -- ----------,206337.29999999888,206336.5,205539.971,205545.40000000037,205556.641,206340.042,,4,know
screen,html.Screen,0_4_1_0_1_5,2021-12-02T11:58:39.945Z,,,,,,,,,,,,,,,,51,,,,,,,,,,,,,,636.4580000000133,,response,,,13,C,,,,,Space,keypress(Space),,,,instrumental,"-------- -------- --- --- ---- it, --- ------ -- --------<br>---- --------- --- ------- ------------ ---------- ---------<br>--- ---------- ------- ---------- ------- -- -------- ----<br>---- --- ------ ----- ------ -- ---- --- ----- -- - -------<br>-------- -- --- --- -- ----- ----------- ----- -----------<br>---- --- ---------- --- ---- --- -- ----------",206977.19999999925,206976.5,206323.373,206337.59999999963,206340.042,206990.317,,5,"it,"
screen,html.Screen,0_4_1_0_1_6,2021-12-02T11:58:40.552Z,,,,,,,,,,,,,,,,51,,,,,,,,,,,,,,593.9829999988724,,response,,,13,C,,,,,Space,keypress(Space),,,,instrumental,-------- -------- --- --- ---- --- but ------ -- --------<br>---- --------- --- ------- ------------ ---------- ---------<br>--- ---------- ------- ---------- ------- -- -------- ----<br>---- --- ------ ----- ------ -- ---- --- ----- -- - -------<br>-------- -- --- --- -- ----- ----------- ----- -----------<br>---- --- ---------- --- ---- --- -- ----------,207585,207584.29999999888,206973.647,206977.40000000037,206990.317,207590.482,,6,but
screen,html.Screen,0_4_1_0_1_7,2021-12-02T11:58:41.193Z,,,,,,,,,,,,,,,,51,,,,,,,,,,,,,,633.7179999992659,,response,,,13,C,,,,,Space,keypress(Space),,,,instrumental,-------- -------- --- --- ---- --- --- debate -- --------<br>---- --------- --- ------- ------------ ---------- ---------<br>--- ---------- ------- ---------- ------- -- -------- ----<br>---- --- ------ ----- ------ -- ---- --- ----- -- - -------<br>-------- -- --- --- -- ----- ----------- ----- -----------<br>---- --- ---------- --- ---- --- -- ----------,208225,208224.19999999925,207573.812,207585.29999999888,207590.482,208240.82,,7,debate
screen,html.Screen,0_4_1_0_1_8,2021-12-02T11:58:41.825Z,,,,,,,,,,,,,,,,51,,,,,,,,,,,,,,615.4799999988754,,response,,,13,C,,,,,Space,keypress(Space),,,,instrumental,-------- -------- --- --- ---- --- --- ------ in --------<br>---- --------- --- ------- ------------ ---------- ---------<br>--- ---------- ------- ---------- ------- -- -------- ----<br>---- --- ------ ----- ------ -- ---- --- ----- -- - -------<br>-------- -- --- --- -- ----- ----------- ----- -----------<br>---- --- ---------- --- ---- --- -- ----------,208857.19999999925,208856.29999999888,208224.148,208225.29999999888,208240.82,208874.06,,8,in
screen,html.Screen,0_4_1_0_1_9,2021-12-02T11:58:42.657Z,,,,,,,,,,,,,,,,51,,,,,,,,,,,,,,814.2399999988847,,response,,,13,C,,,,,Space,keypress(Space),,,,instrumental,-------- -------- --- --- ---- --- --- ------ -- Congress<br>---- --------- --- ------- ------------ ---------- ---------<br>--- ---------- ------- ---------- ------- -- -------- ----<br>---- --- ------ ----- ------ -- ---- --- ----- -- - -------<br>-------- -- --- --- -- ----- ----------- ----- -----------<br>---- --- ---------- --- ---- --- -- ----------,209689.09999999963,209688.29999999888,208857.391,208857.40000000037,208874.06,209691.212,,9,Congress
screen,html.Screen,0_4_1_0_1_10,2021-12-02T11:58:43.369Z,,,,,,,,,,,,,,,,51,,,,,,,,,,,,,,709.0879999988829,,response,,,13,C,,,,,Space,keypress(Space),,,,instrumental,-------- -------- --- --- ---- --- --- ------ -- --------<br>over --------- --- ------- ------------ ---------- ---------<br>--- ---------- ------- ---------- ------- -- -------- ----<br>---- --- ------ ----- ------ -- ---- --- ----- -- - -------<br>-------- -- --- --- -- ----- ----------- ----- -----------<br>---- --- ---------- --- ---- --- -- ----------,210401.19999999925,210400.29999999888,209674.54,209689.40000000037,209691.212,210407.933,,10,over
screen,html.Screen,0_4_1_0_1_11,2021-12-02T11:58:44.256Z,,,,,,,,,,,,,,,,51,,,,,,,,,,,,,,880.266999999265,,response,,,13,C,,,,,Space,keypress(Space),,,,instrumental,-------- -------- --- --- ---- --- --- ------ -- --------<br>---- reforming --- ------- ------------ ---------- ---------<br>--- ---------- ------- ---------- ------- -- -------- ----<br>---- --- ------ ----- ------ -- ---- --- ----- -- - -------<br>-------- -- --- --- -- ----- ----------- ----- -----------<br>---- --- ---------- --- ---- --- -- ----------,211289,211288.19999999925,210391.263,210401.40000000037,210407.933,211291.555,,11,reforming
screen,html.Screen,0_4_1_0_1_12,2021-12-02T11:58:44.768Z,,,,,,,,,,,,,,,,51,,,,,,,,,,,,,,508.6449999992619,,response,,,13,C,,,,,Space,keypress(Space),,,,instrumental,-------- -------- --- --- ---- --- --- ------ -- --------<br>---- --------- the ------- ------------ ---------- ---------<br>--- ---------- ------- ---------- ------- -- -------- ----<br>---- --- ------ ----- ------ -- ---- --- ----- -- - -------<br>-------- -- --- --- -- ----- ----------- ----- -----------<br>---- --- ---------- --- ---- --- -- ----------,211801,211800.19999999925,211274.884,211289.19999999925,211291.555,211808.299,,12,the
screen,html.Screen,0_4_1_0_1_13,2021-12-02T11:58:45.449Z,,,,,,,,,,,,,,,,51,,,,,,,,,,,,,,672.3009999996284,,response,,,13,C,,,,,Space,keypress(Space),,,,instrumental,-------- -------- --- --- ---- --- --- ------ -- --------<br>---- --------- --- federal ------------ ---------- ---------<br>--- ---------- ------- ---------- ------- -- -------- ----<br>---- --- ------ ----- ------ -- ---- --- ----- -- - -------<br>-------- -- --- --- -- ----- ----------- ----- -----------<br>---- --- ---------- --- ---- --- -- ----------,212481.40000000037,212480.59999999963,211791.629,211801.29999999888,211808.299,212491.792,,13,federal
screen,html.Screen,0_4_1_0_1_14,2021-12-02T11:58:46.160Z,,,,,,,,,,,,,,,,51,,,,,,,,,,,,,,700.3079999996407,,response,,,13,C,,,,,Space,keypress(Space),,,,instrumental,-------- -------- --- --- ---- --- --- ------ -- --------<br>---- --------- --- ------- government's ---------- ---------<br>--- ---------- ------- ---------- ------- -- -------- ----<br>---- --- ------ ----- ------ -- ---- --- ----- -- - -------<br>-------- -- --- --- -- ----- ----------- ----- -----------<br>---- --- ---------- --- ---- --- -- ----------,213192.90000000037,213192.09999999963,212475.122,212481.59999999963,212491.792,213208.657,,14,government's
screen,html.Screen,0_4_1_0_1_15,2021-12-02T11:58:46.768Z,,,,,,,,,,,,,,,,51,,,,,,,,,,,,,,591.442999999621,,response,,,13,C,,,,,Space,keypress(Space),,,,instrumental,-------- -------- --- --- ---- --- --- ------ -- --------<br>---- --------- --- ------- ------------ regulatory ---------<br>--- ---------- ------- ---------- ------- -- -------- ----<br>---- --- ------ ----- ------ -- ---- --- ----- -- - -------<br>-------- -- --- --- -- ----- ----------- ----- -----------<br>---- --- ---------- --- ---- --- -- ----------,213800.79999999888,213800.09999999963,213191.987,213193.09999999963,213208.657,213808.807,,15,regulatory
screen,html.Screen,0_4_1_0_1_16,2021-12-02T11:58:47.256Z,,,,,,,,,,,,,,,,51,,,,,,,,,,,,,,479.1929999999993,,response,,,13,C,,,,,Space,keypress(Space),,,,instrumental,-------- -------- --- --- ---- --- --- ------ -- --------<br>---- --------- --- ------- ------------ ---------- apparatus<br>--- ---------- ------- ---------- ------- -- -------- ----<br>---- --- ------ ----- ------ -- ---- --- ----- -- - -------<br>-------- -- --- --- -- ----- ----------- ----- -----------<br>---- --- ---------- --- ---- --- -- ----------,214288.90000000037,214288,213792.137,213801.09999999963,213808.807,214292.357,,16,apparatus
screen,html.Screen,0_4_1_0_1_17,2021-12-02T11:58:47.960Z,,,,,,,,,,,,,,,,51,,,,,,,,,,,,,,699.7429999996384,,response,,,13,C,,,,,Space,keypress(Space),,,,instrumental,-------- -------- --- --- ---- --- --- ------ -- --------<br>---- --------- --- ------- ------------ ---------- ---------<br>may ---------- ------- ---------- ------- -- -------- ----<br>---- --- ------ ----- ------ -- ---- --- ----- -- - -------<br>-------- -- --- --- -- ----- ----------- ----- -----------<br>---- --- ---------- --- ---- --- -- ----------,214992.90000000037,214992.09999999963,214275.686,214289.09999999963,214292.357,215009.031,,17,may
screen,html.Screen,0_4_1_0_1_18,2021-12-02T11:58:48.488Z,,,,,,,,,,,,,,,,51,,,,,,,,,,,,,,510.9690000000119,,response,,,13,C,,,,,Space,keypress(Space),,,,instrumental,-------- -------- --- --- ---- --- --- ------ -- --------<br>---- --------- --- ------- ------------ ---------- ---------<br>--- profoundly ------- ---------- ------- -- -------- ----<br>---- --- ------ ----- ------ -- ---- --- ----- -- - -------<br>-------- -- --- --- -- ----- ----------- ----- -----------<br>---- --- ---------- --- ---- --- -- ----------,215520.79999999888,215520,214992.362,214993,215009.031,215526.091,,18,profoundly
screen,html.Screen,0_4_1_0_1_19,2021-12-02T11:58:48.936Z,,,,,,,,,,,,,,,,51,,,,,,,,,,,,,,441.9090000000142,,response,,,13,C,,,,,Space,keypress(Space),,,,instrumental,-------- -------- --- --- ---- --- --- ------ -- --------<br>---- --------- --- ------- ------------ ---------- ---------<br>--- ---------- improve ---------- ------- -- -------- ----<br>---- --- ------ ----- ------ -- ---- --- ----- -- - -------<br>-------- -- --- --- -- ----- ----------- ----- -----------<br>---- --- ---------- --- ---- --- -- ----------,215968.79999999888,215968,215509.419,215521,215526.091,215976.098,,19,improve
screen,html.Screen,0_4_1_0_1_20,2021-12-02T11:58:49.640Z,,,,,,,,,,,,,,,,51,,,,,,,,,,,,,,695.8020000003744,,response,,,13,C,,,,,Space,keypress(Space),,,,instrumental,-------- -------- --- --- ---- --- --- ------ -- --------<br>---- --------- --- ------- ------------ ---------- ---------<br>--- ---------- ------- companies' ------- -- -------- ----<br>---- --- ------ ----- ------ -- ---- --- ----- -- - -------<br>-------- -- --- --- -- ----- ----------- ----- -----------<br>---- --- ---------- --- ---- --- -- ----------,216672.79999999888,216671.90000000037,215959.428,215969.09999999963,215976.098,216676.325,,20,companies'
screen,html.Screen,0_4_1_0_1_21,2021-12-02T11:58:50.224Z,,,,,,,,,,,,,,,,51,,,,,,,,,,,,,,579.5750000003609,,response,,,13,C,,,,,Space,keypress(Space),,,,instrumental,-------- -------- --- --- ---- --- --- ------ -- --------<br>---- --------- --- ------- ------------ ---------- ---------<br>--- ---------- ------- ---------- ability -- -------- ----<br>---- --- ------ ----- ------ -- ---- --- ----- -- - -------<br>-------- -- --- --- -- ----- ----------- ----- -----------<br>---- --- ---------- --- ---- --- -- ----------,217256.79999999888,217255.90000000037,216659.654,216672.90000000037,216676.325,217259.666,,21,ability
screen,html.Screen,0_4_1_0_1_22,2021-12-02T11:58:50.616Z,,,,,,,,,,,,,,,,51,,,,,,,,,,,,,,388.2340000003751,,response,,,13,C,,,,,Space,keypress(Space),,,,instrumental,-------- -------- --- --- ---- --- --- ------ -- --------<br>---- --------- --- ------- ------------ ---------- ---------<br>--- ---------- ------- ---------- ------- to -------- ----<br>---- --- ------ ----- ------ -- ---- --- ----- -- - -------<br>-------- -- --- --- -- ----- ----------- ----- -----------<br>---- --- ---------- --- ---- --- -- ----------,217648.69999999925,217647.90000000037,217242.997,217257,217259.666,217659.913,,22,to
screen,html.Screen,0_4_1_0_1_23,2021-12-02T11:58:51.456Z,,,,,,,,,,,,,,,,51,,,,,,,,,,,,,,827.9870000003721,,response,,,13,C,,,,,Space,keypress(Space),,,,instrumental,-------- -------- --- --- ---- --- --- ------ -- --------<br>---- --------- --- ------- ------------ ---------- ---------<br>--- ---------- ------- ---------- ------- -- survive. ----<br>---- --- ------ ----- ------ -- ---- --- ----- -- - -------<br>-------- -- --- --- -- ----- ----------- ----- -----------<br>---- --- ---------- --- ---- --- -- ----------,218488.59999999963,218487.90000000037,217643.242,217648.90000000037,217659.913,218493.29,,23,survive.
screen,html.Screen,0_4_1_0_1_24,2021-12-02T11:58:52.272Z,,,,,,,,,,,,,,,,51,,,,,,,,,,,,,,810.4099999992468,,response,,,13,C,,,,,Space,keypress(Space),,,,instrumental,-------- -------- --- --- ---- --- --- ------ -- --------<br>---- --------- --- ------- ------------ ---------- ---------<br>--- ---------- ------- ---------- ------- -- -------- This<br>---- --- ------ ----- ------ -- ---- --- ----- -- - -------<br>-------- -- --- --- -- ----- ----------- ----- -----------<br>---- --- ---------- --- ---- --- -- ----------,219304.59999999963,219303.69999999925,218476.621,218488.79999999888,218493.29,219310.513,,24,This
screen,html.Screen,0_4_1_0_1_25,2021-12-02T11:58:52.904Z,,,,,,,,,,,,,,,,51,,,,,,,,,,,,,,625.2869999988761,,response,,,13,C,,,,,Space,keypress(Space),,,,instrumental,-------- -------- --- --- ---- --- --- ------ -- --------<br>---- --------- --- ------- ------------ ---------- ---------<br>--- ---------- ------- ---------- ------- -- -------- ----<br>week --- ------ ----- ------ -- ---- --- ----- -- - -------<br>-------- -- --- --- -- ----- ----------- ----- -----------<br>---- --- ---------- --- ---- --- -- ----------,219936.59999999963,219935.79999999888,219293.84,219304.79999999888,219310.513,219943.812,,25,week
screen,html.Screen,0_4_1_0_1_26,2021-12-02T11:58:53.560Z,,,,,,,,,,,,,,,,51,,,,,,,,,,,,,,647.9879999988771,,response,,,13,C,,,,,Space,keypress(Space),,,,instrumental,-------- -------- --- --- ---- --- --- ------ -- --------<br>---- --------- --- ------- ------------ ---------- ---------<br>--- ---------- ------- ---------- ------- -- -------- ----<br>---- the ------ ----- ------ -- ---- --- ----- -- - -------<br>-------- -- --- --- -- ----- ----------- ----- -----------<br>---- --- ---------- --- ---- --- -- ----------,220592.59999999963,220591.79999999888,219927.142,219936.79999999888,219943.812,220593.823,,26,the
screen,html.Screen,0_4_1_0_1_27,2021-12-02T11:58:54.328Z,,,,,,,,,,,,,,,,51,,,,,,,,,,,,,,765.9769999988785,,response,,,13,C,,,,,Space,keypress(Space),,,,instrumental,-------- -------- --- --- ---- --- --- ------ -- --------<br>---- --------- --- ------- ------------ ---------- ---------<br>--- ---------- ------- ---------- ------- -- -------- ----<br>---- --- Senate ----- ------ -- ---- --- ----- -- - -------<br>-------- -- --- --- -- ----- ----------- ----- -----------<br>---- --- ---------- --- ---- --- -- ----------,221360.5,221359.79999999888,220577.154,220592.79999999888,220593.823,221377.584,,27,Senate
screen,html.Screen,0_4_1_0_1_28,2021-12-02T11:58:54.704Z,,,,,,,,,,,,,,,,51,,,,,,,,,,,,,,358.21599999887985,,response,,,13,C,,,,,Space,keypress(Space),,,,instrumental,-------- -------- --- --- ---- --- --- ------ -- --------<br>---- --------- --- ------- ------------ ---------- ---------<br>--- ---------- ------- ---------- ------- -- -------- ----<br>---- --- ------ seems ------ -- ---- --- ----- -- - -------<br>-------- -- --- --- -- ----- ----------- ----- -----------<br>---- --- ---------- --- ---- --- -- ----------,221736.5,221735.79999999888,221360.913,221360.69999999925,221377.584,221744.22,,28,seems
screen,html.Screen,0_4_1_0_1_29,2021-12-02T11:58:55.200Z,,,,,,,,,,,,,,,,51,,,,,,,,,,,,,,487.4799999992538,,response,,,13,C,,,,,Space,keypress(Space),,,,instrumental,-------- -------- --- --- ---- --- --- ------ -- --------<br>---- --------- --- ------- ------------ ---------- ---------<br>--- ---------- ------- ---------- ------- -- -------- ----<br>---- --- ------ ----- poised -- ---- --- ----- -- - -------<br>-------- -- --- --- -- ----- ----------- ----- -----------<br>---- --- ---------- --- ---- --- -- ----------,222232.40000000037,222231.69999999925,221727.55,221736.69999999925,221744.22,222244.437,,29,poised
screen,html.Screen,0_4_1_0_1_30,2021-12-02T11:58:55.576Z,,,,,,,,,,,,,,,,51,,,,,,,,,,,,,,363.6629999996221,,response,,,13,C,,,,,Space,keypress(Space),,,,instrumental,-------- -------- --- --- ---- --- --- ------ -- --------<br>---- --------- --- ------- ------------ ---------- ---------<br>--- ---------- ------- ---------- ------- -- -------- ----<br>---- --- ------ ----- ------ to ---- --- ----- -- - -------<br>-------- -- --- --- -- ----- ----------- ----- -----------<br>---- --- ---------- --- ---- --- -- ----------,222608.90000000037,222608.09999999963,222227.766,222232.69999999925,222244.437,222611.246,,30,to
screen,html.Screen,0_4_1_0_1_31,2021-12-02T11:58:55.896Z,,,,,,,,,,,,,,,,51,,,,,,,,,,,,,,316.4539999992412,,response,,,13,C,,,,,Space,keypress(Space),,,,instrumental,-------- -------- --- --- ---- --- --- ------ -- --------<br>---- --------- --- ------- ------------ ---------- ---------<br>--- ---------- ------- ---------- ------- -- -------- ----<br>---- --- ------ ----- ------ -- join --- ----- -- - -------<br>-------- -- --- --- -- ----- ----------- ----- -----------<br>---- --- ---------- --- ---- --- -- ----------,222928.5,222927.69999999925,222594.575,222609.09999999963,222611.246,222944.53,,31,join
screen,html.Screen,0_4_1_0_1_32,2021-12-02T11:58:56.248Z,,,,,,,,,,,,,,,,51,,,,,,,,,,,,,,335.1699999992561,,response,,,13,C,,,,,Space,keypress(Space),,,,instrumental,-------- -------- --- --- ---- --- --- ------ -- --------<br>---- --------- --- ------- ------------ ---------- ---------<br>--- ---------- ------- ---------- ------- -- -------- ----<br>---- --- ------ ----- ------ -- ---- the ----- -- - -------<br>-------- -- --- --- -- ----- ----------- ----- -----------<br>---- --- ---------- --- ---- --- -- ----------,223280.5,223279.69999999925,222927.861,222928.69999999925,222944.53,223294.824,,32,the
screen,html.Screen,0_4_1_0_1_33,2021-12-02T11:58:56.888Z,,,,,,,,,,,,,,,,51,,,,,,,,,,,,,,624.7759999996342,,response,,,13,C,,,,,Space,keypress(Space),,,,instrumental,-------- -------- --- --- ---- --- --- ------ -- --------<br>---- --------- --- ------- ------------ ---------- ---------<br>--- ---------- ------- ---------- ------- -- -------- ----<br>---- --- ------ ----- ------ -- ---- --- House -- - -------<br>-------- -- --- --- -- ----- ----------- ----- -----------<br>---- --- ---------- --- ---- --- -- ----------,223920.40000000037,223919.59999999963,223278.151,223280.69999999925,223294.824,223928.185,,33,House
screen,html.Screen,0_4_1_0_1_34,2021-12-02T11:58:57.216Z,,,,,,,,,,,,,,,,51,,,,,,,,,,,,,,319.4149999996298,,response,,,13,C,,,,,Space,keypress(Space),,,,instrumental,-------- -------- --- --- ---- --- --- ------ -- --------<br>---- --------- --- ------- ------------ ---------- ---------<br>--- ---------- ------- ---------- ------- -- -------- ----<br>---- --- ------ ----- ------ -- ---- --- ----- in - -------<br>-------- -- --- --- -- ----- ----------- ----- -----------<br>---- --- ---------- --- ---- --- -- ----------,224248.40000000037,224247.59999999963,223911.515,223920.59999999963,223928.185,224261.664,,34,in
screen,html.Screen,0_4_1_0_1_35,2021-12-02T11:58:57.520Z,,,,,,,,,,,,,,,,51,,,,,,,,,,,,,,289.9359999996377,,response,,,13,C,,,,,Space,keypress(Space),,,,instrumental,-------- -------- --- --- ---- --- --- ------ -- --------<br>---- --------- --- ------- ------------ ---------- ---------<br>--- ---------- ------- ---------- ------- -- -------- ----<br>---- --- ------ ----- ------ -- ---- --- ----- -- a -------<br>-------- -- --- --- -- ----- ----------- ----- -----------<br>---- --- ---------- --- ---- --- -- ----------,224552.40000000037,224551.59999999963,224244.993,224248.59999999963,224261.664,224561.726,,35,a
screen,html.Screen,0_4_1_0_1_36,2021-12-02T11:58:58.032Z,,,,,,,,,,,,,,,,51,,,,,,,,,,,,,,501.7740000000049,,response,,,13,C,,,,,Space,keypress(Space),,,,instrumental,-------- -------- --- --- ---- --- --- ------ -- --------<br>---- --------- --- ------- ------------ ---------- ---------<br>--- ---------- ------- ---------- ------- -- -------- ----<br>---- --- ------ ----- ------ -- ---- --- ----- -- - massive<br>-------- -- --- --- -- ----- ----------- ----- -----------<br>---- --- ---------- --- ---- --- -- ----------,225064.29999999888,225063.5,224545.056,224552.59999999963,224561.726,225078.557,,36,massive
screen,html.Screen,0_4_1_0_1_37,2021-12-02T11:58:58.640Z,,,,,,,,,,,,,,,,51,,,,,,,,,,,,,,592.9429999999993,,response,,,13,C,,,,,Space,keypress(Space),,,,instrumental,-------- -------- --- --- ---- --- --- ------ -- --------<br>---- --------- --- ------- ------------ ---------- ---------<br>--- ---------- ------- ---------- ------- -- -------- ----<br>---- --- ------ ----- ------ -- ---- --- ----- -- - -------<br>overhaul -- --- --- -- ----- ----------- ----- -----------<br>---- --- ---------- --- ---- --- -- ----------,225672.5,225671.5,225061.886,225064.5,225078.557,225678.648,,37,overhaul
screen,html.Screen,0_4_1_0_1_38,2021-12-02T11:58:59.072Z,,,,,,,,,,,,,,,,51,,,,,,,,,,,,,,424.75200000038603,,response,,,13,C,,,,,Space,keypress(Space),,,,instrumental,-------- -------- --- --- ---- --- --- ------ -- --------<br>---- --------- --- ------- ------------ ---------- ---------<br>--- ---------- ------- ---------- ------- -- -------- ----<br>---- --- ------ ----- ------ -- ---- --- ----- -- - -------<br>-------- of --- --- -- ----- ----------- ----- -----------<br>---- --- ---------- --- ---- --- -- ----------,226104.19999999925,226103.40000000037,225661.978,225672.69999999925,225678.648,226112.159,,38,of
screen,html.Screen,0_4_1_0_1_39,2021-12-02T11:58:59.448Z,,,,,,,,,,,,,,,,51,,,,,,,,,,,,,,367.3409999999858,,response,,,13,C,,,,,Space,keypress(Space),,,,instrumental,-------- -------- --- --- ---- --- --- ------ -- --------<br>---- --------- --- ------- ------------ ---------- ---------<br>--- ---------- ------- ---------- ------- -- -------- ----<br>---- --- ------ ----- ------ -- ---- --- ----- -- - -------<br>-------- -- the --- -- ----- ----------- ----- -----------<br>---- --- ---------- --- ---- --- -- ----------,226480.29999999888,226479.5,226095.488,226104.40000000037,226112.159,226495.452,,39,the
screen,html.Screen,0_4_1_0_1_40,2021-12-02T11:58:59.736Z,,,,,,,,,,,,,,,,51,,,,,,,,,,,,,,272.0480000000098,,response,,,13,C,,,,,Space,keypress(Space),,,,instrumental,-------- -------- --- --- ---- --- --- ------ -- --------<br>---- --------- --- ------- ------------ ---------- ---------<br>--- ---------- ------- ---------- ------- -- -------- ----<br>---- --- ------ ----- ------ -- ---- --- ----- -- - -------<br>-------- -- --- way -- ----- ----------- ----- -----------<br>---- --- ---------- --- ---- --- -- ----------,226768.29999999888,226767.5,226478.783,226480.5,226495.452,226779.083,,40,way
screen,html.Screen,0_4_1_0_1_41,2021-12-02T11:59:00.112Z,,,,,,,,,,,,,,,,51,,,,,,,,,,,,,,364.31700000035926,,response,,,13,C,,,,,Space,keypress(Space),,,,instrumental,-------- -------- --- --- ---- --- --- ------ -- --------<br>---- --------- --- ------- ------------ ---------- ---------<br>--- ---------- ------- ---------- ------- -- -------- ----<br>---- --- ------ ----- ------ -- ---- --- ----- -- - -------<br>-------- -- --- --- in ----- ----------- ----- -----------<br>---- --- ---------- --- ---- --- -- ----------,227144.09999999963,227143.40000000037,226762.41,226768.40000000037,226779.083,227145.615,,41,in
screen,html.Screen,0_4_1_0_1_42,2021-12-02T11:59:00.504Z,,,,,,,,,,,,,,,,51,,,,,,,,,,,,,,389.8850000000093,,response,,,13,C,,,,,Space,keypress(Space),,,,instrumental,-------- -------- --- --- ---- --- --- ------ -- --------<br>---- --------- --- ------- ------------ ---------- ---------<br>--- ---------- ------- ---------- ------- -- -------- ----<br>---- --- ------ ----- ------ -- ---- --- ----- -- - -------<br>-------- -- --- --- -- which ----------- ----- -----------<br>---- --- ---------- --- ---- --- -- ----------,227536.19999999925,227535.5,227128.947,227144.40000000037,227145.615,227545.949,,42,which
screen,html.Screen,0_4_1_0_1_43,2021-12-02T11:59:00.824Z,,,,,,,,,,,,,,,,51,,,,,,,,,,,,,,309.4510000003793,,response,,,13,C,,,,,Space,keypress(Space),,,,instrumental,-------- -------- --- --- ---- --- --- ------ -- --------<br>---- --------- --- ------- ------------ ---------- ---------<br>--- ---------- ------- ---------- ------- -- -------- ----<br>---- --- ------ ----- ------ -- ---- --- ----- -- - -------<br>-------- -- --- --- -- ----- bureaucrats ----- -----------<br>---- --- ---------- --- ---- --- -- ----------,227856.19999999925,227855.40000000037,227529.276,227536.5,227545.949,227862.588,,43,bureaucrats
screen,html.Screen,0_4_1_0_1_44,2021-12-02T11:59:01.408Z,,,,,,,,,,,,,,,,51,,,,,,,,,,,,,,576.8120000003837,,response,,,13,C,,,,,Space,keypress(Space),,,,instrumental,-------- -------- --- --- ---- --- --- ------ -- --------<br>---- --------- --- ------- ------------ ---------- ---------<br>--- ---------- ------- ---------- ------- -- -------- ----<br>---- --- ------ ----- ------ -- ---- --- ----- -- - -------<br>-------- -- --- --- -- ----- ----------- enact -----------<br>---- --- ---------- --- ---- --- -- ----------,228440.19999999925,228439.40000000037,227845.918,227856.40000000037,227862.588,228445.957,,44,enact
screen,html.Screen,0_4_1_0_1_45,2021-12-02T11:59:01.736Z,,,,,,,,,,,,,,,,51,,,,,,,,,,,,,,321.34299999888754,,response,,,13,C,,,,,Space,keypress(Space),,,,instrumental,-------- -------- --- --- ---- --- --- ------ -- --------<br>---- --------- --- ------- ------------ ---------- ---------<br>--- ---------- ------- ---------- ------- -- -------- ----<br>---- --- ------ ----- ------ -- ---- --- ----- -- - -------<br>-------- -- --- --- -- ----- ----------- ----- regulations<br>---- --- ---------- --- ---- --- -- ----------,228768.09999999963,228767.29999999888,228429.288,228440.5,228445.957,228779.466,,45,regulations
screen,html.Screen,0_4_1_0_1_46,2021-12-02T11:59:02.264Z,,,,,,,,,,,,,,,,51,,,,,,,,,,,,,,515.9340000003867,,response,,,13,C,,,,,Space,keypress(Space),,,,instrumental,-------- -------- --- --- ---- --- --- ------ -- --------<br>---- --------- --- ------- ------------ ---------- ---------<br>--- ---------- ------- ---------- ------- -- -------- ----<br>---- --- ------ ----- ------ -- ---- --- ----- -- - -------<br>-------- -- --- --- -- ----- ----------- ----- -----------<br>that --- ---------- --- ---- --- -- ----------,229296.19999999925,229295.40000000037,228762.796,228768.29999999888,228779.466,229313.053,,46,that
screen,html.Screen,0_4_1_0_1_47,2021-12-02T11:59:02.736Z,,,,,,,,,,,,,,,,51,,,,,,,,,,,,,,454.246999998868,,response,,,13,C,,,,,Space,keypress(Space),,,,instrumental,-------- -------- --- --- ---- --- --- ------ -- --------<br>---- --------- --- ------- ------------ ---------- ---------<br>--- ---------- ------- ---------- ------- -- -------- ----<br>---- --- ------ ----- ------ -- ---- --- ----- -- - -------<br>-------- -- --- --- -- ----- ----------- ----- -----------<br>---- are ---------- --- ---- --- -- ----------,229768.09999999963,229767.29999999888,229296.381,229296.40000000037,229313.053,229779.808,,47,are
screen,html.Screen,0_4_1_0_1_48,2021-12-02T11:59:04.431Z,,,,,,,,,,,,,,,,51,,,,,,,,,,,,,,1683.391999999265,,response,,,13,C,,,,,Space,keypress(Space),,,,instrumental,-------- -------- --- --- ---- --- --- ------ -- --------<br>---- --------- --- ------- ------------ ---------- ---------<br>--- ---------- ------- ---------- ------- -- -------- ----<br>---- --- ------ ----- ------ -- ---- --- ----- -- - -------<br>-------- -- --- --- -- ----- ----------- ----- -----------<br>---- --- strangling --- ---- --- -- ----------,231464,231463.19999999925,229763.137,229768.29999999888,229779.808,231480.126,,48,strangling
screen,html.Screen,0_4_1_0_1_49,2021-12-02T11:59:04.807Z,,,,,,,,,,,,,,,,51,,,,,,,,,,,,,,359.07399999926565,,response,,,13,C,,,,,Space,keypress(Space),,,,instrumental,-------- -------- --- --- ---- --- --- ------ -- --------<br>---- --------- --- ------- ------------ ---------- ---------<br>--- ---------- ------- ---------- ------- -- -------- ----<br>---- --- ------ ----- ------ -- ---- --- ----- -- - -------<br>-------- -- --- --- -- ----- ----------- ----- -----------<br>---- --- ---------- the ---- --- -- ----------,231840.09999999963,231839.19999999925,231463.456,231464.19999999925,231480.126,231847.037,,49,the
