sender,sender_type,sender_id,timestamp,meta,,Blues,Classical,Country,Dance,Electronic,Folk,Gospel,Hip-Hop,Jazz,Latin,Musical/Film,New-age,Pop,Provo_ID,R&B,Rap,Reggae,Religious,Rock,Soul,Swing,Traditional,age,artist_name,correct,correctResponse,distraction,duration,education,ended_on,familiarity,gender,item,list,music_frequency,offensiveness,pleasantness,preference,response,response_action,snippet_file,song_name,song_rating,sound,text,time_commit,time_end,time_render,time_run,time_show,time_switch,url,word,word_ID
Instructions,html.Page,0_0,2021-12-10T11:49:34.111Z,"{""labjs_version"":""20.2.3"",""labjs_build"":{""flavor"":""production"",""commit"":""7ea907d66ca8aeef8054924ca5d82ffbe11e34e5""},""location"":""https://run.pavlovia.org/mvasilev/lab_music_c/"",""userAgent"":""Mozilla/5.0 (Windows NT 6.1; Win64; x64) AppleWebKit/537.36 (KHTML, like Gecko) Chrome/96.0.4664.93 Safari/537.36"",""platform"":""Win32"",""language"":""en-US"",""locale"":""en-US"",""timeZone"":""Europe/London"",""timezoneOffset"":0,""screen_width"":1920,""screen_height"":1080,""scroll_width"":1920,""scroll_height"":959,""window_innerWidth"":1920,""window_innerHeight"":1007,""devicePixelRatio"":1}",,,,,,,,,,,,,,,,,,,,,,,,,,,,,25371.260999999628,,form submission,,,,,,,,,,,,,,,,33977,33976.09999999963,8571.509,8590.400000000373,8604.839,33986.533,{},,
Headphones,html.Page,0_1,2021-12-10T11:49:39.421Z,,,,,,,,,,,,,,,,,,,,,,,,,,,,,,5300.066999999624,,form submission,,,,,,,,,,,,,,,,39286.90000000037,39286.59999999963,33969.868,33977.40000000037,33986.533,39302.177,,,
Holding screen,html.Screen,0_2_0_0,2021-12-10T11:49:49.423Z,,,,,,,,,,,,,,,,,,,,,,,,,,,,,,9999.940999999999,,timeout,,,,,,,,,,,,,,,,49289.40000000037,49285.453,39285.514,39287.40000000037,39302.177,49302.118,,,
screen,html.Screen,0_2_0_1_0,2021-12-10T11:49:50.313Z,,,,,,,,,,,,,,,,53,,,,,,,,,,,,,,875.1820000007428,,response,,,99,,,,,,Space,keypress(Space),,,,,When -- ----- -- ------ - ------- --- ----------<br>------------- ------ ------ ---- ---- ------- ----- -- ----<br>-------- ------- -- ---------- --- - --- ----- ----- ----<br>---- --- --- ----- --- ---- ---- ------- ----- ---- -------<br>--- --- -- ----- -- --- ---- -- --- ---- -- ------ ------<br>--- ----- -- ----,50178.59999999963,50177.300000000745,49285.453,49289.59999999963,49302.118,50185.392,,0,When
screen,html.Screen,0_2_0_1_1,2021-12-10T11:49:50.800Z,,,,,,,,,,,,,,,,53,,,,,,,,,,,,,,479.6080000000002,,response,,,99,,,,,,Space,keypress(Space),,,,,---- it ----- -- ------ - ------- --- ----------<br>------------- ------ ------ ---- ---- ------- ----- -- ----<br>-------- ------- -- ---------- --- - --- ----- ----- ----<br>---- --- --- ----- --- ---- ---- ------- ----- ---- -------<br>--- --- -- ----- -- --- ---- -- --- ---- -- ------ ------<br>--- ----- -- ----,50665.800000000745,50665,50168.727,50178.800000000745,50185.392,50668.574,,1,it
screen,html.Screen,0_2_0_1_2,2021-12-10T11:49:51.280Z,,,,,,,,,,,,,,,,53,,,,,,,,,,,,,,476.4259999999995,,response,,,99,,,,,,Space,keypress(Space),,,,,---- -- comes -- ------ - ------- --- ----------<br>------------- ------ ------ ---- ---- ------- ----- -- ----<br>-------- ------- -- ---------- --- - --- ----- ----- ----<br>---- --- --- ----- --- ---- ---- ------- ----- ---- -------<br>--- --- -- ----- -- --- ---- -- --- ---- -- ------ ------<br>--- ----- -- ----,51145.70000000112,51145,50651.91,50666,50668.574,51152.055,,2,comes
screen,html.Screen,0_2_0_1_3,2021-12-10T11:49:51.720Z,,,,,,,,,,,,,,,,53,,,,,,,,,,,,,,432.9449999999997,,response,,,99,,,,,,Space,keypress(Space),,,,,---- -- ----- to ------ - ------- --- ----------<br>------------- ------ ------ ---- ---- ------- ----- -- ----<br>-------- ------- -- ---------- --- - --- ----- ----- ----<br>---- --- --- ----- --- ---- ---- ------- ----- ---- -------<br>--- --- -- ----- -- --- ---- -- --- ---- -- ------ ------<br>--- ----- -- ----,51585.59999999963,51585,51135.389,51145.90000000037,51152.055,51601.843,,3,to
screen,html.Screen,0_2_0_1_4,2021-12-10T11:49:52.160Z,,,,,,,,,,,,,,,,53,,,,,,,,,,,,,,423.15699999999924,,response,,,99,,,,,,Space,keypress(Space),,,,,---- -- ----- -- having - ------- --- ----------<br>------------- ------ ------ ---- ---- ------- ----- -- ----<br>-------- ------- -- ---------- --- - --- ----- ----- ----<br>---- --- --- ----- --- ---- ---- ------- ----- ---- -------<br>--- --- -- ----- -- --- ---- -- --- ---- -- ------ ------<br>--- ----- -- ----,52025.800000000745,52025,51585.18,51586.09999999963,51601.843,52035.338,,4,having
screen,html.Screen,0_2_0_1_5,2021-12-10T11:49:52.600Z,,,,,,,,,,,,,,,,53,,,,,,,,,,,,,,429.56200000036915,,response,,,99,,,,,,Space,keypress(Space),,,,,---- -- ----- -- ------ a ------- --- ----------<br>------------- ------ ------ ---- ---- ------- ----- -- ----<br>-------- ------- -- ---------- --- - --- ----- ----- ----<br>---- --- --- ----- --- ---- ---- ------- ----- ---- -------<br>--- --- -- ----- -- --- ---- -- --- ---- -- ------ ------<br>--- ----- -- ----,52465.59999999963,52464.90000000037,52018.672,52026,52035.338,52468.587,,5,a
screen,html.Screen,0_2_0_1_6,2021-12-10T11:49:53.112Z,,,,,,,,,,,,,,,,53,,,,,,,,,,,,,,508.2130000007455,,response,,,99,,,,,,Space,keypress(Space),,,,,---- -- ----- -- ------ - lasting --- ----------<br>------------- ------ ------ ---- ---- ------- ----- -- ----<br>-------- ------- -- ---------- --- - --- ----- ----- ----<br>---- --- --- ----- --- ---- ---- ------- ----- ---- -------<br>--- --- -- ----- -- --- ---- -- --- ---- -- ------ ------<br>--- ----- -- ----,52977.5,52976.800000000745,52451.922,52465.90000000037,52468.587,52985.202,,6,lasting
screen,html.Screen,0_2_0_1_7,2021-12-10T11:49:53.664Z,,,,,,,,,,,,,,,,53,,,,,,,,,,,,,,543.698000000375,,response,,,99,,,,,,Space,keypress(Space),,,,,---- -- ----- -- ------ - ------- and ----------<br>------------- ------ ------ ---- ---- ------- ----- -- ----<br>-------- ------- -- ---------- --- - --- ----- ----- ----<br>---- --- --- ----- --- ---- ---- ------- ----- ---- -------<br>--- --- -- ----- -- --- ---- -- --- ---- -- ------ ------<br>--- ----- -- ----,53529.70000000112,53528.90000000037,52968.537,52977.800000000745,52985.202,53535.093,,7,and
screen,html.Screen,0_2_0_1_8,2021-12-10T11:49:54.112Z,,,,,,,,,,,,,,,,53,,,,,,,,,,,,,,441.7070000007443,,response,,,99,,,,,,Space,keypress(Space),,,,,---- -- ----- -- ------ - ------- --- fulfilling<br>------------- ------ ------ ---- ---- ------- ----- -- ----<br>-------- ------- -- ---------- --- - --- ----- ----- ----<br>---- --- --- ----- --- ---- ---- ------- ----- ---- -------<br>--- --- -- ----- -- --- ---- -- --- ---- -- ------ ------<br>--- ----- -- ----,53977.59999999963,53976.800000000745,53518.429,53529.800000000745,53535.093,53985.151,,8,fulfilling
screen,html.Screen,0_2_0_1_9,2021-12-10T11:49:54.544Z,,,,,,,,,,,,,,,,53,,,,,,,,,,,,,,423.54900000111957,,response,,,99,,,,,,Space,keypress(Space),,,,,"---- -- ----- -- ------ - ------- --- ----------<br>relationship, ------ ------ ---- ---- ------- ----- -- ----<br>-------- ------- -- ---------- --- - --- ----- ----- ----<br>---- --- --- ----- --- ---- ---- ------- ----- ---- -------<br>--- --- -- ----- -- --- ---- -- --- ---- -- ------ ------<br>--- ----- -- ----",54409.40000000037,54408.70000000112,53968.486,53977.800000000745,53985.151,54418.447,,9,"relationship,"
screen,html.Screen,0_2_0_1_10,2021-12-10T11:49:55.072Z,,,,,,,,,,,,,,,,53,,,,,,,,,,,,,,518.3530000007449,,response,,,99,,,,,,Space,keypress(Space),,,,,---- -- ----- -- ------ - ------- --- ----------<br>------------- common ------ ---- ---- ------- ----- -- ----<br>-------- ------- -- ---------- --- - --- ----- ----- ----<br>---- --- --- ----- --- ---- ---- ------- ----- ---- -------<br>--- --- -- ----- -- --- ---- -- --- ---- -- ------ ------<br>--- ----- -- ----,54937.40000000037,54936.800000000745,54401.782,54409.59999999963,54418.447,54951.731,,10,common
screen,html.Screen,0_2_0_1_11,2021-12-10T11:49:55.688Z,,,,,,,,,,,,,,,,53,,,,,,,,,,,,,,600.9690000011178,,response,,,99,,,,,,Space,keypress(Space),,,,,---- -- ----- -- ------ - ------- --- ----------<br>------------- ------ wisdom ---- ---- ------- ----- -- ----<br>-------- ------- -- ---------- --- - --- ----- ----- ----<br>---- --- --- ----- --- ---- ---- ------- ----- ---- -------<br>--- --- -- ----- -- --- ---- -- --- ---- -- ------ ------<br>--- ----- -- ----,55553.40000000037,55552.70000000112,54935.066,54937.59999999963,54951.731,55568.275,,11,wisdom
screen,html.Screen,0_2_0_1_12,2021-12-10T11:49:56.183Z,,,,,,,,,,,,,,,,53,,,,,,,,,,,,,,480.42500000111613,,response,,,99,,,,,,Space,keypress(Space),,,,,---- -- ----- -- ------ - ------- --- ----------<br>------------- ------ ------ says ---- ------- ----- -- ----<br>-------- ------- -- ---------- --- - --- ----- ----- ----<br>---- --- --- ----- --- ---- ---- ------- ----- ---- -------<br>--- --- -- ----- -- --- ---- -- --- ---- -- ------ ------<br>--- ----- -- ----,56049.20000000112,56048.70000000112,55551.611,55553.59999999963,55568.275,56051.543,,12,says
screen,html.Screen,0_2_0_1_13,2021-12-10T11:49:56.647Z,,,,,,,,,,,,,,,,53,,,,,,,,,,,,,,461.0569999996296,,response,,,99,,,,,,Space,keypress(Space),,,,,---- -- ----- -- ------ - ------- --- ----------<br>------------- ------ ------ ---- that ------- ----- -- ----<br>-------- ------- -- ---------- --- - --- ----- ----- ----<br>---- --- --- ----- --- ---- ---- ------- ----- ---- -------<br>--- --- -- ----- -- --- ---- -- --- ---- -- ------ ------<br>--- ----- -- ----,56513.300000000745,56512.59999999963,56034.879,56049.5,56051.543,56518.324,,13,that
screen,html.Screen,0_2_0_1_14,2021-12-10T11:49:57.143Z,,,,,,,,,,,,,,,,53,,,,,,,,,,,,,,490.27599999962695,,response,,,99,,,,,,Space,keypress(Space),,,,,---- -- ----- -- ------ - ------- --- ----------<br>------------- ------ ------ ---- ---- feeling ----- -- ----<br>-------- ------- -- ---------- --- - --- ----- ----- ----<br>---- --- --- ----- --- ---- ---- ------- ----- ---- -------<br>--- --- -- ----- -- --- ---- -- --- ---- -- ------ ------<br>--- ----- -- ----,57009.20000000112,57008.59999999963,56501.658,56513.59999999963,56518.324,57018.315,,14,feeling
screen,html.Screen,0_2_0_1_15,2021-12-10T11:49:57.615Z,,,,,,,,,,,,,,,,53,,,,,,,,,,,,,,462.1849999999977,,response,,,99,,,,,,Space,keypress(Space),,,,,---- -- ----- -- ------ - ------- --- ----------<br>------------- ------ ------ ---- ---- ------- close -- ----<br>-------- ------- -- ---------- --- - --- ----- ----- ----<br>---- --- --- ----- --- ---- ---- ------- ----- ---- -------<br>--- --- -- ----- -- --- ---- -- --- ---- -- ------ ------<br>--- ----- -- ----,57481.20000000112,57480.5,57001.649,57009.300000000745,57018.315,57484.814,,15,close
screen,html.Screen,0_2_0_1_16,2021-12-10T11:49:58.335Z,,,,,,,,,,,,,,,,53,,,,,,,,,,,,,,715.6860000000015,,response,,,99,,,,,,Space,keypress(Space),,,,,---- -- ----- -- ------ - ------- --- ----------<br>------------- ------ ------ ---- ---- ------- ----- to ----<br>-------- ------- -- ---------- --- - --- ----- ----- ----<br>---- --- --- ----- --- ---- ---- ------- ----- ---- -------<br>--- --- -- ----- -- --- ---- -- --- ---- -- ------ ------<br>--- ----- -- ----,58201.09999999963,58200.5,57468.15,57481.40000000037,57484.814,58218.142,,16,to
screen,html.Screen,0_2_0_1_17,2021-12-10T11:49:58.727Z,,,,,,,,,,,,,,,,53,,,,,,,,,,,,,,374.3580000000002,,response,,,99,,,,,,Space,keypress(Space),,,,,---- -- ----- -- ------ - ------- --- ----------<br>------------- ------ ------ ---- ---- ------- ----- -- your<br>-------- ------- -- ---------- --- - --- ----- ----- ----<br>---- --- --- ----- --- ---- ---- ------- ----- ---- -------<br>--- --- -- ----- -- --- ---- -- --- ---- -- ------ ------<br>--- ----- -- ----,58593,58592.5,58201.477,58201.300000000745,58218.142,58601.498,,17,your
screen,html.Screen,0_2_0_1_18,2021-12-10T11:49:59.119Z,,,,,,,,,,,,,,,,53,,,,,,,,,,,,,,382.90200000037294,,response,,,99,,,,,,Space,keypress(Space),,,,,---- -- ----- -- ------ - ------- --- ----------<br>------------- ------ ------ ---- ---- ------- ----- -- ----<br>romantic ------- -- ---------- --- - --- ----- ----- ----<br>---- --- --- ----- --- ---- ---- ------- ----- ---- -------<br>--- --- -- ----- -- --- ---- -- --- ---- -- ------ ------<br>--- ----- -- ----,58985,58984.40000000037,58584.833,58593.20000000112,58601.498,59001.465,,18,romantic
screen,html.Screen,0_2_0_1_19,2021-12-10T11:49:59.495Z,,,,,,,,,,,,,,,,53,,,,,,,,,,,,,,358.935000000376,,response,,,99,,,,,,Space,keypress(Space),,,,,---- -- ----- -- ------ - ------- --- ----------<br>------------- ------ ------ ---- ---- ------- ----- -- ----<br>-------- partner -- ---------- --- - --- ----- ----- ----<br>---- --- --- ----- --- ---- ---- ------- ----- ---- -------<br>--- --- -- ----- -- --- ---- -- --- ---- -- ------ ------<br>--- ----- -- ----,59360.90000000037,59360.40000000037,58984.8,58985.20000000112,59001.465,59368.098,,19,partner
screen,html.Screen,0_2_0_1_20,2021-12-10T11:49:59.903Z,,,,,,,,,,,,,,,,53,,,,,,,,,,,,,,400.3020000003744,,response,,,99,,,,,,Space,keypress(Space),,,,,---- -- ----- -- ------ - ------- --- ----------<br>------------- ------ ------ ---- ---- ------- ----- -- ----<br>-------- ------- is ---------- --- - --- ----- ----- ----<br>---- --- --- ----- --- ---- ---- ------- ----- ---- -------<br>--- --- -- ----- -- --- ---- -- --- ---- -- ------ ------<br>--- ----- -- ----,59768.90000000037,59768.40000000037,59351.433,59361.09999999963,59368.098,59784.68,,20,is
screen,html.Screen,0_2_0_1_21,2021-12-10T11:50:00.332Z,,,,,,,,,,,,,,,,53,,,,,,,,,,,,,,407.9199999996272,,response,,,99,,,,,,Space,keypress(Space),,,,,---- -- ----- -- ------ - ------- --- ----------<br>------------- ------ ------ ---- ---- ------- ----- -- ----<br>-------- ------- -- paramount. --- - --- ----- ----- ----<br>---- --- --- ----- --- ---- ---- ------- ----- ---- -------<br>--- --- -- ----- -- --- ---- -- --- ---- -- ------ ------<br>--- ----- -- ----,60193.20000000112,60192.59999999963,59768.016,59769.09999999963,59784.68,60201.314,,21,paramount.
screen,html.Screen,0_2_0_1_22,2021-12-10T11:50:00.868Z,,,,,,,,,,,,,,,,53,,,,,,,,,,,,,,527.086000000374,,response,,,99,,,,,,Space,keypress(Space),,,,,---- -- ----- -- ------ - ------- --- ----------<br>------------- ------ ------ ---- ---- ------- ----- -- ----<br>-------- ------- -- ---------- But - --- ----- ----- ----<br>---- --- --- ----- --- ---- ---- ------- ----- ---- -------<br>--- --- -- ----- -- --- ---- -- --- ---- -- ------ ------<br>--- ----- -- ----,60729,60728.40000000037,60184.65,60193.5,60201.314,60734.639,,22,But
screen,html.Screen,0_2_0_1_23,2021-12-10T11:50:01.203Z,,,,,,,,,,,,,,,,53,,,,,,,,,,,,,,329.6610000007422,,response,,,99,,,,,,Space,keypress(Space),,,,,---- -- ----- -- ------ - ------- --- ----------<br>------------- ------ ------ ---- ---- ------- ----- -- ----<br>-------- ------- -- ---------- --- a --- ----- ----- ----<br>---- --- --- ----- --- ---- ---- ------- ----- ---- -------<br>--- --- -- ----- -- --- ---- -- --- ---- -- ------ ------<br>--- ----- -- ----,61064.90000000037,61064.300000000745,60717.974,60729.20000000112,60734.639,61068.027,,23,a
screen,html.Screen,0_2_0_1_24,2021-12-10T11:50:01.547Z,,,,,,,,,,,,,,,,53,,,,,,,,,,,,,,340.1730000011157,,response,,,99,,,,,,Space,keypress(Space),,,,,---- -- ----- -- ------ - ------- --- ----------<br>------------- ------ ------ ---- ---- ------- ----- -- ----<br>-------- ------- -- ---------- --- - new ----- ----- ----<br>---- --- --- ----- --- ---- ---- ------- ----- ---- -------<br>--- --- -- ----- -- --- ---- -- --- ---- -- ------ ------<br>--- ----- -- ----,61408.90000000037,61408.20000000112,61051.361,61065.09999999963,61068.027,61417.898,,24,new
screen,html.Screen,0_2_0_1_25,2021-12-10T11:50:01.915Z,,,,,,,,,,,,,,,,53,,,,,,,,,,,,,,358.30200000111654,,response,,,99,,,,,,Space,keypress(Space),,,,,---- -- ----- -- ------ - ------- --- ----------<br>------------- ------ ------ ---- ---- ------- ----- -- ----<br>-------- ------- -- ---------- --- - --- study ----- ----<br>---- --- --- ----- --- ---- ---- ------- ----- ---- -------<br>--- --- -- ----- -- --- ---- -- --- ---- -- ------ ------<br>--- ----- -- ----,61776.800000000745,61776.20000000112,61401.234,61409.09999999963,61417.898,61784.579,,25,study
screen,html.Screen,0_2_0_1_26,2021-12-10T11:50:02.259Z,,,,,,,,,,,,,,,,53,,,,,,,,,,,,,,335.6210000011197,,response,,,99,,,,,,Space,keypress(Space),,,,,---- -- ----- -- ------ - ------- --- ----------<br>------------- ------ ------ ---- ---- ------- ----- -- ----<br>-------- ------- -- ---------- --- - --- ----- finds ----<br>---- --- --- ----- --- ---- ---- ------- ----- ---- -------<br>--- --- -- ----- -- --- ---- -- --- ---- -- ------ ------<br>--- ----- -- ----,62120.800000000745,62120.20000000112,61767.914,61777,61784.579,62134.546,,26,finds
screen,html.Screen,0_2_0_1_27,2021-12-10T11:50:02.563Z,,,,,,,,,,,,,,,,53,,,,,,,,,,,,,,289.6540000011155,,response,,,99,,,,,,Space,keypress(Space),,,,,---- -- ----- -- ------ - ------- --- ----------<br>------------- ------ ------ ---- ---- ------- ----- -- ----<br>-------- ------- -- ---------- --- - --- ----- ----- that<br>---- --- --- ----- --- ---- ---- ------- ----- ---- -------<br>--- --- -- ----- -- --- ---- -- --- ---- -- ------ ------<br>--- ----- -- ----,62424.70000000112,62424.20000000112,62117.881,62121,62134.546,62434.607,,27,that
screen,html.Screen,0_2_0_1_28,2021-12-10T11:50:02.859Z,,,,,,,,,,,,,,,,53,,,,,,,,,,,,,,285.593000001114,,response,,,99,,,,,,Space,keypress(Space),,,,,---- -- ----- -- ------ - ------- --- ----------<br>------------- ------ ------ ---- ---- ------- ----- -- ----<br>-------- ------- -- ---------- --- - --- ----- ----- ----<br>it's --- --- ----- --- ---- ---- ------- ----- ---- -------<br>--- --- -- ----- -- --- ---- -- --- ---- -- ------ ------<br>--- ----- -- ----,62720.70000000112,62720.20000000112,62417.941,62425,62434.607,62734.5,,28,it's
screen,html.Screen,0_2_0_1_29,2021-12-10T11:50:03.251Z,,,,,,,,,,,,,,,,53,,,,,,,,,,,,,,377.59999999962747,,response,,,99,,,,,,Space,keypress(Space),,,,,---- -- ----- -- ------ - ------- --- ----------<br>------------- ------ ------ ---- ---- ------- ----- -- ----<br>-------- ------- -- ---------- --- - --- ----- ----- ----<br>---- not --- ----- --- ---- ---- ------- ----- ---- -------<br>--- --- -- ----- -- --- ---- -- --- ---- -- ------ ------<br>--- ----- -- ----,63112.70000000112,63112.09999999963,62717.836,62720.90000000037,62734.5,63117.849,,29,not
screen,html.Screen,0_2_0_1_30,2021-12-10T11:50:03.643Z,,,,,,,,,,,,,,,,53,,,,,,,,,,,,,,386.3510000011156,,response,,,99,,,,,,Space,keypress(Space),,,,,---- -- ----- -- ------ - ------- --- ----------<br>------------- ------ ------ ---- ---- ------- ----- -- ----<br>-------- ------- -- ---------- --- - --- ----- ----- ----<br>---- --- how ----- --- ---- ---- ------- ----- ---- -------<br>--- --- -- ----- -- --- ---- -- --- ---- -- ------ ------<br>--- ----- -- ----,63504.800000000745,63504.20000000112,63101.184,63112.90000000037,63117.849,63517.771,,30,how
screen,html.Screen,0_2_0_1_31,2021-12-10T11:50:04.043Z,,,,,,,,,,,,,,,,53,,,,,,,,,,,,,,386.32899999962683,,response,,,99,,,,,,Space,keypress(Space),,,,,---- -- ----- -- ------ - ------- --- ----------<br>------------- ------ ------ ---- ---- ------- ----- -- ----<br>-------- ------- -- ---------- --- - --- ----- ----- ----<br>---- --- --- close --- ---- ---- ------- ----- ---- -------<br>--- --- -- ----- -- --- ---- -- --- ---- -- ------ ------<br>--- ----- -- ----,63904.70000000112,63904.09999999963,63501.107,63505,63517.771,63917.716,,31,close
screen,html.Screen,0_2_0_1_32,2021-12-10T11:50:04.339Z,,,,,,,,,,,,,,,,53,,,,,,,,,,,,,,282.3839999996271,,response,,,99,,,,,,Space,keypress(Space),,,,,---- -- ----- -- ------ - ------- --- ----------<br>------------- ------ ------ ---- ---- ------- ----- -- ----<br>-------- ------- -- ---------- --- - --- ----- ----- ----<br>---- --- --- ----- you ---- ---- ------- ----- ---- -------<br>--- --- -- ----- -- --- ---- -- --- ---- -- ------ ------<br>--- ----- -- ----,64200.59999999963,64200.09999999963,63901.052,63904.800000000745,63917.716,64201.064,,32,you
screen,html.Screen,0_2_0_1_33,2021-12-10T11:50:04.619Z,,,,,,,,,,,,,,,,53,,,,,,,,,,,,,,278.9360000000015,,response,,,99,,,,,,Space,keypress(Space),,,,,---- -- ----- -- ------ - ------- --- ----------<br>------------- ------ ------ ---- ---- ------- ----- -- ----<br>-------- ------- -- ---------- --- - --- ----- ----- ----<br>---- --- --- ----- --- feel ---- ------- ----- ---- -------<br>--- --- -- ----- -- --- ---- -- --- ---- -- ------ ------<br>--- ----- -- ----,64480.5,64480,64184.399,64200.70000000112,64201.064,64484.347,,33,feel
screen,html.Screen,0_2_0_1_34,2021-12-10T11:50:04.963Z,,,,,,,,,,,,,,,,53,,,,,,,,,,,,,,339.6529999999984,,response,,,99,,,,,,Space,keypress(Space),,,,,---- -- ----- -- ------ - ------- --- ----------<br>------------- ------ ------ ---- ---- ------- ----- -- ----<br>-------- ------- -- ---------- --- - --- ----- ----- ----<br>---- --- --- ----- --- ---- that ------- ----- ---- -------<br>--- --- -- ----- -- --- ---- -- --- ---- -- ------ ------<br>--- ----- -- ----,64824.59999999963,64824,64467.683,64480.70000000112,64484.347,64834.391,,34,that
screen,html.Screen,0_2_0_1_35,2021-12-10T11:50:05.347Z,,,,,,,,,,,,,,,,53,,,,,,,,,,,,,,373.60899999999674,,response,,,99,,,,,,Space,keypress(Space),,,,,---- -- ----- -- ------ - ------- --- ----------<br>------------- ------ ------ ---- ---- ------- ----- -- ----<br>-------- ------- -- ---------- --- - --- ----- ----- ----<br>---- --- --- ----- --- ---- ---- matters ----- ---- -------<br>--- --- -- ----- -- --- ---- -- --- ---- -- ------ ------<br>--- ----- -- ----,65208.59999999963,65208,64817.725,64824.90000000037,64834.391,65217.661,,35,matters
screen,html.Screen,0_2_0_1_36,2021-12-10T11:50:05.731Z,,,,,,,,,,,,,,,,53,,,,,,,,,,,,,,374.33899999999994,,response,,,99,,,,,,Space,keypress(Space),,,,,"---- -- ----- -- ------ - ------- --- ----------<br>------------- ------ ------ ---- ---- ------- ----- -- ----<br>-------- ------- -- ---------- --- - --- ----- ----- ----<br>---- --- --- ----- --- ---- ---- ------- most, ---- -------<br>--- --- -- ----- -- --- ---- -- --- ---- -- ------ ------<br>--- ----- -- ----",65592.59999999963,65592,65200.996,65208.800000000745,65217.661,65600.989,,36,"most,"
screen,html.Screen,0_2_0_1_37,2021-12-10T11:50:06.091Z,,,,,,,,,,,,,,,,53,,,,,,,,,,,,,,351.0109999999986,,response,,,99,,,,,,Space,keypress(Space),,,,,---- -- ----- -- ------ - ------- --- ----------<br>------------- ------ ------ ---- ---- ------- ----- -- ----<br>-------- ------- -- ---------- --- - --- ----- ----- ----<br>---- --- --- ----- --- ---- ---- ------- ----- it's -------<br>--- --- -- ----- -- --- ---- -- --- ---- -- ------ ------<br>--- ----- -- ----,65952.59999999963,65952,65584.324,65592.80000000075,65600.989,65967.505,,37,it's
screen,html.Screen,0_2_0_1_38,2021-12-10T11:50:06.427Z,,,,,,,,,,,,,,,,53,,,,,,,,,,,,,,320.2950000007404,,response,,,99,,,,,,Space,keypress(Space),,,,,---- -- ----- -- ------ - ------- --- ----------<br>------------- ------ ------ ---- ---- ------- ----- -- ----<br>-------- ------- -- ---------- --- - --- ----- ----- ----<br>---- --- --- ----- --- ---- ---- ------- ----- ---- whether<br>--- --- -- ----- -- --- ---- -- --- ---- -- ------ ------<br>--- ----- -- ----,66288.59999999963,66287.80000000075,65950.842,65952.80000000075,65967.505,66301.022,,38,whether
screen,html.Screen,0_2_0_1_39,2021-12-10T11:50:06.795Z,,,,,,,,,,,,,,,,53,,,,,,,,,,,,,,354.8780000003753,,response,,,99,,,,,,Space,keypress(Space),,,,,---- -- ----- -- ------ - ------- --- ----------<br>------------- ------ ------ ---- ---- ------- ----- -- ----<br>-------- ------- -- ---------- --- - --- ----- ----- ----<br>---- --- --- ----- --- ---- ---- ------- ----- ---- -------<br>you --- -- ----- -- --- ---- -- --- ---- -- ------ ------<br>--- ----- -- ----,66656.40000000037,66655.90000000037,66284.355,66288.70000000112,66301.022,66667.471,,39,you
screen,html.Screen,0_2_0_1_40,2021-12-10T11:50:07.107Z,,,,,,,,,,,,,,,,53,,,,,,,,,,,,,,300.4290000003675,,response,,,99,,,,,,Space,keypress(Space),,,,,---- -- ----- -- ------ - ------- --- ----------<br>------------- ------ ------ ---- ---- ------- ----- -- ----<br>-------- ------- -- ---------- --- - --- ----- ----- ----<br>---- --- --- ----- --- ---- ---- ------- ----- ---- -------<br>--- are -- ----- -- --- ---- -- --- ---- -- ------ ------<br>--- ----- -- ----,66968.5,66967.90000000037,66650.808,66656.59999999963,66667.471,66984.299,,40,are
screen,html.Screen,0_2_0_1_41,2021-12-10T11:50:07.379Z,,,,,,,,,,,,,,,,53,,,,,,,,,,,,,,255.501000000746,,response,,,99,,,,,,Space,keypress(Space),,,,,---- -- ----- -- ------ - ------- --- ----------<br>------------- ------ ------ ---- ---- ------- ----- -- ----<br>-------- ------- -- ---------- --- - --- ----- ----- ----<br>---- --- --- ----- --- ---- ---- ------- ----- ---- -------<br>--- --- as ----- -- --- ---- -- --- ---- -- ------ ------<br>--- ----- -- ----,67240.40000000037,67239.80000000075,66967.632,66968.70000000112,66984.299,67250.832,,41,as
screen,html.Screen,0_2_0_1_42,2021-12-10T11:50:07.659Z,,,,,,,,,,,,,,,,53,,,,,,,,,,,,,,268.9680000007502,,response,,,99,,,,,,Space,keypress(Space),,,,,---- -- ----- -- ------ - ------- --- ----------<br>------------- ------ ------ ---- ---- ------- ----- -- ----<br>-------- ------- -- ---------- --- - --- ----- ----- ----<br>---- --- --- ----- --- ---- ---- ------- ----- ---- -------<br>--- --- -- close -- --- ---- -- --- ---- -- ------ ------<br>--- ----- -- ----,67520.40000000037,67519.80000000075,67234.168,67240.59999999963,67250.832,67534.217,,42,close
screen,html.Screen,0_2_0_1_43,2021-12-10T11:50:08.003Z,,,,,,,,,,,,,,,,53,,,,,,,,,,,,,,329.4830000011134,,response,,,99,,,,,,Space,keypress(Space),,,,,---- -- ----- -- ------ - ------- --- ----------<br>------------- ------ ------ ---- ---- ------- ----- -- ----<br>-------- ------- -- ---------- --- - --- ----- ----- ----<br>---- --- --- ----- --- ---- ---- ------- ----- ---- -------<br>--- --- -- ----- as --- ---- -- --- ---- -- ------ ------<br>--- ----- -- ----,67864.30000000075,67863.70000000112,67517.551,67520.59999999963,67534.217,67867.496,,43,as
screen,html.Screen,0_2_0_1_44,2021-12-10T11:50:08.347Z,,,,,,,,,,,,,,,,53,,,,,,,,,,,,,,340.2040000011184,,response,,,99,,,,,,Space,keypress(Space),,,,,---- -- ----- -- ------ - ------- --- ----------<br>------------- ------ ------ ---- ---- ------- ----- -- ----<br>-------- ------- -- ---------- --- - --- ----- ----- ----<br>---- --- --- ----- --- ---- ---- ------- ----- ---- -------<br>--- --- -- ----- -- you ---- -- --- ---- -- ------ ------<br>--- ----- -- ----,68208.40000000037,68207.70000000112,67850.831,67864.5,67867.496,68217.469,,44,you
screen,html.Screen,0_2_0_1_45,2021-12-10T11:50:08.643Z,,,,,,,,,,,,,,,,53,,,,,,,,,,,,,,286.23100000112026,,response,,,99,,,,,,Space,keypress(Space),,,,,---- -- ----- -- ------ - ------- --- ----------<br>------------- ------ ------ ---- ---- ------- ----- -- ----<br>-------- ------- -- ---------- --- - --- ----- ----- ----<br>---- --- --- ----- --- ---- ---- ------- ----- ---- -------<br>--- --- -- ----- -- --- want -- --- ---- -- ------ ------<br>--- ----- -- ----,68504.40000000037,68503.70000000112,68200.804,68208.59999999963,68217.469,68517.458,,45,want
screen,html.Screen,0_2_0_1_46,2021-12-10T11:50:08.939Z,,,,,,,,,,,,,,,,53,,,,,,,,,,,,,,282.24200000111887,,response,,,99,,,,,,Space,keypress(Space),,,,,---- -- ----- -- ------ - ------- --- ----------<br>------------- ------ ------ ---- ---- ------- ----- -- ----<br>-------- ------- -- ---------- --- - --- ----- ----- ----<br>---- --- --- ----- --- ---- ---- ------- ----- ---- -------<br>--- --- -- ----- -- --- ---- to --- ---- -- ------ ------<br>--- ----- -- ----,68800.30000000075,68799.70000000112,68500.793,68504.5,68517.458,68817.379,,46,to
screen,html.Screen,0_2_0_1_47,2021-12-10T11:50:09.219Z,,,,,,,,,,,,,,,,53,,,,,,,,,,,,,,262.3210000011168,,response,,,99,,,,,,Space,keypress(Space),,,,,"---- -- ----- -- ------ - ------- --- ----------<br>------------- ------ ------ ---- ---- ------- ----- -- ----<br>-------- ------- -- ---------- --- - --- ----- ----- ----<br>---- --- --- ----- --- ---- ---- ------- ----- ---- -------<br>--- --- -- ----- -- --- ---- -- be, ---- -- ------ ------<br>--- ----- -- ----",69080.20000000112,69079.70000000112,68800.715,68800.40000000037,68817.379,69084.061,,47,"be,"
screen,html.Screen,0_2_0_1_48,2021-12-10T11:50:09.555Z,,,,,,,,,,,,,,,,53,,,,,,,,,,,,,,331.6390000011161,,response,,,99,,,,,,Space,keypress(Space),,,,,---- -- ----- -- ------ - ------- --- ----------<br>------------- ------ ------ ---- ---- ------- ----- -- ----<br>-------- ------- -- ---------- --- - --- ----- ----- ----<br>---- --- --- ----- --- ---- ---- ------- ----- ---- -------<br>--- --- -- ----- -- --- ---- -- --- even -- ------ ------<br>--- ----- -- ----,69416.30000000075,69415.70000000112,69067.396,69080.40000000037,69084.061,69417.426,,48,even
screen,html.Screen,0_2_0_1_49,2021-12-10T11:50:09.899Z,,,,,,,,,,,,,,,,53,,,,,,,,,,,,,,342.27400000111084,,response,,,99,,,,,,Space,keypress(Space),,,,,---- -- ----- -- ------ - ------- --- ----------<br>------------- ------ ------ ---- ---- ------- ----- -- ----<br>-------- ------- -- ---------- --- - --- ----- ----- ----<br>---- --- --- ----- --- ---- ---- ------- ----- ---- -------<br>--- --- -- ----- -- --- ---- -- --- ---- if ------ ------<br>--- ----- -- ----,69760.20000000112,69759.70000000112,69400.76,69416.40000000037,69417.426,69767.361,,49,if
screen,html.Screen,0_2_0_1_50,2021-12-10T11:50:10.251Z,,,,,,,,,,,,,,,,53,,,,,,,,,,,,,,344.33900000111316,,response,,,99,,,,,,Space,keypress(Space),,,,,---- -- ----- -- ------ - ------- --- ----------<br>------------- ------ ------ ---- ---- ------- ----- -- ----<br>-------- ------- -- ---------- --- - --- ----- ----- ----<br>---- --- --- ----- --- ---- ---- ------- ----- ---- -------<br>--- --- -- ----- -- --- ---- -- --- ---- -- that's ------<br>--- ----- -- ----,70112.20000000112,70111.70000000112,69750.696,69760.40000000037,69767.361,70117.286,,50,that's
screen,html.Screen,0_2_0_1_51,2021-12-10T11:50:10.579Z,,,,,,,,,,,,,,,,53,,,,,,,,,,,,,,322.61400000037975,,response,,,99,,,,,,Space,keypress(Space),,,,,---- -- ----- -- ------ - ------- --- ----------<br>------------- ------ ------ ---- ---- ------- ----- -- ----<br>-------- ------- -- ---------- --- - --- ----- ----- ----<br>---- --- --- ----- --- ---- ---- ------- ----- ---- -------<br>--- --- -- ----- -- --- ---- -- --- ---- -- ------ really<br>--- ----- -- ----,70440.40000000037,70439.90000000037,70100.622,70112.40000000037,70117.286,70450.629,,51,really
screen,html.Screen,0_2_0_1_52,2021-12-10T11:50:10.915Z,,,,,,,,,,,,,,,,53,,,,,,,,,,,,,,324.97099999962666,,response,,,99,,,,,,Space,keypress(Space),,,,,---- -- ----- -- ------ - ------- --- ----------<br>------------- ------ ------ ---- ---- ------- ----- -- ----<br>-------- ------- -- ---------- --- - --- ----- ----- ----<br>---- --- --- ----- --- ---- ---- ------- ----- ---- -------<br>--- --- -- ----- -- --- ---- -- --- ---- -- ------ ------<br>not ----- -- ----,70776.20000000112,70775.59999999963,70433.964,70440.5,70450.629,70783.939,,52,not
screen,html.Screen,0_2_0_1_53,2021-12-10T11:50:11.219Z,,,,,,,,,,,,,,,,53,,,,,,,,,,,,,,295.660999999629,,response,,,99,,,,,,Space,keypress(Space),,,,,---- -- ----- -- ------ - ------- --- ----------<br>------------- ------ ------ ---- ---- ------- ----- -- ----<br>-------- ------- -- ---------- --- - --- ----- ----- ----<br>---- --- --- ----- --- ---- ---- ------- ----- ---- -------<br>--- --- -- ----- -- --- ---- -- --- ---- -- ------ ------<br>--- close -- ----,71080.20000000112,71079.59999999963,70767.274,70776.30000000075,70783.939,71083.834,,53,close
screen,html.Screen,0_2_0_1_54,2021-12-10T11:50:11.515Z,,,,,,,,,,,,,,,,53,,,,,,,,,,,,,,291.66599999999744,,response,,,99,,,,,,Space,keypress(Space),,,,,---- -- ----- -- ------ - ------- --- ----------<br>------------- ------ ------ ---- ---- ------- ----- -- ----<br>-------- ------- -- ---------- --- - --- ----- ----- ----<br>---- --- --- ----- --- ---- ---- ------- ----- ---- -------<br>--- --- -- ----- -- --- ---- -- --- ---- -- ------ ------<br>--- ----- at ----,71376.20000000112,71375.5,71067.171,71080.30000000075,71083.834,71383.985,,54,at
screen,html.Screen,0_2_0_1_55,2021-12-10T11:50:11.971Z,,,,,,,,,,,,,,,,53,,,,,,,,,,,,,,447.5149999999994,,response,,,99,,,,,,Space,keypress(Space),,,,,---- -- ----- -- ------ - ------- --- ----------<br>------------- ------ ------ ---- ---- ------- ----- -- ----<br>-------- ------- -- ---------- --- - --- ----- ----- ----<br>---- --- --- ----- --- ---- ---- ------- ----- ---- -------<br>--- --- -- ----- -- --- ---- -- --- ---- -- ------ ------<br>--- ----- -- all.,71832,71831.5,71367.318,71376.30000000075,71383.985,71850.55,,55,all.
Item 99,flow.Loop,0_2_0_1,2021-12-10T11:50:11.973Z,,,,,,,,,,,,,,,,,,,,,,,,,,,,,,22529.381999999998,,completion,,,,C,,,,,,,,,,silence,,71834.90000000037,71831.5,49285.453,49289.5,49302.118,71850.55,,,
Question 1,html.Screen,0_2_0_2,2021-12-10T11:50:20.112Z,,,,,,,,,,,,,,,,,,,,,,,,,,,true,FALSE,,8122.049999999625,,response,,,99,C,,,,,FALSE,click #choice-2,,,,silence,,79973.59999999963,79972.59999999963,71833.885,71835.09999999963,71850.55,79983.292,,,
Question 2,html.Screen,0_2_0_3,2021-12-10T11:50:26.033Z,,,,,,,,,,,,,,,,,,,,,,,,,,,false,TRUE,,5909.908000001116,,response,,,99,C,,,,,FALSE,click #choice-2,,,,silence,,85894.09999999963,85893.20000000112,79966.627,79973.80000000075,79983.292,85899.549,,,
Item 99,flow.Sequence,0_2_0,2021-12-10T11:50:26.033Z,,,,,,,,,,,,,,,,,,,,,,,,,,,,,,46591.023000001114,,completion,,,,,,,,,,,,,,,,85894.40000000037,85893.20000000112,39285.514,39287.300000000745,39302.177,85899.549,,,
Holding screen,html.Screen,0_2_1_0,2021-12-10T11:50:36.022Z,,,,,,,,,,,,,,,,,,,,,,,,,,,,,,9999.187000000005,,timeout,,,,,,,,,,,,,,,,95883.40000000037,95882.072,85882.884,85894.59999999963,85899.549,95898.736,,,
screen,html.Screen,0_2_1_1_0,2021-12-10T11:50:36.745Z,,,,,,,,,,,,,,,,54,,,,,,,,,,,,,,707.363999999623,,response,,,100,,,,,,Space,keypress(Space),,,,,At --- ---- --- ------ ----- ------- ---- -- --- ------- --<br>------- ---------- ------ -- ----- -- ----- -- ---- ------<br>--- ----- --- --- ------ -------- ----- --- ------ ----- --<br>----- ----- ---------- --- --- ------ ------ ---- -- ------<br>------- --- ------ ----- --- ---- ------- -- ---- --- --<br>------- ------,96606.80000000075,96606.09999999963,95882.072,95883.70000000112,95898.736,96615.466,,0,At
screen,html.Screen,0_2_1_1_1,2021-12-10T11:50:37.089Z,,,,,,,,,,,,,,,,54,,,,,,,,,,,,,,334.23400000111724,,response,,,100,,,,,,Space,keypress(Space),,,,,-- the ---- --- ------ ----- ------- ---- -- --- ------- --<br>------- ---------- ------ -- ----- -- ----- -- ---- ------<br>--- ----- --- --- ------ -------- ----- --- ------ ----- --<br>----- ----- ---------- --- --- ------ ------ ---- -- ------<br>------- --- ------ ----- --- ---- ------- -- ---- --- --<br>------- ------,96950.30000000075,96949.70000000112,96598.801,96607,96615.466,96965.441,,1,the
screen,html.Screen,0_2_1_1_2,2021-12-10T11:50:37.433Z,,,,,,,,,,,,,,,,54,,,,,,,,,,,,,,328.2590000011114,,response,,,100,,,,,,Space,keypress(Space),,,,,-- --- time --- ------ ----- ------- ---- -- --- ------- --<br>------- ---------- ------ -- ----- -- ----- -- ---- ------<br>--- ----- --- --- ------ -------- ----- --- ------ ----- --<br>----- ----- ---------- --- --- ------ ------ ---- -- ------<br>------- --- ------ ----- --- ---- ------- -- ---- --- --<br>------- ------,97294.20000000112,97293.70000000112,96948.776,96950.40000000037,96965.441,97298.711,,2,time
screen,html.Screen,0_2_1_1_3,2021-12-10T11:50:37.785Z,,,,,,,,,,,,,,,,54,,,,,,,,,,,,,,346.9890000011219,,response,,,100,,,,,,Space,keypress(Space),,,,,-- --- ---- the ------ ----- ------- ---- -- --- ------- --<br>------- ---------- ------ -- ----- -- ----- -- ---- ------<br>--- ----- --- --- ------ -------- ----- --- ------ ----- --<br>----- ----- ---------- --- --- ------ ------ ---- -- ------<br>------- --- ------ ----- --- ---- ------- -- ---- --- --<br>------- ------,97646.30000000075,97645.70000000112,97282.047,97294.5,97298.711,97648.654,,3,the
screen,html.Screen,0_2_1_1_4,2021-12-10T11:50:38.185Z,,,,,,,,,,,,,,,,54,,,,,,,,,,,,,,396.9459999996325,,response,,,100,,,,,,Space,keypress(Space),,,,,-- --- ---- --- French ----- ------- ---- -- --- ------- --<br>------- ---------- ------ -- ----- -- ----- -- ---- ------<br>--- ----- --- --- ------ -------- ----- --- ------ ----- --<br>----- ----- ---------- --- --- ------ ------ ---- -- ------<br>------- --- ------ ----- --- ---- ------- -- ---- --- --<br>------- ------,98046.20000000112,98045.59999999963,97631.99,97646.5,97648.654,98048.743,,4,French
screen,html.Screen,0_2_1_1_5,2021-12-10T11:50:38.577Z,,,,,,,,,,,,,,,,54,,,,,,,,,,,,,,388.9570000011154,,response,,,100,,,,,,Space,keypress(Space),,,,,-- --- ---- --- ------ crown ------- ---- -- --- ------- --<br>------- ---------- ------ -- ----- -- ----- -- ---- ------<br>--- ----- --- --- ------ -------- ----- --- ------ ----- --<br>----- ----- ---------- --- --- ------ ------ ---- -- ------<br>------- --- ------ ----- --- ---- ------- -- ---- --- --<br>------- ------,98438.40000000037,98437.70000000112,98032.077,98046.40000000037,98048.743,98448.719,,5,crown
screen,html.Screen,0_2_1_1_6,2021-12-10T11:50:39.161Z,,,,,,,,,,,,,,,,54,,,,,,,,,,,,,,572.8809999996301,,response,,,100,,,,,,Space,keypress(Space),,,,,-- --- ---- --- ------ ----- secured ---- -- --- ------- --<br>------- ---------- ------ -- ----- -- ----- -- ---- ------<br>--- ----- --- --- ------ -------- ----- --- ------ ----- --<br>----- ----- ---------- --- --- ------ ------ ---- -- ------<br>------- --- ------ ----- --- ---- ------- -- ---- --- --<br>------- ------,99022.20000000112,99021.59999999963,98432.053,98438.5,98448.719,99031.961,,6,secured
screen,html.Screen,0_2_1_1_7,2021-12-10T11:50:39.529Z,,,,,,,,,,,,,,,,54,,,,,,,,,,,,,,357.5390000000043,,response,,,100,,,,,,Space,keypress(Space),,,,,-- --- ---- --- ------ ----- ------- much -- --- ------- --<br>------- ---------- ------ -- ----- -- ----- -- ---- ------<br>--- ----- --- --- ------ -------- ----- --- ------ ----- --<br>----- ----- ---------- --- --- ------ ------ ---- -- ------<br>------- --- ------ ----- --- ---- ------- -- ---- --- --<br>------- ------,99390.20000000112,99389.5,99015.296,99022.40000000037,99031.961,99398.544,,7,much
screen,html.Screen,0_2_1_1_8,2021-12-10T11:50:40.161Z,,,,,,,,,,,,,,,,54,,,,,,,,,,,,,,622.9560000000056,,response,,,100,,,,,,Space,keypress(Space),,,,,-- --- ---- --- ------ ----- ------- ---- of --- ------- --<br>------- ---------- ------ -- ----- -- ----- -- ---- ------<br>--- ----- --- --- ------ -------- ----- --- ------ ----- --<br>----- ----- ---------- --- --- ------ ------ ---- -- ------<br>------- --- ------ ----- --- ---- ------- -- ---- --- --<br>------- ------,100022.20000000112,100021.5,99381.88,99390.40000000037,99398.544,100031.903,,8,of
screen,html.Screen,0_2_1_1_9,2021-12-10T11:50:40.513Z,,,,,,,,,,,,,,,,54,,,,,,,,,,,,,,341.5969999999943,,response,,,100,,,,,,Space,keypress(Space),,,,,-- --- ---- --- ------ ----- ------- ---- -- its ------- --<br>------- ---------- ------ -- ----- -- ----- -- ---- ------<br>--- ----- --- --- ------ -------- ----- --- ------ ----- --<br>----- ----- ---------- --- --- ------ ------ ---- -- ------<br>------- --- ------ ----- --- ---- ------- -- ---- --- --<br>------- ------,100374.09999999963,100373.5,100015.238,100022.40000000037,100031.903,100381.699,,9,its
screen,html.Screen,0_2_1_1_10,2021-12-10T11:50:40.857Z,,,,,,,,,,,,,,,,54,,,,,,,,,,,,,,335.80100000000675,,response,,,100,,,,,,Space,keypress(Space),,,,,-- --- ---- --- ------ ----- ------- ---- -- --- revenue --<br>------- ---------- ------ -- ----- -- ----- -- ---- ------<br>--- ----- --- --- ------ -------- ----- --- ------ ----- --<br>----- ----- ---------- --- --- ------ ------ ---- -- ------<br>------- --- ------ ----- --- ---- ------- -- ---- --- --<br>------- ------,100718,100717.5,100365.036,100374.20000000112,100381.699,100731.876,,10,revenue
screen,html.Screen,0_2_1_1_11,2021-12-10T11:50:41.361Z,,,,,,,,,,,,,,,,54,,,,,,,,,,,,,,489.62399999999616,,response,,,100,,,,,,Space,keypress(Space),,,,,-- --- ---- --- ------ ----- ------- ---- -- --- ------- by<br>------- ---------- ------ -- ----- -- ----- -- ---- ------<br>--- ----- --- --- ------ -------- ----- --- ------ ----- --<br>----- ----- ---------- --- --- ------ ------ ---- -- ------<br>------- --- ------ ----- --- ---- ------- -- ---- --- --<br>------- ------,101222.09999999963,101221.5,100715.21,100718.20000000112,100731.876,101231.808,,11,by
screen,html.Screen,0_2_1_1_12,2021-12-10T11:50:41.697Z,,,,,,,,,,,,,,,,54,,,,,,,,,,,,,,325.69199999999546,,response,,,100,,,,,,Space,keypress(Space),,,,,-- --- ---- --- ------ ----- ------- ---- -- --- ------- --<br>issuing ---------- ------ -- ----- -- ----- -- ---- ------<br>--- ----- --- --- ------ -------- ----- --- ------ ----- --<br>----- ----- ---------- --- --- ------ ------ ---- -- ------<br>------- --- ------ ----- --- ---- ------- -- ---- --- --<br>------- ------,101558,101557.5,101215.143,101222.30000000075,101231.808,101565.119,,12,issuing
screen,html.Screen,0_2_1_1_13,2021-12-10T11:50:42.073Z,,,,,,,,,,,,,,,,54,,,,,,,,,,,,,,368.2810000003665,,response,,,100,,,,,,Space,keypress(Space),,,,,-- --- ---- --- ------ ----- ------- ---- -- --- ------- --<br>------- government ------ -- ----- -- ----- -- ---- ------<br>--- ----- --- --- ------ -------- ----- --- ------ ----- --<br>----- ----- ---------- --- --- ------ ------ ---- -- ------<br>------- --- ------ ----- --- ---- ------- -- ---- --- --<br>------- ------,101934,101933.40000000037,101548.454,101558.20000000112,101565.119,101948.426,,13,government
screen,html.Screen,0_2_1_1_14,2021-12-10T11:50:42.464Z,,,,,,,,,,,,,,,,54,,,,,,,,,,,,,,376.9740000003658,,response,,,100,,,,,,Space,keypress(Space),,,,,-- --- ---- --- ------ ----- ------- ---- -- --- ------- --<br>------- ---------- bonds. -- ----- -- ----- -- ---- ------<br>--- ----- --- --- ------ -------- ----- --- ------ ----- --<br>----- ----- ---------- --- --- ------ ------ ---- -- ------<br>------- --- ------ ----- --- ---- ------- -- ---- --- --<br>------- ------,102326,102325.40000000037,101931.761,101934.09999999963,101948.426,102331.679,,14,bonds.
screen,html.Screen,0_2_1_1_15,2021-12-10T11:50:42.881Z,,,,,,,,,,,,,,,,54,,,,,,,,,,,,,,409.62100000074133,,response,,,100,,,,,,Space,keypress(Space),,,,,-- --- ---- --- ------ ----- ------- ---- -- --- ------- --<br>------- ---------- ------ In ----- -- ----- -- ---- ------<br>--- ----- --- --- ------ -------- ----- --- ------ ----- --<br>----- ----- ---------- --- --- ------ ------ ---- -- ------<br>------- --- ------ ----- --- ---- ------- -- ---- --- --<br>------- ------,102742.09999999963,102741.30000000075,102315.015,102326.09999999963,102331.679,102748.294,,15,In
screen,html.Screen,0_2_1_1_16,2021-12-10T11:50:43.216Z,,,,,,,,,,,,,,,,54,,,,,,,,,,,,,,329.00600000075065,,response,,,100,,,,,,Space,keypress(Space),,,,,"-- --- ---- --- ------ ----- ------- ---- -- --- ------- --<br>------- ---------- ------ -- 1727, -- ----- -- ---- ------<br>--- ----- --- --- ------ -------- ----- --- ------ ----- --<br>----- ----- ---------- --- --- ------ ------ ---- -- ------<br>------- --- ------ ----- --- ---- ------- -- ---- --- --<br>------- ------",103077.90000000037,103077.30000000075,102731.63,102742.20000000112,102748.294,103081.736,,16,"1727,"
screen,html.Screen,0_2_1_1_17,2021-12-10T11:50:43.656Z,,,,,,,,,,,,,,,,54,,,,,,,,,,,,,,435.6640000003681,,response,,,100,,,,,,Space,keypress(Space),,,,,-- --- ---- --- ------ ----- ------- ---- -- --- ------- --<br>------- ---------- ------ -- ----- in ----- -- ---- ------<br>--- ----- --- --- ------ -------- ----- --- ------ ----- --<br>----- ----- ---------- --- --- ------ ------ ---- -- ------<br>------- --- ------ ----- --- ---- ------- -- ---- --- --<br>------- ------,103517.90000000037,103517.40000000037,103065.07,103078.09999999963,103081.736,103531.669,,17,in
screen,html.Screen,0_2_1_1_18,2021-12-10T11:50:44.136Z,,,,,,,,,,,,,,,,54,,,,,,,,,,,,,,465.5310000011232,,response,,,100,,,,,,Space,keypress(Space),,,,,-- --- ---- --- ------ ----- ------- ---- -- --- ------- --<br>------- ---------- ------ -- ----- -- order -- ---- ------<br>--- ----- --- --- ------ -------- ----- --- ------ ----- --<br>----- ----- ---------- --- --- ------ ------ ---- -- ------<br>------- --- ------ ----- --- ---- ------- -- ---- --- --<br>------- ------,103997.90000000037,103997.20000000112,103515.004,103518.09999999963,103531.669,104014.907,,18,order
screen,html.Screen,0_2_1_1_19,2021-12-10T11:50:44.448Z,,,,,,,,,,,,,,,,54,,,,,,,,,,,,,,294.29300000111107,,response,,,100,,,,,,Space,keypress(Space),,,,,-- --- ---- --- ------ ----- ------- ---- -- --- ------- --<br>------- ---------- ------ -- ----- -- ----- to ---- ------<br>--- ----- --- --- ------ -------- ----- --- ------ ----- --<br>----- ----- ---------- --- --- ------ ------ ---- -- ------<br>------- --- ------ ----- --- ---- ------- -- ---- --- --<br>------- ------,104309.80000000075,104309.20000000112,103998.243,103998,104014.907,104314.937,,19,to
screen,html.Screen,0_2_1_1_20,2021-12-10T11:50:44.744Z,,,,,,,,,,,,,,,,54,,,,,,,,,,,,,,290.26300000111223,,response,,,100,,,,,,Space,keypress(Space),,,,,-- --- ---- --- ------ ----- ------- ---- -- --- ------- --<br>------- ---------- ------ -- ----- -- ----- -- save ------<br>--- ----- --- --- ------ -------- ----- --- ------ ----- --<br>----- ----- ---------- --- --- ------ ------ ---- -- ------<br>------- --- ------ ----- --- ---- ------- -- ---- --- --<br>------- ------,104605.80000000075,104605.20000000112,104298.272,104309.90000000037,104314.937,104614.925,,20,save
screen,html.Screen,0_2_1_1_21,2021-12-10T11:50:45.040Z,,,,,,,,,,,,,,,,54,,,,,,,,,,,,,,286.17499999962456,,response,,,100,,,,,,Space,keypress(Space),,,,,"-- --- ---- --- ------ ----- ------- ---- -- --- ------- --<br>------- ---------- ------ -- ----- -- ----- -- ---- money,<br>--- ----- --- --- ------ -------- ----- --- ------ ----- --<br>----- ----- ---------- --- --- ------ ------ ---- -- ------<br>------- --- ------ ----- --- ---- ------- -- ---- --- --<br>------- ------",104901.80000000075,104901.09999999963,104598.26,104606,104614.925,104914.817,,21,"money,"
screen,html.Screen,0_2_1_1_22,2021-12-10T11:50:45.416Z,,,,,,,,,,,,,,,,54,,,,,,,,,,,,,,362.282999999632,,response,,,100,,,,,,Space,keypress(Space),,,,,-- --- ---- --- ------ ----- ------- ---- -- --- ------- --<br>------- ---------- ------ -- ----- -- ----- -- ---- ------<br>the ----- --- --- ------ -------- ----- --- ------ ----- --<br>----- ----- ---------- --- --- ------ ------ ---- -- ------<br>------- --- ------ ----- --- ---- ------- -- ---- --- --<br>------- ------,105277.70000000112,105277.09999999963,104898.154,104901.90000000037,104914.817,105281.509,,22,the
screen,html.Screen,0_2_1_1_23,2021-12-10T11:50:45.680Z,,,,,,,,,,,,,,,,54,,,,,,,,,,,,,,259.6910000011121,,response,,,100,,,,,,Space,keypress(Space),,,,,-- --- ---- --- ------ ----- ------- ---- -- --- ------- --<br>------- ---------- ------ -- ----- -- ----- -- ---- ------<br>--- state --- --- ------ -------- ----- --- ------ ----- --<br>----- ----- ---------- --- --- ------ ------ ---- -- ------<br>------- --- ------ ----- --- ---- ------- -- ---- --- --<br>------- ------,105541.70000000112,105541.20000000112,105264.844,105277.80000000075,105281.509,105548.159,,23,state
screen,html.Screen,0_2_1_1_24,2021-12-10T11:50:46.352Z,,,,,,,,,,,,,,,,54,,,,,,,,,,,,,,665.0410000011179,,response,,,100,,,,,,Space,keypress(Space),,,,,-- --- ---- --- ------ ----- ------- ---- -- --- ------- --<br>------- ---------- ------ -- ----- -- ----- -- ---- ------<br>--- ----- cut --- ------ -------- ----- --- ------ ----- --<br>----- ----- ---------- --- --- ------ ------ ---- -- ------<br>------- --- ------ ----- --- ---- ------- -- ---- --- --<br>------- ------,106213.80000000075,106213.20000000112,105531.494,105541.90000000037,105548.159,106214.792,,24,cut
screen,html.Screen,0_2_1_1_25,2021-12-10T11:50:46.688Z,,,,,,,,,,,,,,,,54,,,,,,,,,,,,,,334.3079999996262,,response,,,100,,,,,,Space,keypress(Space),,,,,-- --- ---- --- ------ ----- ------- ---- -- --- ------- --<br>------- ---------- ------ -- ----- -- ----- -- ---- ------<br>--- ----- --- the ------ -------- ----- --- ------ ----- --<br>----- ----- ---------- --- --- ------ ------ ---- -- ------<br>------- --- ------ ----- --- ---- ------- -- ---- --- --<br>------- ------,106549.59999999963,106549.09999999963,106198.127,106213.90000000037,106214.792,106564.828,,25,the
screen,html.Screen,0_2_1_1_26,2021-12-10T11:50:47.000Z,,,,,,,,,,,,,,,,54,,,,,,,,,,,,,,296.3720000011235,,response,,,100,,,,,,Space,keypress(Space),,,,,-- --- ---- --- ------ ----- ------- ---- -- --- ------- --<br>------- ---------- ------ -- ----- -- ----- -- ---- ------<br>--- ----- --- --- bonds' -------- ----- --- ------ ----- --<br>----- ----- ---------- --- --- ------ ------ ---- -- ------<br>------- --- ------ ----- --- ---- ------- -- ---- --- --<br>------- ------,106861.90000000037,106861.20000000112,106548.162,106549.80000000075,106564.828,106864.704,,26,bonds'
screen,html.Screen,0_2_1_1_27,2021-12-10T11:50:47.360Z,,,,,,,,,,,,,,,,54,,,,,,,,,,,,,,356.39599999962957,,response,,,100,,,,,,Space,keypress(Space),,,,,-- --- ---- --- ------ ----- ------- ---- -- --- ------- --<br>------- ---------- ------ -- ----- -- ----- -- ---- ------<br>--- ----- --- --- ------ interest ----- --- ------ ----- --<br>----- ----- ---------- --- --- ------ ------ ---- -- ------<br>------- --- ------ ----- --- ---- ------- -- ---- --- --<br>------- ------,107221.70000000112,107221.09999999963,106848.04,106862,106864.704,107231.373,,27,interest
screen,html.Screen,0_2_1_1_28,2021-12-10T11:50:47.792Z,,,,,,,,,,,,,,,,54,,,,,,,,,,,,,,421.62699999999313,,response,,,100,,,,,,Space,keypress(Space),,,,,-- --- ---- --- ------ ----- ------- ---- -- --- ------- --<br>------- ---------- ------ -- ----- -- ----- -- ---- ------<br>--- ----- --- --- ------ -------- rate. --- ------ ----- --<br>----- ----- ---------- --- --- ------ ------ ---- -- ------<br>------- --- ------ ----- --- ---- ------- -- ---- --- --<br>------- ------,107653.70000000112,107653,107214.708,107222,107231.373,107664.672,,28,rate.
screen,html.Screen,0_2_1_1_29,2021-12-10T11:50:48.144Z,,,,,,,,,,,,,,,,54,,,,,,,,,,,,,,340.32799999999406,,response,,,100,,,,,,Space,keypress(Space),,,,,-- --- ---- --- ------ ----- ------- ---- -- --- ------- --<br>------- ---------- ------ -- ----- -- ----- -- ---- ------<br>--- ----- --- --- ------ -------- ----- The ------ ----- --<br>----- ----- ---------- --- --- ------ ------ ---- -- ------<br>------- --- ------ ----- --- ---- ------- -- ---- --- --<br>------- ------,108005.5,108005,107648.007,107653.80000000075,107664.672,108014.644,,29,The
screen,html.Screen,0_2_1_1_30,2021-12-10T11:50:48.496Z,,,,,,,,,,,,,,,,54,,,,,,,,,,,,,,342.2560000003723,,response,,,100,,,,,,Space,keypress(Space),,,,,-- --- ---- --- ------ ----- ------- ---- -- --- ------- --<br>------- ---------- ------ -- ----- -- ----- -- ---- ------<br>--- ----- --- --- ------ -------- ----- --- market ----- --<br>----- ----- ---------- --- --- ------ ------ ---- -- ------<br>------- --- ------ ----- --- ---- ------- -- ---- --- --<br>------- ------,108357.5,108356.90000000037,107997.979,108005.70000000112,108014.644,108364.632,,30,market
screen,html.Screen,0_2_1_1_31,2021-12-10T11:50:48.864Z,,,,,,,,,,,,,,,,54,,,,,,,,,,,,,,360.26800000037474,,response,,,100,,,,,,Space,keypress(Space),,,,,-- --- ---- --- ------ ----- ------- ---- -- --- ------- --<br>------- ---------- ------ -- ----- -- ----- -- ---- ------<br>--- ----- --- --- ------ -------- ----- --- ------ value --<br>----- ----- ---------- --- --- ------ ------ ---- -- ------<br>------- --- ------ ----- --- ---- ------- -- ---- --- --<br>------- ------,108725.5,108724.90000000037,108347.967,108357.70000000112,108364.632,108731.266,,31,value
screen,html.Screen,0_2_1_1_32,2021-12-10T11:50:49.192Z,,,,,,,,,,,,,,,,54,,,,,,,,,,,,,,321.63400000036927,,response,,,100,,,,,,Space,keypress(Space),,,,,-- --- ---- --- ------ ----- ------- ---- -- --- ------- --<br>------- ---------- ------ -- ----- -- ----- -- ---- ------<br>--- ----- --- --- ------ -------- ----- --- ------ ----- of<br>----- ----- ---------- --- --- ------ ------ ---- -- ------<br>------- --- ------ ----- --- ---- ------- -- ---- --- --<br>------- ------,109053.40000000037,109052.90000000037,108714.601,108725.70000000112,108731.266,109064.577,,32,of
screen,html.Screen,0_2_1_1_33,2021-12-10T11:50:49.488Z,,,,,,,,,,,,,,,,54,,,,,,,,,,,,,,284.32300000036776,,response,,,100,,,,,,Space,keypress(Space),,,,,-- --- ---- --- ------ ----- ------- ---- -- --- ------- --<br>------- ---------- ------ -- ----- -- ----- -- ---- ------<br>--- ----- --- --- ------ -------- ----- --- ------ ----- --<br>these ----- ---------- --- --- ------ ------ ---- -- ------<br>------- --- ------ ----- --- ---- ------- -- ---- --- --<br>------- ------,109349.5,109348.90000000037,109047.912,109053.59999999963,109064.577,109364.623,,33,these
screen,html.Screen,0_2_1_1_34,2021-12-10T11:50:49.776Z,,,,,,,,,,,,,,,,54,,,,,,,,,,,,,,272.27700000036566,,response,,,100,,,,,,Space,keypress(Space),,,,,-- --- ---- --- ------ ----- ------- ---- -- --- ------- --<br>------- ---------- ------ -- ----- -- ----- -- ---- ------<br>--- ----- --- --- ------ -------- ----- --- ------ ----- --<br>----- bonds ---------- --- --- ------ ------ ---- -- ------<br>------- --- ------ ----- --- ---- ------- -- ---- --- --<br>------- ------,109637.40000000037,109636.90000000037,109347.957,109349.70000000112,109364.623,109647.817,,34,bonds
screen,html.Screen,0_2_1_1_35,2021-12-10T11:50:50.120Z,,,,,,,,,,,,,,,,54,,,,,,,,,,,,,,333.08300000037707,,response,,,100,,,,,,Space,keypress(Space),,,,,"-- --- ---- --- ------ ----- ------- ---- -- --- ------- --<br>------- ---------- ------ -- ----- -- ----- -- ---- ------<br>--- ----- --- --- ------ -------- ----- --- ------ ----- --<br>----- ----- plummeted, --- --- ------ ------ ---- -- ------<br>------- --- ------ ----- --- ---- ------- -- ---- --- --<br>------- ------",109981.40000000037,109980.90000000037,109631.154,109637.59999999963,109647.817,109997.845,,35,"plummeted,"
screen,html.Screen,0_2_1_1_36,2021-12-10T11:50:50.688Z,,,,,,,,,,,,,,,,54,,,,,,,,,,,,,,550.9550000007439,,response,,,100,,,,,,Space,keypress(Space),,,,,-- --- ---- --- ------ ----- ------- ---- -- --- ------- --<br>------- ---------- ------ -- ----- -- ----- -- ---- ------<br>--- ----- --- --- ------ -------- ----- --- ------ ----- --<br>----- ----- ---------- and --- ------ ------ ---- -- ------<br>------- --- ------ ----- --- ---- ------- -- ---- --- --<br>------- ------,110549.5,110548.80000000075,109981.18,109981.59999999963,109997.845,110564.552,,36,and
screen,html.Screen,0_2_1_1_37,2021-12-10T11:50:51.080Z,,,,,,,,,,,,,,,,54,,,,,,,,,,,,,,376.248000000749,,response,,,100,,,,,,Space,keypress(Space),,,,,-- --- ---- --- ------ ----- ------- ---- -- --- ------- --<br>------- ---------- ------ -- ----- -- ----- -- ---- ------<br>--- ----- --- --- ------ -------- ----- --- ------ ----- --<br>----- ----- ---------- --- the ------ ------ ---- -- ------<br>------- --- ------ ----- --- ---- ------- -- ---- --- --<br>------- ------,110941.30000000075,110940.80000000075,110547.886,110549.70000000112,110564.552,110947.791,,37,the
screen,html.Screen,0_2_1_1_38,2021-12-10T11:50:51.424Z,,,,,,,,,,,,,,,,54,,,,,,,,,,,,,,336.90900000112015,,response,,,100,,,,,,Space,keypress(Space),,,,,-- --- ---- --- ------ ----- ------- ---- -- --- ------- --<br>------- ---------- ------ -- ----- -- ----- -- ---- ------<br>--- ----- --- --- ------ -------- ----- --- ------ ----- --<br>----- ----- ---------- --- --- market ------ ---- -- ------<br>------- --- ------ ----- --- ---- ------- -- ---- --- --<br>------- ------,111285.30000000075,111284.70000000112,110931.126,110941.5,110947.791,111297.726,,38,market
screen,html.Screen,0_2_1_1_39,2021-12-10T11:50:51.784Z,,,,,,,,,,,,,,,,54,,,,,,,,,,,,,,347.07400000074995,,response,,,100,,,,,,Space,keypress(Space),,,,,-- --- ---- --- ------ ----- ------- ---- -- --- ------- --<br>------- ---------- ------ -- ----- -- ----- -- ---- ------<br>--- ----- --- --- ------ -------- ----- --- ------ ----- --<br>----- ----- ---------- --- --- ------ became ---- -- ------<br>------- --- ------ ----- --- ---- ------- -- ---- --- --<br>------- ------,111645.40000000037,111644.80000000075,111281.062,111285.59999999963,111297.726,111647.797,,39,became
screen,html.Screen,0_2_1_1_40,2021-12-10T11:50:52.160Z,,,,,,,,,,,,,,,,54,,,,,,,,,,,,,,372.90300000111165,,response,,,100,,,,,,Space,keypress(Space),,,,,-- --- ---- --- ------ ----- ------- ---- -- --- ------- --<br>------- ---------- ------ -- ----- -- ----- -- ---- ------<br>--- ----- --- --- ------ -------- ----- --- ------ ----- --<br>----- ----- ---------- --- --- ------ ------ wary -- ------<br>------- --- ------ ----- --- ---- ------- -- ---- --- --<br>------- ------,112021.30000000075,112020.70000000112,111631.131,111645.59999999963,111647.797,112031.024,,40,wary
screen,html.Screen,0_2_1_1_41,2021-12-10T11:50:52.528Z,,,,,,,,,,,,,,,,54,,,,,,,,,,,,,,357.6760000011127,,response,,,100,,,,,,Space,keypress(Space),,,,,-- --- ---- --- ------ ----- ------- ---- -- --- ------- --<br>------- ---------- ------ -- ----- -- ----- -- ---- ------<br>--- ----- --- --- ------ -------- ----- --- ------ ----- --<br>----- ----- ---------- --- --- ------ ------ ---- of ------<br>------- --- ------ ----- --- ---- ------- -- ---- --- --<br>------- ------,112389.30000000075,112388.70000000112,112014.36,112021.40000000037,112031.024,112397.693,,41,of
screen,html.Screen,0_2_1_1_42,2021-12-10T11:50:52.808Z,,,,,,,,,,,,,,,,54,,,,,,,,,,,,,,270.90699999962817,,response,,,100,,,,,,Space,keypress(Space),,,,,-- --- ---- --- ------ ----- ------- ---- -- --- ------- --<br>------- ---------- ------ -- ----- -- ----- -- ---- ------<br>--- ----- --- --- ------ -------- ----- --- ------ ----- --<br>----- ----- ---------- --- --- ------ ------ ---- -- French<br>------- --- ------ ----- --- ---- ------- -- ---- --- --<br>------- ------,112669.20000000112,112668.59999999963,112381.028,112390.30000000075,112397.693,112681.006,,42,French
screen,html.Screen,0_2_1_1_43,2021-12-10T11:50:53.104Z,,,,,,,,,,,,,,,,54,,,,,,,,,,,,,,283.5939999996335,,response,,,100,,,,,,Space,keypress(Space),,,,,-- --- ---- --- ------ ----- ------- ---- -- --- ------- --<br>------- ---------- ------ -- ----- -- ----- -- ---- ------<br>--- ----- --- --- ------ -------- ----- --- ------ ----- --<br>----- ----- ---------- --- --- ------ ------ ---- -- ------<br>credit. --- ------ ----- --- ---- ------- -- ---- --- --<br>------- ------,112965.20000000112,112964.59999999963,112664.341,112669.30000000075,112681.006,112980.944,,43,credit.
screen,html.Screen,0_2_1_1_44,2021-12-10T11:50:53.520Z,,,,,,,,,,,,,,,,54,,,,,,,,,,,,,,399.6559999996243,,response,,,100,,,,,,Space,keypress(Space),,,,,-- --- ---- --- ------ ----- ------- ---- -- --- ------- --<br>------- ---------- ------ -- ----- -- ----- -- ---- ------<br>--- ----- --- --- ------ -------- ----- --- ------ ----- --<br>----- ----- ---------- --- --- ------ ------ ---- -- ------<br>------- The ------ ----- --- ---- ------- -- ---- --- --<br>------- ------,113381.09999999963,113380.59999999963,112964.28,112965.40000000037,112980.944,113397.666,,44,The
screen,html.Screen,0_2_1_1_45,2021-12-10T11:50:53.864Z,,,,,,,,,,,,,,,,54,,,,,,,,,,,,,,326.93399999963003,,response,,,100,,,,,,Space,keypress(Space),,,,,-- --- ---- --- ------ ----- ------- ---- -- --- ------- --<br>------- ---------- ------ -- ----- -- ----- -- ---- ------<br>--- ----- --- --- ------ -------- ----- --- ------ ----- --<br>----- ----- ---------- --- --- ------ ------ ---- -- ------<br>------- --- French ----- --- ---- ------- -- ---- --- --<br>------- ------,113725.20000000112,113724.59999999963,113381,113381.40000000037,113397.666,113730.932,,45,French
screen,html.Screen,0_2_1_1_46,2021-12-10T11:50:54.184Z,,,,,,,,,,,,,,,,54,,,,,,,,,,,,,,313.6679999996268,,response,,,100,,,,,,Space,keypress(Space),,,,,-- --- ---- --- ------ ----- ------- ---- -- --- ------- --<br>------- ---------- ------ -- ----- -- ----- -- ---- ------<br>--- ----- --- --- ------ -------- ----- --- ------ ----- --<br>----- ----- ---------- --- --- ------ ------ ---- -- ------<br>------- --- ------ state --- ---- ------- -- ---- --- --<br>------- ------,114045.20000000112,114044.59999999963,113714.267,113725.40000000037,113730.932,114047.528,,46,state
screen,html.Screen,0_2_1_1_47,2021-12-10T11:50:54.512Z,,,,,,,,,,,,,,,,54,,,,,,,,,,,,,,324.9719999999943,,response,,,100,,,,,,Space,keypress(Space),,,,,-- --- ---- --- ------ ----- ------- ---- -- --- ------- --<br>------- ---------- ------ -- ----- -- ----- -- ---- ------<br>--- ----- --- --- ------ -------- ----- --- ------ ----- --<br>----- ----- ---------- --- --- ------ ------ ---- -- ------<br>------- --- ------ ----- was ---- ------- -- ---- --- --<br>------- ------,114373.09999999963,114372.5,114030.864,114045.40000000037,114047.528,114380.887,,47,was
screen,html.Screen,0_2_1_1_48,2021-12-10T11:50:54.832Z,,,,,,,,,,,,,,,,54,,,,,,,,,,,,,,311.61299999999756,,response,,,100,,,,,,Space,keypress(Space),,,,,-- --- ---- --- ------ ----- ------- ---- -- --- ------- --<br>------- ---------- ------ -- ----- -- ----- -- ---- ------<br>--- ----- --- --- ------ -------- ----- --- ------ ----- --<br>----- ----- ---------- --- --- ------ ------ ---- -- ------<br>------- --- ------ ----- --- left ------- -- ---- --- --<br>------- ------,114693.09999999963,114692.5,114364.222,114373.30000000075,114380.887,114697.57,,48,left
screen,html.Screen,0_2_1_1_49,2021-12-10T11:50:55.160Z,,,,,,,,,,,,,,,,54,,,,,,,,,,,,,,322.929999999993,,response,,,100,,,,,,Space,keypress(Space),,,,,-- --- ---- --- ------ ----- ------- ---- -- --- ------- --<br>------- ---------- ------ -- ----- -- ----- -- ---- ------<br>--- ----- --- --- ------ -------- ----- --- ------ ----- --<br>----- ----- ---------- --- --- ------ ------ ---- -- ------<br>------- --- ------ ----- --- ---- without -- ---- --- --<br>------- ------,115021.09999999963,115020.5,114680.904,114693.20000000112,114697.57,115030.843,,49,without
screen,html.Screen,0_2_1_1_50,2021-12-10T11:50:55.488Z,,,,,,,,,,,,,,,,54,,,,,,,,,,,,,,317.55700000037905,,response,,,100,,,,,,Space,keypress(Space),,,,,-- --- ---- --- ------ ----- ------- ---- -- --- ------- --<br>------- ---------- ------ -- ----- -- ----- -- ---- ------<br>--- ----- --- --- ------ -------- ----- --- ------ ----- --<br>----- ----- ---------- --- --- ------ ------ ---- -- ------<br>------- --- ------ ----- --- ---- ------- an ---- --- --<br>------- ------,115349,115348.40000000037,115014.178,115021.30000000075,115030.843,115364.161,,50,an
screen,html.Screen,0_2_1_1_51,2021-12-10T11:50:55.824Z,,,,,,,,,,,,,,,,54,,,,,,,,,,,,,,320.3390000000072,,response,,,100,,,,,,Space,keypress(Space),,,,,-- --- ---- --- ------ ----- ------- ---- -- --- ------- --<br>------- ---------- ------ -- ----- -- ----- -- ---- ------<br>--- ----- --- --- ------ -------- ----- --- ------ ----- --<br>----- ----- ---------- --- --- ------ ------ ---- -- ------<br>------- --- ------ ----- --- ---- ------- -- easy --- --<br>------- ------,115685.09999999963,115684.5,115347.496,115349.20000000112,115364.161,115697.46,,51,easy
screen,html.Screen,0_2_1_1_52,2021-12-10T11:50:56.168Z,,,,,,,,,,,,,,,,54,,,,,,,,,,,,,,330.9400000003661,,response,,,100,,,,,,Space,keypress(Space),,,,,-- --- ---- --- ------ ----- ------- ---- -- --- ------- --<br>------- ---------- ------ -- ----- -- ----- -- ---- ------<br>--- ----- --- --- ------ -------- ----- --- ------ ----- --<br>----- ----- ---------- --- --- ------ ------ ---- -- ------<br>------- --- ------ ----- --- ---- ------- -- ---- way --<br>------- ------,116029,116028.40000000037,115680.795,115685.30000000075,115697.46,116030.723,,52,way
screen,html.Screen,0_2_1_1_53,2021-12-10T11:50:56.464Z,,,,,,,,,,,,,,,,54,,,,,,,,,,,,,,293.6770000003744,,response,,,100,,,,,,Space,keypress(Space),,,,,-- --- ---- --- ------ ----- ------- ---- -- --- ------- --<br>------- ---------- ------ -- ----- -- ----- -- ---- ------<br>--- ----- --- --- ------ -------- ----- --- ------ ----- --<br>----- ----- ---------- --- --- ------ ------ ---- -- ------<br>------- --- ------ ----- --- ---- ------- -- ---- --- of<br>------- ------,116324.90000000037,116324.40000000037,116014.059,116029.09999999963,116030.723,116330.742,,53,of
screen,html.Screen,0_2_1_1_54,2021-12-10T11:50:56.783Z,,,,,,,,,,,,,,,,54,,,,,,,,,,,,,,313.65800000037416,,response,,,100,,,,,,Space,keypress(Space),,,,,-- --- ---- --- ------ ----- ------- ---- -- --- ------- --<br>------- ---------- ------ -- ----- -- ----- -- ---- ------<br>--- ----- --- --- ------ -------- ----- --- ------ ----- --<br>----- ----- ---------- --- --- ------ ------ ---- -- ------<br>------- --- ------ ----- --- ---- ------- -- ---- --- --<br>raising ------,116644.90000000037,116644.40000000037,116314.077,116325.09999999963,116330.742,116647.43,,54,raising
screen,html.Screen,0_2_1_1_55,2021-12-10T11:50:57.128Z,,,,,,,,,,,,,,,,54,,,,,,,,,,,,,,341.16999999963446,,response,,,100,,,,,,Space,keypress(Space),,,,,-- --- ---- --- ------ ----- ------- ---- -- --- ------- --<br>------- ---------- ------ -- ----- -- ----- -- ---- ------<br>--- ----- --- --- ------ -------- ----- --- ------ ----- --<br>----- ----- ---------- --- --- ------ ------ ---- -- ------<br>------- --- ------ ----- --- ---- ------- -- ---- --- --<br>------- money.,116989.20000000112,116988.59999999963,116630.764,116645.09999999963,116647.43,116997.368,,55,money.
Item 100,flow.Loop,0_2_1_1,2021-12-10T11:50:57.128Z,,,,,,,,,,,,,,,,,,,,,,,,,,,,,,21089.863999999623,,completion,,,,C,,,,,,,,,,silence,,116989.5,116988.59999999963,95882.072,95883.5,95898.736,116997.368,,,
Question 1,html.Screen,0_2_1_2,2021-12-10T11:50:59.816Z,,,,,,,,,,,,,,,,,,,,,,,,,,,true,TRUE,,2679.131999999998,,response,,,100,C,,,,,TRUE,click #choice-1,,,,silence,,119677.20000000112,119676.5,116980.703,116989.59999999963,116997.368,119680.505,,,
Question 2,html.Screen,0_2_1_3,2021-12-10T11:51:02.181Z,,,,,,,,,,,,,,,,,,,,,,,,,,,true,FALSE,,2357.395000000368,,response,,,100,C,,,,,FALSE,click #choice-2,,,,silence,,122038.80000000075,122037.90000000037,119663.84,119677.5,119680.505,122046.959,,,
Item 100,flow.Sequence,0_2_1,2021-12-10T11:51:02.181Z,,,,,,,,,,,,,,,,,,,,,,,,,,,,,,36138.35100000037,,completion,,,,,,,,,,,,,,,,122039,122037.90000000037,85882.884,85894.59999999963,85899.549,122046.959,,,
End of Practice,html.Page,0_2_2,2021-12-10T11:51:05.040Z,,,,,,,,,,,,,,,,,,,,,,,,,,,,,,2850.640999999625,,form submission,,,,,,,,,,,,,,,,124898,124897.59999999963,122030.295,122039.30000000075,122046.959,124913.311,,,
Practice,flow.Sequence,0_2,2021-12-10T11:51:05.041Z,,,,,,,,,,,,,,,,,,,,,,,,,,,,,,85595.42299999963,,completion,,,,,,,,,,,,,,,,124898.30000000075,124897.59999999963,39285.514,39287.20000000112,39302.177,124913.311,,,
Trap_instruction,html.Page,0_3_0,2021-12-10T11:51:09.885Z,,,,,,,,,,,,,,,,,,,,,,,,,,,,,,4829.089000000371,,form submission,,,,,,,,,,,,,,,,129742.70000000112,129742.40000000037,124896.647,124898.40000000037,124913.311,129763.192,,,
trap_trial,html.Screen,0_3_1,2021-12-10T11:51:12.302Z,,,,,,,,,,,,,,,,,,,,,,,,,,,true,1,,2395.8080000000045,,response,,,,,,,,,1,click #choice-1,,,,,,132159.80000000075,132159,129729.86,129742.90000000037,129763.192,132162.728,,,
end of trap trial,html.Page,0_3_2,2021-12-10T11:51:13.937Z,,,,,,,,,,,,,,,,,,,,,,,,,,,,,,1631.2719999999972,,form submission,,,,,,,,,,,,,,,,133794.5,133794,132146.064,132160,132162.728,133796.158,,,
Trap 1,flow.Sequence,0_3,2021-12-10T11:51:13.937Z,,,,,,,,,,,,,,,,,,,,,,,,,,,,,,8880.688999999998,,completion,,,,,,,,,,,,,,,,133794.70000000112,133794,124896.647,124898.40000000037,124913.311,133796.158,,,
Standby,html.Page,0_4_0,2021-12-10T11:51:21.922Z,,,,,,,,,,,,,,,,,,,,,,,,,,,,,,7999.208000000013,,timeout,,,,,,,,,,,,,,,,141780.20000000112,141778.701,133779.493,133794.80000000075,133796.158,141795.366,,,
Holding screen,html.Screen,0_4_1_0_0,2021-12-10T11:51:28.921Z,,,,,,,,,,,,,,,,,,,,,,,,,,,,,,6999.72099999999,,timeout,,,,,,,,,,,,,,,,148779.09999999963,148778.422,141778.701,141780.5,141795.366,148795.087,,,
screen,html.Screen,0_4_1_0_1_0,2021-12-10T11:51:29.457Z,,,,,,,,,,,,,,,,48,,,,,,,,,,,,,,519.313000000373,,response,,,10,C,,,,,Space,keypress(Space),,,,instrumental,As -- --- ------ ------- --------- ----------- --------<br>--------- -------- --- ------- -- ------- ---- -- ------<br>-- --- -------- -------- ---------- ---- ---- ---- ------<br>-- --------- -- ---- -- --- -- --- ------- -- - -----<br>---------- -- -- -- ---- ----- -- ------ -- --- ------<br>-------,149315.20000000112,149314.40000000037,148778.422,148779.30000000075,148795.087,149328.426,,0,As
screen,html.Screen,0_4_1_0_1_1,2021-12-10T11:51:29.785Z,,,,,,,,,,,,,,,,48,,,,,,,,,,,,,,313.6739999996207,,response,,,10,C,,,,,Space,keypress(Space),,,,instrumental,-- in --- ------ ------- --------- ----------- --------<br>--------- -------- --- ------- -- ------- ---- -- ------<br>-- --- -------- -------- ---------- ---- ---- ---- ------<br>-- --------- -- ---- -- --- -- --- ------- -- - -----<br>---------- -- -- -- ---- ----- -- ------ -- --- ------<br>-------,149642.70000000112,149642.09999999963,149311.761,149315.40000000037,149328.426,149644.992,,1,in
screen,html.Screen,0_4_1_0_1_2,2021-12-10T11:51:30.097Z,,,,,,,,,,,,,,,,48,,,,,,,,,,,,,,309.00800000000163,,response,,,10,C,,,,,Space,keypress(Space),,,,instrumental,-- -- the ------ ------- --------- ----------- --------<br>--------- -------- --- ------- -- ------- ---- -- ------<br>-- --- -------- -------- ---------- ---- ---- ---- ------<br>-- --------- -- ---- -- --- -- --- ------- -- - -----<br>---------- -- -- -- ---- ----- -- ------ -- --- ------<br>-------,149954.59999999963,149954,149628.328,149642.80000000075,149644.992,149961.758,,2,the
screen,html.Screen,0_4_1_0_1_3,2021-12-10T11:51:30.417Z,,,,,,,,,,,,,,,,48,,,,,,,,,,,,,,312.24199999999837,,response,,,10,C,,,,,Space,keypress(Space),,,,instrumental,-- -- --- United ------- --------- ----------- --------<br>--------- -------- --- ------- -- ------- ---- -- ------<br>-- --- -------- -------- ---------- ---- ---- ---- ------<br>-- --------- -- ---- -- --- -- --- ------- -- - -----<br>---------- -- -- -- ---- ----- -- ------ -- --- ------<br>-------,150274.59999999963,150274,149945.092,149954.80000000075,149961.758,150278.327,,3,United
screen,html.Screen,0_4_1_0_1_4,2021-12-10T11:51:30.753Z,,,,,,,,,,,,,,,,48,,,,,,,,,,,,,,331.6730000000098,,response,,,10,C,,,,,Space,keypress(Space),,,,instrumental,"-- -- --- ------ States, --------- ----------- --------<br>--------- -------- --- ------- -- ------- ---- -- ------<br>-- --- -------- -------- ---------- ---- ---- ---- ------<br>-- --------- -- ---- -- --- -- --- ------- -- - -----<br>---------- -- -- -- ---- ----- -- ------ -- --- ------<br>-------",150610.70000000112,150610,150261.663,150274.80000000075,150278.327,150611.602,,4,"States,"
screen,html.Screen,0_4_1_0_1_5,2021-12-10T11:51:31.105Z,,,,,,,,,,,,,,,,48,,,,,,,,,,,,,,350.298000000359,,response,,,10,C,,,,,Space,keypress(Space),,,,instrumental,-- -- --- ------ ------- Colombian ----------- --------<br>--------- -------- --- ------- -- ------- ---- -- ------<br>-- --- -------- -------- ---------- ---- ---- ---- ------<br>-- --------- -- ---- -- --- -- --- ------- -- - -----<br>---------- -- -- -- ---- ----- -- ------ -- --- ------<br>-------,150962.59999999963,150961.90000000037,150594.938,150610.80000000075,150611.602,150978.386,,5,Colombian
screen,html.Screen,0_4_1_0_1_6,2021-12-10T11:51:31.569Z,,,,,,,,,,,,,,,,48,,,,,,,,,,,,,,447.5140000003739,,response,,,10,C,,,,,Space,keypress(Space),,,,instrumental,-- -- --- ------ ------- --------- legislation --------<br>--------- -------- --- ------- -- ------- ---- -- ------<br>-- --- -------- -------- ---------- ---- ---- ---- ------<br>-- --------- -- ---- -- --- -- --- ------- -- - -----<br>---------- -- -- -- ---- ----- -- ------ -- --- ------<br>-------,151426.5,151425.90000000037,150961.719,150962.70000000112,150978.386,151428.222,,6,legislation
screen,html.Screen,0_4_1_0_1_7,2021-12-10T11:51:32.025Z,,,,,,,,,,,,,,,,48,,,,,,,,,,,,,,453.5780000007362,,response,,,10,C,,,,,Space,keypress(Space),,,,instrumental,-- -- --- ------ ------- --------- ----------- requires<br>--------- -------- --- ------- -- ------- ---- -- ------<br>-- --- -------- -------- ---------- ---- ---- ---- ------<br>-- --------- -- ---- -- --- -- --- ------- -- - -----<br>---------- -- -- -- ---- ----- -- ------ -- --- ------<br>-------,151882.5,151881.80000000075,151411.558,151426.70000000112,151428.222,151894.923,,7,requires
screen,html.Screen,0_4_1_0_1_8,2021-12-10T11:51:32.433Z,,,,,,,,,,,,,,,,48,,,,,,,,,,,,,,394.97700000036275,,response,,,10,C,,,,,Space,keypress(Space),,,,instrumental,-- -- --- ------ ------- --------- ----------- --------<br>travelers -------- --- ------- -- ------- ---- -- ------<br>-- --- -------- -------- ---------- ---- ---- ---- ------<br>-- --------- -- ---- -- --- -- --- ------- -- - -----<br>---------- -- -- -- ---- ----- -- ------ -- --- ------<br>-------,152290.5,152289.90000000037,151878.258,151882.80000000075,151894.923,152294.891,,8,travelers
screen,html.Screen,0_4_1_0_1_9,2021-12-10T11:51:32.769Z,,,,,,,,,,,,,,,,48,,,,,,,,,,,,,,331.00900000036927,,response,,,10,C,,,,,Space,keypress(Space),,,,instrumental,-- -- --- ------ ------- --------- ----------- --------<br>--------- entering --- ------- -- ------- ---- -- ------<br>-- --- -------- -------- ---------- ---- ---- ---- ------<br>-- --------- -- ---- -- --- -- --- ------- -- - -----<br>---------- -- -- -- ---- ----- -- ------ -- --- ------<br>-------,152626.5,152625.90000000037,152278.226,152290.70000000112,152294.891,152628.142,,9,entering
screen,html.Screen,0_4_1_0_1_10,2021-12-10T11:51:33.089Z,,,,,,,,,,,,,,,,48,,,,,,,,,,,,,,317.6580000007525,,response,,,10,C,,,,,Space,keypress(Space),,,,instrumental,-- -- --- ------ ------- --------- ----------- --------<br>--------- -------- the ------- -- ------- ---- -- ------<br>-- --- -------- -------- ---------- ---- ---- ---- ------<br>-- --------- -- ---- -- --- -- --- ------- -- - -----<br>---------- -- -- -- ---- ----- -- ------ -- --- ------<br>-------,152946.40000000037,152945.80000000075,152611.478,152626.80000000075,152628.142,152961.543,,10,the
screen,html.Screen,0_4_1_0_1_11,2021-12-10T11:51:33.417Z,,,,,,,,,,,,,,,,48,,,,,,,,,,,,,,312.25700000073994,,response,,,10,C,,,,,Space,keypress(Space),,,,instrumental,-- -- --- ------ ------- --------- ----------- --------<br>--------- -------- --- country -- ------- ---- -- ------<br>-- --- -------- -------- ---------- ---- ---- ---- ------<br>-- --------- -- ---- -- --- -- --- ------- -- - -----<br>---------- -- -- -- ---- ----- -- ------ -- --- ------<br>-------,153274.40000000037,153273.80000000075,152944.877,152946.70000000112,152961.543,153278.026,,11,country
screen,html.Screen,0_4_1_0_1_12,2021-12-10T11:51:33.721Z,,,,,,,,,,,,,,,,48,,,,,,,,,,,,,,299.7740000007325,,response,,,10,C,,,,,Space,keypress(Space),,,,instrumental,-- -- --- ------ ------- --------- ----------- --------<br>--------- -------- --- ------- to ------- ---- -- ------<br>-- --- -------- -------- ---------- ---- ---- ---- ------<br>-- --------- -- ---- -- --- -- --- ------- -- - -----<br>---------- -- -- -- ---- ----- -- ------ -- --- ------<br>-------,153578.40000000037,153577.80000000075,153261.363,153274.59999999963,153278.026,153594.823,,12,to
screen,html.Screen,0_4_1_0_1_13,2021-12-10T11:51:34.057Z,,,,,,,,,,,,,,,,48,,,,,,,,,,,,,,318.87700000111363,,response,,,10,C,,,,,Space,keypress(Space),,,,instrumental,-- -- --- ------ ------- --------- ----------- --------<br>--------- -------- --- ------- -- declare ---- -- ------<br>-- --- -------- -------- ---------- ---- ---- ---- ------<br>-- --------- -- ---- -- --- -- --- ------- -- - -----<br>---------- -- -- -- ---- ----- -- ------ -- --- ------<br>-------,153914.30000000075,153913.70000000112,153578.157,153578.59999999963,153594.823,153928.055,,13,declare
screen,html.Screen,0_4_1_0_1_14,2021-12-10T11:51:34.417Z,,,,,,,,,,,,,,,,48,,,,,,,,,,,,,,345.6450000011246,,response,,,10,C,,,,,Space,keypress(Space),,,,instrumental,-- -- --- ------ ------- --------- ----------- --------<br>--------- -------- --- ------- -- ------- cash -- ------<br>-- --- -------- -------- ---------- ---- ---- ---- ------<br>-- --------- -- ---- -- --- -- --- ------- -- - -----<br>---------- -- -- -- ---- ----- -- ------ -- --- ------<br>-------,154274.30000000075,154273.70000000112,153911.391,153914.5,153928.055,154278.134,,14,cash
screen,html.Screen,0_4_1_0_1_15,2021-12-10T11:51:34.753Z,,,,,,,,,,,,,,,,48,,,,,,,,,,,,,,331.56600000112667,,response,,,10,C,,,,,Space,keypress(Space),,,,instrumental,-- -- --- ------ ------- --------- ----------- --------<br>--------- -------- --- ------- -- ------- ---- in ------<br>-- --- -------- -------- ---------- ---- ---- ---- ------<br>-- --------- -- ---- -- --- -- --- ------- -- - -----<br>---------- -- -- -- ---- ----- -- ------ -- --- ------<br>-------,154610.30000000075,154609.70000000112,154261.468,154274.40000000037,154278.134,154611.29,,15,in
screen,html.Screen,0_4_1_0_1_16,2021-12-10T11:51:35.072Z,,,,,,,,,,,,,,,,48,,,,,,,,,,,,,,318.3099999996193,,response,,,10,C,,,,,Space,keypress(Space),,,,instrumental,-- -- --- ------ ------- --------- ----------- --------<br>--------- -------- --- ------- -- ------- ---- -- excess<br>-- --- -------- -------- ---------- ---- ---- ---- ------<br>-- --------- -- ---- -- --- -- --- ------- -- - -----<br>---------- -- -- -- ---- ----- -- ------ -- --- ------<br>-------,154930.20000000112,154929.59999999963,154594.627,154610.5,154611.29,154944.725,,16,excess
screen,html.Screen,0_4_1_0_1_17,2021-12-10T11:51:35.457Z,,,,,,,,,,,,,,,,48,,,,,,,,,,,,,,368.87499999962165,,response,,,10,C,,,,,Space,keypress(Space),,,,instrumental,-- -- --- ------ ------- --------- ----------- --------<br>--------- -------- --- ------- -- ------- ---- -- ------<br>of --- -------- -------- ---------- ---- ---- ---- ------<br>-- --------- -- ---- -- --- -- --- ------- -- - -----<br>---------- -- -- -- ---- ----- -- ------ -- --- ------<br>-------,155314.30000000075,155313.59999999963,154928.059,154930.30000000075,154944.725,155327.956,,17,of
screen,html.Screen,0_4_1_0_1_18,2021-12-10T11:51:35.769Z,,,,,,,,,,,,,,,,48,,,,,,,,,,,,,,297.744000001112,,response,,,10,C,,,,,Space,keypress(Space),,,,instrumental,-- -- --- ------ ------- --------- ----------- --------<br>--------- -------- --- ------- -- ------- ---- -- ------<br>-- ten -------- -------- ---------- ---- ---- ---- ------<br>-- --------- -- ---- -- --- -- --- ------- -- - -----<br>---------- -- -- -- ---- ----- -- ------ -- --- ------<br>-------,155626.30000000075,155625.70000000112,155311.292,155314.5,155327.956,155628.033,,18,ten
screen,html.Screen,0_4_1_0_1_19,2021-12-10T11:51:36.120Z,,,,,,,,,,,,,,,,48,,,,,,,,,,,,,,349.56699999963166,,response,,,10,C,,,,,Space,keypress(Space),,,,instrumental,-- -- --- ------ ------- --------- ----------- --------<br>--------- -------- --- ------- -- ------- ---- -- ------<br>-- --- thousand -------- ---------- ---- ---- ---- ------<br>-- --------- -- ---- -- --- -- --- ------- -- - -----<br>---------- -- -- -- ---- ----- -- ------ -- --- ------<br>-------,155978.20000000112,155977.59999999963,155611.367,155626.40000000037,155628.033,155994.63,,19,thousand
screen,html.Screen,0_4_1_0_1_20,2021-12-10T11:51:36.432Z,,,,,,,,,,,,,,,,48,,,,,,,,,,,,,,294.9699999996228,,response,,,10,C,,,,,Space,keypress(Space),,,,instrumental,-- -- --- ------ ------- --------- ----------- --------<br>--------- -------- --- ------- -- ------- ---- -- ------<br>-- --- -------- dollars. ---------- ---- ---- ---- ------<br>-- --------- -- ---- -- --- -- --- ------- -- - -----<br>---------- -- -- -- ---- ----- -- ------ -- --- ------<br>-------,156290.09999999963,156289.59999999963,155977.965,155978.40000000037,155994.63,156294.555,,20,dollars.
screen,html.Screen,0_4_1_0_1_21,2021-12-10T11:51:36.800Z,,,,,,,,,,,,,,,,48,,,,,,,,,,,,,,363.04499999963446,,response,,,10,C,,,,,Space,keypress(Space),,,,instrumental,-- -- --- ------ ------- --------- ----------- --------<br>--------- -------- --- ------- -- ------- ---- -- ------<br>-- --- -------- -------- Concealing ---- ---- ---- ------<br>-- --------- -- ---- -- --- -- --- ------- -- - -----<br>---------- -- -- -- ---- ----- -- ------ -- --- ------<br>-------,156658.20000000112,156657.59999999963,156277.891,156290.40000000037,156294.555,156661.255,,21,Concealing
screen,html.Screen,0_4_1_0_1_22,2021-12-10T11:51:37.248Z,,,,,,,,,,,,,,,,48,,,,,,,,,,,,,,444.24499999999534,,response,,,10,C,,,,,Space,keypress(Space),,,,instrumental,-- -- --- ------ ------- --------- ----------- --------<br>--------- -------- --- ------- -- ------- ---- -- ------<br>-- --- -------- -------- ---------- more ---- ---- ------<br>-- --------- -- ---- -- --- -- --- ------- -- - -----<br>---------- -- -- -- ---- ----- -- ------ -- --- ------<br>-------,157106.20000000112,157105.5,156644.59,156658.40000000037,156661.255,157111.21,,22,more
screen,html.Screen,0_4_1_0_1_23,2021-12-10T11:51:37.632Z,,,,,,,,,,,,,,,,48,,,,,,,,,,,,,,378.29000000000815,,response,,,10,C,,,,,Space,keypress(Space),,,,instrumental,-- -- --- ------ ------- --------- ----------- --------<br>--------- -------- --- ------- -- ------- ---- -- ------<br>-- --- -------- -------- ---------- ---- than ---- ------<br>-- --------- -- ---- -- --- -- --- ------- -- - -----<br>---------- -- -- -- ---- ----- -- ------ -- --- ------<br>-------,157490.09999999963,157489.5,157094.545,157106.30000000075,157111.21,157494.462,,23,than
screen,html.Screen,0_4_1_0_1_24,2021-12-10T11:51:38.000Z,,,,,,,,,,,,,,,,48,,,,,,,,,,,,,,362.938000000373,,response,,,10,C,,,,,Space,keypress(Space),,,,instrumental,-- -- --- ------ ------- --------- ----------- --------<br>--------- -------- --- ------- -- ------- ---- -- ------<br>-- --- -------- -------- ---------- ---- ---- that ------<br>-- --------- -- ---- -- --- -- --- ------- -- - -----<br>---------- -- -- -- ---- ----- -- ------ -- --- ------<br>-------,157858.09999999963,157857.40000000037,157477.798,157490.30000000075,157494.462,157861.142,,24,that
screen,html.Screen,0_4_1_0_1_25,2021-12-10T11:51:38.400Z,,,,,,,,,,,,,,,,48,,,,,,,,,,,,,,396.35800000000745,,response,,,10,C,,,,,Space,keypress(Space),,,,instrumental,-- -- --- ------ ------- --------- ----------- --------<br>--------- -------- --- ------- -- ------- ---- -- ------<br>-- --- -------- -------- ---------- ---- ---- ---- amount<br>-- --------- -- ---- -- --- -- --- ------- -- - -----<br>---------- -- -- -- ---- ----- -- ------ -- --- ------<br>-------,158258,158257.5,157844.477,157858.20000000112,157861.142,158261.177,,25,amount
screen,html.Screen,0_4_1_0_1_26,2021-12-10T11:51:38.800Z,,,,,,,,,,,,,,,,48,,,,,,,,,,,,,,396.32300000000396,,response,,,10,C,,,,,Space,keypress(Space),,,,instrumental,-- -- --- ------ ------- --------- ----------- --------<br>--------- -------- --- ------- -- ------- ---- -- ------<br>-- --- -------- -------- ---------- ---- ---- ---- ------<br>to --------- -- ---- -- --- -- --- ------- -- - -----<br>---------- -- -- -- ---- ----- -- ------ -- --- ------<br>-------,158658.20000000112,158657.5,158244.511,158258.20000000112,158261.177,158661.041,,26,to
screen,html.Screen,0_4_1_0_1_27,2021-12-10T11:51:39.184Z,,,,,,,,,,,,,,,,48,,,,,,,,,,,,,,380.3590000003751,,response,,,10,C,,,,,Space,keypress(Space),,,,instrumental,-- -- --- ------ ------- --------- ----------- --------<br>--------- -------- --- ------- -- ------- ---- -- ------<br>-- --- -------- -------- ---------- ---- ---- ---- ------<br>-- transport -- ---- -- --- -- --- ------- -- - -----<br>---------- -- -- -- ---- ----- -- ------ -- --- ------<br>-------,159042.20000000112,159041.40000000037,158644.377,158658.40000000037,158661.041,159044.29,,27,transport
screen,html.Screen,0_4_1_0_1_28,2021-12-10T11:51:39.576Z,,,,,,,,,,,,,,,,48,,,,,,,,,,,,,,389.3099999996193,,response,,,10,C,,,,,Space,keypress(Space),,,,instrumental,-- -- --- ------ ------- --------- ----------- --------<br>--------- -------- --- ------- -- ------- ---- -- ------<br>-- --- -------- -------- ---------- ---- ---- ---- ------<br>-- --------- it ---- -- --- -- --- ------- -- - -----<br>---------- -- -- -- ---- ----- -- ------ -- --- ------<br>-------,159434.20000000112,159433.59999999963,159027.627,159042.30000000075,159044.29,159444.331,,28,it
screen,html.Screen,0_4_1_0_1_29,2021-12-10T11:51:39.912Z,,,,,,,,,,,,,,,,48,,,,,,,,,,,,,,324.96900000073947,,response,,,10,C,,,,,Space,keypress(Space),,,,instrumental,-- -- --- ------ ------- --------- ----------- --------<br>--------- -------- --- ------- -- ------- ---- -- ------<br>-- --- -------- -------- ---------- ---- ---- ---- ------<br>-- --------- -- into -- --- -- --- ------- -- - -----<br>---------- -- -- -- ---- ----- -- ------ -- --- ------<br>-------,159769.80000000075,159769.30000000075,159427.666,159434.40000000037,159444.331,159777.73,,29,into
screen,html.Screen,0_4_1_0_1_30,2021-12-10T11:51:40.360Z,,,,,,,,,,,,,,,,48,,,,,,,,,,,,,,439.5700000007346,,response,,,10,C,,,,,Space,keypress(Space),,,,instrumental,-- -- --- ------ ------- --------- ----------- --------<br>--------- -------- --- ------- -- ------- ---- -- ------<br>-- --- -------- -------- ---------- ---- ---- ---- ------<br>-- --------- -- ---- or --- -- --- ------- -- - -----<br>---------- -- -- -- ---- ----- -- ------ -- --- ------<br>-------,160217.80000000075,160217.30000000075,159761.064,159770,159777.73,160227.636,,30,or
screen,html.Screen,0_4_1_0_1_31,2021-12-10T11:51:40.720Z,,,,,,,,,,,,,,,,48,,,,,,,,,,,,,,349.66400000074646,,response,,,10,C,,,,,Space,keypress(Space),,,,instrumental,-- -- --- ------ ------- --------- ----------- --------<br>--------- -------- --- ------- -- ------- ---- -- ------<br>-- --- -------- -------- ---------- ---- ---- ---- ------<br>-- --------- -- ---- -- out -- --- ------- -- - -----<br>---------- -- -- -- ---- ----- -- ------ -- --- ------<br>-------,160577.90000000037,160577.30000000075,160210.971,160218.09999999963,160227.636,160594.292,,31,out
screen,html.Screen,0_4_1_0_1_32,2021-12-10T11:51:41.040Z,,,,,,,,,,,,,,,,48,,,,,,,,,,,,,,303.00800000075833,,response,,,10,C,,,,,Space,keypress(Space),,,,instrumental,-- -- --- ------ ------- --------- ----------- --------<br>--------- -------- --- ------- -- ------- ---- -- ------<br>-- --- -------- -------- ---------- ---- ---- ---- ------<br>-- --------- -- ---- -- --- of --- ------- -- - -----<br>---------- -- -- -- ---- ----- -- ------ -- --- ------<br>-------,160897.90000000037,160897.30000000075,160577.627,160578,160594.292,160910.955,,32,of
screen,html.Screen,0_4_1_0_1_33,2021-12-10T11:51:41.360Z,,,,,,,,,,,,,,,,48,,,,,,,,,,,,,,306.2450000011304,,response,,,10,C,,,,,Space,keypress(Space),,,,instrumental,-- -- --- ------ ------- --------- ----------- --------<br>--------- -------- --- ------- -- ------- ---- -- ------<br>-- --- -------- -------- ---------- ---- ---- ---- ------<br>-- --------- -- ---- -- --- -- the ------- -- - -----<br>---------- -- -- -- ---- ----- -- ------ -- --- ------<br>-------,161217.90000000037,161217.20000000112,160894.29,160898.09999999963,160910.955,161227.554,,33,the
screen,html.Screen,0_4_1_0_1_34,2021-12-10T11:51:41.712Z,,,,,,,,,,,,,,,,48,,,,,,,,,,,,,,341.64600000111386,,response,,,10,C,,,,,Space,keypress(Space),,,,instrumental,-- -- --- ------ ------- --------- ----------- --------<br>--------- -------- --- ------- -- ------- ---- -- ------<br>-- --- -------- -------- ---------- ---- ---- ---- ------<br>-- --------- -- ---- -- --- -- --- country -- - -----<br>---------- -- -- -- ---- ----- -- ------ -- --- ------<br>-------,161569.70000000112,161569.20000000112,161210.89,161218.09999999963,161227.554,161577.521,,34,country
screen,html.Screen,0_4_1_0_1_35,2021-12-10T11:51:42.096Z,,,,,,,,,,,,,,,,48,,,,,,,,,,,,,,375.57899999961955,,response,,,10,C,,,,,Space,keypress(Space),,,,instrumental,-- -- --- ------ ------- --------- ----------- --------<br>--------- -------- --- ------- -- ------- ---- -- ------<br>-- --- -------- -------- ---------- ---- ---- ---- ------<br>-- --------- -- ---- -- --- -- --- ------- is - -----<br>---------- -- -- -- ---- ----- -- ------ -- --- ------<br>-------,161953.80000000075,161953.09999999963,161560.857,161570,161577.521,161960.908,,35,is
screen,html.Screen,0_4_1_0_1_36,2021-12-10T11:51:42.336Z,,,,,,,,,,,,,,,,48,,,,,,,,,,,,,,232.29200000112178,,response,,,10,C,,,,,Space,keypress(Space),,,,instrumental,-- -- --- ------ ------- --------- ----------- --------<br>--------- -------- --- ------- -- ------- ---- -- ------<br>-- --- -------- -------- ---------- ---- ---- ---- ------<br>-- --------- -- ---- -- --- -- --- ------- -- a -----<br>---------- -- -- -- ---- ----- -- ------ -- --- ------<br>-------,162193.80000000075,162193.20000000112,161944.242,161954,161960.908,162210.864,,36,a
screen,html.Screen,0_4_1_0_1_37,2021-12-10T11:51:42.552Z,,,,,,,,,,,,,,,,48,,,,,,,,,,,,,,198.23599999962607,,response,,,10,C,,,,,Space,keypress(Space),,,,instrumental,-- -- --- ------ ------- --------- ----------- --------<br>--------- -------- --- ------- -- ------- ---- -- ------<br>-- --- -------- -------- ---------- ---- ---- ---- ------<br>-- --------- -- ---- -- --- -- --- ------- -- - crime<br>---------- -- -- -- ---- ----- -- ------ -- --- ------<br>-------,162409.80000000075,162409.09999999963,162194.199,162194,162210.864,162410.773,,37,crime
screen,html.Screen,0_4_1_0_1_38,2021-12-10T11:51:42.952Z,,,,,,,,,,,,,,,,48,,,,,,,,,,,,,,398.326999999641,,response,,,10,C,,,,,Space,keypress(Space),,,,instrumental,-- -- --- ------ ------- --------- ----------- --------<br>--------- -------- --- ------- -- ------- ---- -- ------<br>-- --- -------- -------- ---------- ---- ---- ---- ------<br>-- --------- -- ---- -- --- -- --- ------- -- - -----<br>punishable -- -- -- ---- ----- -- ------ -- --- ------<br>-------,162809.80000000075,162809.09999999963,162394.11,162409.90000000037,162410.773,162810.786,,38,punishable
screen,html.Screen,0_4_1_0_1_39,2021-12-10T11:51:43.408Z,,,,,,,,,,,,,,,,48,,,,,,,,,,,,,,454.3139999996347,,response,,,10,C,,,,,Space,keypress(Space),,,,instrumental,-- -- --- ------ ------- --------- ----------- --------<br>--------- -------- --- ------- -- ------- ---- -- ------<br>-- --- -------- -------- ---------- ---- ---- ---- ------<br>-- --------- -- ---- -- --- -- --- ------- -- - -----<br>---------- by -- -- ---- ----- -- ------ -- --- ------<br>-------,163265.80000000075,163265.09999999963,162794.121,162810,162810.786,163277.472,,39,by
screen,html.Screen,0_4_1_0_1_40,2021-12-10T11:51:43.784Z,,,,,,,,,,,,,,,,48,,,,,,,,,,,,,,363.52799999999115,,response,,,10,C,,,,,Space,keypress(Space),,,,instrumental,-- -- --- ------ ------- --------- ----------- --------<br>--------- -------- --- ------- -- ------- ---- -- ------<br>-- --- -------- -------- ---------- ---- ---- ---- ------<br>-- --------- -- ---- -- --- -- --- ------- -- - -----<br>---------- -- up -- ---- ----- -- ------ -- --- ------<br>-------,163641.80000000075,163641,163260.806,163265.90000000037,163277.472,163644.023,,40,up
screen,html.Screen,0_4_1_0_1_41,2021-12-10T11:51:44.096Z,,,,,,,,,,,,,,,,48,,,,,,,,,,,,,,308.9770000000135,,response,,,10,C,,,,,Space,keypress(Space),,,,instrumental,-- -- --- ------ ------- --------- ----------- --------<br>--------- -------- --- ------- -- ------- ---- -- ------<br>-- --- -------- -------- ---------- ---- ---- ---- ------<br>-- --------- -- ---- -- --- -- --- ------- -- - -----<br>---------- -- -- to ---- ----- -- ------ -- --- ------<br>-------,163953.70000000112,163953,163627.359,163641.90000000037,163644.023,163960.773,,41,to
screen,html.Screen,0_4_1_0_1_42,2021-12-10T11:51:44.424Z,,,,,,,,,,,,,,,,48,,,,,,,,,,,,,,320.2270000000135,,response,,,10,C,,,,,Space,keypress(Space),,,,instrumental,-- -- --- ------ ------- --------- ----------- --------<br>--------- -------- --- ------- -- ------- ---- -- ------<br>-- --- -------- -------- ---------- ---- ---- ---- ------<br>-- --------- -- ---- -- --- -- --- ------- -- - -----<br>---------- -- -- -- five ----- -- ------ -- --- ------<br>-------,164281.59999999963,164281,163944.107,163953.80000000075,163960.773,164293.925,,42,five
screen,html.Screen,0_4_1_0_1_43,2021-12-10T11:51:44.792Z,,,,,,,,,,,,,,,,48,,,,,,,,,,,,,,355.07500000001164,,response,,,10,C,,,,,Space,keypress(Space),,,,instrumental,-- -- --- ------ ------- --------- ----------- --------<br>--------- -------- --- ------- -- ------- ---- -- ------<br>-- --- -------- -------- ---------- ---- ---- ---- ------<br>-- --------- -- ---- -- --- -- --- ------- -- - -----<br>---------- -- -- -- ---- years -- ------ -- --- ------<br>-------,164649.70000000112,164649,164277.262,164281.80000000075,164293.925,164660.713,,43,years
screen,html.Screen,0_4_1_0_1_44,2021-12-10T11:51:45.104Z,,,,,,,,,,,,,,,,48,,,,,,,,,,,,,,300.2870000000112,,response,,,10,C,,,,,Space,keypress(Space),,,,instrumental,-- -- --- ------ ------- --------- ----------- --------<br>--------- -------- --- ------- -- ------- ---- -- ------<br>-- --- -------- -------- ---------- ---- ---- ---- ------<br>-- --------- -- ---- -- --- -- --- ------- -- - -----<br>---------- -- -- -- ---- ----- in ------ -- --- ------<br>-------,164961.59999999963,164961,164644.047,164649.90000000037,164660.713,164977.209,,44,in
screen,html.Screen,0_4_1_0_1_45,2021-12-10T11:51:45.336Z,,,,,,,,,,,,,,,,48,,,,,,,,,,,,,,215.79099999999744,,response,,,10,C,,,,,Space,keypress(Space),,,,instrumental,-- -- --- ------ ------- --------- ----------- --------<br>--------- -------- --- ------- -- ------- ---- -- ------<br>-- --- -------- -------- ---------- ---- ---- ---- ------<br>-- --------- -- ---- -- --- -- --- ------- -- - -----<br>---------- -- -- -- ---- ----- -- prison -- --- ------<br>-------,165193.5,165193,164960.546,164961.80000000075,164977.209,165210.642,,45,prison
screen,html.Screen,0_4_1_0_1_46,2021-12-10T11:51:45.704Z,,,,,,,,,,,,,,,,48,,,,,,,,,,,,,,350.35800000000745,,response,,,10,C,,,,,Space,keypress(Space),,,,instrumental,-- -- --- ------ ------- --------- ----------- --------<br>--------- -------- --- ------- -- ------- ---- -- ------<br>-- --- -------- -------- ---------- ---- ---- ---- ------<br>-- --------- -- ---- -- --- -- --- ------- -- - -----<br>---------- -- -- -- ---- ----- -- ------ in --- ------<br>-------,165561.59999999963,165561,165193.976,165193.59999999963,165210.642,165577.35,,46,in
screen,html.Screen,0_4_1_0_1_47,2021-12-10T11:51:45.968Z,,,,,,,,,,,,,,,,48,,,,,,,,,,,,,,247.5500000003667,,response,,,10,C,,,,,Space,keypress(Space),,,,instrumental,-- -- --- ------ ------- --------- ----------- --------<br>--------- -------- --- ------- -- ------- ---- -- ------<br>-- --- -------- -------- ---------- ---- ---- ---- ------<br>-- --------- -- ---- -- --- -- --- ------- -- - -----<br>---------- -- -- -- ---- ----- -- ------ -- the ------<br>-------,165825.5,165824.90000000037,165560.683,165561.70000000112,165577.35,165827.313,,47,the
screen,html.Screen,0_4_1_0_1_48,2021-12-10T11:51:46.272Z,,,,,,,,,,,,,,,,48,,,,,,,,,,,,,,301.4870000007504,,response,,,10,C,,,,,Space,keypress(Space),,,,instrumental,-- -- --- ------ ------- --------- ----------- --------<br>--------- -------- --- ------- -- ------- ---- -- ------<br>-- --- -------- -------- ---------- ---- ---- ---- ------<br>-- --------- -- ---- -- --- -- --- ------- -- - -----<br>---------- -- -- -- ---- ----- -- ------ -- --- United<br>-------,166129.40000000037,166128.80000000075,165810.647,165825.59999999963,165827.313,166143.841,,48,United
screen,html.Screen,0_4_1_0_1_49,2021-12-10T11:51:46.640Z,,,,,,,,,,,,,,,,48,,,,,,,,,,,,,,352.95900000075926,,response,,,10,C,,,,,Space,keypress(Space),,,,instrumental,-- -- --- ------ ------- --------- ----------- --------<br>--------- -------- --- ------- -- ------- ---- -- ------<br>-- --- -------- -------- ---------- ---- ---- ---- ------<br>-- --------- -- ---- -- --- -- --- ------- -- - -----<br>---------- -- -- -- ---- ----- -- ------ -- --- ------<br>States.,166497.40000000037,166496.80000000075,166127.178,166129.5,166143.841,166510.539,,49,States.
Item 10,flow.Loop,0_4_1_0_1,2021-12-10T11:51:46.640Z,,,,,,,,,,,,,,,,,,,,,,,,,,,,,,17701.713000000746,,completion,,,,,,,,,,,,,,,,166497.70000000112,166496.80000000075,148778.422,148779.30000000075,148795.087,166510.539,,,
Question 1,html.Screen,0_4_1_0_2,2021-12-10T11:51:49.409Z,,,,,,,,,,,,,,,,,,,,,,,,,,,false,TRUE,,2755.361000000383,,response,,,10,C,,,,,FALSE,click #choice-2,,,,instrumental,,169266.70000000112,169265.90000000037,166493.874,166497.90000000037,166510.539,169276.961,,,
Question 2,html.Screen,0_4_1_0_3,2021-12-10T11:51:52.289Z,,,,,,,,,,,,,,,,,,,,,,,,,,,true,TRUE,,2869.2390000011073,,response,,,10,C,,,,,TRUE,click #choice-1,,,,instrumental,,172147.09999999963,172146.20000000112,169260.297,169267,169276.961,172159.935,,,
Item 10,flow.Sequence,0_4_1_0,2021-12-10T11:51:52.290Z,,,,,,,,,,,,,,,,,,,,,,,,,,,,,,30350.83400000111,,completion,,,,,,,,,,,,,,,,172147.40000000037,172146.20000000112,141778.701,141780.5,141795.366,172159.935,,,
Holding screen,html.Screen,0_4_1_1_0,2021-12-10T11:51:59.286Z,,,,,,,,,,,,,,,,,,,,,,,,,,,,,,6999.697000000015,,timeout,,,,,,,,,,,,,,,,179143.90000000037,179142.967,172143.273,172147.5,172159.935,179159.632,,,
screen,html.Screen,0_4_1_1_1_0,2021-12-10T11:51:59.911Z,,,,,,,,,,,,,,,,2,,,,,,,,,,,,,,608.3679999999877,,response,,,1,C,,,,,Space,keypress(Space),,,,instrumental,Two ---- ------ --- ------- ---------- ------- ----------<br>--- --------- --- ----------- ------- ----- ------- ---<br>--------- ---- -- --- ---- -- --------- -- ---- -------<br>-- --------- ------ --- ----- ------ ---- --- --------- --<br>------ - ---- -- --- ----------- ------- ---- ----- -----<br>--- -------- - ------ ---- -- ----- ---- --- --- -----------<br>-- -------,179768.70000000112,179768,179142.967,179144.09999999963,179159.632,179776.162,,0,Two
screen,html.Screen,0_4_1_1_1_1,2021-12-10T11:52:00.223Z,,,,,,,,,,,,,,,,2,,,,,,,,,,,,,,303.73800000036135,,response,,,1,C,,,,,Space,keypress(Space),,,,instrumental,--- days ------ --- ------- ---------- ------- ----------<br>--- --------- --- ----------- ------- ----- ------- ---<br>--------- ---- -- --- ---- -- --------- -- ---- -------<br>-- --------- ------ --- ----- ------ ---- --- --------- --<br>------ - ---- -- --- ----------- ------- ---- ----- -----<br>--- -------- - ------ ---- -- ----- ---- --- --- -----------<br>-- -------,180080.5,180079.90000000037,179759.498,179768.80000000075,179776.162,180092.904,,1,days
screen,html.Screen,0_4_1_1_1_2,2021-12-10T11:52:00.567Z,,,,,,,,,,,,,,,,2,,,,,,,,,,,,,,330.996000000363,,response,,,1,C,,,,,Space,keypress(Space),,,,instrumental,"--- ---- later, --- ------- ---------- ------- ----------<br>--- --------- --- ----------- ------- ----- ------- ---<br>--------- ---- -- --- ---- -- --------- -- ---- -------<br>-- --------- ------ --- ----- ------ ---- --- --------- --<br>------ - ---- -- --- ----------- ------- ---- ----- -----<br>--- -------- - ------ ---- -- ----- ---- --- --- -----------<br>-- -------",180424.5,180423.90000000037,180076.239,180080.70000000112,180092.904,180426.234,,2,"later,"
