sender,sender_type,sender_id,timestamp,meta,,Blues,Classical,Country,Dance,Electronic,Folk,Gospel,Hip-Hop,Jazz,Latin,Musical/Film,New-age,Pop,Provo_ID,R&B,Rap,Reggae,Religious,Rock,Soul,Swing,Traditional,age,artist_name,correct,correctResponse,distraction,duration,education,ended_on,familiarity,gender,item,list,music_frequency,offensiveness,pleasantness,preference,response,response_action,snippet_file,song_name,song_rating,sound,text,time_commit,time_end,time_render,time_run,time_show,time_switch,url,word,word_ID
Instructions,html.Page,0_0,2021-12-02T13:21:20.103Z,"{""labjs_version"":""20.2.3"",""labjs_build"":{""flavor"":""production"",""commit"":""7ea907d66ca8aeef8054924ca5d82ffbe11e34e5""},""location"":""https://run.pavlovia.org/mvasilev/lab_music_e/"",""userAgent"":""Mozilla/5.0 (Windows NT 6.1; Win64; x64) AppleWebKit/537.36 (KHTML, like Gecko) Chrome/96.0.4664.45 Safari/537.36"",""platform"":""Win32"",""language"":""en-US"",""locale"":""en-US"",""timeZone"":""Europe/London"",""timezoneOffset"":0,""screen_width"":1920,""screen_height"":1080,""scroll_width"":1920,""scroll_height"":959,""window_innerWidth"":1920,""window_innerHeight"":1007,""devicePixelRatio"":1}",,,,,,,,,,,,,,,,,,,,,,,,,,,,,13747.91300000298,,form submission,,,,,,,,,,,,,,,,25356.900000002235,25355.70000000298,11557.777,11576.900000002235,11607.787,25353.97,{},,
Headphones,html.Page,0_1,2021-12-02T13:21:23.035Z,,,,,,,,,,,,,,,,,,,,,,,,,,,,,,2935.029999999999,,form submission,,,,,,,,,,,,,,,,28289.400000002235,28289,25337.284,25357.60000000149,25353.97,28295.519,,,
Holding screen,html.Screen,0_2_0_0,2021-12-02T13:21:33.033Z,,,,,,,,,,,,,,,,,,,,,,,,,,,,,,10002.623999999996,,timeout,,,,,,,,,,,,,,,,38287.300000000745,38281.474,28278.85,28290,28295.519,38298.143,,,
screen,html.Screen,0_2_0_1_0,2021-12-02T13:21:34.301Z,,,,,,,,,,,,,,,,53,,,,,,,,,,,,,,1255.6570000007487,,response,,,99,,,,,,Space,keypress(Space),,,,,When -- ----- -- ------ - ------- --- ----------<br>------------- ------ ------ ---- ---- ------- ----- -- ----<br>-------- ------- -- ---------- --- - --- ----- ----- ----<br>---- --- --- ----- --- ---- ---- ------- ----- ---- -------<br>--- --- -- ----- -- --- ---- -- --- ---- -- ------ ------<br>--- ----- -- ----,39555.20000000298,39553.800000000745,38281.474,38287.800000000745,38298.143,39565.493,,0,When
screen,html.Screen,0_2_0_1_1,2021-12-02T13:21:35.092Z,,,,,,,,,,,,,,,,53,,,,,,,,,,,,,,779.8070000007428,,response,,,99,,,,,,Space,keypress(Space),,,,,---- it ----- -- ------ - ------- --- ----------<br>------------- ------ ------ ---- ---- ------- ----- -- ----<br>-------- ------- -- ---------- --- - --- ----- ----- ----<br>---- --- --- ----- --- ---- ---- ------- ----- ---- -------<br>--- --- -- ----- -- --- ---- -- --- ---- -- ------ ------<br>--- ----- -- ----,40346.20000000298,40345.300000000745,39548.821,39555.70000000298,39565.493,40348.84,,1,it
screen,html.Screen,0_2_0_1_2,2021-12-02T13:21:35.804Z,,,,,,,,,,,,,,,,53,,,,,,,,,,,,,,708.3600000029837,,response,,,99,,,,,,Space,keypress(Space),,,,,---- -- comes -- ------ - ------- --- ----------<br>------------- ------ ------ ---- ---- ------- ----- -- ----<br>-------- ------- -- ---------- --- - --- ----- ----- ----<br>---- --- --- ----- --- ---- ---- ------- ----- ---- -------<br>--- --- -- ----- -- --- ---- -- --- ---- -- ------ ------<br>--- ----- -- ----,41058.20000000298,41057.20000000298,40332.17,40346.5,40348.84,41065.767,,2,comes
screen,html.Screen,0_2_0_1_3,2021-12-02T13:21:36.276Z,,,,,,,,,,,,,,,,53,,,,,,,,,,,,,,463.4330000029804,,response,,,99,,,,,,Space,keypress(Space),,,,,---- -- ----- to ------ - ------- --- ----------<br>------------- ------ ------ ---- ---- ------- ----- -- ----<br>-------- ------- -- ---------- --- - --- ----- ----- ----<br>---- --- --- ----- --- ---- ---- ------- ----- ---- -------<br>--- --- -- ----- -- --- ---- -- --- ---- -- ------ ------<br>--- ----- -- ----,41530.20000000298,41529.20000000298,41049.097,41058.5,41065.767,41532.464,,3,to
screen,html.Screen,0_2_0_1_4,2021-12-02T13:21:36.740Z,,,,,,,,,,,,,,,,53,,,,,,,,,,,,,,460.7360000029803,,response,,,99,,,,,,Space,keypress(Space),,,,,---- -- ----- -- having - ------- --- ----------<br>------------- ------ ------ ---- ---- ------- ----- -- ----<br>-------- ------- -- ---------- --- - --- ----- ----- ----<br>---- --- --- ----- --- ---- ---- ------- ----- ---- -------<br>--- --- -- ----- -- --- ---- -- --- ---- -- ------ ------<br>--- ----- -- ----,41994.300000000745,41993.20000000298,41515.795,41530.70000000298,41532.464,41999.316,,4,having
screen,html.Screen,0_2_0_1_5,2021-12-02T13:21:37.148Z,,,,,,,,,,,,,,,,53,,,,,,,,,,,,,,401.88400000298134,,response,,,99,,,,,,Space,keypress(Space),,,,,---- -- ----- -- ------ a ------- --- ----------<br>------------- ------ ------ ---- ---- ------- ----- -- ----<br>-------- ------- -- ---------- --- - --- ----- ----- ----<br>---- --- --- ----- --- ---- ---- ------- ----- ---- -------<br>--- --- -- ----- -- --- ---- -- --- ---- -- ------ ------<br>--- ----- -- ----,42402.10000000149,42401.20000000298,41982.646,41994.70000000298,41999.316,42416.07,,5,a
screen,html.Screen,0_2_0_1_6,2021-12-02T13:21:37.596Z,,,,,,,,,,,,,,,,53,,,,,,,,,,,,,,433.1300000029805,,response,,,99,,,,,,Space,keypress(Space),,,,,---- -- ----- -- ------ - lasting --- ----------<br>------------- ------ ------ ---- ---- ------- ----- -- ----<br>-------- ------- -- ---------- --- - --- ----- ----- ----<br>---- --- --- ----- --- ---- ---- ------- ----- ---- -------<br>--- --- -- ----- -- --- ---- -- --- ---- -- ------ ------<br>--- ----- -- ----,42850.10000000149,42849.20000000298,42399.4,42402.70000000298,42416.07,42866.337,,6,lasting
screen,html.Screen,0_2_0_1_7,2021-12-02T13:21:37.980Z,,,,,,,,,,,,,,,,53,,,,,,,,,,,,,,366.8630000029807,,response,,,99,,,,,,Space,keypress(Space),,,,,---- -- ----- -- ------ - ------- and ----------<br>------------- ------ ------ ---- ---- ------- ----- -- ----<br>-------- ------- -- ---------- --- - --- ----- ----- ----<br>---- --- --- ----- --- ---- ---- ------- ----- ---- -------<br>--- --- -- ----- -- --- ---- -- --- ---- -- ------ ------<br>--- ----- -- ----,43234.10000000149,43233.20000000298,42849.665,42850.400000002235,42866.337,43249.685,,7,and
screen,html.Screen,0_2_0_1_8,2021-12-02T13:21:38.396Z,,,,,,,,,,,,,,,,53,,,,,,,,,,,,,,399.41500000149244,,response,,,99,,,,,,Space,keypress(Space),,,,,---- -- ----- -- ------ - ------- --- fulfilling<br>------------- ------ ------ ---- ---- ------- ----- -- ----<br>-------- ------- -- ---------- --- - --- ----- ----- ----<br>---- --- --- ----- --- ---- ---- ------- ----- ---- -------<br>--- --- -- ----- -- --- ---- -- --- ---- -- ------ ------<br>--- ----- -- ----,43650.300000000745,43649.10000000149,43233.015,43234.400000002235,43249.685,43666.458,,8,fulfilling
screen,html.Screen,0_2_0_1_9,2021-12-02T13:21:38.780Z,,,,,,,,,,,,,,,,53,,,,,,,,,,,,,,366.6420000014914,,response,,,99,,,,,,Space,keypress(Space),,,,,"---- -- ----- -- ------ - ------- --- ----------<br>relationship, ------ ------ ---- ---- ------- ----- -- ----<br>-------- ------- -- ---------- --- - --- ----- ----- ----<br>---- --- --- ----- --- ---- ---- ------- ----- ---- -------<br>--- --- -- ----- -- --- ---- -- --- ---- -- ------ ------<br>--- ----- -- ----",44034.10000000149,44033.10000000149,43649.788,43650.60000000149,43666.458,44049.891,,9,"relationship,"
screen,html.Screen,0_2_0_1_10,2021-12-02T13:21:39.204Z,,,,,,,,,,,,,,,,53,,,,,,,,,,,,,,407.10899999999674,,response,,,99,,,,,,Space,keypress(Space),,,,,---- -- ----- -- ------ - ------- --- ----------<br>------------- common ------ ---- ---- ------- ----- -- ----<br>-------- ------- -- ---------- --- - --- ----- ----- ----<br>---- --- --- ----- --- ---- ---- ------- ----- ---- -------<br>--- --- -- ----- -- --- ---- -- --- ---- -- ------ ------<br>--- ----- -- ----,44457.900000002235,44457,44033.221,44034.300000000745,44049.891,44466.557,,10,common
screen,html.Screen,0_2_0_1_11,2021-12-02T13:21:39.604Z,,,,,,,,,,,,,,,,53,,,,,,,,,,,,,,390.5430000014894,,response,,,99,,,,,,Space,keypress(Space),,,,,---- -- ----- -- ------ - ------- --- ----------<br>------------- ------ wisdom ---- ---- ------- ----- -- ----<br>-------- ------- -- ---------- --- - --- ----- ----- ----<br>---- --- --- ----- --- ---- ---- ------- ----- ---- -------<br>--- --- -- ----- -- --- ---- -- --- ---- -- ------ ------<br>--- ----- -- ----,44857.900000002235,44857.10000000149,44449.888,44458.20000000298,44466.557,44866.842,,11,wisdom
screen,html.Screen,0_2_0_1_12,2021-12-02T13:21:40.059Z,,,,,,,,,,,,,,,,53,,,,,,,,,,,,,,446.05800000223826,,response,,,99,,,,,,Space,keypress(Space),,,,,---- -- ----- -- ------ - ------- --- ----------<br>------------- ------ ------ says ---- ------- ----- -- ----<br>-------- ------- -- ---------- --- - --- ----- ----- ----<br>---- --- --- ----- --- ---- ---- ------- ----- ---- -------<br>--- --- -- ----- -- --- ---- -- --- ---- -- ------ ------<br>--- ----- -- ----,45313.5,45312.900000002235,44850.17,44858.20000000298,44866.842,45316.919,,12,says
screen,html.Screen,0_2_0_1_13,2021-12-02T13:21:40.468Z,,,,,,,,,,,,,,,,53,,,,,,,,,,,,,,404.0809999999983,,response,,,99,,,,,,Space,keypress(Space),,,,,---- -- ----- -- ------ - ------- --- ----------<br>------------- ------ ------ ---- that ------- ----- -- ----<br>-------- ------- -- ---------- --- - --- ----- ----- ----<br>---- --- --- ----- --- ---- ---- ------- ----- ---- -------<br>--- --- -- ----- -- --- ---- -- --- ---- -- ------ ------<br>--- ----- -- ----,45721.800000000745,45721,45300.248,45313.60000000149,45316.919,45733.582,,13,that
screen,html.Screen,0_2_0_1_14,2021-12-02T13:21:40.876Z,,,,,,,,,,,,,,,,53,,,,,,,,,,,,,,395.41799999999785,,response,,,99,,,,,,Space,keypress(Space),,,,,---- -- ----- -- ------ - ------- --- ----------<br>------------- ------ ------ ---- ---- feeling ----- -- ----<br>-------- ------- -- ---------- --- - --- ----- ----- ----<br>---- --- --- ----- --- ---- ---- ------- ----- ---- -------<br>--- --- -- ----- -- --- ---- -- --- ---- -- ------ ------<br>--- ----- -- ----,46129.800000000745,46129,45716.913,45722.10000000149,45733.582,46133.782,,14,feeling
screen,html.Screen,0_2_0_1_15,2021-12-02T13:21:41.260Z,,,,,,,,,,,,,,,,53,,,,,,,,,,,,,,379.21800000000076,,response,,,99,,,,,,Space,keypress(Space),,,,,---- -- ----- -- ------ - ------- --- ----------<br>------------- ------ ------ ---- ---- ------- close -- ----<br>-------- ------- -- ---------- --- - --- ----- ----- ----<br>---- --- --- ----- --- ---- ---- ------- ----- ---- -------<br>--- --- -- ----- -- --- ---- -- --- ---- -- ------ ------<br>--- ----- -- ----,46513.800000000745,46513,46117.111,46130.10000000149,46133.782,46517.239,,15,close
screen,html.Screen,0_2_0_1_16,2021-12-02T13:21:41.620Z,,,,,,,,,,,,,,,,53,,,,,,,,,,,,,,355.6610000022338,,response,,,99,,,,,,Space,keypress(Space),,,,,---- -- ----- -- ------ - ------- --- ----------<br>------------- ------ ------ ---- ---- ------- ----- to ----<br>-------- ------- -- ---------- --- - --- ----- ----- ----<br>---- --- --- ----- --- ---- ---- ------- ----- ---- -------<br>--- --- -- ----- -- --- ---- -- --- ---- -- ------ ------<br>--- ----- -- ----,46873.800000000745,46872.900000002235,46500.568,46514.10000000149,46517.239,46883.891,,16,to
screen,html.Screen,0_2_0_1_17,2021-12-02T13:21:42.020Z,,,,,,,,,,,,,,,,53,,,,,,,,,,,,,,389.0090000022319,,response,,,99,,,,,,Space,keypress(Space),,,,,---- -- ----- -- ------ - ------- --- ----------<br>------------- ------ ------ ---- ---- ------- ----- -- your<br>-------- ------- -- ---------- --- - --- ----- ----- ----<br>---- --- --- ----- --- ---- ---- ------- ----- ---- -------<br>--- --- -- ----- -- --- ---- -- --- ---- -- ------ ------<br>--- ----- -- ----,47273.800000000745,47272.900000002235,46867.222,46874,46883.891,47284.099,,17,your
screen,html.Screen,0_2_0_1_18,2021-12-02T13:21:42.411Z,,,,,,,,,,,,,,,,53,,,,,,,,,,,,,,380.8010000022332,,response,,,99,,,,,,Space,keypress(Space),,,,,---- -- ----- -- ------ - ------- --- ----------<br>------------- ------ ------ ---- ---- ------- ----- -- ----<br>romantic ------- -- ---------- --- - --- ----- ----- ----<br>---- --- --- ----- --- ---- ---- ------- ----- ---- -------<br>--- --- -- ----- -- --- ---- -- --- ---- -- ------ ------<br>--- ----- -- ----,47665.70000000298,47664.900000002235,47267.428,47274,47284.099,47667.474,,18,romantic
screen,html.Screen,0_2_0_1_19,2021-12-02T13:21:42.812Z,,,,,,,,,,,,,,,,53,,,,,,,,,,,,,,397.3260000007431,,response,,,99,,,,,,Space,keypress(Space),,,,,---- -- ----- -- ------ - ------- --- ----------<br>------------- ------ ------ ---- ---- ------- ----- -- ----<br>-------- partner -- ---------- --- - --- ----- ----- ----<br>---- --- --- ----- --- ---- ---- ------- ----- ---- -------<br>--- --- -- ----- -- --- ---- -- --- ---- -- ------ ------<br>--- ----- -- ----,48065.70000000298,48064.800000000745,47650.804,47665.900000002235,47667.474,48067.598,,19,partner
screen,html.Screen,0_2_0_1_20,2021-12-02T13:21:43.195Z,,,,,,,,,,,,,,,,53,,,,,,,,,,,,,,381.1020000029821,,response,,,99,,,,,,Space,keypress(Space),,,,,---- -- ----- -- ------ - ------- --- ----------<br>------------- ------ ------ ---- ---- ------- ----- -- ----<br>-------- ------- is ---------- --- - --- ----- ----- ----<br>---- --- --- ----- --- ---- ---- ------- ----- ---- -------<br>--- --- -- ----- -- --- ---- -- --- ---- -- ------ ------<br>--- ----- -- ----,48449.60000000149,48448.70000000298,48050.928,48066,48067.598,48451.021,,20,is
screen,html.Screen,0_2_0_1_21,2021-12-02T13:21:43.571Z,,,,,,,,,,,,,,,,53,,,,,,,,,,,,,,373.7790000007444,,response,,,99,,,,,,Space,keypress(Space),,,,,---- -- ----- -- ------ - ------- --- ----------<br>------------- ------ ------ ---- ---- ------- ----- -- ----<br>-------- ------- -- paramount. --- - --- ----- ----- ----<br>---- --- --- ----- --- ---- ---- ------- ----- ---- -------<br>--- --- -- ----- -- --- ---- -- --- ---- -- ------ ------<br>--- ----- -- ----,48825.60000000149,48824.800000000745,48434.351,48449.900000002235,48451.021,48834.449,,21,paramount.
screen,html.Screen,0_2_0_1_22,2021-12-02T13:21:43.979Z,,,,,,,,,,,,,,,,53,,,,,,,,,,,,,,398.2510000029797,,response,,,99,,,,,,Space,keypress(Space),,,,,---- -- ----- -- ------ - ------- --- ----------<br>------------- ------ ------ ---- ---- ------- ----- -- ----<br>-------- ------- -- ---------- But - --- ----- ----- ----<br>---- --- --- ----- --- ---- ---- ------- ----- ---- -------<br>--- --- -- ----- -- --- ---- -- --- ---- -- ------ ------<br>--- ----- -- ----,49233.60000000149,49232.70000000298,48817.779,48826.20000000298,48834.449,49234.592,,22,But
screen,html.Screen,0_2_0_1_23,2021-12-02T13:21:44.356Z,,,,,,,,,,,,,,,,53,,,,,,,,,,,,,,374.70800000074814,,response,,,99,,,,,,Space,keypress(Space),,,,,---- -- ----- -- ------ - ------- --- ----------<br>------------- ------ ------ ---- ---- ------- ----- -- ----<br>-------- ------- -- ---------- --- a --- ----- ----- ----<br>---- --- --- ----- --- ---- ---- ------- ----- ---- -------<br>--- --- -- ----- -- --- ---- -- --- ---- -- ------ ------<br>--- ----- -- ----,49610.10000000149,49609.300000000745,49217.921,49233.800000000745,49234.592,49617.975,,23,a
screen,html.Screen,0_2_0_1_24,2021-12-02T13:21:44.763Z,,,,,,,,,,,,,,,,53,,,,,,,,,,,,,,398.7250000029817,,response,,,99,,,,,,Space,keypress(Space),,,,,---- -- ----- -- ------ - ------- --- ----------<br>------------- ------ ------ ---- ---- ------- ----- -- ----<br>-------- ------- -- ---------- --- - new ----- ----- ----<br>---- --- --- ----- --- ---- ---- ------- ----- ---- -------<br>--- --- -- ----- -- --- ---- -- --- ---- -- ------ ------<br>--- ----- -- ----,50017.60000000149,50016.70000000298,49601.305,49610.300000000745,49617.975,50034.743,,24,new
screen,html.Screen,0_2_0_1_25,2021-12-02T13:21:45.139Z,,,,,,,,,,,,,,,,53,,,,,,,,,,,,,,357.957000002978,,response,,,99,,,,,,Space,keypress(Space),,,,,---- -- ----- -- ------ - ------- --- ----------<br>------------- ------ ------ ---- ---- ------- ----- -- ----<br>-------- ------- -- ---------- --- - --- study ----- ----<br>---- --- --- ----- --- ---- ---- ------- ----- ---- -------<br>--- --- -- ----- -- --- ---- -- --- ---- -- ------ ------<br>--- ----- -- ----,50393.5,50392.70000000298,50018.073,50017.900000002235,50034.743,50401.525,,25,study
screen,html.Screen,0_2_0_1_26,2021-12-02T13:21:45.555Z,,,,,,,,,,,,,,,,53,,,,,,,,,,,,,,407.2750000007436,,response,,,99,,,,,,Space,keypress(Space),,,,,---- -- ----- -- ------ - ------- --- ----------<br>------------- ------ ------ ---- ---- ------- ----- -- ----<br>-------- ------- -- ---------- --- - --- ----- finds ----<br>---- --- --- ----- --- ---- ---- ------- ----- ---- -------<br>--- --- -- ----- -- --- ---- -- --- ---- -- ------ ------<br>--- ----- -- ----,50809.5,50808.800000000745,50384.855,50393.800000000745,50401.525,50818.332,,26,finds
screen,html.Screen,0_2_0_1_27,2021-12-02T13:21:45.955Z,,,,,,,,,,,,,,,,53,,,,,,,,,,,,,,390.3680000029781,,response,,,99,,,,,,Space,keypress(Space),,,,,---- -- ----- -- ------ - ------- --- ----------<br>------------- ------ ------ ---- ---- ------- ----- -- ----<br>-------- ------- -- ---------- --- - --- ----- ----- that<br>---- --- --- ----- --- ---- ---- ------- ----- ---- -------<br>--- --- -- ----- -- --- ---- -- --- ---- -- ------ ------<br>--- ----- -- ----,51209.5,51208.70000000298,50801.661,50809.800000000745,50818.332,51218.39,,27,that
screen,html.Screen,0_2_0_1_28,2021-12-02T13:21:46.323Z,,,,,,,,,,,,,,,,53,,,,,,,,,,,,,,358.2100000014907,,response,,,99,,,,,,Space,keypress(Space),,,,,---- -- ----- -- ------ - ------- --- ----------<br>------------- ------ ------ ---- ---- ------- ----- -- ----<br>-------- ------- -- ---------- --- - --- ----- ----- ----<br>it's --- --- ----- --- ---- ---- ------- ----- ---- -------<br>--- --- -- ----- -- --- ---- -- --- ---- -- ------ ------<br>--- ----- -- ----,51577.5,51576.60000000149,51201.72,51209.800000000745,51218.39,51585.144,,28,it's
screen,html.Screen,0_2_0_1_29,2021-12-02T13:21:46.699Z,,,,,,,,,,,,,,,,53,,,,,,,,,,,,,,367.4560000014899,,response,,,99,,,,,,Space,keypress(Space),,,,,---- -- ----- -- ------ - ------- --- ----------<br>------------- ------ ------ ---- ---- ------- ----- -- ----<br>-------- ------- -- ---------- --- - --- ----- ----- ----<br>---- not --- ----- --- ---- ---- ------- ----- ---- -------<br>--- --- -- ----- -- --- ---- -- --- ---- -- ------ ------<br>--- ----- -- ----,51953.400000002235,51952.60000000149,51568.474,51577.800000000745,51585.144,51968.508,,29,not
screen,html.Screen,0_2_0_1_30,2021-12-02T13:21:47.091Z,,,,,,,,,,,,,,,,53,,,,,,,,,,,,,,376.0920000014885,,response,,,99,,,,,,Space,keypress(Space),,,,,---- -- ----- -- ------ - ------- --- ----------<br>------------- ------ ------ ---- ---- ------- ----- -- ----<br>-------- ------- -- ---------- --- - --- ----- ----- ----<br>---- --- how ----- --- ---- ---- ------- ----- ---- -------<br>--- --- -- ----- -- --- ---- -- --- ---- -- ------ ------<br>--- ----- -- ----,52345.60000000149,52344.60000000149,51951.839,51953.800000000745,51968.508,52352.093,,30,how
screen,html.Screen,0_2_0_1_31,2021-12-02T13:21:47.475Z,,,,,,,,,,,,,,,,53,,,,,,,,,,,,,,376.50700000148936,,response,,,99,,,,,,Space,keypress(Space),,,,,---- -- ----- -- ------ - ------- --- ----------<br>------------- ------ ------ ---- ---- ------- ----- -- ----<br>-------- ------- -- ---------- --- - --- ----- ----- ----<br>---- --- --- close --- ---- ---- ------- ----- ---- -------<br>--- --- -- ----- -- --- ---- -- --- ---- -- ------ ------<br>--- ----- -- ----,52729.400000002235,52728.60000000149,52335.421,52345.800000000745,52352.093,52735.44,,31,close
screen,html.Screen,0_2_0_1_32,2021-12-02T13:21:47.891Z,,,,,,,,,,,,,,,,53,,,,,,,,,,,,,,409.1600000014878,,response,,,99,,,,,,Space,keypress(Space),,,,,---- -- ----- -- ------ - ------- --- ----------<br>------------- ------ ------ ---- ---- ------- ----- -- ----<br>-------- ------- -- ---------- --- - --- ----- ----- ----<br>---- --- --- ----- you ---- ---- ------- ----- ---- -------<br>--- --- -- ----- -- --- ---- -- --- ---- -- ------ ------<br>--- ----- -- ----,53145.400000002235,53144.60000000149,52718.77,52729.60000000149,52735.44,53152.264,,32,you
screen,html.Screen,0_2_0_1_33,2021-12-02T13:21:48.323Z,,,,,,,,,,,,,,,,53,,,,,,,,,,,,,,424.23599999999715,,response,,,99,,,,,,Space,keypress(Space),,,,,---- -- ----- -- ------ - ------- --- ----------<br>------------- ------ ------ ---- ---- ------- ----- -- ----<br>-------- ------- -- ---------- --- - --- ----- ----- ----<br>---- --- --- ----- --- feel ---- ------- ----- ---- -------<br>--- --- -- ----- -- --- ---- -- --- ---- -- ------ ------<br>--- ----- -- ----,53577.400000002235,53576.5,53135.593,53145.60000000149,53152.264,53585.658,,33,feel
screen,html.Screen,0_2_0_1_34,2021-12-02T13:21:48.691Z,,,,,,,,,,,,,,,,53,,,,,,,,,,,,,,358.7420000022321,,response,,,99,,,,,,Space,keypress(Space),,,,,---- -- ----- -- ------ - ------- --- ----------<br>------------- ------ ------ ---- ---- ------- ----- -- ----<br>-------- ------- -- ---------- --- - --- ----- ----- ----<br>---- --- --- ----- --- ---- that ------- ----- ---- -------<br>--- --- -- ----- -- --- ---- -- --- ---- -- ------ ------<br>--- ----- -- ----,53945.20000000298,53944.400000002235,53568.988,53577.60000000149,53585.658,53952.425,,34,that
screen,html.Screen,0_2_0_1_35,2021-12-02T13:21:49.083Z,,,,,,,,,,,,,,,,53,,,,,,,,,,,,,,384.0749999999971,,response,,,99,,,,,,Space,keypress(Space),,,,,---- -- ----- -- ------ - ------- --- ----------<br>------------- ------ ------ ---- ---- ------- ----- -- ----<br>-------- ------- -- ---------- --- - --- ----- ----- ----<br>---- --- --- ----- --- ---- ---- matters ----- ---- -------<br>--- --- -- ----- -- --- ---- -- --- ---- -- ------ ------<br>--- ----- -- ----,54337.300000000745,54336.5,53935.755,53945.400000002235,53952.425,54352.589,,35,matters
screen,html.Screen,0_2_0_1_36,2021-12-02T13:21:49.483Z,,,,,,,,,,,,,,,,53,,,,,,,,,,,,,,383.91100000000006,,response,,,99,,,,,,Space,keypress(Space),,,,,"---- -- ----- -- ------ - ------- --- ----------<br>------------- ------ ------ ---- ---- ------- ----- -- ----<br>-------- ------- -- ---------- --- - --- ----- ----- ----<br>---- --- --- ----- --- ---- ---- ------- most, ---- -------<br>--- --- -- ----- -- --- ---- -- --- ---- -- ------ ------<br>--- ----- -- ----",54737.60000000149,54736.5,54335.918,54337.5,54352.589,54752.6,,36,"most,"
screen,html.Screen,0_2_0_1_37,2021-12-02T13:21:49.892Z,,,,,,,,,,,,,,,,53,,,,,,,,,,,,,,391.80000000223663,,response,,,99,,,,,,Space,keypress(Space),,,,,---- -- ----- -- ------ - ------- --- ----------<br>------------- ------ ------ ---- ---- ------- ----- -- ----<br>-------- ------- -- ---------- --- - --- ----- ----- ----<br>---- --- --- ----- --- ---- ---- ------- ----- it's -------<br>--- --- -- ----- -- --- ---- -- --- ---- -- ------ ------<br>--- ----- -- ----,55145.800000000745,55144.400000002235,54735.931,54737.800000000745,54752.6,55152.654,,37,it's
screen,html.Screen,0_2_0_1_38,2021-12-02T13:21:50.299Z,,,,,,,,,,,,,,,,53,,,,,,,,,,,,,,399.7460000022329,,response,,,99,,,,,,Space,keypress(Space),,,,,---- -- ----- -- ------ - ------- --- ----------<br>------------- ------ ------ ---- ---- ------- ----- -- ----<br>-------- ------- -- ---------- --- - --- ----- ----- ----<br>---- --- --- ----- --- ---- ---- ------- ----- ---- whether<br>--- --- -- ----- -- --- ---- -- --- ---- -- ------ ------<br>--- ----- -- ----,55553.400000002235,55552.400000002235,55135.985,55146,55152.654,55569.55,,38,whether
screen,html.Screen,0_2_0_1_39,2021-12-02T13:21:50.667Z,,,,,,,,,,,,,,,,53,,,,,,,,,,,,,,350.9499999999971,,response,,,99,,,,,,Space,keypress(Space),,,,,---- -- ----- -- ------ - ------- --- ----------<br>------------- ------ ------ ---- ---- ------- ----- -- ----<br>-------- ------- -- ---------- --- - --- ----- ----- ----<br>---- --- --- ----- --- ---- ---- ------- ----- ---- -------<br>you --- -- ----- -- --- ---- -- --- ---- -- ------ ------<br>--- ----- -- ----,55921.300000000745,55920.5,55552.879,55553.5,55569.55,55936.366,,39,you
screen,html.Screen,0_2_0_1_40,2021-12-02T13:21:51.059Z,,,,,,,,,,,,,,,,53,,,,,,,,,,,,,,376.03400000223337,,response,,,99,,,,,,Space,keypress(Space),,,,,---- -- ----- -- ------ - ------- --- ----------<br>------------- ------ ------ ---- ---- ------- ----- -- ----<br>-------- ------- -- ---------- --- - --- ----- ----- ----<br>---- --- --- ----- --- ---- ---- ------- ----- ---- -------<br>--- are -- ----- -- --- ---- -- --- ---- -- ------ ------<br>--- ----- -- ----,56313.20000000298,56312.400000002235,55919.694,55921.5,55936.366,56319.59,,40,are
screen,html.Screen,0_2_0_1_41,2021-12-02T13:21:51.451Z,,,,,,,,,,,,,,,,53,,,,,,,,,,,,,,384.71000000074855,,response,,,99,,,,,,Space,keypress(Space),,,,,---- -- ----- -- ------ - ------- --- ----------<br>------------- ------ ------ ---- ---- ------- ----- -- ----<br>-------- ------- -- ---------- --- - --- ----- ----- ----<br>---- --- --- ----- --- ---- ---- ------- ----- ---- -------<br>--- --- as ----- -- --- ---- -- --- ---- -- ------ ------<br>--- ----- -- ----,56705.20000000298,56704.300000000745,56302.922,56313.400000002235,56319.59,56719.908,,41,as
screen,html.Screen,0_2_0_1_42,2021-12-02T13:21:51.827Z,,,,,,,,,,,,,,,,53,,,,,,,,,,,,,,360.4920000022321,,response,,,99,,,,,,Space,keypress(Space),,,,,---- -- ----- -- ------ - ------- --- ----------<br>------------- ------ ------ ---- ---- ------- ----- -- ----<br>-------- ------- -- ---------- --- - --- ----- ----- ----<br>---- --- --- ----- --- ---- ---- ------- ----- ---- -------<br>--- --- -- close -- --- ---- -- --- ---- -- ------ ------<br>--- ----- -- ----,57081.20000000298,57080.400000002235,56703.236,56705.400000002235,56719.908,57086.617,,42,close
screen,html.Screen,0_2_0_1_43,2021-12-02T13:21:52.203Z,,,,,,,,,,,,,,,,53,,,,,,,,,,,,,,369.6830000007467,,response,,,99,,,,,,Space,keypress(Space),,,,,---- -- ----- -- ------ - ------- --- ----------<br>------------- ------ ------ ---- ---- ------- ----- -- ----<br>-------- ------- -- ---------- --- - --- ----- ----- ----<br>---- --- --- ----- --- ---- ---- ------- ----- ---- -------<br>--- --- -- ----- as --- ---- -- --- ---- -- ------ ------<br>--- ----- -- ----,57457.20000000298,57456.300000000745,57069.946,57081.400000002235,57086.617,57469.996,,43,as
screen,html.Screen,0_2_0_1_44,2021-12-02T13:21:52.611Z,,,,,,,,,,,,,,,,53,,,,,,,,,,,,,,394.3040000007459,,response,,,99,,,,,,Space,keypress(Space),,,,,---- -- ----- -- ------ - ------- --- ----------<br>------------- ------ ------ ---- ---- ------- ----- -- ----<br>-------- ------- -- ---------- --- - --- ----- ----- ----<br>---- --- --- ----- --- ---- ---- ------- ----- ---- -------<br>--- --- -- ----- -- you ---- -- --- ---- -- ------ ------<br>--- ----- -- ----,57865.10000000149,57864.300000000745,57453.326,57457.5,57469.996,57870.145,,44,you
screen,html.Screen,0_2_0_1_45,2021-12-02T13:21:53.003Z,,,,,,,,,,,,,,,,53,,,,,,,,,,,,,,386.05500000298343,,response,,,99,,,,,,Space,keypress(Space),,,,,---- -- ----- -- ------ - ------- --- ----------<br>------------- ------ ------ ---- ---- ------- ----- -- ----<br>-------- ------- -- ---------- --- - --- ----- ----- ----<br>---- --- --- ----- --- ---- ---- ------- ----- ---- -------<br>--- --- -- ----- -- --- want -- --- ---- -- ------ ------<br>--- ----- -- ----,58257.10000000149,58256.20000000298,57853.474,57865.300000000745,57870.145,58270.208,,45,want
screen,html.Screen,0_2_0_1_46,2021-12-02T13:21:53.387Z,,,,,,,,,,,,,,,,53,,,,,,,,,,,,,,370.09200000074634,,response,,,99,,,,,,Space,keypress(Space),,,,,---- -- ----- -- ------ - ------- --- ----------<br>------------- ------ ------ ---- ---- ------- ----- -- ----<br>-------- ------- -- ---------- --- - --- ----- ----- ----<br>---- --- --- ----- --- ---- ---- ------- ----- ---- -------<br>--- --- -- ----- -- --- ---- to --- ---- -- ------ ------<br>--- ----- -- ----,58641.10000000149,58640.300000000745,58253.538,58257.300000000745,58270.208,58653.686,,46,to
screen,html.Screen,0_2_0_1_47,2021-12-02T13:21:53.779Z,,,,,,,,,,,,,,,,53,,,,,,,,,,,,,,378.61400000074354,,response,,,99,,,,,,Space,keypress(Space),,,,,"---- -- ----- -- ------ - ------- --- ----------<br>------------- ------ ------ ---- ---- ------- ----- -- ----<br>-------- ------- -- ---------- --- - --- ----- ----- ----<br>---- --- --- ----- --- ---- ---- ------- ----- ---- -------<br>--- --- -- ----- -- --- ---- -- be, ---- -- ------ ------<br>--- ----- -- ----",59033.10000000149,59032.300000000745,58637.015,58641.400000002235,58653.686,59037.074,,47,"be,"
screen,html.Screen,0_2_0_1_48,2021-12-02T13:21:54.187Z,,,,,,,,,,,,,,,,53,,,,,,,,,,,,,,403.22600000074453,,response,,,99,,,,,,Space,keypress(Space),,,,,---- -- ----- -- ------ - ------- --- ----------<br>------------- ------ ------ ---- ---- ------- ----- -- ----<br>-------- ------- -- ---------- --- - --- ----- ----- ----<br>---- --- --- ----- --- ---- ---- ------- ----- ---- -------<br>--- --- -- ----- -- --- ---- -- --- even -- ------ ------<br>--- ----- -- ----,59441,59440.300000000745,59020.404,59033.300000000745,59037.074,59453.851,,48,even
screen,html.Screen,0_2_0_1_49,2021-12-02T13:21:54.547Z,,,,,,,,,,,,,,,,53,,,,,,,,,,,,,,346.84900000297785,,response,,,99,,,,,,Space,keypress(Space),,,,,---- -- ----- -- ------ - ------- --- ----------<br>------------- ------ ------ ---- ---- ------- ----- -- ----<br>-------- ------- -- ---------- --- - --- ----- ----- ----<br>---- --- --- ----- --- ---- ---- ------- ----- ---- -------<br>--- --- -- ----- -- --- ---- -- --- ---- if ------ ------<br>--- ----- -- ----,59801.5,59800.70000000298,59437.181,59441.300000000745,59453.851,59803.946,,49,if
screen,html.Screen,0_2_0_1_50,2021-12-02T13:21:54.990Z,,,,,,,,,,,,,,,,53,,,,,,,,,,,,,,436.2540000029767,,response,,,99,,,,,,Space,keypress(Space),,,,,---- -- ----- -- ------ - ------- --- ----------<br>------------- ------ ------ ---- ---- ------- ----- -- ----<br>-------- ------- -- ---------- --- - --- ----- ----- ----<br>---- --- --- ----- --- ---- ---- ------- ----- ---- -------<br>--- --- -- ----- -- --- ---- -- --- ---- -- that's ------<br>--- ----- -- ----,60241,60240.20000000298,59787.276,59801.70000000298,59803.946,60254.056,,50,that's
screen,html.Screen,0_2_0_1_51,2021-12-02T13:21:55.406Z,,,,,,,,,,,,,,,,53,,,,,,,,,,,,,,402.1440000029834,,response,,,99,,,,,,Space,keypress(Space),,,,,---- -- ----- -- ------ - ------- --- ----------<br>------------- ------ ------ ---- ---- ------- ----- -- ----<br>-------- ------- -- ---------- --- - --- ----- ----- ----<br>---- --- --- ----- --- ---- ---- ------- ----- ---- -------<br>--- --- -- ----- -- --- ---- -- --- ---- -- ------ really<br>--- ----- -- ----,60657.10000000149,60656.20000000298,60237.386,60241.300000000745,60254.056,60670.829,,51,really
screen,html.Screen,0_2_0_1_52,2021-12-02T13:21:55.790Z,,,,,,,,,,,,,,,,53,,,,,,,,,,,,,,369.2710000014922,,response,,,99,,,,,,Space,keypress(Space),,,,,---- -- ----- -- ------ - ------- --- ----------<br>------------- ------ ------ ---- ---- ------- ----- -- ----<br>-------- ------- -- ---------- --- - --- ----- ----- ----<br>---- --- --- ----- --- ---- ---- ------- ----- ---- -------<br>--- --- -- ----- -- --- ---- -- --- ---- -- ------ ------<br>not ----- -- ----,61040.900000002235,61040.10000000149,60654.159,60657.20000000298,60670.829,61054.267,,52,not
screen,html.Screen,0_2_0_1_53,2021-12-02T13:21:56.182Z,,,,,,,,,,,,,,,,53,,,,,,,,,,,,,,377.8330000014903,,response,,,99,,,,,,Space,keypress(Space),,,,,---- -- ----- -- ------ - ------- --- ----------<br>------------- ------ ------ ---- ---- ------- ----- -- ----<br>-------- ------- -- ---------- --- - --- ----- ----- ----<br>---- --- --- ----- --- ---- ---- ------- ----- ---- -------<br>--- --- -- ----- -- --- ---- -- --- ---- -- ------ ------<br>--- close -- ----,61433,61432.10000000149,61037.597,61041.10000000149,61054.267,61437.696,,53,close
screen,html.Screen,0_2_0_1_54,2021-12-02T13:21:56.582Z,,,,,,,,,,,,,,,,53,,,,,,,,,,,,,,394.40400000148657,,response,,,99,,,,,,Space,keypress(Space),,,,,---- -- ----- -- ------ - ------- --- ----------<br>------------- ------ ------ ---- ---- ------- ----- -- ----<br>-------- ------- -- ---------- --- - --- ----- ----- ----<br>---- --- --- ----- --- ---- ---- ------- ----- ---- -------<br>--- --- -- ----- -- --- ---- -- --- ---- -- ------ ------<br>--- ----- at ----,61832.900000002235,61832.10000000149,61421.026,61433.20000000298,61437.696,61837.72,,54,at
screen,html.Screen,0_2_0_1_55,2021-12-02T13:21:56.958Z,,,,,,,,,,,,,,,,53,,,,,,,,,,,,,,370.38000000148895,,response,,,99,,,,,,Space,keypress(Space),,,,,---- -- ----- -- ------ - ------- --- ----------<br>------------- ------ ------ ---- ---- ------- ----- -- ----<br>-------- ------- -- ---------- --- - --- ----- ----- ----<br>---- --- --- ----- --- ---- ---- ------- ----- ---- -------<br>--- --- -- ----- -- --- ---- -- --- ---- -- ------ ------<br>--- ----- -- all.,62208.900000002235,62208.10000000149,61821.051,61833.10000000149,61837.72,62221.333,,55,all.
Item 99,flow.Loop,0_2_0_1,2021-12-02T13:21:56.962Z,,,,,,,,,,,,,,,,,,,,,,,,,,,,,,23909.957000001494,,completion,,,,E,,,,,,,,,,silence,,62213.60000000149,62208.10000000149,38281.474,38287.60000000149,38298.143,62221.333,,,
Question 1,html.Screen,0_2_0_2,2021-12-02T13:22:01.152Z,,,,,,,,,,,,,,,,,,,,,,,,,,,true,FALSE,,4180.3670000029815,,response,,,99,E,,,,,FALSE,click #choice-2,,,,silence,,66403.20000000298,66401.70000000298,62204.661,62213.800000000745,62221.333,66405.613,,,
Question 2,html.Screen,0_2_0_3,2021-12-02T13:22:06.437Z,,,,,,,,,,,,,,,,,,,,,,,,,,,false,TRUE,,5281.087000002983,,response,,,99,E,,,,,FALSE,click #choice-2,,,,silence,,71687.90000000224,71686.70000000298,66388.943,66403.40000000224,66405.613,71690.289,,,
Item 99,flow.Sequence,0_2_0,2021-12-02T13:22:06.437Z,,,,,,,,,,,,,,,,,,,,,,,,,,,,,,43391.18100000298,,completion,,,,,,,,,,,,,,,,71688.40000000224,71686.70000000298,28278.85,28289.900000002235,28295.519,71690.289,,,
Holding screen,html.Screen,0_2_1_0,2021-12-02T13:22:16.426Z,,,,,,,,,,,,,,,,,,,,,,,,,,,,,,10002.474999999991,,timeout,,,,,,,,,,,,,,,,81677,81676.094,71673.619,71688.70000000298,71690.289,81692.764,,,
screen,html.Screen,0_2_1_1_0,2021-12-02T13:22:31.756Z,,,,,,,,,,,,,,,,54,,,,,,,,,,,,,,15314.03600000075,,response,,,100,,,,,,Space,keypress(Space),,,,,At --- ---- --- ------ ----- ------- ---- -- --- ------- --<br>------- ---------- ------ -- ----- -- ----- -- ---- ------<br>--- ----- --- --- ------ -------- ----- --- ------ ----- --<br>----- ----- ---------- --- --- ------ ------ ---- -- ------<br>------- --- ------ ----- --- ---- ------- -- ---- --- --<br>------- ------,97007.70000000298,97006.80000000075,81676.094,81677.40000000224,81692.764,97013.591,,0,At
screen,html.Screen,0_2_1_1_1,2021-12-02T13:22:32.116Z,,,,,,,,,,,,,,,,54,,,,,,,,,,,,,,352.6090000029799,,response,,,100,,,,,,Space,keypress(Space),,,,,-- the ---- --- ------ ----- ------- ---- -- --- ------- --<br>------- ---------- ------ -- ----- -- ----- -- ---- ------<br>--- ----- --- --- ------ -------- ----- --- ------ ----- --<br>----- ----- ---------- --- --- ------ ------ ---- -- ------<br>------- --- ------ ----- --- ---- ------- -- ---- --- --<br>------- ------,97367,97366.20000000298,96996.92,97008,97013.591,97379.407,,1,the
screen,html.Screen,0_2_1_1_2,2021-12-02T13:22:32.588Z,,,,,,,,,,,,,,,,54,,,,,,,,,,,,,,458.6930000014836,,response,,,100,,,,,,Space,keypress(Space),,,,,-- --- time --- ------ ----- ------- ---- -- --- ------- --<br>------- ---------- ------ -- ----- -- ----- -- ---- ------<br>--- ----- --- --- ------ -------- ----- --- ------ ----- --<br>----- ----- ---------- --- --- ------ ------ ---- -- ------<br>------- --- ------ ----- --- ---- ------- -- ---- --- --<br>------- ------,97838.90000000224,97838.10000000149,97362.737,97367.20000000298,97379.407,97846.996,,2,time
screen,html.Screen,0_2_1_1_3,2021-12-02T13:22:32.989Z,,,,,,,,,,,,,,,,54,,,,,,,,,,,,,,391.10400000149093,,response,,,100,,,,,,Space,keypress(Space),,,,,-- --- ---- the ------ ----- ------- ---- -- --- ------- --<br>------- ---------- ------ -- ----- -- ----- -- ---- ------<br>--- ----- --- --- ------ -------- ----- --- ------ ----- --<br>----- ----- ---------- --- --- ------ ------ ---- -- ------<br>------- --- ------ ----- --- ---- ------- -- ---- --- --<br>------- ------,98240.90000000224,98238.10000000149,97830.326,97839.10000000149,97846.996,98247.405,,3,the
screen,html.Screen,0_2_1_1_4,2021-12-02T13:22:33.340Z,,,,,,,,,,,,,,,,54,,,,,,,,,,,,,,342.59500000000116,,response,,,100,,,,,,Space,keypress(Space),,,,,-- --- ---- --- French ----- ------- ---- -- --- ------- --<br>------- ---------- ------ -- ----- -- ----- -- ---- ------<br>--- ----- --- --- ------ -------- ----- --- ------ ----- --<br>----- ----- ---------- --- --- ------ ------ ---- -- ------<br>------- --- ------ ----- --- ---- ------- -- ---- --- --<br>------- ------,98591,98590,98230.73,98241.40000000224,98247.405,98597.254,,4,French
screen,html.Screen,0_2_1_1_5,2021-12-02T13:22:33.748Z,,,,,,,,,,,,,,,,54,,,,,,,,,,,,,,400.8460000014893,,response,,,100,,,,,,Space,keypress(Space),,,,,-- --- ---- --- ------ crown ------- ---- -- --- ------- --<br>------- ---------- ------ -- ----- -- ----- -- ---- ------<br>--- ----- --- --- ------ -------- ----- --- ------ ----- --<br>----- ----- ---------- --- --- ------ ------ ---- -- ------<br>------- --- ------ ----- --- ---- ------- -- ---- --- --<br>------- ------,98999.10000000149,98998.10000000149,98580.584,98591.20000000298,98597.254,99014.066,,5,crown
screen,html.Screen,0_2_1_1_6,2021-12-02T13:22:34.139Z,,,,,,,,,,,,,,,,54,,,,,,,,,,,,,,375.93399999999383,,response,,,100,,,,,,Space,keypress(Space),,,,,-- --- ---- --- ------ ----- secured ---- -- --- ------- --<br>------- ---------- ------ -- ----- -- ----- -- ---- ------<br>--- ----- --- --- ------ -------- ----- --- ------ ----- --<br>----- ----- ---------- --- --- ------ ------ ---- -- ------<br>------- --- ------ ----- --- ---- ------- -- ---- --- --<br>------- ------,99390.70000000298,99390,98997.395,98999.30000000075,99014.066,99397.475,,6,secured
screen,html.Screen,0_2_1_1_7,2021-12-02T13:22:34.515Z,,,,,,,,,,,,,,,,54,,,,,,,,,,,,,,368.5249999999942,,response,,,100,,,,,,Space,keypress(Space),,,,,-- --- ---- --- ------ ----- ------- much -- --- ------- --<br>------- ---------- ------ -- ----- -- ----- -- ---- ------<br>--- ----- --- --- ------ -------- ----- --- ------ ----- --<br>----- ----- ---------- --- --- ------ ------ ---- -- ------<br>------- --- ------ ----- --- ---- ------- -- ---- --- --<br>------- ------,99766.80000000075,99766,99380.805,99391,99397.475,99780.881,,7,much
screen,html.Screen,0_2_1_1_8,2021-12-02T13:22:34.884Z,,,,,,,,,,,,,,,,54,,,,,,,,,,,,,,353.11900000000605,,response,,,100,,,,,,Space,keypress(Space),,,,,-- --- ---- --- ------ ----- ------- ---- of --- ------- --<br>------- ---------- ------ -- ----- -- ----- -- ---- ------<br>--- ----- --- --- ------ -------- ----- --- ------ ----- --<br>----- ----- ---------- --- --- ------ ------ ---- -- ------<br>------- --- ------ ----- --- ---- ------- -- ---- --- --<br>------- ------,100134.90000000224,100134,99764.211,99767,99780.881,100147.663,,8,of
screen,html.Screen,0_2_1_1_9,2021-12-02T13:22:35.195Z,,,,,,,,,,,,,,,,54,,,,,,,,,,,,,,298.33699999999953,,response,,,100,,,,,,Space,keypress(Space),,,,,-- --- ---- --- ------ ----- ------- ---- -- its ------- --<br>------- ---------- ------ -- ----- -- ----- -- ---- ------<br>--- ----- --- --- ------ -------- ----- --- ------ ----- --<br>----- ----- ---------- --- --- ------ ------ ---- -- ------<br>------- --- ------ ----- --- ---- ------- -- ---- --- --<br>------- ------,100446.80000000075,100446,100130.993,100135.20000000298,100147.663,100464.287,,9,its
screen,html.Screen,0_2_1_1_10,2021-12-02T13:22:35.523Z,,,,,,,,,,,,,,,,54,,,,,,,,,,,,,,309.61300000223855,,response,,,100,,,,,,Space,keypress(Space),,,,,-- --- ---- --- ------ ----- ------- ---- -- --- revenue --<br>------- ---------- ------ -- ----- -- ----- -- ---- ------<br>--- ----- --- --- ------ -------- ----- --- ------ ----- --<br>----- ----- ---------- --- --- ------ ------ ---- -- ------<br>------- --- ------ ----- --- ---- ------- -- ---- --- --<br>------- ------,100774.70000000298,100773.90000000224,100447.619,100447,100464.287,100781.216,,10,revenue
screen,html.Screen,0_2_1_1_11,2021-12-02T13:22:35.867Z,,,,,,,,,,,,,,,,54,,,,,,,,,,,,,,336.6840000022348,,response,,,100,,,,,,Space,keypress(Space),,,,,-- --- ---- --- ------ ----- ------- ---- -- --- ------- by<br>------- ---------- ------ -- ----- -- ----- -- ---- ------<br>--- ----- --- --- ------ -------- ----- --- ------ ----- --<br>----- ----- ---------- --- --- ------ ------ ---- -- ------<br>------- --- ------ ----- --- ---- ------- -- ---- --- --<br>------- ------,101118.70000000298,101117.90000000224,100764.544,100774.90000000224,100781.216,101131.329,,11,by
screen,html.Screen,0_2_1_1_12,2021-12-02T13:22:36.211Z,,,,,,,,,,,,,,,,54,,,,,,,,,,,,,,330.47100000074715,,response,,,100,,,,,,Space,keypress(Space),,,,,-- --- ---- --- ------ ----- ------- ---- -- --- ------- --<br>issuing ---------- ------ -- ----- -- ----- -- ---- ------<br>--- ----- --- --- ------ -------- ----- --- ------ ----- --<br>----- ----- ---------- --- --- ------ ------ ---- -- ------<br>------- --- ------ ----- --- ---- ------- -- ---- --- --<br>------- ------,101462.60000000149,101461.80000000075,101114.657,101118.90000000224,101131.329,101464.623,,12,issuing
screen,html.Screen,0_2_1_1_13,2021-12-02T13:22:36.531Z,,,,,,,,,,,,,,,,54,,,,,,,,,,,,,,317.1770000007382,,response,,,100,,,,,,Space,keypress(Space),,,,,-- --- ---- --- ------ ----- ------- ---- -- --- ------- --<br>------- government ------ -- ----- -- ----- -- ---- ------<br>--- ----- --- --- ------ -------- ----- --- ------ ----- --<br>----- ----- ---------- --- --- ------ ------ ---- -- ------<br>------- --- ------ ----- --- ---- ------- -- ---- --- --<br>------- ------,101782.60000000149,101781.80000000075,101447.954,101462.80000000075,101464.623,101798.114,,13,government
screen,html.Screen,0_2_1_1_14,2021-12-02T13:22:36.827Z,,,,,,,,,,,,,,,,54,,,,,,,,,,,,,,279.7860000022338,,response,,,100,,,,,,Space,keypress(Space),,,,,-- --- ---- --- ------ ----- ------- ---- -- --- ------- --<br>------- ---------- bonds. -- ----- -- ----- -- ---- ------<br>--- ----- --- --- ------ -------- ----- --- ------ ----- --<br>----- ----- ---------- --- --- ------ ------ ---- -- ------<br>------- --- ------ ----- --- ---- ------- -- ---- --- --<br>------- ------,102078.70000000298,102077.90000000224,101781.443,101782.80000000075,101798.114,102081.528,,14,bonds.
screen,html.Screen,0_2_1_1_15,2021-12-02T13:22:37.179Z,,,,,,,,,,,,,,,,54,,,,,,,,,,,,,,348.27200000073935,,response,,,100,,,,,,Space,keypress(Space),,,,,-- --- ---- --- ------ ----- ------- ---- -- --- ------- --<br>------- ---------- ------ In ----- -- ----- -- ---- ------<br>--- ----- --- --- ------ -------- ----- --- ------ ----- --<br>----- ----- ---------- --- --- ------ ------ ---- -- ------<br>------- --- ------ ----- --- ---- ------- -- ---- --- --<br>------- ------,102430.60000000149,102429.80000000075,102064.857,102079,102081.528,102431.574,,15,In
screen,html.Screen,0_2_1_1_16,2021-12-02T13:22:37.443Z,,,,,,,,,,,,,,,,54,,,,,,,,,,,,,,262.2260000007518,,response,,,100,,,,,,Space,keypress(Space),,,,,"-- --- ---- --- ------ ----- ------- ---- -- --- ------- --<br>------- ---------- ------ -- 1727, -- ----- -- ---- ------<br>--- ----- --- --- ------ -------- ----- --- ------ ----- --<br>----- ----- ---------- --- --- ------ ------ ---- -- ------<br>------- --- ------ ----- --- ---- ------- -- ---- --- --<br>------- ------",102694.60000000149,102693.80000000075,102414.904,102430.80000000075,102431.574,102698.35,,16,"1727,"
screen,html.Screen,0_2_1_1_17,2021-12-02T13:22:37.756Z,,,,,,,,,,,,,,,,54,,,,,,,,,,,,,,307.6499999999942,,response,,,100,,,,,,Space,keypress(Space),,,,,-- --- ---- --- ------ ----- ------- ---- -- --- ------- --<br>------- ---------- ------ -- ----- in ----- -- ---- ------<br>--- ----- --- --- ------ -------- ----- --- ------ ----- --<br>----- ----- ---------- --- --- ------ ------ ---- -- ------<br>------- --- ------ ----- --- ---- ------- -- ---- --- --<br>------- ------,103006.90000000224,103006,102681.679,102694.80000000075,102698.35,103015.067,,17,in
screen,html.Screen,0_2_1_1_18,2021-12-02T13:22:38.051Z,,,,,,,,,,,,,,,,54,,,,,,,,,,,,,,286.7330000007496,,response,,,100,,,,,,Space,keypress(Space),,,,,-- --- ---- --- ------ ----- ------- ---- -- --- ------- --<br>------- ---------- ------ -- ----- -- order -- ---- ------<br>--- ----- --- --- ------ -------- ----- --- ------ ----- --<br>----- ----- ---------- --- --- ------ ------ ---- -- ------<br>------- --- ------ ----- --- ---- ------- -- ---- --- --<br>------- ------,103302.70000000298,103301.80000000075,102998.397,103007.20000000298,103015.067,103315.137,,18,order
screen,html.Screen,0_2_1_1_19,2021-12-02T13:22:38.339Z,,,,,,,,,,,,,,,,54,,,,,,,,,,,,,,274.5630000029778,,response,,,100,,,,,,Space,keypress(Space),,,,,-- --- ---- --- ------ ----- ------- ---- -- --- ------- --<br>------- ---------- ------ -- ----- -- ----- to ---- ------<br>--- ----- --- --- ------ -------- ----- --- ------ ----- --<br>----- ----- ---------- --- --- ------ ------ ---- -- ------<br>------- --- ------ ----- --- ---- ------- -- ---- --- --<br>------- ------,103590.60000000149,103589.70000000298,103298.467,103303,103315.137,103598.541,,19,to
screen,html.Screen,0_2_1_1_20,2021-12-02T13:22:38.635Z,,,,,,,,,,,,,,,,54,,,,,,,,,,,,,,287.2590000007476,,response,,,100,,,,,,Space,keypress(Space),,,,,-- --- ---- --- ------ ----- ------- ---- -- --- ------- --<br>------- ---------- ------ -- ----- -- ----- -- save ------<br>--- ----- --- --- ------ -------- ----- --- ------ ----- --<br>----- ----- ---------- --- --- ------ ------ ---- -- ------<br>------- --- ------ ----- --- ---- ------- -- ---- --- --<br>------- ------,103886.70000000298,103885.80000000075,103581.871,103591,103598.541,103898.655,,20,save
screen,html.Screen,0_2_1_1_21,2021-12-02T13:22:38.947Z,,,,,,,,,,,,,,,,54,,,,,,,,,,,,,,299.1450000007462,,response,,,100,,,,,,Space,keypress(Space),,,,,"-- --- ---- --- ------ ----- ------- ---- -- --- ------- --<br>------- ---------- ------ -- ----- -- ----- -- ---- money,<br>--- ----- --- --- ------ -------- ----- --- ------ ----- --<br>----- ----- ---------- --- --- ------ ------ ---- -- ------<br>------- --- ------ ----- --- ---- ------- -- ---- --- --<br>------- ------",104198.60000000149,104197.80000000075,103881.984,103887,103898.655,104215.374,,21,"money,"
screen,html.Screen,0_2_1_1_22,2021-12-02T13:22:39.243Z,,,,,,,,,,,,,,,,54,,,,,,,,,,,,,,278.3260000029841,,response,,,100,,,,,,Space,keypress(Space),,,,,-- --- ---- --- ------ ----- ------- ---- -- --- ------- --<br>------- ---------- ------ -- ----- -- ----- -- ---- ------<br>the ----- --- --- ------ -------- ----- --- ------ ----- --<br>----- ----- ---------- --- --- ------ ------ ---- -- ------<br>------- --- ------ ----- --- ---- ------- -- ---- --- --<br>------- ------,104494.60000000149,104493.70000000298,104198.704,104198.90000000224,104215.374,104498.728,,22,the
screen,html.Screen,0_2_1_1_23,2021-12-02T13:22:39.651Z,,,,,,,,,,,,,,,,54,,,,,,,,,,,,,,403.07200000074226,,response,,,100,,,,,,Space,keypress(Space),,,,,-- --- ---- --- ------ ----- ------- ---- -- --- ------- --<br>------- ---------- ------ -- ----- -- ----- -- ---- ------<br>--- state --- --- ------ -------- ----- --- ------ ----- --<br>----- ----- ---------- --- --- ------ ------ ---- -- ------<br>------- --- ------ ----- --- ---- ------- -- ---- --- --<br>------- ------,104902.60000000149,104901.80000000075,104482.059,104494.90000000224,104498.728,104915.589,,23,state
screen,html.Screen,0_2_1_1_24,2021-12-02T13:22:39.915Z,,,,,,,,,,,,,,,,54,,,,,,,,,,,,,,250.11100000297301,,response,,,100,,,,,,Space,keypress(Space),,,,,-- --- ---- --- ------ ----- ------- ---- -- --- ------- --<br>------- ---------- ------ -- ----- -- ----- -- ---- ------<br>--- ----- cut --- ------ -------- ----- --- ------ ----- --<br>----- ----- ---------- --- --- ------ ------ ---- -- ------<br>------- --- ------ ----- --- ---- ------- -- ---- --- --<br>------- ------,105166.60000000149,105165.70000000298,104898.918,104902.80000000075,104915.589,105182.335,,24,cut
screen,html.Screen,0_2_1_1_25,2021-12-02T13:22:40.179Z,,,,,,,,,,,,,,,,54,,,,,,,,,,,,,,247.2650000014837,,response,,,100,,,,,,Space,keypress(Space),,,,,-- --- ---- --- ------ ----- ------- ---- -- --- ------- --<br>------- ---------- ------ -- ----- -- ----- -- ---- ------<br>--- ----- --- the ------ -------- ----- --- ------ ----- --<br>----- ----- ---------- --- --- ------ ------ ---- -- ------<br>------- --- ------ ----- --- ---- ------- -- ---- --- --<br>------- ------,105430.40000000224,105429.60000000149,105165.664,105166.80000000075,105182.335,105432.265,,25,the
screen,html.Screen,0_2_1_1_26,2021-12-02T13:22:40.459Z,,,,,,,,,,,,,,,,54,,,,,,,,,,,,,,277.3350000014907,,response,,,100,,,,,,Space,keypress(Space),,,,,-- --- ---- --- ------ ----- ------- ---- -- --- ------- --<br>------- ---------- ------ -- ----- -- ----- -- ---- ------<br>--- ----- --- --- bonds' -------- ----- --- ------ ----- --<br>----- ----- ---------- --- --- ------ ------ ---- -- ------<br>------- --- ------ ----- --- ---- ------- -- ---- --- --<br>------- ------,105710.40000000224,105709.60000000149,105415.597,105430.60000000149,105432.265,105715.827,,26,bonds'
screen,html.Screen,0_2_1_1_27,2021-12-02T13:22:40.835Z,,,,,,,,,,,,,,,,54,,,,,,,,,,,,,,369.77300000148534,,response,,,100,,,,,,Space,keypress(Space),,,,,-- --- ---- --- ------ ----- ------- ---- -- --- ------- --<br>------- ---------- ------ -- ----- -- ----- -- ---- ------<br>--- ----- --- --- ------ interest ----- --- ------ ----- --<br>----- ----- ---------- --- --- ------ ------ ---- -- ------<br>------- --- ------ ----- --- ---- ------- -- ---- --- --<br>------- ------,106086.5,106085.60000000149,105699.155,105710.70000000298,105715.827,106099.27,,27,interest
screen,html.Screen,0_2_1_1_28,2021-12-02T13:22:41.099Z,,,,,,,,,,,,,,,,54,,,,,,,,,,,,,,250.33000000148604,,response,,,100,,,,,,Space,keypress(Space),,,,,-- --- ---- --- ------ ----- ------- ---- -- --- ------- --<br>------- ---------- ------ -- ----- -- ----- -- ---- ------<br>--- ----- --- --- ------ -------- rate. --- ------ ----- --<br>----- ----- ---------- --- --- ------ ------ ---- -- ------<br>------- --- ------ ----- --- ---- ------- -- ---- --- --<br>------- ------,106350.40000000224,106349.60000000149,106082.598,106086.70000000298,106099.27,106365.879,,28,rate.
screen,html.Screen,0_2_1_1_29,2021-12-02T13:22:41.363Z,,,,,,,,,,,,,,,,54,,,,,,,,,,,,,,247.82100000297942,,response,,,100,,,,,,Space,keypress(Space),,,,,-- --- ---- --- ------ ----- ------- ---- -- --- ------- --<br>------- ---------- ------ -- ----- -- ----- -- ---- ------<br>--- ----- --- --- ------ -------- ----- The ------ ----- --<br>----- ----- ---------- --- --- ------ ------ ---- -- ------<br>------- --- ------ ----- --- ---- ------- -- ---- --- --<br>------- ------,106614.5,106613.70000000298,106349.21,106350.70000000298,106365.879,106615.914,,29,The
screen,html.Screen,0_2_1_1_30,2021-12-02T13:22:41.683Z,,,,,,,,,,,,,,,,54,,,,,,,,,,,,,,317.7860000029759,,response,,,100,,,,,,Space,keypress(Space),,,,,-- --- ---- --- ------ ----- ------- ---- -- --- ------- --<br>------- ---------- ------ -- ----- -- ----- -- ---- ------<br>--- ----- --- --- ------ -------- ----- --- market ----- --<br>----- ----- ---------- --- --- ------ ------ ---- -- ------<br>------- --- ------ ----- --- ---- ------- -- ---- --- --<br>------- ------,106934.5,106933.70000000298,106599.245,106614.80000000075,106615.914,106949.546,,30,market
screen,html.Screen,0_2_1_1_31,2021-12-02T13:22:42.019Z,,,,,,,,,,,,,,,,54,,,,,,,,,,,,,,320.3540000022331,,response,,,100,,,,,,Space,keypress(Space),,,,,-- --- ---- --- ------ ----- ------- ---- -- --- ------- --<br>------- ---------- ------ -- ----- -- ----- -- ---- ------<br>--- ----- --- --- ------ -------- ----- --- ------ value --<br>----- ----- ---------- --- --- ------ ------ ---- -- ------<br>------- --- ------ ----- --- ---- ------- -- ---- --- --<br>------- ------,107270.80000000075,107269.90000000224,106932.872,106934.60000000149,106949.546,107282.82,,31,value
screen,html.Screen,0_2_1_1_32,2021-12-02T13:22:42.419Z,,,,,,,,,,,,,,,,54,,,,,,,,,,,,,,386.679999999993,,response,,,100,,,,,,Space,keypress(Space),,,,,-- --- ---- --- ------ ----- ------- ---- -- --- ------- --<br>------- ---------- ------ -- ----- -- ----- -- ---- ------<br>--- ----- --- --- ------ -------- ----- --- ------ ----- of<br>----- ----- ---------- --- --- ------ ------ ---- -- ------<br>------- --- ------ ----- --- ---- ------- -- ---- --- --<br>------- ------,107670.20000000298,107669.5,107266.15,107271,107282.82,107682.965,,32,of
screen,html.Screen,0_2_1_1_33,2021-12-02T13:22:42.723Z,,,,,,,,,,,,,,,,54,,,,,,,,,,,,,,290.6350000014936,,response,,,100,,,,,,Space,keypress(Space),,,,,-- --- ---- --- ------ ----- ------- ---- -- --- ------- --<br>------- ---------- ------ -- ----- -- ----- -- ---- ------<br>--- ----- --- --- ------ -------- ----- --- ------ ----- --<br>these ----- ---------- --- --- ------ ------ ---- -- ------<br>------- --- ------ ----- --- ---- ------- -- ---- --- --<br>------- ------,107974.40000000224,107973.60000000149,107666.294,107670.5,107682.965,107983.018,,33,these
screen,html.Screen,0_2_1_1_34,2021-12-02T13:22:42.987Z,,,,,,,,,,,,,,,,54,,,,,,,,,,,,,,254.4820000000036,,response,,,100,,,,,,Space,keypress(Space),,,,,-- --- ---- --- ------ ----- ------- ---- -- --- ------- --<br>------- ---------- ------ -- ----- -- ----- -- ---- ------<br>--- ----- --- --- ------ -------- ----- --- ------ ----- --<br>----- bonds ---------- --- --- ------ ------ ---- -- ------<br>------- --- ------ ----- --- ---- ------- -- ---- --- --<br>------- ------,108238.20000000298,108237.5,107966.348,107974.70000000298,107983.018,108249.734,,34,bonds
screen,html.Screen,0_2_1_1_35,2021-12-02T13:22:43.235Z,,,,,,,,,,,,,,,,54,,,,,,,,,,,,,,235.76600000000326,,response,,,100,,,,,,Space,keypress(Space),,,,,"-- --- ---- --- ------ ----- ------- ---- -- --- ------- --<br>------- ---------- ------ -- ----- -- ----- -- ---- ------<br>--- ----- --- --- ------ -------- ----- --- ------ ----- --<br>----- ----- plummeted, --- --- ------ ------ ---- -- ------<br>------- --- ------ ----- --- ---- ------- -- ---- --- --<br>------- ------",108486.40000000224,108485.5,108233.064,108238.5,108249.734,108499.816,,35,"plummeted,"
screen,html.Screen,0_2_1_1_36,2021-12-02T13:22:43.491Z,,,,,,,,,,,,,,,,54,,,,,,,,,,,,,,241.68399999999383,,response,,,100,,,,,,Space,keypress(Space),,,,,-- --- ---- --- ------ ----- ------- ---- -- --- ------- --<br>------- ---------- ------ -- ----- -- ----- -- ---- ------<br>--- ----- --- --- ------ -------- ----- --- ------ ----- --<br>----- ----- ---------- and --- ------ ------ ---- -- ------<br>------- --- ------ ----- --- ---- ------- -- ---- --- --<br>------- ------,108742.30000000075,108741.5,108483.146,108486.60000000149,108499.816,108749.874,,36,and
screen,html.Screen,0_2_1_1_37,2021-12-02T13:22:43.755Z,,,,,,,,,,,,,,,,54,,,,,,,,,,,,,,255.52600000223902,,response,,,100,,,,,,Space,keypress(Space),,,,,-- --- ---- --- ------ ----- ------- ---- -- --- ------- --<br>------- ---------- ------ -- ----- -- ----- -- ---- ------<br>--- ----- --- --- ------ -------- ----- --- ------ ----- --<br>----- ----- ---------- --- the ------ ------ ---- -- ------<br>------- --- ------ ----- --- ---- ------- -- ---- --- --<br>------- ------,109006.30000000075,109005.40000000224,108733.204,108742.40000000224,108749.874,109016.639,,37,the
screen,html.Screen,0_2_1_1_38,2021-12-02T13:22:43.995Z,,,,,,,,,,,,,,,,54,,,,,,,,,,,,,,228.7610000022396,,response,,,100,,,,,,Space,keypress(Space),,,,,-- --- ---- --- ------ ----- ------- ---- -- --- ------- --<br>------- ---------- ------ -- ----- -- ----- -- ---- ------<br>--- ----- --- --- ------ -------- ----- --- ------ ----- --<br>----- ----- ---------- --- --- market ------ ---- -- ------<br>------- --- ------ ----- --- ---- ------- -- ---- --- --<br>------- ------,109246.20000000298,109245.40000000224,108999.968,109006.5,109016.639,109250,,38,market
screen,html.Screen,0_2_1_1_39,2021-12-02T13:22:44.227Z,,,,,,,,,,,,,,,,54,,,,,,,,,,,,,,227.40000000223517,,response,,,100,,,,,,Space,keypress(Space),,,,,-- --- ---- --- ------ ----- ------- ---- -- --- ------- --<br>------- ---------- ------ -- ----- -- ----- -- ---- ------<br>--- ----- --- --- ------ -------- ----- --- ------ ----- --<br>----- ----- ---------- --- --- ------ became ---- -- ------<br>------- --- ------ ----- --- ---- ------- -- ---- --- --<br>------- ------,109478.30000000075,109477.40000000224,109233.33,109246.40000000224,109250,109483.426,,39,became
screen,html.Screen,0_2_1_1_40,2021-12-02T13:22:44.459Z,,,,,,,,,,,,,,,,54,,,,,,,,,,,,,,225.97400000222842,,response,,,100,,,,,,Space,keypress(Space),,,,,-- --- ---- --- ------ ----- ------- ---- -- --- ------- --<br>------- ---------- ------ -- ----- -- ----- -- ---- ------<br>--- ----- --- --- ------ -------- ----- --- ------ ----- --<br>----- ----- ---------- --- --- ------ ------ wary -- ------<br>------- --- ------ ----- --- ---- ------- -- ---- --- --<br>------- ------,109710.20000000298,109709.40000000224,109466.755,109478.5,109483.426,109716.794,,40,wary
screen,html.Screen,0_2_1_1_41,2021-12-02T13:22:44.715Z,,,,,,,,,,,,,,,,54,,,,,,,,,,,,,,248.60600000224076,,response,,,100,,,,,,Space,keypress(Space),,,,,-- --- ---- --- ------ ----- ------- ---- -- --- ------- --<br>------- ---------- ------ -- ----- -- ----- -- ---- ------<br>--- ----- --- --- ------ -------- ----- --- ------ ----- --<br>----- ----- ---------- --- --- ------ ------ ---- of ------<br>------- --- ------ ----- --- ---- ------- -- ---- --- --<br>------- ------,109966.20000000298,109965.40000000224,109700.124,109710.40000000224,109716.794,109983.57,,41,of
screen,html.Screen,0_2_1_1_42,2021-12-02T13:22:44.963Z,,,,,,,,,,,,,,,,54,,,,,,,,,,,,,,229.8300000022282,,response,,,100,,,,,,Space,keypress(Space),,,,,-- --- ---- --- ------ ----- ------- ---- -- --- ------- --<br>------- ---------- ------ -- ----- -- ----- -- ---- ------<br>--- ----- --- --- ------ -------- ----- --- ------ ----- --<br>----- ----- ---------- --- --- ------ ------ ---- -- French<br>------- --- ------ ----- --- ---- ------- -- ---- --- --<br>------- ------,110214.20000000298,110213.40000000224,109966.899,109966.5,109983.57,110216.898,,42,French
screen,html.Screen,0_2_1_1_43,2021-12-02T13:22:45.219Z,,,,,,,,,,,,,,,,54,,,,,,,,,,,,,,252.50200000223413,,response,,,100,,,,,,Space,keypress(Space),,,,,-- --- ---- --- ------ ----- ------- ---- -- --- ------- --<br>------- ---------- ------ -- ----- -- ----- -- ---- ------<br>--- ----- --- --- ------ -------- ----- --- ------ ----- --<br>----- ----- ---------- --- --- ------ ------ ---- -- ------<br>credit. --- ------ ----- --- ---- ------- -- ---- --- --<br>------- ------,110470.20000000298,110469.40000000224,110200.229,110214.5,110216.898,110483.658,,43,credit.
screen,html.Screen,0_2_1_1_44,2021-12-02T13:22:45.483Z,,,,,,,,,,,,,,,,54,,,,,,,,,,,,,,249.74200000223937,,response,,,100,,,,,,Space,keypress(Space),,,,,-- --- ---- --- ------ ----- ------- ---- -- --- ------- --<br>------- ---------- ------ -- ----- -- ----- -- ---- ------<br>--- ----- --- --- ------ -------- ----- --- ------ ----- --<br>----- ----- ---------- --- --- ------ ------ ---- -- ------<br>------- The ------ ----- --- ---- ------- -- ---- --- --<br>------- ------,110734.20000000298,110733.40000000224,110466.988,110470.40000000224,110483.658,110750.262,,44,The
screen,html.Screen,0_2_1_1_45,2021-12-02T13:22:45.739Z,,,,,,,,,,,,,,,,54,,,,,,,,,,,,,,239.13800000223273,,response,,,100,,,,,,Space,keypress(Space),,,,,-- --- ---- --- ------ ----- ------- ---- -- --- ------- --<br>------- ---------- ------ -- ----- -- ----- -- ---- ------<br>--- ----- --- --- ------ -------- ----- --- ------ ----- --<br>----- ----- ---------- --- --- ------ ------ ---- -- ------<br>------- --- French ----- --- ---- ------- -- ---- --- --<br>------- ------,110990.20000000298,110989.40000000224,110733.595,110734.40000000224,110750.262,111000.551,,45,French
screen,html.Screen,0_2_1_1_46,2021-12-02T13:22:46.027Z,,,,,,,,,,,,,,,,54,,,,,,,,,,,,,,276.8490000022284,,response,,,100,,,,,,Space,keypress(Space),,,,,-- --- ---- --- ------ ----- ------- ---- -- --- ------- --<br>------- ---------- ------ -- ----- -- ----- -- ---- ------<br>--- ----- --- --- ------ -------- ----- --- ------ ----- --<br>----- ----- ---------- --- --- ------ ------ ---- -- ------<br>------- --- ------ state --- ---- ------- -- ---- --- --<br>------- ------,111278.20000000298,111277.40000000224,110983.878,110990.40000000224,111000.551,111283.859,,46,state
screen,html.Screen,0_2_1_1_47,2021-12-02T13:22:46.283Z,,,,,,,,,,,,,,,,54,,,,,,,,,,,,,,249.54100000223843,,response,,,100,,,,,,Space,keypress(Space),,,,,-- --- ---- --- ------ ----- ------- ---- -- --- ------- --<br>------- ---------- ------ -- ----- -- ----- -- ---- ------<br>--- ----- --- --- ------ -------- ----- --- ------ ----- --<br>----- ----- ---------- --- --- ------ ------ ---- -- ------<br>------- --- ------ ----- was ---- ------- -- ---- --- --<br>------- ------,111534.20000000298,111533.40000000224,111267.189,111278.40000000224,111283.859,111550.634,,47,was
screen,html.Screen,0_2_1_1_48,2021-12-02T13:22:46.515Z,,,,,,,,,,,,,,,,54,,,,,,,,,,,,,,214.7660000022297,,response,,,100,,,,,,Space,keypress(Space),,,,,-- --- ---- --- ------ ----- ------- ---- -- --- ------- --<br>------- ---------- ------ -- ----- -- ----- -- ---- ------<br>--- ----- --- --- ------ -------- ----- --- ------ ----- --<br>----- ----- ---------- --- --- ------ ------ ---- -- ------<br>------- --- ------ ----- --- left ------- -- ---- --- --<br>------- ------,111766.20000000298,111765.40000000224,111533.963,111534.5,111550.634,111767.315,,48,left
screen,html.Screen,0_2_1_1_49,2021-12-02T13:22:46.779Z,,,,,,,,,,,,,,,,54,,,,,,,,,,,,,,261.98500000074273,,response,,,100,,,,,,Space,keypress(Space),,,,,-- --- ---- --- ------ ----- ------- ---- -- --- ------- --<br>------- ---------- ------ -- ----- -- ----- -- ---- ------<br>--- ----- --- --- ------ -------- ----- --- ------ ----- --<br>----- ----- ---------- --- --- ------ ------ ---- -- ------<br>------- --- ------ ----- --- ---- without -- ---- --- --<br>------- ------,112030.20000000298,112029.30000000075,111750.645,111766.5,111767.315,112034.09,,49,without
screen,html.Screen,0_2_1_1_50,2021-12-02T13:22:47.011Z,,,,,,,,,,,,,,,,54,,,,,,,,,,,,,,227.21000000074855,,response,,,100,,,,,,Space,keypress(Space),,,,,-- --- ---- --- ------ ----- ------- ---- -- --- ------- --<br>------- ---------- ------ -- ----- -- ----- -- ---- ------<br>--- ----- --- --- ------ -------- ----- --- ------ ----- --<br>----- ----- ---------- --- --- ------ ------ ---- -- ------<br>------- --- ------ ----- --- ---- ------- an ---- --- --<br>------- ------,112262.10000000149,112261.30000000075,112017.419,112030.30000000075,112034.09,112267.447,,50,an
screen,html.Screen,0_2_1_1_51,2021-12-02T13:22:47.291Z,,,,,,,,,,,,,,,,54,,,,,,,,,,,,,,273.85300000074494,,response,,,100,,,,,,Space,keypress(Space),,,,,-- --- ---- --- ------ ----- ------- ---- -- --- ------- --<br>------- ---------- ------ -- ----- -- ----- -- ---- ------<br>--- ----- --- --- ------ -------- ----- --- ------ ----- --<br>----- ----- ---------- --- --- ------ ------ ---- -- ------<br>------- --- ------ ----- --- ---- ------- -- easy --- --<br>------- ------,112542.10000000149,112541.30000000075,112250.777,112262.30000000075,112267.447,112550.859,,51,easy
screen,html.Screen,0_2_1_1_52,2021-12-02T13:22:47.523Z,,,,,,,,,,,,,,,,54,,,,,,,,,,,,,,222.44100000074832,,response,,,100,,,,,,Space,keypress(Space),,,,,-- --- ---- --- ------ ----- ------- ---- -- --- ------- --<br>------- ---------- ------ -- ----- -- ----- -- ---- ------<br>--- ----- --- --- ------ -------- ----- --- ------ ----- --<br>----- ----- ---------- --- --- ------ ------ ---- -- ------<br>------- --- ------ ----- --- ---- ------- -- ---- way --<br>------- ------,112774.10000000149,112773.30000000075,112534.189,112542.40000000224,112550.859,112784.232,,52,way
screen,html.Screen,0_2_1_1_53,2021-12-02T13:22:47.771Z,,,,,,,,,,,,,,,,54,,,,,,,,,,,,,,237.06800000074145,,response,,,100,,,,,,Space,keypress(Space),,,,,-- --- ---- --- ------ ----- ------- ---- -- --- ------- --<br>------- ---------- ------ -- ----- -- ----- -- ---- ------<br>--- ----- --- --- ------ -------- ----- --- ------ ----- --<br>----- ----- ---------- --- --- ------ ------ ---- -- ------<br>------- --- ------ ----- --- ---- ------- -- ---- --- of<br>------- ------,113022,113021.30000000075,112767.562,112774.30000000075,112784.232,113034.351,,53,of
screen,html.Screen,0_2_1_1_54,2021-12-02T13:22:48.067Z,,,,,,,,,,,,,,,,54,,,,,,,,,,,,,,282.8490000029851,,response,,,100,,,,,,Space,keypress(Space),,,,,-- --- ---- --- ------ ----- ------- ---- -- --- ------- --<br>------- ---------- ------ -- ----- -- ----- -- ---- ------<br>--- ----- --- --- ------ -------- ----- --- ------ ----- --<br>----- ----- ---------- --- --- ------ ------ ---- -- ------<br>------- --- ------ ----- --- ---- ------- -- ---- --- --<br>raising ------,113318.10000000149,113317.20000000298,113017.68,113022.30000000075,113034.351,113334.335,,54,raising
screen,html.Screen,0_2_1_1_55,2021-12-02T13:22:48.411Z,,,,,,,,,,,,,,,,54,,,,,,,,,,,,,,326.96500000073866,,response,,,100,,,,,,Space,keypress(Space),,,,,-- --- ---- --- ------ ----- ------- ---- -- --- ------- --<br>------- ---------- ------ -- ----- -- ----- -- ---- ------<br>--- ----- --- --- ------ -------- ----- --- ------ ----- --<br>----- ----- ---------- --- --- ------ ------ ---- -- ------<br>------- --- ------ ----- --- ---- ------- -- ---- --- --<br>------- money.,113662,113661.30000000075,113317.666,113318.30000000075,113334.335,113667.832,,55,money.
Item 100,flow.Loop,0_2_1_1,2021-12-02T13:22:48.411Z,,,,,,,,,,,,,,,,,,,,,,,,,,,,,,31968.53600000075,,completion,,,,E,,,,,,,,,,silence,,113662.5,113661.30000000075,81676.094,81677.20000000298,81692.764,113667.832,,,
Question 1,html.Screen,0_2_1_2,2021-12-02T13:22:51.314Z,,,,,,,,,,,,,,,,,,,,,,,,,,,true,TRUE,,2896.5680000022403,,response,,,100,E,,,,,TRUE,click #choice-1,,,,silence,,116565.60000000149,116564.40000000224,113651.161,113662.70000000298,113667.832,116568.585,,,
Question 2,html.Screen,0_2_1_3,2021-12-02T13:22:54.154Z,,,,,,,,,,,,,,,,,,,,,,,,,,,false,FALSE,,2835.2150000007387,,response,,,100,E,,,,,TRUE,click #choice-1,,,,silence,,119405,119403.80000000075,116551.914,116565.80000000075,116568.585,119419.286,,,
Item 100,flow.Sequence,0_2_1,2021-12-02T13:22:54.154Z,,,,,,,,,,,,,,,,,,,,,,,,,,,,,,47713.51100000074,,completion,,,,,,,,,,,,,,,,119405.40000000224,119403.80000000075,71673.619,71688.60000000149,71690.289,119419.286,,,
End of Practice,html.Page,0_2_2,2021-12-02T13:22:57.139Z,,,,,,,,,,,,,,,,,,,,,,,,,,,,,,2967.214000000007,,form submission,,,,,,,,,,,,,,,,122387,122386.5,119402.616,119405.60000000149,119419.286,122386.676,,,
Practice,flow.Sequence,0_2,2021-12-02T13:22:57.140Z,,,,,,,,,,,,,,,,,,,,,,,,,,,,,,94090.981,,completion,,,,,,,,,,,,,,,,122387.40000000224,122386.5,28278.85,28289.800000000745,28295.519,122386.676,,,
Trap_instruction,html.Page,0_3_0,2021-12-02T13:23:01.271Z,,,,,,,,,,,,,,,,,,,,,,,,,,,,,,4131.224000002228,,form submission,,,,,,,,,,,,,,,,126518.5,126517.90000000224,122370.006,122387.60000000149,122386.676,126554.381,,,
trap_trial,html.Screen,0_3_1,2021-12-02T13:23:04.461Z,,,,,,,,,,,,,,,,,,,,,,,,,,,true,1,,3152.8190000029863,,response,,,,,,,,,1,click #choice-1,,,,,,129708.40000000224,129707.20000000298,126504.371,126518.80000000075,126554.381,129720.809,,,
end of trap trial,html.Page,0_3_2,2021-12-02T13:23:06.608Z,,,,,,,,,,,,,,,,,,,,,,,,,,,,,,2134.691000000006,,form submission,,,,,,,,,,,,,,,,131856.20000000298,131855.5,129704.144,129708.70000000298,129720.809,131855.741,,,
Trap 1,flow.Sequence,0_3,2021-12-02T13:23:06.609Z,,,,,,,,,,,,,,,,,,,,,,,,,,,,,,9468.823999999993,,completion,,,,,,,,,,,,,,,,131856.5,131855.5,122370.006,122387.60000000149,122386.676,131855.741,,,
Standby,html.Page,0_4_0,2021-12-02T13:23:14.595Z,,,,,,,,,,,,,,,,,,,,,,,,,,,,,,8002.155999999988,,timeout,,,,,,,,,,,,,,,,139842.5,139841.226,131839.071,131856.80000000075,131855.741,139857.897,,,
Holding screen,html.Screen,0_4_1_0_0,2021-12-02T13:23:21.596Z,,,,,,,,,,,,,,,,,,,,,,,,,,,,,,7001.812000000005,,timeout,,,,,,,,,,,,,,,,146844,146843.038,139841.226,139842.90000000224,139857.897,146859.709,,,
screen,html.Screen,0_4_1_0_1_0,2021-12-02T13:23:22.949Z,,,,,,,,,,,,,,,,48,,,,,,,,,,,,,,1335.9910000029777,,response,,,10,E,,,,,Space,keypress(Space),,,,lyrical,As -- --- ------ ------- --------- ----------- --------<br>--------- -------- --- ------- -- ------- ---- -- ------<br>-- --- -------- -------- ---------- ---- ---- ---- ------<br>-- --------- -- ---- -- --- -- --- ------- -- - -----<br>---------- -- -- -- ---- ----- -- ------ -- --- ------<br>-------,148196.80000000075,148195.70000000298,146843.038,146844.30000000075,146859.709,148209.756,,0,As
screen,html.Screen,0_4_1_0_1_1,2021-12-02T13:23:23.428Z,,,,,,,,,,,,,,,,48,,,,,,,,,,,,,,465.5440000007511,,response,,,10,E,,,,,Space,keypress(Space),,,,lyrical,-- in --- ------ ------- --------- ----------- --------<br>--------- -------- --- ------- -- ------- ---- -- ------<br>-- --- -------- -------- ---------- ---- ---- ---- ------<br>-- --------- -- ---- -- --- -- --- ------- -- - -----<br>---------- -- -- -- ---- ----- -- ------ -- --- ------<br>-------,148676.1000000015,148675.30000000075,148193.087,148197.1000000015,148209.756,148693.346,,1,in
screen,html.Screen,0_4_1_0_1_2,2021-12-02T13:23:23.876Z,,,,,,,,,,,,,,,,48,,,,,,,,,,,,,,429.9540000007546,,response,,,10,E,,,,,Space,keypress(Space),,,,lyrical,-- -- the ------ ------- --------- ----------- --------<br>--------- -------- --- ------- -- ------- ---- -- ------<br>-- --- -------- -------- ---------- ---- ---- ---- ------<br>-- --------- -- ---- -- --- -- --- ------- -- - -----<br>---------- -- -- -- ---- ----- -- ------ -- --- ------<br>-------,149124.1000000015,149123.30000000075,148676.676,148676.40000000224,148693.346,149126.916,,2,the
screen,html.Screen,0_4_1_0_1_3,2021-12-02T13:23:24.316Z,,,,,,,,,,,,,,,,48,,,,,,,,,,,,,,436.3840000007476,,response,,,10,E,,,,,Space,keypress(Space),,,,lyrical,-- -- --- United ------- --------- ----------- --------<br>--------- -------- --- ------- -- ------- ---- -- ------<br>-- --- -------- -------- ---------- ---- ---- ---- ------<br>-- --------- -- ---- -- --- -- --- ------- -- - -----<br>---------- -- -- -- ---- ----- -- ------ -- --- ------<br>-------,149564.20000000298,149563.30000000075,149110.245,149124.40000000224,149126.916,149577.04,,3,United
screen,html.Screen,0_4_1_0_1_4,2021-12-02T13:23:24.692Z,,,,,,,,,,,,,,,,48,,,,,,,,,,,,,,362.1600000029721,,response,,,10,E,,,,,Space,keypress(Space),,,,lyrical,"-- -- --- ------ States, --------- ----------- --------<br>--------- -------- --- ------- -- ------- ---- -- ------<br>-- --- -------- -------- ---------- ---- ---- ---- ------<br>-- --------- -- ---- -- --- -- --- ------- -- - -----<br>---------- -- -- -- ---- ----- -- ------ -- --- ------<br>-------",149940.20000000298,149939.20000000298,149560.369,149564.40000000224,149577.04,149943.891,,4,"States,"
screen,html.Screen,0_4_1_0_1_5,2021-12-02T13:23:25.220Z,,,,,,,,,,,,,,,,48,,,,,,,,,,,,,,523.309000002977,,response,,,10,E,,,,,Space,keypress(Space),,,,lyrical,-- -- --- ------ ------- Colombian ----------- --------<br>--------- -------- --- ------- -- ------- ---- -- ------<br>-- --- -------- -------- ---------- ---- ---- ---- ------<br>-- --------- -- ---- -- --- -- --- ------- -- - -----<br>---------- -- -- -- ---- ----- -- ------ -- --- ------<br>-------,150468,150467.20000000298,149927.219,149940.5,149943.891,150477.272,,5,Colombian
screen,html.Screen,0_4_1_0_1_6,2021-12-02T13:23:25.732Z,,,,,,,,,,,,,,,,48,,,,,,,,,,,,,,501.928000002983,,response,,,10,E,,,,,Space,keypress(Space),,,,lyrical,-- -- --- ------ ------- --------- legislation --------<br>--------- -------- --- ------- -- ------- ---- -- ------<br>-- --- -------- -------- ---------- ---- ---- ---- ------<br>-- --------- -- ---- -- --- -- --- ------- -- - -----<br>---------- -- -- -- ---- ----- -- ------ -- --- ------<br>-------,150980,150979.20000000298,150460.602,150468.30000000075,150477.272,150994.033,,6,legislation
screen,html.Screen,0_4_1_0_1_7,2021-12-02T13:23:26.196Z,,,,,,,,,,,,,,,,48,,,,,,,,,,,,,,449.0670000014943,,response,,,10,E,,,,,Space,keypress(Space),,,,lyrical,-- -- --- ------ ------- --------- ----------- requires<br>--------- -------- --- ------- -- ------- ---- -- ------<br>-- --- -------- -------- ---------- ---- ---- ---- ------<br>-- --------- -- ---- -- --- -- --- ------- -- - -----<br>---------- -- -- -- ---- ----- -- ------ -- --- ------<br>-------,151444,151443.1000000015,150977.363,150980.20000000298,150994.033,151460.893,,7,requires
screen,html.Screen,0_4_1_0_1_8,2021-12-02T13:23:26.708Z,,,,,,,,,,,,,,,,48,,,,,,,,,,,,,,494.3070000029693,,response,,,10,E,,,,,Space,keypress(Space),,,,lyrical,-- -- --- ------ ------- --------- ----------- --------<br>travelers -------- --- ------- -- ------- ---- -- ------<br>-- --- -------- -------- ---------- ---- ---- ---- ------<br>-- --------- -- ---- -- --- -- --- ------- -- - -----<br>---------- -- -- -- ---- ----- -- ------ -- --- ------<br>-------,151956,151955.20000000298,151444.222,151444.30000000075,151460.893,151961.032,,8,travelers
screen,html.Screen,0_4_1_0_1_9,2021-12-02T13:23:27.246Z,,,,,,,,,,,,,,,,48,,,,,,,,,,,,,,530.0680000014836,,response,,,10,E,,,,,Space,keypress(Space),,,,lyrical,-- -- --- ------ ------- --------- ----------- --------<br>--------- entering --- ------- -- ------- ---- -- ------<br>-- --- -------- -------- ---------- ---- ---- ---- ------<br>-- --------- -- ---- -- --- -- --- ------- -- - -----<br>---------- -- -- -- ---- ----- -- ------ -- --- ------<br>-------,152493.40000000224,152491.1000000015,151944.361,151956.30000000075,151961.032,152511.103,,9,entering
screen,html.Screen,0_4_1_0_1_10,2021-12-02T13:23:27.612Z,,,,,,,,,,,,,,,,48,,,,,,,,,,,,,,347.9970000014873,,response,,,10,E,,,,,Space,keypress(Space),,,,lyrical,-- -- --- ------ ------- --------- ----------- --------<br>--------- -------- the ------- -- ------- ---- -- ------<br>-- --- -------- -------- ---------- ---- ---- ---- ------<br>-- --------- -- ---- -- --- -- --- ------- -- - -----<br>---------- -- -- -- ---- ----- -- ------ -- --- ------<br>-------,152859.90000000224,152859.1000000015,152494.433,152493.70000000298,152511.103,152861.263,,10,the
screen,html.Screen,0_4_1_0_1_11,2021-12-02T13:23:28.044Z,,,,,,,,,,,,,,,,48,,,,,,,,,,,,,,429.7369999999937,,response,,,10,E,,,,,Space,keypress(Space),,,,lyrical,-- -- --- ------ ------- --------- ----------- --------<br>--------- -------- --- country -- ------- ---- -- ------<br>-- --- -------- -------- ---------- ---- ---- ---- ------<br>-- --------- -- ---- -- --- -- --- ------- -- - -----<br>---------- -- -- -- ---- ----- -- ------ -- --- ------<br>-------,153291.90000000224,153291,152844.592,152860.1000000015,152861.263,153294.643,,11,country
screen,html.Screen,0_4_1_0_1_12,2021-12-02T13:23:28.436Z,,,,,,,,,,,,,,,,48,,,,,,,,,,,,,,388.25700000222423,,response,,,10,E,,,,,Space,keypress(Space),,,,lyrical,-- -- --- ------ ------- --------- ----------- --------<br>--------- -------- --- ------- to ------- ---- -- ------<br>-- --- -------- -------- ---------- ---- ---- ---- ------<br>-- --------- -- ---- -- --- -- --- ------- -- - -----<br>---------- -- -- -- ---- ----- -- ------ -- --- ------<br>-------,153683.70000000298,153682.90000000224,153277.973,153292,153294.643,153694.694,,12,to
screen,html.Screen,0_4_1_0_1_13,2021-12-02T13:23:29.044Z,,,,,,,,,,,,,,,,48,,,,,,,,,,,,,,596.3060000000114,,response,,,10,E,,,,,Space,keypress(Space),,,,lyrical,-- -- --- ------ ------- --------- ----------- --------<br>--------- -------- --- ------- -- declare ---- -- ------<br>-- --- -------- -------- ---------- ---- ---- ---- ------<br>-- --------- -- ---- -- --- -- --- ------- -- - -----<br>---------- -- -- -- ---- ----- -- ------ -- --- ------<br>-------,154291.90000000224,154291,153678.025,153683.90000000224,153694.694,154295.023,,13,declare
screen,html.Screen,0_4_1_0_1_14,2021-12-02T13:23:29.444Z,,,,,,,,,,,,,,,,48,,,,,,,,,,,,,,395.9770000000135,,response,,,10,E,,,,,Space,keypress(Space),,,,lyrical,-- -- --- ------ ------- --------- ----------- --------<br>--------- -------- --- ------- -- ------- cash -- ------<br>-- --- -------- -------- ---------- ---- ---- ---- ------<br>-- --------- -- ---- -- --- -- --- ------- -- - -----<br>---------- -- -- -- ---- ----- -- ------ -- --- ------<br>-------,154691.80000000075,154691,154278.351,154292.20000000298,154295.023,154695.034,,14,cash
screen,html.Screen,0_4_1_0_1_15,2021-12-02T13:23:29.844Z,,,,,,,,,,,,,,,,48,,,,,,,,,,,,,,395.9659999999858,,response,,,10,E,,,,,Space,keypress(Space),,,,lyrical,-- -- --- ------ ------- --------- ----------- --------<br>--------- -------- --- ------- -- ------- ---- in ------<br>-- --- -------- -------- ---------- ---- ---- ---- ------<br>-- --------- -- ---- -- --- -- --- ------- -- - -----<br>---------- -- -- -- ---- ----- -- ------ -- --- ------<br>-------,155091.80000000075,155091,154678.364,154692,154695.034,155095.117,,15,in
screen,html.Screen,0_4_1_0_1_16,2021-12-02T13:23:30.300Z,,,,,,,,,,,,,,,,48,,,,,,,,,,,,,,451.6830000007467,,response,,,10,E,,,,,Space,keypress(Space),,,,lyrical,-- -- --- ------ ------- --------- ----------- --------<br>--------- -------- --- ------- -- ------- ---- -- excess<br>-- --- -------- -------- ---------- ---- ---- ---- ------<br>-- --------- -- ---- -- --- -- --- ------- -- - -----<br>---------- -- -- -- ---- ----- -- ------ -- --- ------<br>-------,155547.80000000075,155546.80000000075,155078.447,155092.1000000015,155095.117,155561.904,,16,excess
screen,html.Screen,0_4_1_0_1_17,2021-12-02T13:23:30.724Z,,,,,,,,,,,,,,,,48,,,,,,,,,,,,,,408.9960000022256,,response,,,10,E,,,,,Space,keypress(Space),,,,lyrical,-- -- --- ------ ------- --------- ----------- --------<br>--------- -------- --- ------- -- ------- ---- -- ------<br>of --- -------- -------- ---------- ---- ---- ---- ------<br>-- --------- -- ---- -- --- -- --- ------- -- - -----<br>---------- -- -- -- ---- ----- -- ------ -- --- ------<br>-------,155971.80000000075,155970.90000000224,155545.234,155547.90000000224,155561.904,155978.73,,17,of
screen,html.Screen,0_4_1_0_1_18,2021-12-02T13:23:31.124Z,,,,,,,,,,,,,,,,48,,,,,,,,,,,,,,392.0700000007346,,response,,,10,E,,,,,Space,keypress(Space),,,,lyrical,-- -- --- ------ ------- --------- ----------- --------<br>--------- -------- --- ------- -- ------- ---- -- ------<br>-- ten -------- -------- ---------- ---- ---- ---- ------<br>-- --------- -- ---- -- --- -- --- ------- -- - -----<br>---------- -- -- -- ---- ----- -- ------ -- --- ------<br>-------,156371.70000000298,156370.80000000075,155962.059,155971.90000000224,155978.73,156378.785,,18,ten
screen,html.Screen,0_4_1_0_1_19,2021-12-02T13:23:31.580Z,,,,,,,,,,,,,,,,48,,,,,,,,,,,,,,447.91500000297674,,response,,,10,E,,,,,Space,keypress(Space),,,,lyrical,-- -- --- ------ ------- --------- ----------- --------<br>--------- -------- --- ------- -- ------- ---- -- ------<br>-- --- thousand -------- ---------- ---- ---- ---- ------<br>-- --------- -- ---- -- --- -- --- ------- -- - -----<br>---------- -- -- -- ---- ----- -- ------ -- --- ------<br>-------,156827.6000000015,156826.70000000298,156362.115,156371.90000000224,156378.785,156828.896,,19,thousand
screen,html.Screen,0_4_1_0_1_20,2021-12-02T13:23:31.996Z,,,,,,,,,,,,,,,,48,,,,,,,,,,,,,,414.00400000222726,,response,,,10,E,,,,,Space,keypress(Space),,,,lyrical,-- -- --- ------ ------- --------- ----------- --------<br>--------- -------- --- ------- -- ------- ---- -- ------<br>-- --- -------- dollars. ---------- ---- ---- ---- ------<br>-- --------- -- ---- -- --- -- --- ------- -- - -----<br>---------- -- -- -- ---- ----- -- ------ -- --- ------<br>-------,157243.6000000015,157242.90000000224,156812.226,156827.80000000075,156828.896,157245.679,,20,dollars.
screen,html.Screen,0_4_1_0_1_21,2021-12-02T13:23:32.508Z,,,,,,,,,,,,,,,,48,,,,,,,,,,,,,,509.12100000074133,,response,,,10,E,,,,,Space,keypress(Space),,,,lyrical,-- -- --- ------ ------- --------- ----------- --------<br>--------- -------- --- ------- -- ------- ---- -- ------<br>-- --- -------- -------- Concealing ---- ---- ---- ------<br>-- --------- -- ---- -- --- -- --- ------- -- - -----<br>---------- -- -- -- ---- ----- -- ------ -- --- ------<br>-------,157755.6000000015,157754.80000000075,157229.009,157243.90000000224,157245.679,157762.485,,21,Concealing
screen,html.Screen,0_4_1_0_1_22,2021-12-02T13:23:32.916Z,,,,,,,,,,,,,,,,48,,,,,,,,,,,,,,400.41500000224914,,response,,,10,E,,,,,Space,keypress(Space),,,,lyrical,-- -- --- ------ ------- --------- ----------- --------<br>--------- -------- --- ------- -- ------- ---- -- ------<br>-- --- -------- -------- ---------- more ---- ---- ------<br>-- --------- -- ---- -- --- -- --- ------- -- - -----<br>---------- -- -- -- ---- ----- -- ------ -- --- ------<br>-------,158163.6000000015,158162.90000000224,157745.815,157755.80000000075,157762.485,158179.235,,22,more
screen,html.Screen,0_4_1_0_1_23,2021-12-02T13:23:33.308Z,,,,,,,,,,,,,,,,48,,,,,,,,,,,,,,376.065000000759,,response,,,10,E,,,,,Space,keypress(Space),,,,lyrical,-- -- --- ------ ------- --------- ----------- --------<br>--------- -------- --- ------- -- ------- ---- -- ------<br>-- --- -------- -------- ---------- ---- than ---- ------<br>-- --------- -- ---- -- --- -- --- ------- -- - -----<br>---------- -- -- -- ---- ----- -- ------ -- --- ------<br>-------,158556.1000000015,158555.30000000075,158162.565,158163.80000000075,158179.235,158562.597,,23,than
screen,html.Screen,0_4_1_0_1_24,2021-12-02T13:23:33.676Z,,,,,,,,,,,,,,,,48,,,,,,,,,,,,,,360.1030000029714,,response,,,10,E,,,,,Space,keypress(Space),,,,lyrical,-- -- --- ------ ------- --------- ----------- --------<br>--------- -------- --- ------- -- ------- ---- -- ------<br>-- --- -------- -------- ---------- ---- ---- that ------<br>-- --------- -- ---- -- --- -- --- ------- -- - -----<br>---------- -- -- -- ---- ----- -- ------ -- --- ------<br>-------,158923.5,158922.70000000298,158545.928,158556.30000000075,158562.597,158929.39,,24,that
screen,html.Screen,0_4_1_0_1_25,2021-12-02T13:23:34.060Z,,,,,,,,,,,,,,,,48,,,,,,,,,,,,,,377.21000000147615,,response,,,10,E,,,,,Space,keypress(Space),,,,lyrical,-- -- --- ------ ------- --------- ----------- --------<br>--------- -------- --- ------- -- ------- ---- -- ------<br>-- --- -------- -------- ---------- ---- ---- ---- amount<br>-- --------- -- ---- -- --- -- --- ------- -- - -----<br>---------- -- -- -- ---- ----- -- ------ -- --- ------<br>-------,159307.5,159306.6000000015,158912.72,158923.80000000075,158929.39,159312.842,,25,amount
screen,html.Screen,0_4_1_0_1_26,2021-12-02T13:23:34.484Z,,,,,,,,,,,,,,,,48,,,,,,,,,,,,,,417.85800000297604,,response,,,10,E,,,,,Space,keypress(Space),,,,lyrical,-- -- --- ------ ------- --------- ----------- --------<br>--------- -------- --- ------- -- ------- ---- -- ------<br>-- --- -------- -------- ---------- ---- ---- ---- ------<br>to --------- -- ---- -- --- -- --- ------- -- - -----<br>---------- -- -- -- ---- ----- -- ------ -- --- ------<br>-------,159731.5,159730.70000000298,159296.172,159307.70000000298,159312.842,159746.412,,26,to
screen,html.Screen,0_4_1_0_1_27,2021-12-02T13:23:34.924Z,,,,,,,,,,,,,,,,48,,,,,,,,,,,,,,424.28800000296906,,response,,,10,E,,,,,Space,keypress(Space),,,,lyrical,-- -- --- ------ ------- --------- ----------- --------<br>--------- -------- --- ------- -- ------- ---- -- ------<br>-- --- -------- -------- ---------- ---- ---- ---- ------<br>-- transport -- ---- -- --- -- --- ------- -- - -----<br>---------- -- -- -- ---- ----- -- ------ -- --- ------<br>-------,160171.5,160170.70000000298,159729.74,159731.80000000075,159746.412,160179.658,,27,transport
screen,html.Screen,0_4_1_0_1_28,2021-12-02T13:23:35.292Z,,,,,,,,,,,,,,,,48,,,,,,,,,,,,,,359.0420000029844,,response,,,10,E,,,,,Space,keypress(Space),,,,lyrical,-- -- --- ------ ------- --------- ----------- --------<br>--------- -------- --- ------- -- ------- ---- -- ------<br>-- --- -------- -------- ---------- ---- ---- ---- ------<br>-- --------- it ---- -- --- -- --- ------- -- - -----<br>---------- -- -- -- ---- ----- -- ------ -- --- ------<br>-------,160539.40000000224,160538.70000000298,160162.989,160171.80000000075,160179.658,160546.605,,28,it
screen,html.Screen,0_4_1_0_1_29,2021-12-02T13:23:35.724Z,,,,,,,,,,,,,,,,48,,,,,,,,,,,,,,423.99500000147964,,response,,,10,E,,,,,Space,keypress(Space),,,,lyrical,-- -- --- ------ ------- --------- ----------- --------<br>--------- -------- --- ------- -- ------- ---- -- ------<br>-- --- -------- -------- ---------- ---- ---- ---- ------<br>-- --------- -- into -- --- -- --- ------- -- - -----<br>---------- -- -- -- ---- ----- -- ------ -- --- ------<br>-------,160971.40000000224,160970.6000000015,160529.933,160539.70000000298,160546.605,160980.014,,29,into
screen,html.Screen,0_4_1_0_1_30,2021-12-02T13:23:36.084Z,,,,,,,,,,,,,,,,48,,,,,,,,,,,,,,350.58600000149454,,response,,,10,E,,,,,Space,keypress(Space),,,,lyrical,-- -- --- ------ ------- --------- ----------- --------<br>--------- -------- --- ------- -- ------- ---- -- ------<br>-- --- -------- -------- ---------- ---- ---- ---- ------<br>-- --------- -- ---- or --- -- --- ------- -- - -----<br>---------- -- -- -- ---- ----- -- ------ -- --- ------<br>-------,161331.5,161330.6000000015,160963.343,160971.70000000298,160980.014,161346.725,,30,or
screen,html.Screen,0_4_1_0_1_31,2021-12-02T13:23:36.484Z,,,,,,,,,,,,,,,,48,,,,,,,,,,,,,,383.8750000014843,,response,,,10,E,,,,,Space,keypress(Space),,,,lyrical,-- -- --- ------ ------- --------- ----------- --------<br>--------- -------- --- ------- -- ------- ---- -- ------<br>-- --- -------- -------- ---------- ---- ---- ---- ------<br>-- --------- -- ---- -- out -- --- ------- -- - -----<br>---------- -- -- -- ---- ----- -- ------ -- --- ------<br>-------,161731.40000000224,161730.6000000015,161330.055,161331.70000000298,161346.725,161746.882,,31,out
screen,html.Screen,0_4_1_0_1_32,2021-12-02T13:23:36.852Z,,,,,,,,,,,,,,,,48,,,,,,,,,,,,,,351.61799999998766,,response,,,10,E,,,,,Space,keypress(Space),,,,lyrical,-- -- --- ------ ------- --------- ----------- --------<br>--------- -------- --- ------- -- ------- ---- -- ------<br>-- --- -------- -------- ---------- ---- ---- ---- ------<br>-- --------- -- ---- -- --- of --- ------- -- - -----<br>---------- -- -- -- ---- ----- -- ------ -- --- ------<br>-------,162099.30000000075,162098.5,161730.211,161731.70000000298,161746.882,162113.457,,32,of
screen,html.Screen,0_4_1_0_1_33,2021-12-02T13:23:37.212Z,,,,,,,,,,,,,,,,48,,,,,,,,,,,,,,345.0430000000051,,response,,,10,E,,,,,Space,keypress(Space),,,,lyrical,-- -- --- ------ ------- --------- ----------- --------<br>--------- -------- --- ------- -- ------- ---- -- ------<br>-- --- -------- -------- ---------- ---- ---- ---- ------<br>-- --------- -- ---- -- --- -- the ------- -- - -----<br>---------- -- -- -- ---- ----- -- ------ -- --- ------<br>-------,162459.40000000224,162458.5,162096.789,162099.6000000015,162113.457,162463.774,,33,the
screen,html.Screen,0_4_1_0_1_34,2021-12-02T13:23:37.644Z,,,,,,,,,,,,,,,,48,,,,,,,,,,,,,,426.8260000014852,,response,,,10,E,,,,,Space,keypress(Space),,,,lyrical,-- -- --- ------ ------- --------- ----------- --------<br>--------- -------- --- ------- -- ------- ---- -- ------<br>-- --- -------- -------- ---------- ---- ---- ---- ------<br>-- --------- -- ---- -- --- -- --- country -- - -----<br>---------- -- -- -- ---- ----- -- ------ -- --- ------<br>-------,162891.30000000075,162890.6000000015,162447.102,162459.6000000015,162463.774,162897.188,,34,country
screen,html.Screen,0_4_1_0_1_35,2021-12-02T13:23:37.964Z,,,,,,,,,,,,,,,,48,,,,,,,,,,,,,,313.31200000000536,,response,,,10,E,,,,,Space,keypress(Space),,,,lyrical,-- -- --- ------ ------- --------- ----------- --------<br>--------- -------- --- ------- -- ------- ---- -- ------<br>-- --- -------- -------- ---------- ---- ---- ---- ------<br>-- --------- -- ---- -- --- -- --- ------- is - -----<br>---------- -- -- -- ---- ----- -- ------ -- --- ------<br>-------,163211.30000000075,163210.5,162880.517,162891.5,162897.188,163213.89,,35,is
screen,html.Screen,0_4_1_0_1_36,2021-12-02T13:23:38.331Z,,,,,,,,,,,,,,,,48,,,,,,,,,,,,,,364.60999999998603,,response,,,10,E,,,,,Space,keypress(Space),,,,lyrical,-- -- --- ------ ------- --------- ----------- --------<br>--------- -------- --- ------- -- ------- ---- -- ------<br>-- --- -------- -------- ---------- ---- ---- ---- ------<br>-- --------- -- ---- -- --- -- --- ------- -- a -----<br>---------- -- -- -- ---- ----- -- ------ -- --- ------<br>-------,163579.20000000298,163578.5,163197.22,163211.5,163213.89,163580.641,,36,a
screen,html.Screen,0_4_1_0_1_37,2021-12-02T13:23:38.739Z,,,,,,,,,,,,,,,,48,,,,,,,,,,,,,,405.7590000022319,,response,,,10,E,,,,,Space,keypress(Space),,,,lyrical,-- -- --- ------ ------- --------- ----------- --------<br>--------- -------- --- ------- -- ------- ---- -- ------<br>-- --- -------- -------- ---------- ---- ---- ---- ------<br>-- --------- -- ---- -- --- -- --- ------- -- - crime<br>---------- -- -- -- ---- ----- -- ------ -- --- ------<br>-------,163987.20000000298,163986.40000000224,163563.971,163579.5,163580.641,163997.268,,37,crime
screen,html.Screen,0_4_1_0_1_38,2021-12-02T13:23:39.187Z,,,,,,,,,,,,,,,,48,,,,,,,,,,,,,,437.13200000222423,,response,,,10,E,,,,,Space,keypress(Space),,,,lyrical,-- -- --- ------ ------- --------- ----------- --------<br>--------- -------- --- ------- -- ------- ---- -- ------<br>-- --- -------- -------- ---------- ---- ---- ---- ------<br>-- --------- -- ---- -- --- -- --- ------- -- - -----<br>punishable -- -- -- ---- ----- -- ------ -- --- ------<br>-------,164435.20000000298,164434.40000000224,163980.6,163987.40000000224,163997.268,164447.634,,38,punishable
screen,html.Screen,0_4_1_0_1_39,2021-12-02T13:23:39.556Z,,,,,,,,,,,,,,,,48,,,,,,,,,,,,,,354.76600000224425,,response,,,10,E,,,,,Space,keypress(Space),,,,lyrical,-- -- --- ------ ------- --------- ----------- --------<br>--------- -------- --- ------- -- ------- ---- -- ------<br>-- --- -------- -------- ---------- ---- ---- ---- ------<br>-- --------- -- ---- -- --- -- --- ------- -- - -----<br>---------- by -- -- ---- ----- -- ------ -- --- ------<br>-------,164803.30000000075,164802.40000000224,164430.962,164435.40000000224,164447.634,164814.333,,39,by
screen,html.Screen,0_4_1_0_1_40,2021-12-02T13:23:39.875Z,,,,,,,,,,,,,,,,48,,,,,,,,,,,,,,308.0670000022219,,response,,,10,E,,,,,Space,keypress(Space),,,,lyrical,-- -- --- ------ ------- --------- ----------- --------<br>--------- -------- --- ------- -- ------- ---- -- ------<br>-- --- -------- -------- ---------- ---- ---- ---- ------<br>-- --------- -- ---- -- --- -- --- ------- -- - -----<br>---------- -- up -- ---- ----- -- ------ -- --- ------<br>-------,165123.20000000298,165122.40000000224,164797.662,164803.5,164814.333,165130.992,,40,up
screen,html.Screen,0_4_1_0_1_41,2021-12-02T13:23:40.243Z,,,,,,,,,,,,,,,,48,,,,,,,,,,,,,,359.3080000007467,,response,,,10,E,,,,,Space,keypress(Space),,,,lyrical,-- -- --- ------ ------- --------- ----------- --------<br>--------- -------- --- ------- -- ------- ---- -- ------<br>-- --- -------- -------- ---------- ---- ---- ---- ------<br>-- --------- -- ---- -- --- -- --- ------- -- - -----<br>---------- -- -- to ---- ----- -- ------ -- --- ------<br>-------,165491.20000000298,165490.30000000075,165114.323,165123.5,165130.992,165497.883,,41,to
screen,html.Screen,0_4_1_0_1_42,2021-12-02T13:23:40.643Z,,,,,,,,,,,,,,,,48,,,,,,,,,,,,,,392.51700000223354,,response,,,10,E,,,,,Space,keypress(Space),,,,lyrical,-- -- --- ------ ------- --------- ----------- --------<br>--------- -------- --- ------- -- ------- ---- -- ------<br>-- --- -------- -------- ---------- ---- ---- ---- ------<br>-- --------- -- ---- -- --- -- --- ------- -- - -----<br>---------- -- -- -- five ----- -- ------ -- --- ------<br>-------,165891.20000000298,165890.40000000224,165481.211,165491.5,165497.883,165897.766,,42,five
screen,html.Screen,0_4_1_0_1_43,2021-12-02T13:23:40.971Z,,,,,,,,,,,,,,,,48,,,,,,,,,,,,,,320.6340000022319,,response,,,10,E,,,,,Space,keypress(Space),,,,lyrical,-- -- --- ------ ------- --------- ----------- --------<br>--------- -------- --- ------- -- ------- ---- -- ------<br>-- --- -------- -------- ---------- ---- ---- ---- ------<br>-- --------- -- ---- -- --- -- --- ------- -- - -----<br>---------- -- -- -- ---- years -- ------ -- --- ------<br>-------,166219.20000000298,166218.40000000224,165881.098,165891.5,165897.766,166231.446,,43,years
screen,html.Screen,0_4_1_0_1_44,2021-12-02T13:23:41.267Z,,,,,,,,,,,,,,,,48,,,,,,,,,,,,,,282.8540000007488,,response,,,10,E,,,,,Space,keypress(Space),,,,lyrical,-- -- --- ------ ------- --------- ----------- --------<br>--------- -------- --- ------- -- ------- ---- -- ------<br>-- --- -------- -------- ---------- ---- ---- ---- ------<br>-- --------- -- ---- -- --- -- --- ------- -- - -----<br>---------- -- -- -- ---- ----- in ------ -- --- ------<br>-------,166515.1000000015,166514.30000000075,166214.773,166219.6000000015,166231.446,166531.351,,44,in
screen,html.Screen,0_4_1_0_1_45,2021-12-02T13:23:41.571Z,,,,,,,,,,,,,,,,48,,,,,,,,,,,,,,286.94900000074995,,response,,,10,E,,,,,Space,keypress(Space),,,,lyrical,-- -- --- ------ ------- --------- ----------- --------<br>--------- -------- --- ------- -- ------- ---- -- ------<br>-- --- -------- -------- ---------- ---- ---- ---- ------<br>-- --------- -- ---- -- --- -- --- ------- -- - -----<br>---------- -- -- -- ---- ----- -- prison -- --- ------<br>-------,166819.1000000015,166818.30000000075,166514.682,166515.40000000224,166531.351,166831.408,,45,prison
screen,html.Screen,0_4_1_0_1_46,2021-12-02T13:23:41.923Z,,,,,,,,,,,,,,,,48,,,,,,,,,,,,,,338.89200000074925,,response,,,10,E,,,,,Space,keypress(Space),,,,lyrical,-- -- --- ------ ------- --------- ----------- --------<br>--------- -------- --- ------- -- ------- ---- -- ------<br>-- --- -------- -------- ---------- ---- ---- ---- ------<br>-- --------- -- ---- -- --- -- --- ------- -- - -----<br>---------- -- -- -- ---- ----- -- ------ in --- ------<br>-------,167171.1000000015,167170.30000000075,166814.739,166819.40000000224,166831.408,167181.697,,46,in
screen,html.Screen,0_4_1_0_1_47,2021-12-02T13:23:42.259Z,,,,,,,,,,,,,,,,48,,,,,,,,,,,,,,324.6030000007595,,response,,,10,E,,,,,Space,keypress(Space),,,,lyrical,-- -- --- ------ ------- --------- ----------- --------<br>--------- -------- --- ------- -- ------- ---- -- ------<br>-- --- -------- -------- ---------- ---- ---- ---- ------<br>-- --------- -- ---- -- --- -- --- ------- -- - -----<br>---------- -- -- -- ---- ----- -- ------ -- the ------<br>-------,167507.1000000015,167506.30000000075,167165.024,167171.40000000224,167181.697,167514.888,,47,the
screen,html.Screen,0_4_1_0_1_48,2021-12-02T13:23:42.627Z,,,,,,,,,,,,,,,,48,,,,,,,,,,,,,,359.4120000007388,,response,,,10,E,,,,,Space,keypress(Space),,,,lyrical,-- -- --- ------ ------- --------- ----------- --------<br>--------- -------- --- ------- -- ------- ---- -- ------<br>-- --- -------- -------- ---------- ---- ---- ---- ------<br>-- --------- -- ---- -- --- -- --- ------- -- - -----<br>---------- -- -- -- ---- ----- -- ------ -- --- United<br>-------,167875.1000000015,167874.30000000075,167498.22,167507.30000000075,167514.888,167881.816,,48,United
screen,html.Screen,0_4_1_0_1_49,2021-12-02T13:23:42.987Z,,,,,,,,,,,,,,,,48,,,,,,,,,,,,,,352.3840000029886,,response,,,10,E,,,,,Space,keypress(Space),,,,lyrical,-- -- --- ------ ------- --------- ----------- --------<br>--------- -------- --- ------- -- ------- ---- -- ------<br>-- --- -------- -------- ---------- ---- ---- ---- ------<br>-- --------- -- ---- -- --- -- --- ------- -- - -----<br>---------- -- -- -- ---- ----- -- ------ -- --- ------<br>States.,168235,168234.20000000298,167865.144,167875.30000000075,167881.816,168248.497,,49,States.
Item 10,flow.Loop,0_4_1_0_1,2021-12-02T13:23:42.988Z,,,,,,,,,,,,,,,,,,,,,,,,,,,,,,21374.491000002978,,completion,,,,,,,,,,,,,,,,168235.40000000224,168234.20000000298,146843.038,146844.30000000075,146859.709,168248.497,,,
Question 1,html.Screen,0_4_1_0_2,2021-12-02T13:23:48.178Z,,,,,,,,,,,,,,,,,,,,,,,,,,,true,TRUE,,5175.703000002977,,response,,,10,E,,,,,TRUE,click #choice-1,,,,lyrical,,173425.30000000075,173424.20000000298,168231.827,168235.6000000015,168248.497,173433.146,,,
Question 2,html.Screen,0_4_1_0_3,2021-12-02T13:23:51.619Z,,,,,,,,,,,,,,,,,,,,,,,,,,,true,TRUE,,3432.5540000029723,,response,,,10,E,,,,,TRUE,click #choice-1,,,,lyrical,,176866.90000000224,176865.70000000298,173416.476,173425.6000000015,173433.146,176867.423,,,
Item 10,flow.Sequence,0_4_1_0,2021-12-02T13:23:51.620Z,,,,,,,,,,,,,,,,,,,,,,,,,,,,,,37007.80300000298,,completion,,,,,,,,,,,,,,,,176867.40000000224,176865.70000000298,139841.226,139842.90000000224,139857.897,176867.423,,,
Holding screen,html.Screen,0_4_1_1_0,2021-12-02T13:23:58.609Z,,,,,,,,,,,,,,,,,,,,,,,,,,,,,,7001.804999999993,,timeout,,,,,,,,,,,,,,,,183854.30000000075,183852.557,176850.752,176867.70000000298,176867.423,183869.228,,,
screen,html.Screen,0_4_1_1_1_0,2021-12-02T13:24:00.077Z,,,,,,,,,,,,,,,,15,,,,,,,,,,,,,,1452.4720000029774,,response,,,7,E,,,,,Space,keypress(Space),,,,lyrical,Greg --------- ---------- - --- ------- -- --- ------------<br>----- -- -------- ------- ---- ------ - -------- ---- -----<br>--- ------- ---- -- --- -------- --- - ----- ------ ---- --<br>-------- --- -------- -------- --- -------- ---- -- ----- -<br>-------- ---- --- ---------- --------- -- ------- ------ -<br>--------- ----- -----,185322.6000000015,185321.70000000298,183852.557,183854.90000000224,183869.228,185335.922,,0,Greg
screen,html.Screen,0_4_1_1_1_1,2021-12-02T13:24:00.773Z,,,,,,,,,,,,,,,,15,,,,,,,,,,,,,,681.3780000007537,,response,,,7,E,,,,,Space,keypress(Space),,,,lyrical,"---- Anderson, ---------- - --- ------- -- --- ------------<br>----- -- -------- ------- ---- ------ - -------- ---- -----<br>--- ------- ---- -- --- -------- --- - ----- ------ ---- --<br>-------- --- -------- -------- --- -------- ---- -- ----- -<br>-------- ---- --- ---------- --------- -- ------- ------ -<br>--------- ----- -----",186018.1000000015,186017.30000000075,185319.253,185323,185335.922,186019.731,,1,"Anderson,"
screen,html.Screen,0_4_1_1_1_2,2021-12-02T13:24:01.461Z,,,,,,,,,,,,,,,,15,,,,,,,,,,,,,,685.4690000029805,,response,,,7,E,,,,,Space,keypress(Space),,,,lyrical,---- --------- considered - --- ------- -- --- ------------<br>----- -- -------- ------- ---- ------ - -------- ---- -----<br>--- ------- ---- -- --- -------- --- - ----- ------ ---- --<br>-------- --- -------- -------- --- -------- ---- -- ----- -<br>-------- ---- --- ---------- --------- -- ------- ------ -<br>--------- ----- -----,186705.90000000224,186705.20000000298,186003.06,186018.30000000075,186019.731,186719.843,,2,considered
screen,html.Screen,0_4_1_1_1_3,2021-12-02T13:24:02.069Z,,,,,,,,,,,,,,,,15,,,,,,,,,,,,,,593.3570000029868,,response,,,7,E,,,,,Space,keypress(Space),,,,lyrical,---- --------- ---------- a --- ------- -- --- ------------<br>----- -- -------- ------- ---- ------ - -------- ---- -----<br>--- ------- ---- -- --- -------- --- - ----- ------ ---- --<br>-------- --- -------- -------- --- -------- ---- -- ----- -<br>-------- ---- --- ---------- --------- -- ------- ------ -<br>--------- ----- -----,187314,187313.20000000298,186703.173,186706.20000000298,186719.843,187320.078,,3,a
