sender,sender_type,sender_id,timestamp,meta,,Blues,Classical,Country,Dance,Electronic,Folk,Gospel,Hip-Hop,Jazz,Latin,Musical/Film,New-age,Pop,Provo_ID,R&B,Rap,Reggae,Religious,Rock,Soul,Swing,Traditional,age,artist_name,correct,correctResponse,distraction,duration,education,ended_on,familiarity,gender,item,list,music_frequency,offensiveness,pleasantness,preference,response,response_action,snippet_file,song_name,song_rating,sound,text,time_commit,time_end,time_render,time_run,time_show,time_switch,url,word,word_ID
Instructions,html.Page,0_0,2021-11-25T15:47:08.090Z,"{""labjs_version"":""20.2.3"",""labjs_build"":{""flavor"":""production"",""commit"":""7ea907d66ca8aeef8054924ca5d82ffbe11e34e5""},""location"":""https://run.pavlovia.org/mvasilev/lab_music_e/"",""userAgent"":""Mozilla/5.0 (Windows NT 6.1; Win64; x64) AppleWebKit/537.36 (KHTML, like Gecko) Chrome/96.0.4664.45 Safari/537.36"",""platform"":""Win32"",""language"":""en-US"",""locale"":""en-US"",""timeZone"":""Europe/London"",""timezoneOffset"":0,""screen_width"":1920,""screen_height"":1080,""scroll_width"":1920,""scroll_height"":959,""window_innerWidth"":1920,""window_innerHeight"":1007,""devicePixelRatio"":1}",,,,,,,,,,,,,,,,,,,,,,,,,,,,,20618.114999952315,,form submission,,,,,,,,,,,,,,,,28438.5,28437.299999952316,7785.871,7793,7819.185,28446.419,{},,
Headphones,html.Page,0_1,2021-11-25T15:47:10.844Z,,,,,,,,,,,,,,,,,,,,,,,,,,,,,,2745.281000047682,,form submission,,,,,,,,,,,,,,,,31192.299999952316,31191.700000047684,28429.748,28439.299999952316,28446.419,31213.704,,,
Holding screen,html.Screen,0_2_0_0,2021-11-25T15:47:20.865Z,,,,,,,,,,,,,,,,,,,,,,,,,,,,,,10002.359999999997,,timeout,,,,,,,,,,,,,,,,41213.09999990463,41199.394,31197.034,31192.799999952316,31213.704,41216.064,,,
screen,html.Screen,0_2_0_1_0,2021-11-25T15:47:29.583Z,,,,,,,,,,,,,,,,53,,,,,,,,,,,,,,8709.235999952318,,response,,,99,,,,,,Space,keypress(Space),,,,,When -- ----- -- ------ - ------- --- ----------<br>------------- ------ ------ ---- ---- ------- ----- -- ----<br>-------- ------- -- ---------- --- - --- ----- ----- ----<br>---- --- --- ----- --- ---- ---- ------- ----- ---- -------<br>--- --- -- ----- -- --- ---- -- --- ---- -- ------ ------<br>--- ----- -- ----,49931.39999985695,49925.299999952316,41199.394,41213.5,41216.064,49948.208,,0,When
screen,html.Screen,0_2_0_1_1,2021-11-25T15:47:30.082Z,,,,,,,,,,,,,,,,53,,,,,,,,,,,,,,481.19199985695013,,response,,,99,,,,,,Space,keypress(Space),,,,,---- it ----- -- ------ - ------- --- ----------<br>------------- ------ ------ ---- ---- ------- ----- -- ----<br>-------- ------- -- ---------- --- - --- ----- ----- ----<br>---- --- --- ----- --- ---- ---- ------- ----- ---- -------<br>--- --- -- ----- -- --- ---- -- --- ---- -- ------ ------<br>--- ----- -- ----,50430.299999952316,50429.39999985695,49931.572,49931.799999952316,49948.208,50435.374,,1,it
screen,html.Screen,0_2_0_1_2,2021-11-25T15:47:30.538Z,,,,,,,,,,,,,,,,53,,,,,,,,,,,,,,449.8260000476803,,response,,,99,,,,,,Space,keypress(Space),,,,,---- -- comes -- ------ - ------- --- ----------<br>------------- ------ ------ ---- ---- ------- ----- -- ----<br>-------- ------- -- ---------- --- - --- ----- ----- ----<br>---- --- --- ----- --- ---- ---- ------- ----- ---- -------<br>--- --- -- ----- -- --- ---- -- --- ---- -- ------ ------<br>--- ----- -- ----,50886.200000047684,50885.200000047684,50418.695,50430.700000047684,50435.374,50901.748,,2,comes
screen,html.Screen,0_2_0_1_3,2021-11-25T15:47:31.066Z,,,,,,,,,,,,,,,,53,,,,,,,,,,,,,,511.7520000000004,,response,,,99,,,,,,Space,keypress(Space),,,,,---- -- ----- to ------ - ------- --- ----------<br>------------- ------ ------ ---- ---- ------- ----- -- ----<br>-------- ------- -- ---------- --- - --- ----- ----- ----<br>---- --- --- ----- --- ---- ---- ------- ----- ---- -------<br>--- --- -- ----- -- --- ---- -- --- ---- -- ------ ------<br>--- ----- -- ----,51414.5,51413.5,50885.078,50886.5,50901.748,51418.655,,3,to
screen,html.Screen,0_2_0_1_4,2021-11-25T15:47:31.466Z,,,,,,,,,,,,,,,,53,,,,,,,,,,,,,,394.5450000476849,,response,,,99,,,,,,Space,keypress(Space),,,,,---- -- ----- -- having - ------- --- ----------<br>------------- ------ ------ ---- ---- ------- ----- -- ----<br>-------- ------- -- ---------- --- - --- ----- ----- ----<br>---- --- --- ----- --- ---- ---- ------- ----- ---- -------<br>--- --- -- ----- -- --- ---- -- --- ---- -- ------ ------<br>--- ----- -- ----,51814.299999952316,51813.200000047684,51401.984,51415.09999990463,51418.655,51818.697,,4,having
screen,html.Screen,0_2_0_1_5,2021-11-25T15:47:32.241Z,,,,,,,,,,,,,,,,53,,,,,,,,,,,,,,770.3029999999999,,response,,,99,,,,,,Space,keypress(Space),,,,,---- -- ----- -- ------ a ------- --- ----------<br>------------- ------ ------ ---- ---- ------- ----- -- ----<br>-------- ------- -- ---------- --- - --- ----- ----- ----<br>---- --- --- ----- --- ---- ---- ------- ----- ---- -------<br>--- --- -- ----- -- --- ---- -- --- ---- -- ------ ------<br>--- ----- -- ----,52590,52589,51802.027,51814.59999990463,51818.697,52602.221,,5,a
screen,html.Screen,0_2_0_1_6,2021-11-25T15:47:32.458Z,,,,,,,,,,,,,,,,53,,,,,,,,,,,,,,203.07899995231855,,response,,,99,,,,,,Space,keypress(Space),,,,,---- -- ----- -- ------ - lasting --- ----------<br>------------- ------ ------ ---- ---- ------- ----- -- ----<br>-------- ------- -- ---------- --- - --- ----- ----- ----<br>---- --- --- ----- --- ---- ---- ------- ----- ---- -------<br>--- --- -- ----- -- --- ---- -- --- ---- -- ------ ------<br>--- ----- -- ----,52806.200000047684,52805.299999952316,52585.551,52590.5,52602.221,52818.791,,6,lasting
screen,html.Screen,0_2_0_1_7,2021-11-25T15:47:32.993Z,,,,,,,,,,,,,,,,53,,,,,,,,,,,,,,522.2090000000026,,response,,,99,,,,,,Space,keypress(Space),,,,,---- -- ----- -- ------ - ------- and ----------<br>------------- ------ ------ ---- ---- ------- ----- -- ----<br>-------- ------- -- ---------- --- - --- ----- ----- ----<br>---- --- --- ----- --- ---- ---- ------- ----- ---- -------<br>--- --- -- ----- -- --- ---- -- --- ---- -- ------ ------<br>--- ----- -- ----,53342,53341,52802.133,52806.5,52818.791,53352.927,,7,and
screen,html.Screen,0_2_0_1_8,2021-11-25T15:47:33.882Z,,,,,,,,,,,,,,,,53,,,,,,,,,,,,,,876.0729999999967,,response,,,99,,,,,,Space,keypress(Space),,,,,---- -- ----- -- ------ - ------- --- fulfilling<br>------------- ------ ------ ---- ---- ------- ----- -- ----<br>-------- ------- -- ---------- --- - --- ----- ----- ----<br>---- --- --- ----- --- ---- ---- ------- ----- ---- -------<br>--- --- -- ----- -- --- ---- -- --- ---- -- ------ ------<br>--- ----- -- ----,54230.09999990463,54229,53336.241,53342.39999985695,53352.927,54235.663,,8,fulfilling
screen,html.Screen,0_2_0_1_9,2021-11-25T15:47:34.722Z,,,,,,,,,,,,,,,,53,,,,,,,,,,,,,,833.2369998569484,,response,,,99,,,,,,Space,keypress(Space),,,,,"---- -- ----- -- ------ - ------- --- ----------<br>relationship, ------ ------ ---- ---- ------- ----- -- ----<br>-------- ------- -- ---------- --- - --- ----- ----- ----<br>---- --- --- ----- --- ---- ---- ------- ----- ---- -------<br>--- --- -- ----- -- --- ---- -- --- ---- -- ------ ------<br>--- ----- -- ----",55070.200000047684,55068.89999985695,54218.996,54230.59999990463,54235.663,55086.143,,9,"relationship,"
screen,html.Screen,0_2_0_1_10,2021-11-25T15:47:35.233Z,,,,,,,,,,,,,,,,53,,,,,,,,,,,,,,494.75699985695246,,response,,,99,,,,,,Space,keypress(Space),,,,,---- -- ----- -- ------ - ------- --- ----------<br>------------- common ------ ---- ---- ------- ----- -- ----<br>-------- ------- -- ---------- --- - --- ----- ----- ----<br>---- --- --- ----- --- ---- ---- ------- ----- ---- -------<br>--- --- -- ----- -- --- ---- -- --- ---- -- ------ ------<br>--- ----- -- ----,55581.799999952316,55580.89999985695,55069.473,55070.5,55086.143,55586.131,,10,common
screen,html.Screen,0_2_0_1_11,2021-11-25T15:47:35.585Z,,,,,,,,,,,,,,,,53,,,,,,,,,,,,,,346.76899985694763,,response,,,99,,,,,,Space,keypress(Space),,,,,---- -- ----- -- ------ - ------- --- ----------<br>------------- ------ wisdom ---- ---- ------- ----- -- ----<br>-------- ------- -- ---------- --- - --- ----- ----- ----<br>---- --- --- ----- --- ---- ---- ------- ----- ---- -------<br>--- --- -- ----- -- --- ---- -- --- ---- -- ------ ------<br>--- ----- -- ----,55934,55932.89999985695,55569.462,55582.09999990463,55586.131,55936.465,,11,wisdom
screen,html.Screen,0_2_0_1_12,2021-11-25T15:47:35.961Z,,,,,,,,,,,,,,,,53,,,,,,,,,,,,,,372.3349999523198,,response,,,99,,,,,,Space,keypress(Space),,,,,---- -- ----- -- ------ - ------- --- ----------<br>------------- ------ ------ says ---- ------- ----- -- ----<br>-------- ------- -- ---------- --- - --- ----- ----- ----<br>---- --- --- ----- --- ---- ---- ------- ----- ---- -------<br>--- --- -- ----- -- --- ---- -- --- ---- -- ------ ------<br>--- ----- -- ----,56309.59999990463,56308.799999952316,55919.793,55934.299999952316,55936.465,56319.796,,12,says
screen,html.Screen,0_2_0_1_13,2021-11-25T15:47:36.321Z,,,,,,,,,,,,,,,,53,,,,,,,,,,,,,,349.0039999523142,,response,,,99,,,,,,Space,keypress(Space),,,,,---- -- ----- -- ------ - ------- --- ----------<br>------------- ------ ------ ---- that ------- ----- -- ----<br>-------- ------- -- ---------- --- - --- ----- ----- ----<br>---- --- --- ----- --- ---- ---- ------- ----- ---- -------<br>--- --- -- ----- -- --- ---- -- --- ---- -- ------ ------<br>--- ----- -- ----,56669.59999990463,56668.799999952316,56303.126,56309.89999985695,56319.796,56686.537,,13,that
screen,html.Screen,0_2_0_1_14,2021-11-25T15:47:36.801Z,,,,,,,,,,,,,,,,53,,,,,,,,,,,,,,462.1630000476871,,response,,,99,,,,,,Space,keypress(Space),,,,,---- -- ----- -- ------ - ------- --- ----------<br>------------- ------ ------ ---- ---- feeling ----- -- ----<br>-------- ------- -- ---------- --- - --- ----- ----- ----<br>---- --- --- ----- --- ---- ---- ------- ----- ---- -------<br>--- --- -- ----- -- --- ---- -- --- ---- -- ------ ------<br>--- ----- -- ----,57149.59999990463,57148.700000047684,56669.867,56670,56686.537,57153.325,,14,feeling
screen,html.Screen,0_2_0_1_15,2021-11-25T15:47:37.233Z,,,,,,,,,,,,,,,,53,,,,,,,,,,,,,,427.4749999523192,,response,,,99,,,,,,Space,keypress(Space),,,,,---- -- ----- -- ------ - ------- --- ----------<br>------------- ------ ------ ---- ---- ------- close -- ----<br>-------- ------- -- ---------- --- - --- ----- ----- ----<br>---- --- --- ----- --- ---- ---- ------- ----- ---- -------<br>--- --- -- ----- -- --- ---- -- --- ---- -- ------ ------<br>--- ----- -- ----,57581.59999990463,57580.799999952316,57136.655,57149.89999985695,57153.325,57586.782,,15,close
screen,html.Screen,0_2_0_1_16,2021-11-25T15:47:37.569Z,,,,,,,,,,,,,,,,53,,,,,,,,,,,,,,329.9180000476845,,response,,,99,,,,,,Space,keypress(Space),,,,,---- -- ----- -- ------ - ------- --- ----------<br>------------- ------ ------ ---- ---- ------- ----- to ----<br>-------- ------- -- ---------- --- - --- ----- ----- ----<br>---- --- --- ----- --- ---- ---- ------- ----- ---- -------<br>--- --- -- ----- -- --- ---- -- --- ---- -- ------ ------<br>--- ----- -- ----,57917.59999990463,57916.700000047684,57570.112,57582,57586.782,57920.196,,16,to
screen,html.Screen,0_2_0_1_17,2021-11-25T15:47:37.817Z,,,,,,,,,,,,,,,,53,,,,,,,,,,,,,,244.50400004768017,,response,,,99,,,,,,Space,keypress(Space),,,,,---- -- ----- -- ------ - ------- --- ----------<br>------------- ------ ------ ---- ---- ------- ----- -- your<br>-------- ------- -- ---------- --- - --- ----- ----- ----<br>---- --- --- ----- --- ---- ---- ------- ----- ---- -------<br>--- --- -- ----- -- --- ---- -- --- ---- -- ------ ------<br>--- ----- -- ----,58165.5,58164.700000047684,57903.526,57917.89999985695,57920.196,58170.212,,17,your
screen,html.Screen,0_2_0_1_18,2021-11-25T15:47:38.353Z,,,,,,,,,,,,,,,,53,,,,,,,,,,,,,,530.387999904633,,response,,,99,,,,,,Space,keypress(Space),,,,,---- -- ----- -- ------ - ------- --- ----------<br>------------- ------ ------ ---- ---- ------- ----- -- ----<br>romantic ------- -- ---------- --- - --- ----- ----- ----<br>---- --- --- ----- --- ---- ---- ------- ----- ---- -------<br>--- --- -- ----- -- --- ---- -- --- ---- -- ------ ------<br>--- ----- -- ----,58701.5,58700.59999990463,58153.543,58165.89999985695,58170.212,58703.746,,18,romantic
screen,html.Screen,0_2_0_1_19,2021-11-25T15:47:38.753Z,,,,,,,,,,,,,,,,53,,,,,,,,,,,,,,396.8539999046334,,response,,,99,,,,,,Space,keypress(Space),,,,,---- -- ----- -- ------ - ------- --- ----------<br>------------- ------ ------ ---- ---- ------- ----- -- ----<br>-------- partner -- ---------- --- - --- ----- ----- ----<br>---- --- --- ----- --- ---- ---- ------- ----- ---- -------<br>--- --- -- ----- -- --- ---- -- --- ---- -- ------ ------<br>--- ----- -- ----,59101.39999985695,59100.59999990463,58687.075,58701.700000047684,58703.746,59103.806,,19,partner
screen,html.Screen,0_2_0_1_20,2021-11-25T15:47:39.097Z,,,,,,,,,,,,,,,,53,,,,,,,,,,,,,,340.7939999046357,,response,,,99,,,,,,Space,keypress(Space),,,,,---- -- ----- -- ------ - ------- --- ----------<br>------------- ------ ------ ---- ---- ------- ----- -- ----<br>-------- ------- is ---------- --- - --- ----- ----- ----<br>---- --- --- ----- --- ---- ---- ------- ----- ---- -------<br>--- --- -- ----- -- --- ---- -- --- ---- -- ------ ------<br>--- ----- -- ----,59445.39999985695,59444.59999990463,59087.136,59101.700000047684,59103.806,59453.796,,20,is
screen,html.Screen,0_2_0_1_21,2021-11-25T15:47:39.425Z,,,,,,,,,,,,,,,,53,,,,,,,,,,,,,,318.8039999046305,,response,,,99,,,,,,Space,keypress(Space),,,,,---- -- ----- -- ------ - ------- --- ----------<br>------------- ------ ------ ---- ---- ------- ----- -- ----<br>-------- ------- -- paramount. --- - --- ----- ----- ----<br>---- --- --- ----- --- ---- ---- ------- ----- ---- -------<br>--- --- -- ----- -- --- ---- -- --- ---- -- ------ ------<br>--- ----- -- ----,59773.39999985695,59772.59999990463,59437.127,59445.700000047684,59453.796,59787.371,,21,paramount.
screen,html.Screen,0_2_0_1_22,2021-11-25T15:47:41.781Z,,,,,,,,,,,,,,,,53,,,,,,,,,,,,,,2337.428999952317,,response,,,99,,,,,,Space,keypress(Space),,,,,---- -- ----- -- ------ - ------- --- ----------<br>------------- ------ ------ ---- ---- ------- ----- -- ----<br>-------- ------- -- ---------- But - --- ----- ----- ----<br>---- --- --- ----- --- ---- ---- ------- ----- ---- -------<br>--- --- -- ----- -- --- ---- -- --- ---- -- ------ ------<br>--- ----- -- ----,62125.5,62124.799999952316,59770.699,59773.799999952316,59787.371,62137.79,,22,But
screen,html.Screen,0_2_0_1_23,2021-11-25T15:47:42.341Z,,,,,,,,,,,,,,,,53,,,,,,,,,,,,,,546.7099999999991,,response,,,99,,,,,,Space,keypress(Space),,,,,---- -- ----- -- ------ - ------- --- ----------<br>------------- ------ ------ ---- ---- ------- ----- -- ----<br>-------- ------- -- ---------- --- a --- ----- ----- ----<br>---- --- --- ----- --- ---- ---- ------- ----- ---- -------<br>--- --- -- ----- -- --- ---- -- --- ---- -- ------ ------<br>--- ----- -- ----,62685.200000047684,62684.5,62121.12,62125.799999952316,62137.79,62687.699,,23,a
screen,html.Screen,0_2_0_1_24,2021-11-25T15:47:42.781Z,,,,,,,,,,,,,,,,53,,,,,,,,,,,,,,436.60099995231576,,response,,,99,,,,,,Space,keypress(Space),,,,,---- -- ----- -- ------ - ------- --- ----------<br>------------- ------ ------ ---- ---- ------- ----- -- ----<br>-------- ------- -- ---------- --- - new ----- ----- ----<br>---- --- --- ----- --- ---- ---- ------- ----- ---- -------<br>--- --- -- ----- -- --- ---- -- --- ---- -- ------ ------<br>--- ----- -- ----,63125.09999990463,63124.299999952316,62671.03,62685.39999985695,62687.699,63138.125,,24,new
screen,html.Screen,0_2_0_1_25,2021-11-25T15:47:43.133Z,,,,,,,,,,,,,,,,53,,,,,,,,,,,,,,338.1749999523163,,response,,,99,,,,,,Space,keypress(Space),,,,,---- -- ----- -- ------ - ------- --- ----------<br>------------- ------ ------ ---- ---- ------- ----- -- ----<br>-------- ------- -- ---------- --- - --- study ----- ----<br>---- --- --- ----- --- ---- ---- ------- ----- ---- -------<br>--- --- -- ----- -- --- ---- -- --- ---- -- ------ ------<br>--- ----- -- ----,63477.09999990463,63476.299999952316,63121.455,63125.39999985695,63138.125,63488.207,,25,study
screen,html.Screen,0_2_0_1_26,2021-11-25T15:47:43.493Z,,,,,,,,,,,,,,,,53,,,,,,,,,,,,,,348.1929998569467,,response,,,99,,,,,,Space,keypress(Space),,,,,---- -- ----- -- ------ - ------- --- ----------<br>------------- ------ ------ ---- ---- ------- ----- -- ----<br>-------- ------- -- ---------- --- - --- ----- finds ----<br>---- --- --- ----- --- ---- ---- ------- ----- ---- -------<br>--- --- -- ----- -- --- ---- -- --- ---- -- ------ ------<br>--- ----- -- ----,63837.09999990463,63836.39999985695,63471.537,63477.39999985695,63488.207,63854.96,,26,finds
screen,html.Screen,0_2_0_1_27,2021-11-25T15:47:43.909Z,,,,,,,,,,,,,,,,53,,,,,,,,,,,,,,397.33999995231716,,response,,,99,,,,,,Space,keypress(Space),,,,,---- -- ----- -- ------ - ------- --- ----------<br>------------- ------ ------ ---- ---- ------- ----- -- ----<br>-------- ------- -- ---------- --- - --- ----- ----- that<br>---- --- --- ----- --- ---- ---- ------- ----- ---- -------<br>--- --- -- ----- -- --- ---- -- --- ---- -- ------ ------<br>--- ----- -- ----,64253.09999990463,64252.299999952316,63838.29,63837.39999985695,63854.96,64255.067,,27,that
screen,html.Screen,0_2_0_1_28,2021-11-25T15:47:44.565Z,,,,,,,,,,,,,,,,53,,,,,,,,,,,,,,653.2329999523135,,response,,,99,,,,,,Space,keypress(Space),,,,,---- -- ----- -- ------ - ------- --- ----------<br>------------- ------ ------ ---- ---- ------- ----- -- ----<br>-------- ------- -- ---------- --- - --- ----- ----- ----<br>it's --- --- ----- --- ---- ---- ------- ----- ---- -------<br>--- --- -- ----- -- --- ---- -- --- ---- -- ------ ------<br>--- ----- -- ----,64909.09999990463,64908.299999952316,64238.397,64253.39999985695,64255.067,64921.878,,28,it's
screen,html.Screen,0_2_0_1_29,2021-11-25T15:47:44.981Z,,,,,,,,,,,,,,,,53,,,,,,,,,,,,,,402.32200004768674,,response,,,99,,,,,,Space,keypress(Space),,,,,---- -- ----- -- ------ - ------- --- ----------<br>------------- ------ ------ ---- ---- ------- ----- -- ----<br>-------- ------- -- ---------- --- - --- ----- ----- ----<br>---- not --- ----- --- ---- ---- ------- ----- ---- -------<br>--- --- -- ----- -- --- ---- -- --- ---- -- ------ ------<br>--- ----- -- ----,65325.09999990463,65324.200000047684,64905.208,64909.299999952316,64921.878,65338.623,,29,not
screen,html.Screen,0_2_0_1_30,2021-11-25T15:47:45.461Z,,,,,,,,,,,,,,,,53,,,,,,,,,,,,,,465.5770000476841,,response,,,99,,,,,,Space,keypress(Space),,,,,---- -- ----- -- ------ - ------- --- ----------<br>------------- ------ ------ ---- ---- ------- ----- -- ----<br>-------- ------- -- ---------- --- - --- ----- ----- ----<br>---- --- how ----- --- ---- ---- ------- ----- ---- -------<br>--- --- -- ----- -- --- ---- -- --- ---- -- ------ ------<br>--- ----- -- ----,65805,65804.20000004768,65321.953,65325.39999985695,65338.623,65822.098,,30,how
screen,html.Screen,0_2_0_1_31,2021-11-25T15:47:45.885Z,,,,,,,,,,,,,,,,53,,,,,,,,,,,,,,406.00199990463443,,response,,,99,,,,,,Space,keypress(Space),,,,,---- -- ----- -- ------ - ------- --- ----------<br>------------- ------ ------ ---- ---- ------- ----- -- ----<br>-------- ------- -- ---------- --- - --- ----- ----- ----<br>---- --- --- close --- ---- ---- ------- ----- ---- -------<br>--- --- -- ----- -- --- ---- -- --- ---- -- ------ ------<br>--- ----- -- ----,66229.29999995232,66228.09999990463,65805.428,65805.39999985695,65822.098,66238.886,,31,close
screen,html.Screen,0_2_0_1_32,2021-11-25T15:47:46.349Z,,,,,,,,,,,,,,,,53,,,,,,,,,,,,,,453.21399990463397,,response,,,99,,,,,,Space,keypress(Space),,,,,---- -- ----- -- ------ - ------- --- ----------<br>------------- ------ ------ ---- ---- ------- ----- -- ----<br>-------- ------- -- ---------- --- - --- ----- ----- ----<br>---- --- --- ----- you ---- ---- ------- ----- ---- -------<br>--- --- -- ----- -- --- ---- -- --- ---- -- ------ ------<br>--- ----- -- ----,66692.89999985695,66692.09999990463,66222.216,66229.5,66238.886,66705.654,,32,you
screen,html.Screen,0_2_0_1_33,2021-11-25T15:47:46.781Z,,,,,,,,,,,,,,,,53,,,,,,,,,,,,,,418.4459999046376,,response,,,99,,,,,,Space,keypress(Space),,,,,---- -- ----- -- ------ - ------- --- ----------<br>------------- ------ ------ ---- ---- ------- ----- -- ----<br>-------- ------- -- ---------- --- - --- ----- ----- ----<br>---- --- --- ----- --- feel ---- ------- ----- ---- -------<br>--- --- -- ----- -- --- ---- -- --- ---- -- ------ ------<br>--- ----- -- ----,67124.89999985695,67124.09999990463,66688.984,66693.20000004768,66705.654,67139.083,,33,feel
screen,html.Screen,0_2_0_1_34,2021-11-25T15:47:47.181Z,,,,,,,,,,,,,,,,53,,,,,,,,,,,,,,385.01699990463385,,response,,,99,,,,,,Space,keypress(Space),,,,,---- -- ----- -- ------ - ------- --- ----------<br>------------- ------ ------ ---- ---- ------- ----- -- ----<br>-------- ------- -- ---------- --- - --- ----- ----- ----<br>---- --- --- ----- --- ---- that ------- ----- ---- -------<br>--- --- -- ----- -- --- ---- -- --- ---- -- ------ ------<br>--- ----- -- ----,67524.79999995232,67524.09999990463,67122.413,67125.09999990463,67139.083,67539.161,,34,that
screen,html.Screen,0_2_0_1_35,2021-11-25T15:47:47.469Z,,,,,,,,,,,,,,,,53,,,,,,,,,,,,,,272.9389999046398,,response,,,99,,,,,,Space,keypress(Space),,,,,---- -- ----- -- ------ - ------- --- ----------<br>------------- ------ ------ ---- ---- ------- ----- -- ----<br>-------- ------- -- ---------- --- - --- ----- ----- ----<br>---- --- --- ----- --- ---- ---- matters ----- ---- -------<br>--- --- -- ----- -- --- ---- -- --- ---- -- ------ ------<br>--- ----- -- ----,67812.79999995232,67812.09999990463,67522.491,67525.09999990463,67539.161,67822.631,,35,matters
screen,html.Screen,0_2_0_1_36,2021-11-25T15:47:48.037Z,,,,,,,,,,,,,,,,53,,,,,,,,,,,,,,557.369000000006,,response,,,99,,,,,,Space,keypress(Space),,,,,"---- -- ----- -- ------ - ------- --- ----------<br>------------- ------ ------ ---- ---- ------- ----- -- ----<br>-------- ------- -- ---------- --- - --- ----- ----- ----<br>---- --- --- ----- --- ---- ---- ------- most, ---- -------<br>--- --- -- ----- -- --- ---- -- --- ---- -- ------ ------<br>--- ----- -- ----",68381,68380,67805.96,67813.09999990463,67822.631,68389.311,,36,"most,"
screen,html.Screen,0_2_0_1_37,2021-11-25T15:47:48.956Z,,,,,,,,,,,,,,,,53,,,,,,,,,,,,,,910.6889999999985,,response,,,99,,,,,,Space,keypress(Space),,,,,---- -- ----- -- ------ - ------- --- ----------<br>------------- ------ ------ ---- ---- ------- ----- -- ----<br>-------- ------- -- ---------- --- - --- ----- ----- ----<br>---- --- --- ----- --- ---- ---- ------- ----- it's -------<br>--- --- -- ----- -- --- ---- -- --- ---- -- ------ ------<br>--- ----- -- ----,69300.70000004768,69300,68372.642,68381.20000004768,68389.311,69306.002,,37,it's
screen,html.Screen,0_2_0_1_38,2021-11-25T15:47:49.428Z,,,,,,,,,,,,,,,,53,,,,,,,,,,,,,,465.8979998569557,,response,,,99,,,,,,Space,keypress(Space),,,,,---- -- ----- -- ------ - ------- --- ----------<br>------------- ------ ------ ---- ---- ------- ----- -- ----<br>-------- ------- -- ---------- --- - --- ----- ----- ----<br>---- --- --- ----- --- ---- ---- ------- ----- ---- whether<br>--- --- -- ----- -- --- ---- -- --- ---- -- ------ ------<br>--- ----- -- ----,69772.59999990463,69771.89999985695,69289.334,69300.89999985695,69306.002,69789.839,,38,whether
screen,html.Screen,0_2_0_1_39,2021-11-25T15:47:49.908Z,,,,,,,,,,,,,,,,53,,,,,,,,,,,,,,462.06099985694163,,response,,,99,,,,,,Space,keypress(Space),,,,,---- -- ----- -- ------ - ------- --- ----------<br>------------- ------ ------ ---- ---- ------- ----- -- ----<br>-------- ------- -- ---------- --- - --- ----- ----- ----<br>---- --- --- ----- --- ---- ---- ------- ----- ---- -------<br>you --- -- ----- -- --- ---- -- --- ---- -- ------ ------<br>--- ----- -- ----,70252.59999990463,70251.89999985695,69773.167,69773,69789.839,70256.508,,39,you
screen,html.Screen,0_2_0_1_40,2021-11-25T15:47:50.188Z,,,,,,,,,,,,,,,,53,,,,,,,,,,,,,,275.3919998569472,,response,,,99,,,,,,Space,keypress(Space),,,,,---- -- ----- -- ------ - ------- --- ----------<br>------------- ------ ------ ---- ---- ------- ----- -- ----<br>-------- ------- -- ---------- --- - --- ----- ----- ----<br>---- --- --- ----- --- ---- ---- ------- ----- ---- -------<br>--- are -- ----- -- --- ---- -- --- ---- -- ------ ------<br>--- ----- -- ----,70532.59999990463,70531.89999985695,70239.838,70252.89999985695,70256.508,70539.928,,40,are
screen,html.Screen,0_2_0_1_41,2021-11-25T15:47:50.524Z,,,,,,,,,,,,,,,,53,,,,,,,,,,,,,,327.97199985694897,,response,,,99,,,,,,Space,keypress(Space),,,,,---- -- ----- -- ------ - ------- --- ----------<br>------------- ------ ------ ---- ---- ------- ----- -- ----<br>-------- ------- -- ---------- --- - --- ----- ----- ----<br>---- --- --- ----- --- ---- ---- ------- ----- ---- -------<br>--- --- as ----- -- --- ---- -- --- ---- -- ------ ------<br>--- ----- -- ----,70868.59999990463,70867.89999985695,70523.258,70532.79999995232,70539.928,70873.26,,41,as
screen,html.Screen,0_2_0_1_42,2021-11-25T15:47:50.948Z,,,,,,,,,,,,,,,,53,,,,,,,,,,,,,,418.5399999523215,,response,,,99,,,,,,Space,keypress(Space),,,,,---- -- ----- -- ------ - ------- --- ----------<br>------------- ------ ------ ---- ---- ------- ----- -- ----<br>-------- ------- -- ---------- --- - --- ----- ----- ----<br>---- --- --- ----- --- ---- ---- ------- ----- ---- -------<br>--- --- -- close -- --- ---- -- --- ---- -- ------ ------<br>--- ----- -- ----,71292.5,71291.79999995232,70856.591,70868.79999995232,70873.26,71306.852,,42,close
screen,html.Screen,0_2_0_1_43,2021-11-25T15:47:51.348Z,,,,,,,,,,,,,,,,53,,,,,,,,,,,,,,384.94799995231733,,response,,,99,,,,,,Space,keypress(Space),,,,,---- -- ----- -- ------ - ------- --- ----------<br>------------- ------ ------ ---- ---- ------- ----- -- ----<br>-------- ------- -- ---------- --- - --- ----- ----- ----<br>---- --- --- ----- --- ---- ---- ------- ----- ---- -------<br>--- --- -- ----- as --- ---- -- --- ---- -- ------ ------<br>--- ----- -- ----,71692.70000004768,71691.79999995232,71290.18,71292.79999995232,71306.852,71706.882,,43,as
screen,html.Screen,0_2_0_1_44,2021-11-25T15:47:51.700Z,,,,,,,,,,,,,,,,53,,,,,,,,,,,,,,336.8180000476859,,response,,,99,,,,,,Space,keypress(Space),,,,,---- -- ----- -- ------ - ------- --- ----------<br>------------- ------ ------ ---- ---- ------- ----- -- ----<br>-------- ------- -- ---------- --- - --- ----- ----- ----<br>---- --- --- ----- --- ---- ---- ------- ----- ---- -------<br>--- --- -- ----- -- you ---- -- --- ---- -- ------ ------<br>--- ----- -- ----,72044.59999990463,72043.70000004768,71690.212,71692.89999985695,71706.882,72056.961,,44,you
screen,html.Screen,0_2_0_1_45,2021-11-25T15:47:52.101Z,,,,,,,,,,,,,,,,53,,,,,,,,,,,,,,387.0390000000043,,response,,,99,,,,,,Space,keypress(Space),,,,,---- -- ----- -- ------ - ------- --- ----------<br>------------- ------ ------ ---- ---- ------- ----- -- ----<br>-------- ------- -- ---------- --- - --- ----- ----- ----<br>---- --- --- ----- --- ---- ---- ------- ----- ---- -------<br>--- --- -- ----- -- --- want -- --- ---- -- ------ ------<br>--- ----- -- ----,72444.79999995232,72444,72040.291,72044.79999995232,72056.961,72457.043,,45,want
screen,html.Screen,0_2_0_1_46,2021-11-25T15:47:52.604Z,,,,,,,,,,,,,,,,53,,,,,,,,,,,,,,490.6570000476786,,response,,,99,,,,,,Space,keypress(Space),,,,,---- -- ----- -- ------ - ------- --- ----------<br>------------- ------ ------ ---- ---- ------- ----- -- ----<br>-------- ------- -- ---------- --- - --- ----- ----- ----<br>---- --- --- ----- --- ---- ---- ------- ----- ---- -------<br>--- --- -- ----- -- --- ---- to --- ---- -- ------ ------<br>--- ----- -- ----,72948.5,72947.70000004768,72440.373,72445.09999990463,72457.043,72957.165,,46,to
screen,html.Screen,0_2_0_1_47,2021-11-25T15:47:52.964Z,,,,,,,,,,,,,,,,53,,,,,,,,,,,,,,350.43499990463897,,response,,,99,,,,,,Space,keypress(Space),,,,,"---- -- ----- -- ------ - ------- --- ----------<br>------------- ------ ------ ---- ---- ------- ----- -- ----<br>-------- ------- -- ---------- --- - --- ----- ----- ----<br>---- --- --- ----- --- ---- ---- ------- ----- ---- -------<br>--- --- -- ----- -- --- ---- -- be, ---- -- ------ ------<br>--- ----- -- ----",73308.39999985695,73307.59999990463,72940.495,72948.70000004768,72957.165,73323.979,,47,"be,"
screen,html.Screen,0_2_0_1_48,2021-11-25T15:47:53.348Z,,,,,,,,,,,,,,,,53,,,,,,,,,,,,,,367.52099999999336,,response,,,99,,,,,,Space,keypress(Space),,,,,---- -- ----- -- ------ - ------- --- ----------<br>------------- ------ ------ ---- ---- ------- ----- -- ----<br>-------- ------- -- ---------- --- - --- ----- ----- ----<br>---- --- --- ----- --- ---- ---- ------- ----- ---- -------<br>--- --- -- ----- -- --- ---- -- --- even -- ------ ------<br>--- ----- -- ----,73692.39999985695,73691.5,73307.308,73308.70000004768,73323.979,73707.309,,48,even
screen,html.Screen,0_2_0_1_49,2021-11-25T15:47:53.764Z,,,,,,,,,,,,,,,,53,,,,,,,,,,,,,,400.29099990463874,,response,,,99,,,,,,Space,keypress(Space),,,,,---- -- ----- -- ------ - ------- --- ----------<br>------------- ------ ------ ---- ---- ------- ----- -- ----<br>-------- ------- -- ---------- --- - --- ----- ----- ----<br>---- --- --- ----- --- ---- ---- ------- ----- ---- -------<br>--- --- -- ----- -- --- ---- -- --- ---- if ------ ------<br>--- ----- -- ----,74108.39999985695,74107.59999990463,73690.64,73692.59999990463,73707.309,74124.118,,49,if
screen,html.Screen,0_2_0_1_50,2021-11-25T15:47:54.228Z,,,,,,,,,,,,,,,,53,,,,,,,,,,,,,,447.3819999999978,,response,,,99,,,,,,Space,keypress(Space),,,,,---- -- ----- -- ------ - ------- --- ----------<br>------------- ------ ------ ---- ---- ------- ----- -- ----<br>-------- ------- -- ---------- --- - --- ----- ----- ----<br>---- --- --- ----- --- ---- ---- ------- ----- ---- -------<br>--- --- -- ----- -- --- ---- -- --- ---- -- that's ------<br>--- ----- -- ----,74572.29999995232,74571.5,74107.448,74108.59999990463,74124.118,74574.128,,50,that's
screen,html.Screen,0_2_0_1_51,2021-11-25T15:47:54.692Z,,,,,,,,,,,,,,,,53,,,,,,,,,,,,,,461.372000000003,,response,,,99,,,,,,Space,keypress(Space),,,,,---- -- ----- -- ------ - ------- --- ----------<br>------------- ------ ------ ---- ---- ------- ----- -- ----<br>-------- ------- -- ---------- --- - --- ----- ----- ----<br>---- --- --- ----- --- ---- ---- ------- ----- ---- -------<br>--- --- -- ----- -- --- ---- -- --- ---- -- ------ really<br>--- ----- -- ----,75036.29999995232,75035.5,74557.459,74572.5,74574.128,75041.103,,51,really
screen,html.Screen,0_2_0_1_52,2021-11-25T15:47:55.068Z,,,,,,,,,,,,,,,,53,,,,,,,,,,,,,,370.3969999999972,,response,,,99,,,,,,Space,keypress(Space),,,,,---- -- ----- -- ------ - ------- --- ----------<br>------------- ------ ------ ---- ---- ------- ----- -- ----<br>-------- ------- -- ---------- --- - --- ----- ----- ----<br>---- --- --- ----- --- ---- ---- ------- ----- ---- -------<br>--- --- -- ----- -- --- ---- -- --- ---- -- ------ ------<br>not ----- -- ----,75412.29999995232,75411.5,75024.431,75036.5,75041.103,75424.438,,52,not
screen,html.Screen,0_2_0_1_53,2021-11-25T15:47:55.404Z,,,,,,,,,,,,,,,,53,,,,,,,,,,,,,,323.06200000000536,,response,,,99,,,,,,Space,keypress(Space),,,,,---- -- ----- -- ------ - ------- --- ----------<br>------------- ------ ------ ---- ---- ------- ----- -- ----<br>-------- ------- -- ---------- --- - --- ----- ----- ----<br>---- --- --- ----- --- ---- ---- ------- ----- ---- -------<br>--- --- -- ----- -- --- ---- -- --- ---- -- ------ ------<br>--- close -- ----,75748.39999985695,75747.5,75407.768,75412.5,75424.438,75757.867,,53,close
screen,html.Screen,0_2_0_1_54,2021-11-25T15:47:55.724Z,,,,,,,,,,,,,,,,53,,,,,,,,,,,,,,309.7329999046342,,response,,,99,,,,,,Space,keypress(Space),,,,,---- -- ----- -- ------ - ------- --- ----------<br>------------- ------ ------ ---- ---- ------- ----- -- ----<br>-------- ------- -- ---------- --- - --- ----- ----- ----<br>---- --- --- ----- --- ---- ---- ------- ----- ---- -------<br>--- --- -- ----- -- --- ---- -- --- ---- -- ------ ------<br>--- ----- at ----,76068.5,76067.59999990463,75741.197,75748.59999990463,75757.867,76074.583,,54,at
screen,html.Screen,0_2_0_1_55,2021-11-25T15:47:56.028Z,,,,,,,,,,,,,,,,53,,,,,,,,,,,,,,296.9170000000013,,response,,,99,,,,,,Space,keypress(Space),,,,,---- -- ----- -- ------ - ------- --- ----------<br>------------- ------ ------ ---- ---- ------- ----- -- ----<br>-------- ------- -- ---------- --- - --- ----- ----- ----<br>---- --- --- ----- --- ---- ---- ------- ----- ---- -------<br>--- --- -- ----- -- --- ---- -- --- ---- -- ------ ------<br>--- ----- -- all.,76372.20000004768,76371.5,76057.913,76068.79999995232,76074.583,76391.34,,55,all.
Item 99,flow.Loop,0_2_0_1,2021-11-25T15:47:56.033Z,,,,,,,,,,,,,,,,,,,,,,,,,,,,,,35155.436,,completion,,,,E,,,,,,,,,,silence,,76377.59999990463,76371.5,41199.394,41213.39999985695,41216.064,76391.34,,,
Question 1,html.Screen,0_2_0_2,2021-11-25T15:48:01.324Z,,,,,,,,,,,,,,,,,,,,,,,,,,,true,FALSE,,5275.559999856952,,response,,,99,E,,,,,FALSE,click #choice-2,,,,silence,,81668.29999995232,81666.89999985695,76374.67,76377.89999985695,76391.34,81675.966,,,
Question 2,html.Screen,0_2_0_3,2021-11-25T15:48:09.299Z,,,,,,,,,,,,,,,,,,,,,,,,,,,true,TRUE,,7966.333999952316,,response,,,99,E,,,,,TRUE,click #choice-1,,,,silence,,89643.5,89642.29999995232,81659.296,81668.59999990463,81675.966,89645.176,,,
Item 99,flow.Sequence,0_2_0,2021-11-25T15:48:09.300Z,,,,,,,,,,,,,,,,,,,,,,,,,,,,,,58428.59599995232,,completion,,,,,,,,,,,,,,,,89644.09999990463,89642.29999995232,31197.034,31192.700000047684,31213.704,89645.176,,,
Holding screen,html.Screen,0_2_1_0,2021-11-25T15:48:19.287Z,,,,,,,,,,,,,,,,,,,,,,,,,,,,,,10001.697,,timeout,,,,,,,,,,,,,,,,99631.5,99630.203,89628.495,89644.5,89645.176,99646.873,,,
screen,html.Screen,0_2_1_1_0,2021-11-25T15:48:27.218Z,,,,,,,,,,,,,,,,54,,,,,,,,,,,,,,7914.827000047677,,response,,,100,,,,,,Space,keypress(Space),,,,,At --- ---- --- ------ ----- ------- ---- -- --- ------- --<br>------- ---------- ------ -- ----- -- ----- -- ---- ------<br>--- ----- --- --- ------ -------- ----- --- ------ ----- --<br>----- ----- ---------- --- --- ------ ------ ---- -- ------<br>------- --- ------ ----- --- ---- ------- -- ---- --- --<br>------- ------,107562.5,107561.70000004768,99630.203,99632,99646.873,107565.757,,0,At
screen,html.Screen,0_2_1_1_1,2021-11-25T15:48:27.906Z,,,,,,,,,,,,,,,,54,,,,,,,,,,,,,,683.3429999046348,,response,,,100,,,,,,Space,keypress(Space),,,,,-- the ---- --- ------ ----- ------- ---- -- --- ------- --<br>------- ---------- ------ -- ----- -- ----- -- ---- ------<br>--- ----- --- --- ------ -------- ----- --- ------ ----- --<br>----- ----- ---------- --- --- ------ ------ ---- -- ------<br>------- --- ------ ----- --- ---- ------- -- ---- --- --<br>------- ------,108250,108249.09999990463,107549.086,107562.70000004768,107565.757,108265.403,,1,the
screen,html.Screen,0_2_1_1_2,2021-11-25T15:48:28.706Z,,,,,,,,,,,,,,,,54,,,,,,,,,,,,,,783.6969999046269,,response,,,100,,,,,,Space,keypress(Space),,,,,-- --- time --- ------ ----- ------- ---- -- --- ------- --<br>------- ---------- ------ -- ----- -- ----- -- ---- ------<br>--- ----- --- --- ------ -------- ----- --- ------ ----- --<br>----- ----- ---------- --- --- ------ ------ ---- -- ------<br>------- --- ------ ----- --- ---- ------- -- ---- --- --<br>------- ------,109049.89999985695,109049.09999990463,108248.733,108250.39999985695,108265.403,109065.86,,2,time
screen,html.Screen,0_2_1_1_3,2021-11-25T15:48:29.378Z,,,,,,,,,,,,,,,,54,,,,,,,,,,,,,,655.239999904632,,response,,,100,,,,,,Space,keypress(Space),,,,,-- --- ---- the ------ ----- ------- ---- -- --- ------- --<br>------- ---------- ------ -- ----- -- ----- -- ---- ------<br>--- ----- --- --- ------ -------- ----- --- ------ ----- --<br>----- ----- ---------- --- --- ------ ------ ---- -- ------<br>------- --- ------ ----- --- ---- ------- -- ---- --- --<br>------- ------,109721.89999985695,109721.09999990463,109049.19,109050.20000004768,109065.86,109732.923,,3,the
screen,html.Screen,0_2_1_1_4,2021-11-25T15:48:29.946Z,,,,,,,,,,,,,,,,54,,,,,,,,,,,,,,556.1769999046373,,response,,,100,,,,,,Space,keypress(Space),,,,,-- --- ---- --- French ----- ------- ---- -- --- ------- --<br>------- ---------- ------ -- ----- -- ----- -- ---- ------<br>--- ----- --- --- ------ -------- ----- --- ------ ----- --<br>----- ----- ---------- --- --- ------ ------ ---- -- ------<br>------- --- ------ ----- --- ---- ------- -- ---- --- --<br>------- ------,110289.79999995232,110289.09999990463,109716.251,109722.20000004768,109732.923,110299.444,,4,French
screen,html.Screen,0_2_1_1_5,2021-11-25T15:48:30.522Z,,,,,,,,,,,,,,,,54,,,,,,,,,,,,,,565.6559999046294,,response,,,100,,,,,,Space,keypress(Space),,,,,-- --- ---- --- ------ crown ------- ---- -- --- ------- --<br>------- ---------- ------ -- ----- -- ----- -- ---- ------<br>--- ----- --- --- ------ -------- ----- --- ------ ----- --<br>----- ----- ---------- --- --- ------ ------ ---- -- ------<br>------- --- ------ ----- --- ---- ------- -- ---- --- --<br>------- ------,110865.89999985695,110865.09999990463,110282.775,110290.09999990463,110299.444,110883.161,,5,crown
screen,html.Screen,0_2_1_1_6,2021-11-25T15:48:31.194Z,,,,,,,,,,,,,,,,54,,,,,,,,,,,,,,653.8390000000072,,response,,,100,,,,,,Space,keypress(Space),,,,,-- --- ---- --- ------ ----- secured ---- -- --- ------- --<br>------- ---------- ------ -- ----- -- ----- -- ---- ------<br>--- ----- --- --- ------ -------- ----- --- ------ ----- --<br>----- ----- ---------- --- --- ------ ------ ---- -- ------<br>------- --- ------ ----- --- ---- ------- -- ---- --- --<br>------- ------,111537.79999995232,111537,110866.489,110866.29999995232,110883.161,111549.663,,6,secured
screen,html.Screen,0_2_1_1_7,2021-11-25T15:48:31.730Z,,,,,,,,,,,,,,,,54,,,,,,,,,,,,,,523.3369999999995,,response,,,100,,,,,,Space,keypress(Space),,,,,-- --- ---- --- ------ ----- ------- much -- --- ------- --<br>------- ---------- ------ -- ----- -- ----- -- ---- ------<br>--- ----- --- --- ------ -------- ----- --- ------ ----- --<br>----- ----- ---------- --- --- ------ ------ ---- -- ------<br>------- --- ------ ----- --- ---- ------- -- ---- --- --<br>------- ------,112073.79999995232,112073,111532.995,111538,111549.663,112083.452,,7,much
screen,html.Screen,0_2_1_1_8,2021-11-25T15:48:32.297Z,,,,,,,,,,,,,,,,54,,,,,,,,,,,,,,557.4479998569441,,response,,,100,,,,,,Space,keypress(Space),,,,,-- --- ---- --- ------ ----- ------- ---- of --- ------- --<br>------- ---------- ------ -- ----- -- ----- -- ---- ------<br>--- ----- --- --- ------ -------- ----- --- ------ ----- --<br>----- ----- ---------- --- --- ------ ------ ---- -- ------<br>------- --- ------ ----- --- ---- ------- -- ---- --- --<br>------- ------,112641.79999995232,112640.89999985695,112066.78,112074.09999990463,112083.452,112650.041,,8,of
screen,html.Screen,0_2_1_1_9,2021-11-25T15:48:32.969Z,,,,,,,,,,,,,,,,54,,,,,,,,,,,,,,662.8589998569514,,response,,,100,,,,,,Space,keypress(Space),,,,,-- --- ---- --- ------ ----- ------- ---- -- its ------- --<br>------- ---------- ------ -- ----- -- ----- -- ---- ------<br>--- ----- --- --- ------ -------- ----- --- ------ ----- --<br>----- ----- ---------- --- --- ------ ------ ---- -- ------<br>------- --- ------ ----- --- ---- ------- -- ---- --- --<br>------- ------,113313.70000004768,113312.89999985695,112633.372,112642,112650.041,113317.017,,9,its
screen,html.Screen,0_2_1_1_10,2021-11-25T15:48:33.953Z,,,,,,,,,,,,,,,,54,,,,,,,,,,,,,,979.7829999523092,,response,,,100,,,,,,Space,keypress(Space),,,,,-- --- ---- --- ------ ----- ------- ---- -- --- revenue --<br>------- ---------- ------ -- ----- -- ----- -- ---- ------<br>--- ----- --- --- ------ -------- ----- --- ------ ----- --<br>----- ----- ---------- --- --- ------ ------ ---- -- ------<br>------- --- ------ ----- --- ---- ------- -- ---- --- --<br>------- ------,114297.59999990463,114296.79999995232,113300.346,113313.89999985695,113317.017,114300.48,,10,revenue
screen,html.Screen,0_2_1_1_11,2021-11-25T15:48:34.537Z,,,,,,,,,,,,,,,,54,,,,,,,,,,,,,,580.3199999523204,,response,,,100,,,,,,Space,keypress(Space),,,,,-- --- ---- --- ------ ----- ------- ---- -- --- ------- by<br>------- ---------- ------ -- ----- -- ----- -- ---- ------<br>--- ----- --- --- ------ -------- ----- --- ------ ----- --<br>----- ----- ---------- --- --- ------ ------ ---- -- ------<br>------- --- ------ ----- --- ---- ------- -- ---- --- --<br>------- ------,114881.70000004768,114880.79999995232,114283.81,114297.79999995232,114300.48,114884.087,,11,by
screen,html.Screen,0_2_1_1_12,2021-11-25T15:48:35.529Z,,,,,,,,,,,,,,,,54,,,,,,,,,,,,,,988.6130000476842,,response,,,100,,,,,,Space,keypress(Space),,,,,-- --- ---- --- ------ ----- ------- ---- -- --- ------- --<br>issuing ---------- ------ -- ----- -- ----- -- ---- ------<br>--- ----- --- --- ------ -------- ----- --- ------ ----- --<br>----- ----- ---------- --- --- ------ ------ ---- -- ------<br>------- --- ------ ----- --- ---- ------- -- ---- --- --<br>------- ------,115873.5,115872.70000004768,114867.416,114882,114884.087,115884.248,,12,issuing
screen,html.Screen,0_2_1_1_13,2021-11-25T15:48:36.153Z,,,,,,,,,,,,,,,,54,,,,,,,,,,,,,,612.4520000476768,,response,,,100,,,,,,Space,keypress(Space),,,,,-- --- ---- --- ------ ----- ------- ---- -- --- ------- --<br>------- government ------ -- ----- -- ----- -- ---- ------<br>--- ----- --- --- ------ -------- ----- --- ------ ----- --<br>----- ----- ---------- --- --- ------ ------ ---- -- ------<br>------- --- ------ ----- --- ---- ------- -- ---- --- --<br>------- ------,116497.39999985695,116496.70000004768,115867.578,115873.70000004768,115884.248,116501.075,,13,government
screen,html.Screen,0_2_1_1_14,2021-11-25T15:48:36.737Z,,,,,,,,,,,,,,,,54,,,,,,,,,,,,,,579.5249999046355,,response,,,100,,,,,,Space,keypress(Space),,,,,-- --- ---- --- ------ ----- ------- ---- -- --- ------- --<br>------- ---------- bonds. -- ----- -- ----- -- ---- ------<br>--- ----- --- --- ------ -------- ----- --- ------ ----- --<br>----- ----- ---------- --- --- ------ ------ ---- -- ------<br>------- --- ------ ----- --- ---- ------- -- ---- --- --<br>------- ------,117081.29999995232,117080.59999990463,116484.405,116497.59999990463,116501.075,117084.439,,14,bonds.
screen,html.Screen,0_2_1_1_15,2021-11-25T15:48:37.226Z,,,,,,,,,,,,,,,,54,,,,,,,,,,,,,,484.46099985695037,,response,,,100,,,,,,Space,keypress(Space),,,,,-- --- ---- --- ------ ----- ------- ---- -- --- ------- --<br>------- ---------- ------ In ----- -- ----- -- ---- ------<br>--- ----- --- --- ------ -------- ----- --- ------ ----- --<br>----- ----- ---------- --- --- ------ ------ ---- -- ------<br>------- --- ------ ----- --- ---- ------- -- ---- --- --<br>------- ------,117569.79999995232,117568.89999985695,117067.77,117081.70000004768,117084.439,117584.648,,15,In
screen,html.Screen,0_2_1_1_16,2021-11-25T15:48:37.569Z,,,,,,,,,,,,,,,,54,,,,,,,,,,,,,,327.9519999046315,,response,,,100,,,,,,Space,keypress(Space),,,,,"-- --- ---- --- ------ ----- ------- ---- -- --- ------- --<br>------- ---------- ------ -- 1727, -- ----- -- ---- ------<br>--- ----- --- --- ------ -------- ----- --- ------ ----- --<br>----- ----- ---------- --- --- ------ ------ ---- -- ------<br>------- --- ------ ----- --- ---- ------- -- ---- --- --<br>------- ------",117913.39999985695,117912.59999990463,117567.978,117570.09999990463,117584.648,117918.141,,16,"1727,"
screen,html.Screen,0_2_1_1_17,2021-11-25T15:48:39.577Z,,,,,,,,,,,,,,,,54,,,,,,,,,,,,,,2002.3589999999967,,response,,,100,,,,,,Space,keypress(Space),,,,,-- --- ---- --- ------ ----- ------- ---- -- --- ------- --<br>------- ---------- ------ -- ----- in ----- -- ---- ------<br>--- ----- --- --- ------ -------- ----- --- ------ ----- --<br>----- ----- ---------- --- --- ------ ------ ---- -- ------<br>------- --- ------ ----- --- ---- ------- -- ---- --- --<br>------- ------,119921.20000004768,119920.5,117901.47,117913.59999990463,117918.141,119935.199,,17,in
screen,html.Screen,0_2_1_1_18,2021-11-25T15:48:40.073Z,,,,,,,,,,,,,,,,54,,,,,,,,,,,,,,481.2009998569556,,response,,,100,,,,,,Space,keypress(Space),,,,,-- --- ---- --- ------ ----- ------- ---- -- --- ------- --<br>------- ---------- ------ -- ----- -- order -- ---- ------<br>--- ----- --- --- ------ -------- ----- --- ------ ----- --<br>----- ----- ---------- --- --- ------ ------ ---- -- ------<br>------- --- ------ ----- --- ---- ------- -- ---- --- --<br>------- ------,120417.20000004768,120416.39999985695,119918.529,119921.59999990463,119935.199,120434.91,,18,order
screen,html.Screen,0_2_1_1_19,2021-11-25T15:48:40.497Z,,,,,,,,,,,,,,,,54,,,,,,,,,,,,,,405.48999985694536,,response,,,100,,,,,,Space,keypress(Space),,,,,-- --- ---- --- ------ ----- ------- ---- -- --- ------- --<br>------- ---------- ------ -- ----- -- ----- to ---- ------<br>--- ----- --- --- ------ -------- ----- --- ------ ----- --<br>----- ----- ---------- --- --- ------ ------ ---- -- ------<br>------- --- ------ ----- --- ---- ------- -- ---- --- --<br>------- ------,120841.09999990463,120840.39999985695,120418.243,120417.5,120434.91,120852.157,,19,to
screen,html.Screen,0_2_1_1_20,2021-11-25T15:48:40.897Z,,,,,,,,,,,,,,,,54,,,,,,,,,,,,,,388.14299995230976,,response,,,100,,,,,,Space,keypress(Space),,,,,-- --- ---- --- ------ ----- ------- ---- -- --- ------- --<br>------- ---------- ------ -- ----- -- ----- -- save ------<br>--- ----- --- --- ------ -------- ----- --- ------ ----- --<br>----- ----- ---------- --- --- ------ ------ ---- -- ------<br>------- --- ------ ----- --- ---- ------- -- ---- --- --<br>------- ------,121241.09999990463,121240.29999995232,120835.487,120841.39999985695,120852.157,121252.247,,20,save
screen,html.Screen,0_2_1_1_21,2021-11-25T15:48:41.345Z,,,,,,,,,,,,,,,,54,,,,,,,,,,,,,,436.05299995231326,,response,,,100,,,,,,Space,keypress(Space),,,,,"-- --- ---- --- ------ ----- ------- ---- -- --- ------- --<br>------- ---------- ------ -- ----- -- ----- -- ---- money,<br>--- ----- --- --- ------ -------- ----- --- ------ ----- --<br>----- ----- ---------- --- --- ------ ------ ---- -- ------<br>------- --- ------ ----- --- ---- ------- -- ---- --- --<br>------- ------",121689.09999990463,121688.29999995232,121235.577,121241.39999985695,121252.247,121702.326,,21,"money,"
screen,html.Screen,0_2_1_1_22,2021-11-25T15:48:42.013Z,,,,,,,,,,,,,,,,54,,,,,,,,,,,,,,649.9739999523154,,response,,,100,,,,,,Space,keypress(Space),,,,,-- --- ---- --- ------ ----- ------- ---- -- --- ------- --<br>------- ---------- ------ -- ----- -- ----- -- ---- ------<br>the ----- --- --- ------ -------- ----- --- ------ ----- --<br>----- ----- ---------- --- --- ------ ------ ---- -- ------<br>------- --- ------ ----- --- ---- ------- -- ---- --- --<br>------- ------,122353.09999990463,122352.29999995232,121685.656,121689.39999985695,121702.326,122369.159,,22,the
screen,html.Screen,0_2_1_1_23,2021-11-25T15:48:43.405Z,,,,,,,,,,,,,,,,54,,,,,,,,,,,,,,1374.940999904633,,response,,,100,,,,,,Space,keypress(Space),,,,,-- --- ---- --- ------ ----- ------- ---- -- --- ------- --<br>------- ---------- ------ -- ----- -- ----- -- ---- ------<br>--- state --- --- ------ -------- ----- --- ------ ----- --<br>----- ----- ---------- --- --- ------ ------ ---- -- ------<br>------- --- ------ ----- --- ---- ------- -- ---- --- --<br>------- ------,123745,123744.09999990463,122352.489,122353.29999995232,122369.159,123752.8,,23,state
screen,html.Screen,0_2_1_1_24,2021-11-25T15:48:44.061Z,,,,,,,,,,,,,,,,54,,,,,,,,,,,,,,647.2999999046297,,response,,,100,,,,,,Space,keypress(Space),,,,,-- --- ---- --- ------ ----- ------- ---- -- --- ------- --<br>------- ---------- ------ -- ----- -- ----- -- ---- ------<br>--- ----- cut --- ------ -------- ----- --- ------ ----- --<br>----- ----- ---------- --- --- ------ ------ ---- -- ------<br>------- --- ------ ----- --- ---- ------- -- ---- --- --<br>------- ------,124401,124400.09999990463,123736.13,123745.39999985695,123752.8,124402.972,,24,cut
screen,html.Screen,0_2_1_1_25,2021-11-25T15:48:44.533Z,,,,,,,,,,,,,,,,54,,,,,,,,,,,,,,469.1279999046383,,response,,,100,,,,,,Space,keypress(Space),,,,,-- --- ---- --- ------ ----- ------- ---- -- --- ------- --<br>------- ---------- ------ -- ----- -- ----- -- ---- ------<br>--- ----- --- the ------ -------- ----- --- ------ ----- --<br>----- ----- ---------- --- --- ------ ------ ---- -- ------<br>------- --- ------ ----- --- ---- ------- -- ---- --- --<br>------- ------,124872.89999985695,124872.09999990463,124386.302,124401.29999995232,124402.972,124886.336,,25,the
screen,html.Screen,0_2_1_1_26,2021-11-25T15:48:46.933Z,,,,,,,,,,,,,,,,54,,,,,,,,,,,,,,2385.4639999523206,,response,,,100,,,,,,Space,keypress(Space),,,,,-- --- ---- --- ------ ----- ------- ---- -- --- ------- --<br>------- ---------- ------ -- ----- -- ----- -- ---- ------<br>--- ----- --- --- bonds' -------- ----- --- ------ ----- --<br>----- ----- ---------- --- --- ------ ------ ---- -- ------<br>------- --- ------ ----- --- ---- ------- -- ---- --- --<br>------- ------,127272.70000004768,127271.79999995232,124869.667,124873.20000004768,124886.336,127287.076,,26,bonds'
screen,html.Screen,0_2_1_1_27,2021-11-25T15:48:47.485Z,,,,,,,,,,,,,,,,54,,,,,,,,,,,,,,537.1240000476828,,response,,,100,,,,,,Space,keypress(Space),,,,,-- --- ---- --- ------ ----- ------- ---- -- --- ------- --<br>------- ---------- ------ -- ----- -- ----- -- ---- ------<br>--- ----- --- --- ------ interest ----- --- ------ ----- --<br>----- ----- ---------- --- --- ------ ------ ---- -- ------<br>------- --- ------ ----- --- ---- ------- -- ---- --- --<br>------- ------,127825,127824.20000004768,127270.405,127273,127287.076,127837.261,,27,interest
screen,html.Screen,0_2_1_1_28,2021-11-25T15:48:48.061Z,,,,,,,,,,,,,,,,54,,,,,,,,,,,,,,562.6389998569502,,response,,,100,,,,,,Space,keypress(Space),,,,,-- --- ---- --- ------ ----- ------- ---- -- --- ------- --<br>------- ---------- ------ -- ----- -- ----- -- ---- ------<br>--- ----- --- --- ------ -------- rate. --- ------ ----- --<br>----- ----- ---------- --- --- ------ ------ ---- -- ------<br>------- --- ------ ----- --- ---- ------- -- ---- --- --<br>------- ------,128400.59999990463,128399.89999985695,127820.589,127825.29999995232,127837.261,128403.962,,28,rate.
screen,html.Screen,0_2_1_1_29,2021-11-25T15:48:48.765Z,,,,,,,,,,,,,,,,54,,,,,,,,,,,,,,699.8379999523167,,response,,,100,,,,,,Space,keypress(Space),,,,,-- --- ---- --- ------ ----- ------- ---- -- --- ------- --<br>------- ---------- ------ -- ----- -- ----- -- ---- ------<br>--- ----- --- --- ------ -------- ----- The ------ ----- --<br>----- ----- ---------- --- --- ------ ------ ---- -- ------<br>------- --- ------ ----- --- ---- ------- -- ---- --- --<br>------- ------,129104.59999990463,129103.79999995232,128387.292,128400.89999985695,128403.962,129120.797,,29,The
screen,html.Screen,0_2_1_1_30,2021-11-25T15:48:49.269Z,,,,,,,,,,,,,,,,54,,,,,,,,,,,,,,486.9030000476778,,response,,,100,,,,,,Space,keypress(Space),,,,,-- --- ---- --- ------ ----- ------- ---- -- --- ------- --<br>------- ---------- ------ -- ----- -- ----- -- ---- ------<br>--- ----- --- --- ------ -------- ----- --- market ----- --<br>----- ----- ---------- --- --- ------ ------ ---- -- ------<br>------- --- ------ ----- --- ---- ------- -- ---- --- --<br>------- ------,129608.79999995232,129607.70000004768,129104.127,129104.89999985695,129120.797,129620.81,,30,market
screen,html.Screen,0_2_1_1_31,2021-11-25T15:48:49.700Z,,,,,,,,,,,,,,,,54,,,,,,,,,,,,,,418.89000004768604,,response,,,100,,,,,,Space,keypress(Space),,,,,-- --- ---- --- ------ ----- ------- ---- -- --- ------- --<br>------- ---------- ------ -- ----- -- ----- -- ---- ------<br>--- ----- --- --- ------ -------- ----- --- ------ value --<br>----- ----- ---------- --- --- ------ ------ ---- -- ------<br>------- --- ------ ----- --- ---- ------- -- ---- --- --<br>------- ------,130040.5,130039.70000004768,129604.141,129609,129620.81,130054.435,,31,value
screen,html.Screen,0_2_1_1_32,2021-11-25T15:48:50.188Z,,,,,,,,,,,,,,,,54,,,,,,,,,,,,,,473.1649999046349,,response,,,100,,,,,,Space,keypress(Space),,,,,-- --- ---- --- ------ ----- ------- ---- -- --- ------- --<br>------- ---------- ------ -- ----- -- ----- -- ---- ------<br>--- ----- --- --- ------ -------- ----- --- ------ ----- of<br>----- ----- ---------- --- --- ------ ------ ---- -- ------<br>------- --- ------ ----- --- ---- ------- -- ---- --- --<br>------- ------,130528.39999985695,130527.59999990463,130037.764,130040.79999995232,130054.435,130537.81,,32,of
screen,html.Screen,0_2_1_1_33,2021-11-25T15:48:50.732Z,,,,,,,,,,,,,,,,54,,,,,,,,,,,,,,533.890000047686,,response,,,100,,,,,,Space,keypress(Space),,,,,-- --- ---- --- ------ ----- ------- ---- -- --- ------- --<br>------- ---------- ------ -- ----- -- ----- -- ---- ------<br>--- ----- --- --- ------ -------- ----- --- ------ ----- --<br>these ----- ---------- --- --- ------ ------ ---- -- ------<br>------- --- ------ ----- --- ---- ------- -- ---- --- --<br>------- ------,131072.5,131071.70000004768,130521.14,130528.59999990463,130537.81,131087.957,,33,these
screen,html.Screen,0_2_1_1_34,2021-11-25T15:48:51.196Z,,,,,,,,,,,,,,,,54,,,,,,,,,,,,,,447.74300004768884,,response,,,100,,,,,,Space,keypress(Space),,,,,-- --- ---- --- ------ ----- ------- ---- -- --- ------- --<br>------- ---------- ------ -- ----- -- ----- -- ---- ------<br>--- ----- --- --- ------ -------- ----- --- ------ ----- --<br>----- bonds ---------- --- --- ------ ------ ---- -- ------<br>------- --- ------ ----- --- ---- ------- -- ---- --- --<br>------- ------,131536.39999985695,131535.70000004768,131071.287,131072.79999995232,131087.957,131538.057,,34,bonds
screen,html.Screen,0_2_1_1_35,2021-11-25T15:48:51.780Z,,,,,,,,,,,,,,,,54,,,,,,,,,,,,,,581.5429999046319,,response,,,100,,,,,,Space,keypress(Space),,,,,"-- --- ---- --- ------ ----- ------- ---- -- --- ------- --<br>------- ---------- ------ -- ----- -- ----- -- ---- ------<br>--- ----- --- --- ------ -------- ----- --- ------ ----- --<br>----- ----- plummeted, --- --- ------ ------ ---- -- ------<br>------- --- ------ ----- --- ---- ------- -- ---- --- --<br>------- ------",132120.5,132119.59999990463,131521.387,131536.79999995232,131538.057,132138.211,,35,"plummeted,"
screen,html.Screen,0_2_1_1_36,2021-11-25T15:48:52.252Z,,,,,,,,,,,,,,,,54,,,,,,,,,,,,,,453.3889999046223,,response,,,100,,,,,,Space,keypress(Space),,,,,-- --- ---- --- ------ ----- ------- ---- -- --- ------- --<br>------- ---------- ------ -- ----- -- ----- -- ---- ------<br>--- ----- --- --- ------ -------- ----- --- ------ ----- --<br>----- ----- ---------- and --- ------ ------ ---- -- ------<br>------- --- ------ ----- --- ---- ------- -- ---- --- --<br>------- ------,132592.29999995232,132591.59999990463,132121.541,132120.79999995232,132138.211,132604.978,,36,and
screen,html.Screen,0_2_1_1_37,2021-11-25T15:48:52.644Z,,,,,,,,,,,,,,,,54,,,,,,,,,,,,,,378.6219999046298,,response,,,100,,,,,,Space,keypress(Space),,,,,-- --- ---- --- ------ ----- ------- ---- -- --- ------- --<br>------- ---------- ------ -- ----- -- ----- -- ---- ------<br>--- ----- --- --- ------ -------- ----- --- ------ ----- --<br>----- ----- ---------- --- the ------ ------ ---- -- ------<br>------- --- ------ ----- --- ---- ------- -- ---- --- --<br>------- ------,132984.39999985695,132983.59999990463,132588.308,132592.5,132604.978,132988.438,,37,the
screen,html.Screen,0_2_1_1_38,2021-11-25T15:48:53.084Z,,,,,,,,,,,,,,,,54,,,,,,,,,,,,,,434.9619998569542,,response,,,100,,,,,,Space,keypress(Space),,,,,-- --- ---- --- ------ ----- ------- ---- -- --- ------- --<br>------- ---------- ------ -- ----- -- ----- -- ---- ------<br>--- ----- --- --- ------ -------- ----- --- ------ ----- --<br>----- ----- ---------- --- --- market ------ ---- -- ------<br>------- --- ------ ----- --- ---- ------- -- ---- --- --<br>------- ------,133424.29999995232,133423.39999985695,132971.768,132984.70000004768,132988.438,133438.525,,38,market
screen,html.Screen,0_2_1_1_39,2021-11-25T15:48:53.524Z,,,,,,,,,,,,,,,,54,,,,,,,,,,,,,,424.8749998569547,,response,,,100,,,,,,Space,keypress(Space),,,,,-- --- ---- --- ------ ----- ------- ---- -- --- ------- --<br>------- ---------- ------ -- ----- -- ----- -- ---- ------<br>--- ----- --- --- ------ -------- ----- --- ------ ----- --<br>----- ----- ---------- --- --- ------ became ---- -- ------<br>------- --- ------ ----- --- ---- ------- -- ---- --- --<br>------- ------,133864.29999995232,133863.39999985695,133421.855,133424.59999990463,133438.525,133871.974,,39,became
screen,html.Screen,0_2_1_1_40,2021-11-25T15:48:53.924Z,,,,,,,,,,,,,,,,54,,,,,,,,,,,,,,391.4259998569614,,response,,,100,,,,,,Space,keypress(Space),,,,,-- --- ---- --- ------ ----- ------- ---- -- --- ------- --<br>------- ---------- ------ -- ----- -- ----- -- ---- ------<br>--- ----- --- --- ------ -------- ----- --- ------ ----- --<br>----- ----- ---------- --- --- ------ ------ wary -- ------<br>------- --- ------ ----- --- ---- ------- -- ---- --- --<br>------- ------,134264.20000004768,134263.39999985695,133855.304,133864.59999990463,133871.974,134271.967,,40,wary
screen,html.Screen,0_2_1_1_41,2021-11-25T15:48:54.316Z,,,,,,,,,,,,,,,,54,,,,,,,,,,,,,,383.43299985694466,,response,,,100,,,,,,Space,keypress(Space),,,,,-- --- ---- --- ------ ----- ------- ---- -- --- ------- --<br>------- ---------- ------ -- ----- -- ----- -- ---- ------<br>--- ----- --- --- ------ -------- ----- --- ------ ----- --<br>----- ----- ---------- --- --- ------ ------ ---- of ------<br>------- --- ------ ----- --- ---- ------- -- ---- --- --<br>------- ------,134656.20000004768,134655.39999985695,134255.298,134264.5,134271.967,134672.209,,41,of
screen,html.Screen,0_2_1_1_42,2021-11-25T15:48:54.788Z,,,,,,,,,,,,,,,,54,,,,,,,,,,,,,,455.1909998569463,,response,,,100,,,,,,Space,keypress(Space),,,,,-- --- ---- --- ------ ----- ------- ---- -- --- ------- --<br>------- ---------- ------ -- ----- -- ----- -- ---- ------<br>--- ----- --- --- ------ -------- ----- --- ------ ----- --<br>----- ----- ---------- --- --- ------ ------ ---- -- French<br>------- --- ------ ----- --- ---- ------- -- ---- --- --<br>------- ------,135128.20000004768,135127.39999985695,134655.538,134658.29999995232,134672.209,135138.948,,42,French
screen,html.Screen,0_2_1_1_43,2021-11-25T15:48:55.252Z,,,,,,,,,,,,,,,,54,,,,,,,,,,,,,,452.3519999523123,,response,,,100,,,,,,Space,keypress(Space),,,,,-- --- ---- --- ------ ----- ------- ---- -- --- ------- --<br>------- ---------- ------ -- ----- -- ----- -- ---- ------<br>--- ----- --- --- ------ -------- ----- --- ------ ----- --<br>----- ----- ---------- --- --- ------ ------ ---- -- ------<br>credit. --- ------ ----- --- ---- ------- -- ---- --- --<br>------- ------,135592.09999990463,135591.29999995232,135122.278,135128.39999985695,135138.948,135605.736,,43,credit.
screen,html.Screen,0_2_1_1_44,2021-11-25T15:48:55.732Z,,,,,,,,,,,,,,,,54,,,,,,,,,,,,,,465.56399995231186,,response,,,100,,,,,,Space,keypress(Space),,,,,-- --- ---- --- ------ ----- ------- ---- -- --- ------- --<br>------- ---------- ------ -- ----- -- ----- -- ---- ------<br>--- ----- --- --- ------ -------- ----- --- ------ ----- --<br>----- ----- ---------- --- --- ------ ------ ---- -- ------<br>------- The ------ ----- --- ---- ------- -- ---- --- --<br>------- ------,136072.20000004768,136071.29999995232,135589.066,135592.29999995232,135605.736,136089.175,,44,The
screen,html.Screen,0_2_1_1_45,2021-11-25T15:48:56.148Z,,,,,,,,,,,,,,,,54,,,,,,,,,,,,,,398.1249999523279,,response,,,100,,,,,,Space,keypress(Space),,,,,-- --- ---- --- ------ ----- ------- ---- -- --- ------- --<br>------- ---------- ------ -- ----- -- ----- -- ---- ------<br>--- ----- --- --- ------ -------- ----- --- ------ ----- --<br>----- ----- ---------- --- --- ------ ------ ---- -- ------<br>------- --- French ----- --- ---- ------- -- ---- --- --<br>------- ------,136488,136487.29999995232,136072.505,136072.39999985695,136089.175,136489.262,,45,French
screen,html.Screen,0_2_1_1_46,2021-11-25T15:48:56.508Z,,,,,,,,,,,,,,,,54,,,,,,,,,,,,,,357.9380000476958,,response,,,100,,,,,,Space,keypress(Space),,,,,-- --- ---- --- ------ ----- ------- ---- -- --- ------- --<br>------- ---------- ------ -- ----- -- ----- -- ---- ------<br>--- ----- --- --- ------ -------- ----- --- ------ ----- --<br>----- ----- ---------- --- --- ------ ------ ---- -- ------<br>------- --- ------ state --- ---- ------- -- ---- --- --<br>------- ------,136848.09999990463,136847.20000004768,136472.592,136488.29999995232,136489.262,136856.028,,46,state
screen,html.Screen,0_2_1_1_47,2021-11-25T15:48:56.892Z,,,,,,,,,,,,,,,,54,,,,,,,,,,,,,,375.17200004769256,,response,,,100,,,,,,Space,keypress(Space),,,,,-- --- ---- --- ------ ----- ------- ---- -- --- ------- --<br>------- ---------- ------ -- ----- -- ----- -- ---- ------<br>--- ----- --- --- ------ -------- ----- --- ------ ----- --<br>----- ----- ---------- --- --- ------ ------ ---- -- ------<br>------- --- ------ ----- was ---- ------- -- ---- --- --<br>------- ------,137232,137231.20000004768,136839.358,136848.39999985695,136856.028,137239.445,,47,was
screen,html.Screen,0_2_1_1_48,2021-11-25T15:48:57.260Z,,,,,,,,,,,,,,,,54,,,,,,,,,,,,,,359.75500004767673,,response,,,100,,,,,,Space,keypress(Space),,,,,-- --- ---- --- ------ ----- ------- ---- -- --- ------- --<br>------- ---------- ------ -- ----- -- ----- -- ---- ------<br>--- ----- --- --- ------ -------- ----- --- ------ ----- --<br>----- ----- ---------- --- --- ------ ------ ---- -- ------<br>------- --- ------ ----- --- left ------- -- ---- --- --<br>------- ------,137600,137599.20000004768,137222.775,137232.20000004768,137239.445,137606.195,,48,left
screen,html.Screen,0_2_1_1_49,2021-11-25T15:48:57.724Z,,,,,,,,,,,,,,,,54,,,,,,,,,,,,,,457.304999999993,,response,,,100,,,,,,Space,keypress(Space),,,,,-- --- ---- --- ------ ----- ------- ---- -- --- ------- --<br>------- ---------- ------ -- ----- -- ----- -- ---- ------<br>--- ----- --- --- ------ -------- ----- --- ------ ----- --<br>----- ----- ---------- --- --- ------ ------ ---- -- ------<br>------- --- ------ ----- --- ---- without -- ---- --- --<br>------- ------,138064.29999995232,138063.5,137589.525,137600.20000004768,137606.195,138073,,49,without
screen,html.Screen,0_2_1_1_50,2021-11-25T15:48:58.060Z,,,,,,,,,,,,,,,,54,,,,,,,,,,,,,,326.09999990463257,,response,,,100,,,,,,Space,keypress(Space),,,,,-- --- ---- --- ------ ----- ------- ---- -- --- ------- --<br>------- ---------- ------ -- ----- -- ----- -- ---- ------<br>--- ----- --- --- ------ -------- ----- --- ------ ----- --<br>----- ----- ---------- --- --- ------ ------ ---- -- ------<br>------- --- ------ ----- --- ---- ------- an ---- --- --<br>------- ------,138399.89999985695,138399.09999990463,138056.33,138064.59999990463,138073,138406.394,,50,an
screen,html.Screen,0_2_1_1_51,2021-11-25T15:48:58.372Z,,,,,,,,,,,,,,,,54,,,,,,,,,,,,,,304.70599990463234,,response,,,100,,,,,,Space,keypress(Space),,,,,-- --- ---- --- ------ ----- ------- ---- -- --- ------- --<br>------- ---------- ------ -- ----- -- ----- -- ---- ------<br>--- ----- --- --- ------ -------- ----- --- ------ ----- --<br>----- ----- ---------- --- --- ------ ------ ---- -- ------<br>------- --- ------ ----- --- ---- ------- -- easy --- --<br>------- ------,138711.79999995232,138711.09999990463,138389.724,138400.20000004768,138406.394,138723.137,,51,easy
screen,html.Screen,0_2_1_1_52,2021-11-25T15:48:58.644Z,,,,,,,,,,,,,,,,54,,,,,,,,,,,,,,259.9629999046447,,response,,,100,,,,,,Space,keypress(Space),,,,,-- --- ---- --- ------ ----- ------- ---- -- --- ------- --<br>------- ---------- ------ -- ----- -- ----- -- ---- ------<br>--- ----- --- --- ------ -------- ----- --- ------ ----- --<br>----- ----- ---------- --- --- ------ ------ ---- -- ------<br>------- --- ------ ----- --- ---- ------- -- ---- way --<br>------- ------,138983.89999985695,138983.09999990463,138706.467,138712.09999990463,138723.137,138989.893,,52,way
screen,html.Screen,0_2_1_1_53,2021-11-25T15:48:58.892Z,,,,,,,,,,,,,,,,54,,,,,,,,,,,,,,241.20699990462163,,response,,,100,,,,,,Space,keypress(Space),,,,,-- --- ---- --- ------ ----- ------- ---- -- --- ------- --<br>------- ---------- ------ -- ----- -- ----- -- ---- ------<br>--- ----- --- --- ------ -------- ----- --- ------ ----- --<br>----- ----- ---------- --- --- ------ ------ ---- -- ------<br>------- --- ------ ----- --- ---- ------- -- ---- --- of<br>------- ------,139231.79999995232,139231.09999990463,138973.223,138984.20000004768,138989.893,139239.943,,53,of
screen,html.Screen,0_2_1_1_54,2021-11-25T15:48:59.196Z,,,,,,,,,,,,,,,,54,,,,,,,,,,,,,,295.0570000000007,,response,,,100,,,,,,Space,keypress(Space),,,,,-- --- ---- --- ------ ----- ------- ---- -- --- ------- --<br>------- ---------- ------ -- ----- -- ----- -- ---- ------<br>--- ----- --- --- ------ -------- ----- --- ------ ----- --<br>----- ----- ---------- --- --- ------ ------ ---- -- ------<br>------- --- ------ ----- --- ---- ------- -- ---- --- --<br>raising ------,139535.79999995232,139535,139223.273,139232.09999990463,139239.943,139540.001,,54,raising
screen,html.Screen,0_2_1_1_55,2021-11-25T15:48:59.428Z,,,,,,,,,,,,,,,,54,,,,,,,,,,,,,,227.09899990464328,,response,,,100,,,,,,Space,keypress(Space),,,,,-- --- ---- --- ------ ----- ------- ---- -- --- ------- --<br>------- ---------- ------ -- ----- -- ----- -- ---- ------<br>--- ----- --- --- ------ -------- ----- --- ------ ----- --<br>----- ----- ---------- --- --- ------ ------ ---- -- ------<br>------- --- ------ ----- --- ---- ------- -- ---- --- --<br>------- money.,139767.89999985695,139767.09999990463,139523.331,139536.09999990463,139540.001,139773.435,,55,money.
Item 100,flow.Loop,0_2_1_1,2021-11-25T15:48:59.428Z,,,,,,,,,,,,,,,,,,,,,,,,,,,,,,40120.226999904626,,completion,,,,E,,,,,,,,,,silence,,139768.29999995232,139767.09999990463,99630.203,99631.79999995232,99646.873,139773.435,,,
Question 1,html.Screen,0_2_1_2,2021-11-25T15:49:03.676Z,,,,,,,,,,,,,,,,,,,,,,,,,,,true,TRUE,,4241.065000000002,,response,,,100,E,,,,,TRUE,click #choice-1,,,,silence,,144015.70000004768,144014.5,139756.764,139768.59999990463,139773.435,144024.312,,,
Question 2,html.Screen,0_2_1_3,2021-11-25T15:49:06.628Z,,,,,,,,,,,,,,,,,,,,,,,,,,,true,FALSE,,2941.987999952311,,response,,,100,E,,,,,FALSE,click #choice-2,,,,silence,,146967.70000004768,146966.29999995232,144007.643,144016,144024.312,146974.934,,,
Item 100,flow.Sequence,0_2_1,2021-11-25T15:49:06.628Z,,,,,,,,,,,,,,,,,,,,,,,,,,,,,,57321.12399995231,,completion,,,,,,,,,,,,,,,,146968.09999990463,146966.29999995232,89628.495,89644.29999995232,89645.176,146974.934,,,
End of Practice,html.Page,0_2_2,2021-11-25T15:49:26.627Z,,,,,,,,,,,,,,,,,,,,,,,,,,,,,,20006.658999999985,,timeout,,,,,,,,,,,,,,,,166966.70000004768,166964.921,146958.269,146968.39999985695,146974.934,166981.593,,,
Practice,flow.Sequence,0_2,2021-11-25T15:49:26.627Z,,,,,,,,,,,,,,,,,,,,,,,,,,,,,,135751.217,,completion,,,,,,,,,,,,,,,,166967,166964.921,31197.034,31192.599999904633,31213.704,166981.593,,,
Trap_instruction,html.Page,0_3_0,2021-11-25T15:49:39.130Z,,,,,,,,,,,,,,,,,,,,,,,,,,,,,,12487.806999856955,,form submission,,,,,,,,,,,,,,,,179469.89999985695,179469.39999985695,166964.921,166967.20000004768,166981.593,179499.138,,,
trap_trial,html.Screen,0_3_1,2021-11-25T15:49:44.237Z,,,,,,,,,,,,,,,,,,,,,,,,,,,true,1,,5072.66199995231,,response,,,,,,,,,1,click #choice-1,,,,,,184572.89999985695,184571.79999995232,179465.798,179470.29999995232,179499.138,184584.651,,,
end of trap trial,html.Page,0_3_2,2021-11-25T15:49:46.846Z,,,,,,,,,,,,,,,,,,,,,,,,,,,,,,2596.2489998569363,,form submission,,,,,,,,,,,,,,,,187181.29999995232,187180.89999985695,184567.979,184573.09999990463,184584.651,187193.28,,,
Trap 1,flow.Sequence,0_3,2021-11-25T15:49:46.846Z,,,,,,,,,,,,,,,,,,,,,,,,,,,,,,20199.306999856955,,completion,,,,,,,,,,,,,,,,187181.70000004768,187180.89999985695,166964.921,166967.20000004768,166981.593,187193.28,,,
Standby,html.Page,0_4_0,2021-11-25T15:49:54.835Z,,,,,,,,,,,,,,,,,,,,,,,,,,,,,,7993.244999999995,,timeout,,,,,,,,,,,,,,,,195170.89999985695,195169.855,187176.664,187182.09999990463,187193.28,195186.525,,,
Holding screen,html.Screen,0_4_1_0_0,2021-11-25T15:50:01.838Z,,,,,,,,,,,,,,,,,,,,,,,,,,,,,,7001.956000000006,,timeout,,,,,,,,,,,,,,,,202173.39999985695,202171.811,195169.855,195171.09999990463,195186.525,202188.481,,,
screen,html.Screen,0_4_1_0_1_0,2021-11-25T15:50:03.452Z,,,,,,,,,,,,,,,,51,,,,,,,,,,,,,,1598.219000047684,,response,,,13,E,,,,,Space,keypress(Space),,,,lyrical,American -------- --- --- ---- --- --- ------ -- --------<br>---- --------- --- ------- ------------ ---------- ---------<br>--- ---------- ------- ---------- ------- -- -------- ----<br>---- --- ------ ----- ------ -- ---- --- ----- -- - -------<br>-------- -- --- --- -- ----- ----------- ----- -----------<br>---- --- ---------- --- ---- --- -- ----------,203787.59999990463,203786.70000004768,202171.811,202173.79999995232,202188.481,203788.816,,0,American
screen,html.Screen,0_4_1_0_1_1,2021-11-25T15:50:04.132Z,,,,,,,,,,,,,,,,51,,,,,,,,,,,,,,677.783999904641,,response,,,13,E,,,,,Space,keypress(Space),,,,lyrical,-------- industry --- --- ---- --- --- ------ -- --------<br>---- --------- --- ------- ------------ ---------- ---------<br>--- ---------- ------- ---------- ------- -- -------- ----<br>---- --- ------ ----- ------ -- ---- --- ----- -- - -------<br>-------- -- --- --- -- ----- ----------- ----- -----------<br>---- --- ---------- --- ---- --- -- ----------,204467.39999985695,204466.59999990463,203772.146,203787.89999985695,203788.816,204472.526,,1,industry
screen,html.Screen,0_4_1_0_1_2,2021-11-25T15:50:04.684Z,,,,,,,,,,,,,,,,51,,,,,,,,,,,,,,546.07399990462,,response,,,13,E,,,,,Space,keypress(Space),,,,lyrical,-------- -------- may --- ---- --- --- ------ -- --------<br>---- --------- --- ------- ------------ ---------- ---------<br>--- ---------- ------- ---------- ------- -- -------- ----<br>---- --- ------ ----- ------ -- ---- --- ----- -- - -------<br>-------- -- --- --- -- ----- ----------- ----- -----------<br>---- --- ---------- --- ---- --- -- ----------,205019.29999995232,205018.59999990463,204455.855,204467.59999990463,204472.526,205022.514,,2,may
screen,html.Screen,0_4_1_0_1_3,2021-11-25T15:50:05.084Z,,,,,,,,,,,,,,,,51,,,,,,,,,,,,,,396.3859998569533,,response,,,13,E,,,,,Space,keypress(Space),,,,lyrical,-------- -------- --- not ---- --- --- ------ -- --------<br>---- --------- --- ------- ------------ ---------- ---------<br>--- ---------- ------- ---------- ------- -- -------- ----<br>---- --- ------ ----- ------ -- ---- --- ----- -- - -------<br>-------- -- --- --- -- ----- ----------- ----- -----------<br>---- --- ---------- --- ---- --- -- ----------,205419.70000004768,205418.89999985695,205005.844,205019.59999990463,205022.514,205422.749,,3,not
screen,html.Screen,0_4_1_0_1_4,2021-11-25T15:50:05.403Z,,,,,,,,,,,,,,,,51,,,,,,,,,,,,,,315.5509999523056,,response,,,13,E,,,,,Space,keypress(Space),,,,lyrical,-------- -------- --- --- know --- --- ------ -- --------<br>---- --------- --- ------- ------------ ---------- ---------<br>--- ---------- ------- ---------- ------- -- -------- ----<br>---- --- ------ ----- ------ -- ---- --- ----- -- - -------<br>-------- -- --- --- -- ----- ----------- ----- -----------<br>---- --- ---------- --- ---- --- -- ----------,205739.09999990463,205738.29999995232,205406.078,205419.89999985695,205422.749,205756.107,,4,know
screen,html.Screen,0_4_1_0_1_5,2021-11-25T15:50:05.875Z,,,,,,,,,,,,,,,,51,,,,,,,,,,,,,,454.2929998569598,,response,,,13,E,,,,,Space,keypress(Space),,,,lyrical,"-------- -------- --- --- ---- it, --- ------ -- --------<br>---- --------- --- ------- ------------ ---------- ---------<br>--- ---------- ------- ---------- ------- -- -------- ----<br>---- --- ------ ----- ------ -- ---- --- ----- -- - -------<br>-------- -- --- --- -- ----- ----------- ----- -----------<br>---- --- ---------- --- ---- --- -- ----------",206211.20000004768,206210.39999985695,205739.437,205739.39999985695,205756.107,206222.883,,5,"it,"
screen,html.Screen,0_4_1_0_1_6,2021-11-25T15:50:06.244Z,,,,,,,,,,,,,,,,51,,,,,,,,,,,,,,355.5169998569472,,response,,,13,E,,,,,Space,keypress(Space),,,,lyrical,-------- -------- --- --- ---- --- but ------ -- --------<br>---- --------- --- ------- ------------ ---------- ---------<br>--- ---------- ------- ---------- ------- -- -------- ----<br>---- --- ------ ----- ------ -- ---- --- ----- -- - -------<br>-------- -- --- --- -- ----- ----------- ----- -----------<br>---- --- ---------- --- ---- --- -- ----------,206579.20000004768,206578.39999985695,206206.213,206211.39999985695,206222.883,206589.456,,6,but
screen,html.Screen,0_4_1_0_1_7,2021-11-25T15:50:06.531Z,,,,,,,,,,,,,,,,51,,,,,,,,,,,,,,276.94399985694326,,response,,,13,E,,,,,Space,keypress(Space),,,,lyrical,-------- -------- --- --- ---- --- --- debate -- --------<br>---- --------- --- ------- ------------ ---------- ---------<br>--- ---------- ------- ---------- ------- -- -------- ----<br>---- --- ------ ----- ------ -- ---- --- ----- -- - -------<br>-------- -- --- --- -- ----- ----------- ----- -----------<br>---- --- ---------- --- ---- --- -- ----------,206867.20000004768,206866.39999985695,206572.789,206579.5,206589.456,206873.075,,7,debate
screen,html.Screen,0_4_1_0_1_8,2021-11-25T15:50:06.859Z,,,,,,,,,,,,,,,,51,,,,,,,,,,,,,,321.1250000476721,,response,,,13,E,,,,,Space,keypress(Space),,,,lyrical,-------- -------- --- --- ---- --- --- ------ in --------<br>---- --------- --- ------- ------------ ---------- ---------<br>--- ---------- ------- ---------- ------- -- -------- ----<br>---- --- ------ ----- ------ -- ---- --- ----- -- - -------<br>-------- -- --- --- -- ----- ----------- ----- -----------<br>---- --- ---------- --- ---- --- -- ----------,207195,207194.20000004768,206856.404,206867.39999985695,206873.075,207206.485,,8,in
screen,html.Screen,0_4_1_0_1_9,2021-11-25T15:50:07.363Z,,,,,,,,,,,,,,,,51,,,,,,,,,,,,,,491.81499995233025,,response,,,13,E,,,,,Space,keypress(Space),,,,lyrical,-------- -------- --- --- ---- --- --- ------ -- Congress<br>---- --------- --- ------- ------------ ---------- ---------<br>--- ---------- ------- ---------- ------- -- -------- ----<br>---- --- ------ ----- ------ -- ---- --- ----- -- - -------<br>-------- -- --- --- -- ----- ----------- ----- -----------<br>---- --- ---------- --- ---- --- -- ----------,207699.09999990463,207698.29999995232,207189.814,207195.20000004768,207206.485,207706.388,,9,Congress
screen,html.Screen,0_4_1_0_1_10,2021-11-25T15:50:08.059Z,,,,,,,,,,,,,,,,51,,,,,,,,,,,,,,687.8120000476774,,response,,,13,E,,,,,Space,keypress(Space),,,,lyrical,-------- -------- --- --- ---- --- --- ------ -- --------<br>over --------- --- ------- ------------ ---------- ---------<br>--- ---------- ------- ---------- ------- -- -------- ----<br>---- --- ------ ----- ------ -- ---- --- ----- -- - -------<br>-------- -- --- --- -- ----- ----------- ----- -----------<br>---- --- ---------- --- ---- --- -- ----------,208395,208394.20000004768,207689.721,207699.39999985695,207706.388,208406.668,,10,over
screen,html.Screen,0_4_1_0_1_11,2021-11-25T15:50:09.171Z,,,,,,,,,,,,,,,,51,,,,,,,,,,,,,,1099.5320000476786,,response,,,13,E,,,,,Space,keypress(Space),,,,lyrical,-------- -------- --- --- ---- --- --- ------ -- --------<br>---- reforming --- ------- ------------ ---------- ---------<br>--- ---------- ------- ---------- ------- -- -------- ----<br>---- --- ------ ----- ------ -- ---- --- ----- -- - -------<br>-------- -- --- --- -- ----- ----------- ----- -----------<br>---- --- ---------- --- ---- --- -- ----------,209507.09999990463,209506.20000004768,208389.998,208395.20000004768,208406.668,209523.759,,11,reforming
screen,html.Screen,0_4_1_0_1_12,2021-11-25T15:50:09.619Z,,,,,,,,,,,,,,,,51,,,,,,,,,,,,,,430.4410000476928,,response,,,13,E,,,,,Space,keypress(Space),,,,lyrical,-------- -------- --- --- ---- --- --- ------ -- --------<br>---- --------- the ------- ------------ ---------- ---------<br>--- ---------- ------- ---------- ------- -- -------- ----<br>---- --- ------ ----- ------ -- ---- --- ----- -- - -------<br>-------- -- --- --- -- ----- ----------- ----- -----------<br>---- --- ---------- --- ---- --- -- ----------,209955,209954.20000004768,209507.088,209507.20000004768,209523.759,209957.107,,12,the
screen,html.Screen,0_4_1_0_1_13,2021-11-25T15:50:10.371Z,,,,,,,,,,,,,,,,51,,,,,,,,,,,,,,748.9929999046435,,response,,,13,E,,,,,Space,keypress(Space),,,,lyrical,-------- -------- --- --- ---- --- --- ------ -- --------<br>---- --------- --- federal ------------ ---------- ---------<br>--- ---------- ------- ---------- ------- -- -------- ----<br>---- --- ------ ----- ------ -- ---- --- ----- -- - -------<br>-------- -- --- --- -- ----- ----------- ----- -----------<br>---- --- ---------- --- ---- --- -- ----------,210706.89999985695,210706.09999990463,209940.437,209955.09999990463,209957.107,210723.953,,13,federal
screen,html.Screen,0_4_1_0_1_14,2021-11-25T15:50:11.115Z,,,,,,,,,,,,,,,,51,,,,,,,,,,,,,,726.0469999999914,,response,,,13,E,,,,,Space,keypress(Space),,,,lyrical,-------- -------- --- --- ---- --- --- ------ -- --------<br>---- --------- --- ------- government's ---------- ---------<br>--- ---------- ------- ---------- ------- -- -------- ----<br>---- --- ------ ----- ------ -- ---- --- ----- -- - -------<br>-------- -- --- --- -- ----- ----------- ----- -----------<br>---- --- ---------- --- ---- --- -- ----------,211450.79999995232,211450,210707.283,210707.09999990463,210723.953,211457.468,,14,government's
screen,html.Screen,0_4_1_0_1_15,2021-11-25T15:50:11.795Z,,,,,,,,,,,,,,,,51,,,,,,,,,,,,,,672.6319999046391,,response,,,13,E,,,,,Space,keypress(Space),,,,lyrical,-------- -------- --- --- ---- --- --- ------ -- --------<br>---- --------- --- ------- ------------ regulatory ---------<br>--- ---------- ------- ---------- ------- -- -------- ----<br>---- --- ------ ----- ------ -- ---- --- ----- -- - -------<br>-------- -- --- --- -- ----- ----------- ----- -----------<br>---- --- ---------- --- ---- --- -- ----------,212130.79999995232,212130.09999990463,211440.798,211451,211457.468,212140.945,,15,regulatory
screen,html.Screen,0_4_1_0_1_16,2021-11-25T15:50:12.227Z,,,,,,,,,,,,,,,,51,,,,,,,,,,,,,,420.95499985694187,,response,,,13,E,,,,,Space,keypress(Space),,,,lyrical,-------- -------- --- --- ---- --- --- ------ -- --------<br>---- --------- --- ------- ------------ ---------- apparatus<br>--- ---------- ------- ---------- ------- -- -------- ----<br>---- --- ------ ----- ------ -- ---- --- ----- -- - -------<br>-------- -- --- --- -- ----- ----------- ----- -----------<br>---- --- ---------- --- ---- --- -- ----------,212562.70000004768,212561.89999985695,212124.275,212131,212140.945,212574.404,,16,apparatus
screen,html.Screen,0_4_1_0_1_17,2021-11-25T15:50:12.827Z,,,,,,,,,,,,,,,,51,,,,,,,,,,,,,,587.5959999999905,,response,,,13,E,,,,,Space,keypress(Space),,,,lyrical,-------- -------- --- --- ---- --- --- ------ -- --------<br>---- --------- --- ------- ------------ ---------- ---------<br>may ---------- ------- ---------- ------- -- -------- ----<br>---- --- ------ ----- ------ -- ---- --- ----- -- - -------<br>-------- -- --- --- -- ----- ----------- ----- -----------<br>---- --- ---------- --- ---- --- -- ----------,213162.70000004768,213162,212557.734,212563,212574.404,213174.574,,17,may
screen,html.Screen,0_4_1_0_1_18,2021-11-25T15:50:13.579Z,,,,,,,,,,,,,,,,51,,,,,,,,,,,,,,739.3259998569556,,response,,,13,E,,,,,Space,keypress(Space),,,,lyrical,-------- -------- --- --- ---- --- --- ------ -- --------<br>---- --------- --- ------- ------------ ---------- ---------<br>--- profoundly ------- ---------- ------- -- -------- ----<br>---- --- ------ ----- ------ -- ---- --- ----- -- - -------<br>-------- -- --- --- -- ----- ----------- ----- -----------<br>---- --- ---------- --- ---- --- -- ----------,213914.59999990463,213913.89999985695,213157.904,213162.89999985695,213174.574,213924.705,,18,profoundly
screen,html.Screen,0_4_1_0_1_19,2021-11-25T15:50:14.059Z,,,,,,,,,,,,,,,,51,,,,,,,,,,,,,,468.9950000476965,,response,,,13,E,,,,,Space,keypress(Space),,,,lyrical,-------- -------- --- --- ---- --- --- ------ -- --------<br>---- --------- --- ------- ------------ ---------- ---------<br>--- ---------- improve ---------- ------- -- -------- ----<br>---- --- ------ ----- ------ -- ---- --- ----- -- - -------<br>-------- -- --- --- -- ----- ----------- ----- -----------<br>---- --- ---------- --- ---- --- -- ----------,214394.5,214393.70000004768,213908.035,213914.79999995232,213924.705,214408.192,,19,improve
screen,html.Screen,0_4_1_0_1_20,2021-11-25T15:50:14.803Z,,,,,,,,,,,,,,,,51,,,,,,,,,,,,,,729.6079999523063,,response,,,13,E,,,,,Space,keypress(Space),,,,lyrical,-------- -------- --- --- ---- --- --- ------ -- --------<br>---- --------- --- ------- ------------ ---------- ---------<br>--- ---------- ------- companies' ------- -- -------- ----<br>---- --- ------ ----- ------ -- ---- --- ----- -- - -------<br>-------- -- --- --- -- ----- ----------- ----- -----------<br>---- --- ---------- --- ---- --- -- ----------,215138.59999990463,215137.79999995232,214391.522,214394.79999995232,214408.192,215141.702,,20,companies'
screen,html.Screen,0_4_1_0_1_21,2021-11-25T15:50:15.171Z,,,,,,,,,,,,,,,,51,,,,,,,,,,,,,,364.39799990464235,,response,,,13,E,,,,,Space,keypress(Space),,,,lyrical,-------- -------- --- --- ---- --- --- ------ -- --------<br>---- --------- --- ------- ------------ ---------- ---------<br>--- ---------- ------- ---------- ability -- -------- ----<br>---- --- ------ ----- ------ -- ---- --- ----- -- - -------<br>-------- -- --- --- -- ----- ----------- ----- -----------<br>---- --- ---------- --- ---- --- -- ----------,215506.89999985695,215506.09999990463,215125.032,215138.79999995232,215141.702,215508.348,,21,ability
screen,html.Screen,0_4_1_0_1_22,2021-11-25T15:50:15.531Z,,,,,,,,,,,,,,,,51,,,,,,,,,,,,,,357.3520000476856,,response,,,13,E,,,,,Space,keypress(Space),,,,lyrical,-------- -------- --- --- ---- --- --- ------ -- --------<br>---- --------- --- ------- ------------ ---------- ---------<br>--- ---------- ------- ---------- ------- to -------- ----<br>---- --- ------ ----- ------ -- ---- --- ----- -- - -------<br>-------- -- --- --- -- ----- ----------- ----- -----------<br>---- --- ---------- --- ---- --- -- ----------,215866.59999990463,215865.70000004768,215491.679,215507.09999990463,215508.348,215875.256,,22,to
screen,html.Screen,0_4_1_0_1_23,2021-11-25T15:50:15.907Z,,,,,,,,,,,,,,,,51,,,,,,,,,,,,,,366.44400004768977,,response,,,13,E,,,,,Space,keypress(Space),,,,lyrical,-------- -------- --- --- ---- --- --- ------ -- --------<br>---- --------- --- ------- ------------ ---------- ---------<br>--- ---------- ------- ---------- ------- -- survive. ----<br>---- --- ------ ----- ------ -- ---- --- ----- -- - -------<br>-------- -- --- --- -- ----- ----------- ----- -----------<br>---- --- ---------- --- ---- --- -- ----------,216242.5,216241.70000004768,215858.585,215866.70000004768,215875.256,216258.56,,23,survive.
screen,html.Screen,0_4_1_0_1_24,2021-11-25T15:50:16.443Z,,,,,,,,,,,,,,,,51,,,,,,,,,,,,,,519.140000047686,,response,,,13,E,,,,,Space,keypress(Space),,,,lyrical,-------- -------- --- --- ---- --- --- ------ -- --------<br>---- --------- --- ------- ------------ ---------- ---------<br>--- ---------- ------- ---------- ------- -- -------- This<br>---- --- ------ ----- ------ -- ---- --- ----- -- - -------<br>-------- -- --- --- -- ----- ----------- ----- -----------<br>---- --- ---------- --- ---- --- -- ----------,216778.59999990463,216777.70000004768,216241.891,216242.79999995232,216258.56,216792.225,,24,This
screen,html.Screen,0_4_1_0_1_25,2021-11-25T15:50:16.835Z,,,,,,,,,,,,,,,,51,,,,,,,,,,,,,,377.37499990462675,,response,,,13,E,,,,,Space,keypress(Space),,,,lyrical,-------- -------- --- --- ---- --- --- ------ -- --------<br>---- --------- --- ------- ------------ ---------- ---------<br>--- ---------- ------- ---------- ------- -- -------- ----<br>week --- ------ ----- ------ -- ---- --- ----- -- - -------<br>-------- -- --- --- -- ----- ----------- ----- -----------<br>---- --- ---------- --- ---- --- -- ----------,217170.5,217169.59999990463,216775.553,216778.89999985695,216792.225,217175.533,,25,week
screen,html.Screen,0_4_1_0_1_26,2021-11-25T15:50:17.243Z,,,,,,,,,,,,,,,,51,,,,,,,,,,,,,,402.2669999523205,,response,,,13,E,,,,,Space,keypress(Space),,,,lyrical,-------- -------- --- --- ---- --- --- ------ -- --------<br>---- --------- --- ------- ------------ ---------- ---------<br>--- ---------- ------- ---------- ------- -- -------- ----<br>---- the ------ ----- ------ -- ---- --- ----- -- - -------<br>-------- -- --- --- -- ----- ----------- ----- -----------<br>---- --- ---------- --- ---- --- -- ----------,217578.59999990463,217577.79999995232,217158.863,217170.70000004768,217175.533,217592.283,,26,the
screen,html.Screen,0_4_1_0_1_27,2021-11-25T15:50:17.595Z,,,,,,,,,,,,,,,,51,,,,,,,,,,,,,,337.31699990463676,,response,,,13,E,,,,,Space,keypress(Space),,,,lyrical,-------- -------- --- --- ---- --- --- ------ -- --------<br>---- --------- --- ------- ------------ ---------- ---------<br>--- ---------- ------- ---------- ------- -- -------- ----<br>---- --- Senate ----- ------ -- ---- --- ----- -- - -------<br>-------- -- --- --- -- ----- ----------- ----- -----------<br>---- --- ---------- --- ---- --- -- ----------,217930.5,217929.59999990463,217575.613,217578.70000004768,217592.283,217942.436,,27,Senate
screen,html.Screen,0_4_1_0_1_28,2021-11-25T15:50:18.027Z,,,,,,,,,,,,,,,,51,,,,,,,,,,,,,,419.06400000001304,,response,,,13,E,,,,,Space,keypress(Space),,,,lyrical,-------- -------- --- --- ---- --- --- ------ -- --------<br>---- --------- --- ------- ------------ ---------- ---------<br>--- ---------- ------- ---------- ------- -- -------- ----<br>---- --- ------ seems ------ -- ---- --- ----- -- - -------<br>-------- -- --- --- -- ----- ----------- ----- -----------<br>---- --- ---------- --- ---- --- -- ----------,218362.29999995232,218361.5,217925.765,217930.59999990463,217942.436,218375.821,,28,seems
screen,html.Screen,0_4_1_0_1_29,2021-11-25T15:50:18.827Z,,,,,,,,,,,,,,,,51,,,,,,,,,,,,,,785.5789998569526,,response,,,13,E,,,,,Space,keypress(Space),,,,lyrical,-------- -------- --- --- ---- --- --- ------ -- --------<br>---- --------- --- ------- ------------ ---------- ---------<br>--- ---------- ------- ---------- ------- -- -------- ----<br>---- --- ------ ----- poised -- ---- --- ----- -- - -------<br>-------- -- --- --- -- ----- ----------- ----- -----------<br>---- --- ---------- --- ---- --- -- ----------,219162.29999995232,219161.39999985695,218359.151,218362.59999990463,218375.821,219176.005,,29,poised
screen,html.Screen,0_4_1_0_1_30,2021-11-25T15:50:19.355Z,,,,,,,,,,,,,,,,51,,,,,,,,,,,,,,513.4949999999953,,response,,,13,E,,,,,Space,keypress(Space),,,,lyrical,-------- -------- --- --- ---- --- --- ------ -- --------<br>---- --------- --- ------- ------------ ---------- ---------<br>--- ---------- ------- ---------- ------- -- -------- ----<br>---- --- ------ ----- ------ to ---- --- ----- -- - -------<br>-------- -- --- --- -- ----- ----------- ----- -----------<br>---- --- ---------- --- ---- --- -- ----------,219690.39999985695,219689.5,219159.335,219162.5,219176.005,219692.622,,30,to
screen,html.Screen,0_4_1_0_1_31,2021-11-25T15:50:19.723Z,,,,,,,,,,,,,,,,51,,,,,,,,,,,,,,364.877999999997,,response,,,13,E,,,,,Space,keypress(Space),,,,lyrical,-------- -------- --- --- ---- --- --- ------ -- --------<br>---- --------- --- ------- ------------ ---------- ---------<br>--- ---------- ------- ---------- ------- -- -------- ----<br>---- --- ------ ----- ------ -- join --- ----- -- - -------<br>-------- -- --- --- -- ----- ----------- ----- -----------<br>---- --- ---------- --- ---- --- -- ----------,220058.20000004768,220057.5,219675.954,219690.59999990463,219692.622,220059.531,,31,join
screen,html.Screen,0_4_1_0_1_32,2021-11-25T15:50:20.091Z,,,,,,,,,,,,,,,,51,,,,,,,,,,,,,,365.8689998569607,,response,,,13,E,,,,,Space,keypress(Space),,,,lyrical,-------- -------- --- --- ---- --- --- ------ -- --------<br>---- --------- --- ------- ------------ ---------- ---------<br>--- ---------- ------- ---------- ------- -- -------- ----<br>---- --- ------ ----- ------ -- ---- the ----- -- - -------<br>-------- -- --- --- -- ----- ----------- ----- -----------<br>---- --- ---------- --- ---- --- -- ----------,220426.20000004768,220425.39999985695,220042.861,220058.5,220059.531,220443.047,,32,the
screen,html.Screen,0_4_1_0_1_33,2021-11-25T15:50:20.730Z,,,,,,,,,,,,,,,,51,,,,,,,,,,,,,,622.3529998569575,,response,,,13,E,,,,,Space,keypress(Space),,,,lyrical,-------- -------- --- --- ---- --- --- ------ -- --------<br>---- --------- --- ------- ------------ ---------- ---------<br>--- ---------- ------- ---------- ------- -- -------- ----<br>---- --- ------ ----- ------ -- ---- --- House -- - -------<br>-------- -- --- --- -- ----- ----------- ----- -----------<br>---- --- ---------- --- ---- --- -- ----------,221066.09999990463,221065.39999985695,220426.376,220426.5,220443.047,221076.315,,33,House
screen,html.Screen,0_4_1_0_1_34,2021-11-25T15:50:21.090Z,,,,,,,,,,,,,,,,51,,,,,,,,,,,,,,349.0849998569465,,response,,,13,E,,,,,Space,keypress(Space),,,,lyrical,-------- -------- --- --- ---- --- --- ------ -- --------<br>---- --------- --- ------- ------------ ---------- ---------<br>--- ---------- ------- ---------- ------- -- -------- ----<br>---- --- ------ ----- ------ -- ---- --- ----- in - -------<br>-------- -- --- --- -- ----- ----------- ----- -----------<br>---- --- ---------- --- ---- --- -- ----------,221426.09999990463,221425.39999985695,221059.647,221066.39999985695,221076.315,221443.346,,34,in
screen,html.Screen,0_4_1_0_1_35,2021-11-25T15:50:21.434Z,,,,,,,,,,,,,,,,51,,,,,,,,,,,,,,325.95399995232583,,response,,,13,E,,,,,Space,keypress(Space),,,,lyrical,-------- -------- --- --- ---- --- --- ------ -- --------<br>---- --------- --- ------- ------------ ---------- ---------<br>--- ---------- ------- ---------- ------- -- -------- ----<br>---- --- ------ ----- ------ -- ---- --- ----- -- a -------<br>-------- -- --- --- -- ----- ----------- ----- -----------<br>---- --- ---------- --- ---- --- -- ----------,221770,221769.29999995232,221426.674,221426.39999985695,221443.346,221776.653,,35,a
screen,html.Screen,0_4_1_0_1_36,2021-11-25T15:50:22.082Z,,,,,,,,,,,,,,,,51,,,,,,,,,,,,,,640.6469999523251,,response,,,13,E,,,,,Space,keypress(Space),,,,lyrical,-------- -------- --- --- ---- --- --- ------ -- --------<br>---- --------- --- ------- ------------ ---------- ---------<br>--- ---------- ------- ---------- ------- -- -------- ----<br>---- --- ------ ----- ------ -- ---- --- ----- -- - massive<br>-------- -- --- --- -- ----- ----------- ----- -----------<br>---- --- ---------- --- ---- --- -- ----------,222418.09999990463,222417.29999995232,221759.983,221770.29999995232,221776.653,222426.791,,36,massive
screen,html.Screen,0_4_1_0_1_37,2021-11-25T15:50:22.474Z,,,,,,,,,,,,,,,,51,,,,,,,,,,,,,,382.50899995231885,,response,,,13,E,,,,,Space,keypress(Space),,,,lyrical,-------- -------- --- --- ---- --- --- ------ -- --------<br>---- --------- --- ------- ------------ ---------- ---------<br>--- ---------- ------- ---------- ------- -- -------- ----<br>---- --- ------ ----- ------ -- ---- --- ----- -- - -------<br>overhaul -- --- --- -- ----- ----------- ----- -----------<br>---- --- ---------- --- ---- --- -- ----------,222810,222809.29999995232,222410.121,222418.29999995232,222426.791,222826.893,,37,overhaul
screen,html.Screen,0_4_1_0_1_38,2021-11-25T15:50:22.898Z,,,,,,,,,,,,,,,,51,,,,,,,,,,,,,,406.3070000476728,,response,,,13,E,,,,,Space,keypress(Space),,,,lyrical,-------- -------- --- --- ---- --- --- ------ -- --------<br>---- --------- --- ------- ------------ ---------- ---------<br>--- ---------- ------- ---------- ------- -- -------- ----<br>---- --- ------ ----- ------ -- ---- --- ----- -- - -------<br>-------- of --- --- -- ----- ----------- ----- -----------<br>---- --- ---------- --- ---- --- -- ----------,223234,223233.20000004768,222810.223,222810.29999995232,222826.893,223243.691,,38,of
screen,html.Screen,0_4_1_0_1_39,2021-11-25T15:50:23.522Z,,,,,,,,,,,,,,,,51,,,,,,,,,,,,,,613.408999904641,,response,,,13,E,,,,,Space,keypress(Space),,,,lyrical,-------- -------- --- --- ---- --- --- ------ -- --------<br>---- --------- --- ------- ------------ ---------- ---------<br>--- ---------- ------- ---------- ------- -- -------- ----<br>---- --- ------ ----- ------ -- ---- --- ----- -- - -------<br>-------- -- the --- -- ----- ----------- ----- -----------<br>---- --- ---------- --- ---- --- -- ----------,223857.89999985695,223857.09999990463,223227.021,223234.20000004768,223243.691,223860.485,,39,the
screen,html.Screen,0_4_1_0_1_40,2021-11-25T15:50:23.994Z,,,,,,,,,,,,,,,,51,,,,,,,,,,,,,,468.7150000476977,,response,,,13,E,,,,,Space,keypress(Space),,,,lyrical,-------- -------- --- --- ---- --- --- ------ -- --------<br>---- --------- --- ------- ------------ ---------- ---------<br>--- ---------- ------- ---------- ------- -- -------- ----<br>---- --- ------ ----- ------ -- ---- --- ----- -- - -------<br>-------- -- --- way -- ----- ----------- ----- -----------<br>---- --- ---------- --- ---- --- -- ----------,224330,224329.20000004768,223843.815,223858.09999990463,223860.485,224343.841,,40,way
screen,html.Screen,0_4_1_0_1_41,2021-11-25T15:50:24.402Z,,,,,,,,,,,,,,,,51,,,,,,,,,,,,,,393.3590000476979,,response,,,13,E,,,,,Space,keypress(Space),,,,lyrical,-------- -------- --- --- ---- --- --- ------ -- --------<br>---- --------- --- ------- ------------ ---------- ---------<br>--- ---------- ------- ---------- ------- -- -------- ----<br>---- --- ------ ----- ------ -- ---- --- ----- -- - -------<br>-------- -- --- --- in ----- ----------- ----- -----------<br>---- --- ---------- --- ---- --- -- ----------,224738,224737.20000004768,224327.172,224330.20000004768,224343.841,224744.096,,41,in
screen,html.Screen,0_4_1_0_1_42,2021-11-25T15:50:24.826Z,,,,,,,,,,,,,,,,51,,,,,,,,,,,,,,417.10400004769326,,response,,,13,E,,,,,Space,keypress(Space),,,,lyrical,-------- -------- --- --- ---- --- --- ------ -- --------<br>---- --------- --- ------- ------------ ---------- ---------<br>--- ---------- ------- ---------- ------- -- -------- ----<br>---- --- ------ ----- ------ -- ---- --- ----- -- - -------<br>-------- -- --- --- -- which ----------- ----- -----------<br>---- --- ---------- --- ---- --- -- ----------,225161.89999985695,225161.20000004768,224727.425,224738.09999990463,224744.096,225177.482,,42,which
screen,html.Screen,0_4_1_0_1_43,2021-11-25T15:50:25.922Z,,,,,,,,,,,,,,,,51,,,,,,,,,,,,,,1079.8179999523272,,response,,,13,E,,,,,Space,keypress(Space),,,,lyrical,-------- -------- --- --- ---- --- --- ------ -- --------<br>---- --------- --- ------- ------------ ---------- ---------<br>--- ---------- ------- ---------- ------- -- -------- ----<br>---- --- ------ ----- ------ -- ---- --- ----- -- - -------<br>-------- -- --- --- -- ----- bureaucrats ----- -----------<br>---- --- ---------- --- ---- --- -- ----------,226258.09999990463,226257.29999995232,225160.812,225162.20000004768,225177.482,226261.057,,43,bureaucrats
screen,html.Screen,0_4_1_0_1_44,2021-11-25T15:50:26.306Z,,,,,,,,,,,,,,,,51,,,,,,,,,,,,,,379.9429999999993,,response,,,13,E,,,,,Space,keypress(Space),,,,lyrical,-------- -------- --- --- ---- --- --- ------ -- --------<br>---- --------- --- ------- ------------ ---------- ---------<br>--- ---------- ------- ---------- ------- -- -------- ----<br>---- --- ------ ----- ------ -- ---- --- ----- -- - -------<br>-------- -- --- --- -- ----- ----------- enact -----------<br>---- --- ---------- --- ---- --- -- ----------,226641.89999985695,226641,226244.387,226258.29999995232,226261.057,226644.406,,44,enact
screen,html.Screen,0_4_1_0_1_45,2021-11-25T15:50:26.978Z,,,,,,,,,,,,,,,,51,,,,,,,,,,,,,,668.4939998569607,,response,,,13,E,,,,,Space,keypress(Space),,,,lyrical,-------- -------- --- --- ---- --- --- ------ -- --------<br>---- --------- --- ------- ------------ ---------- ---------<br>--- ---------- ------- ---------- ------- -- -------- ----<br>---- --- ------ ----- ------ -- ---- --- ----- -- - -------<br>-------- -- --- --- -- ----- ----------- ----- regulations<br>---- --- ---------- --- ---- --- -- ----------,227313.70000004768,227312.89999985695,226627.737,226642.20000004768,226644.406,227327.998,,45,regulations
screen,html.Screen,0_4_1_0_1_46,2021-11-25T15:50:27.410Z,,,,,,,,,,,,,,,,51,,,,,,,,,,,,,,417.0020000000077,,response,,,13,E,,,,,Space,keypress(Space),,,,lyrical,-------- -------- --- --- ---- --- --- ------ -- --------<br>---- --------- --- ------- ------------ ---------- ---------<br>--- ---------- ------- ---------- ------- -- -------- ----<br>---- --- ------ ----- ------ -- ---- --- ----- -- - -------<br>-------- -- --- --- -- ----- ----------- ----- -----------<br>that --- ---------- --- ---- --- -- ----------,227745.70000004768,227745,227311.328,227313.89999985695,227327.998,227761.42,,46,that
screen,html.Screen,0_4_1_0_1_47,2021-11-25T15:50:27.698Z,,,,,,,,,,,,,,,,51,,,,,,,,,,,,,,271.3799999523035,,response,,,13,E,,,,,Space,keypress(Space),,,,lyrical,-------- -------- --- --- ---- --- --- ------ -- --------<br>---- --------- --- ------- ------------ ---------- ---------<br>--- ---------- ------- ---------- ------- -- -------- ----<br>---- --- ------ ----- ------ -- ---- --- ----- -- - -------<br>-------- -- --- --- -- ----- ----------- ----- -----------<br>---- are ---------- --- ---- --- -- ----------,228033.59999990463,228032.79999995232,227744.75,227746,227761.42,228044.853,,47,are
screen,html.Screen,0_4_1_0_1_48,2021-11-25T15:50:27.994Z,,,,,,,,,,,,,,,,51,,,,,,,,,,,,,,283.9469999523135,,response,,,13,E,,,,,Space,keypress(Space),,,,lyrical,-------- -------- --- --- ---- --- --- ------ -- --------<br>---- --------- --- ------- ------------ ---------- ---------<br>--- ---------- ------- ---------- ------- -- -------- ----<br>---- --- ------ ----- ------ -- ---- --- ----- -- - -------<br>-------- -- --- --- -- ----- ----------- ----- -----------<br>---- --- strangling --- ---- --- -- ----------,228329.70000004768,228328.79999995232,228028.183,228033.89999985695,228044.853,228344.915,,48,strangling
screen,html.Screen,0_4_1_0_1_49,2021-11-25T15:50:28.554Z,,,,,,,,,,,,,,,,51,,,,,,,,,,,,,,543.8849999523081,,response,,,13,E,,,,,Space,keypress(Space),,,,lyrical,-------- -------- --- --- ---- --- --- ------ -- --------<br>---- --------- --- ------- ------------ ---------- ---------<br>--- ---------- ------- ---------- ------- -- -------- ----<br>---- --- ------ ----- ------ -- ---- --- ----- -- - -------<br>-------- -- --- --- -- ----- ----------- ----- -----------<br>---- --- ---------- the ---- --- -- ----------,228889.70000004768,228888.79999995232,228328.245,228329.79999995232,228344.915,228894.899,,49,the
screen,html.Screen,0_4_1_0_1_50,2021-11-25T15:50:28.970Z,,,,,,,,,,,,,,,,51,,,,,,,,,,,,,,409.9009999523114,,response,,,13,E,,,,,Space,keypress(Space),,,,lyrical,-------- -------- --- --- ---- --- --- ------ -- --------<br>---- --------- --- ------- ------------ ---------- ---------<br>--- ---------- ------- ---------- ------- -- -------- ----<br>---- --- ------ ----- ------ -- ---- --- ----- -- - -------<br>-------- -- --- --- -- ----- ----------- ----- -----------<br>---- --- ---------- --- life --- -- ----------,229305.59999990463,229304.79999995232,228878.231,228889.79999995232,228894.899,229311.777,,50,life
