sender,sender_type,sender_id,timestamp,meta,,Blues,Classical,Country,Dance,Electronic,Folk,Gospel,Hip-Hop,Jazz,Latin,Musical/Film,New-age,Pop,Provo_ID,R&B,Rap,Reggae,Religious,Rock,Soul,Swing,Traditional,age,artist_name,correct,correctResponse,distraction,duration,education,ended_on,familiarity,gender,item,list,music_frequency,offensiveness,pleasantness,preference,response,response_action,snippet_file,song_name,song_rating,sound,text,time_commit,time_end,time_render,time_run,time_show,time_switch,url,word,word_ID
Instructions,html.Page,0_0,2021-11-26T11:59:33.134Z,"{""labjs_version"":""20.2.3"",""labjs_build"":{""flavor"":""production"",""commit"":""7ea907d66ca8aeef8054924ca5d82ffbe11e34e5""},""location"":""https://run.pavlovia.org/mvasilev/lab_music_d/"",""userAgent"":""Mozilla/5.0 (Windows NT 6.1; Win64; x64) AppleWebKit/537.36 (KHTML, like Gecko) Chrome/96.0.4664.45 Safari/537.36"",""platform"":""Win32"",""language"":""en-GB"",""locale"":""en-GB"",""timeZone"":""Europe/London"",""timezoneOffset"":0,""screen_width"":1920,""screen_height"":1080,""scroll_width"":1920,""scroll_height"":921,""window_innerWidth"":1920,""window_innerHeight"":969,""devicePixelRatio"":1}",,,,,,,,,,,,,,,,,,,,,,,,,,,,,20868.374000047683,,form submission,,,,,,,,,,,,,,,,29505.899999976158,29504.700000047684,8619.66,8624.200000047684,8636.326,29502.158,{},,
Headphones,html.Page,0_1,2021-11-26T11:59:36.055Z,,,,,,,,,,,,,,,,,,,,,,,,,,,,,,2924.4420000238424,,form submission,,,,,,,,,,,,,,,,32427,32426.600000023842,29485.492,29506.600000023842,29502.158,32435.374,,,
Holding screen,html.Screen,0_2_0_0,2021-11-26T11:59:46.053Z,,,,,,,,,,,,,,,,,,,,,,,,,,,,,,9999.600000000002,,timeout,,,,,,,,,,,,,,,,42424.5,42418.308,32418.708,32427.600000023842,32435.374,42434.974,,,
screen,html.Screen,0_2_0_1_0,2021-11-26T11:59:47.067Z,,,,,,,,,,,,,,,,53,,,,,,,,,,,,,,1002.1260000238399,,response,,,99,,,,,,Space,keypress(Space),,,,,When -- ----- -- ------ - ------- --- ----------<br>------------- ------ ------ ---- ---- ------- ----- -- ----<br>-------- ------- -- ---------- --- - --- ----- ----- ----<br>---- --- --- ----- --- ---- ---- ------- ----- ---- -------<br>--- --- -- ----- -- --- ---- -- --- ---- -- ------ ------<br>--- ----- -- ----,43438.5,43437.10000002384,42418.308,42424.89999997616,42434.974,43451.6,,0,When
screen,html.Screen,0_2_0_1_1,2021-11-26T11:59:47.570Z,,,,,,,,,,,,,,,,53,,,,,,,,,,,,,,488.90000000000146,,response,,,99,,,,,,Space,keypress(Space),,,,,---- it ----- -- ------ - ------- --- ----------<br>------------- ------ ------ ---- ---- ------- ----- -- ----<br>-------- ------- -- ---------- --- - --- ----- ----- ----<br>---- --- --- ----- --- ---- ---- ------- ----- ---- -------<br>--- --- -- ----- -- --- ---- -- --- ---- -- ------ ------<br>--- ----- -- ----,43941.39999997616,43940.5,43434.934,43438.89999997616,43451.6,43951.58,,1,it
screen,html.Screen,0_2_0_1_2,2021-11-26T11:59:48.034Z,,,,,,,,,,,,,,,,53,,,,,,,,,,,,,,453.0200000238401,,response,,,99,,,,,,Space,keypress(Space),,,,,---- -- comes -- ------ - ------- --- ----------<br>------------- ------ ------ ---- ---- ------- ----- -- ----<br>-------- ------- -- ---------- --- - --- ----- ----- ----<br>---- --- --- ----- --- ---- ---- ------- ----- ---- -------<br>--- --- -- ----- -- --- ---- -- --- ---- -- ------ ------<br>--- ----- -- ----,44405.39999997616,44404.60000002384,43934.914,43941.800000071526,43951.58,44418.228,,2,comes
screen,html.Screen,0_2_0_1_3,2021-11-26T11:59:48.522Z,,,,,,,,,,,,,,,,53,,,,,,,,,,,,,,474.2719999999972,,response,,,99,,,,,,Space,keypress(Space),,,,,---- -- ----- to ------ - ------- --- ----------<br>------------- ------ ------ ---- ---- ------- ----- -- ----<br>-------- ------- -- ---------- --- - --- ----- ----- ----<br>---- --- --- ----- --- ---- ---- ------- ----- ---- -------<br>--- --- -- ----- -- --- ---- -- --- ---- -- ------ ------<br>--- ----- -- ----,44893.5,44892.5,44401.562,44405.700000047684,44418.228,44901.542,,3,to
screen,html.Screen,0_2_0_1_4,2021-11-26T11:59:49.018Z,,,,,,,,,,,,,,,,53,,,,,,,,,,,,,,486.85799997615686,,response,,,99,,,,,,Space,keypress(Space),,,,,---- -- ----- -- having - ------- --- ----------<br>------------- ------ ------ ---- ---- ------- ----- -- ----<br>-------- ------- -- ---------- --- - --- ----- ----- ----<br>---- --- --- ----- --- ---- ---- ------- ----- ---- -------<br>--- --- -- ----- -- --- ---- -- --- ---- -- ------ ------<br>--- ----- -- ----,45389.60000002384,45388.39999997616,44884.876,44894,44901.542,45401.522,,4,having
screen,html.Screen,0_2_0_1_5,2021-11-26T11:59:49.506Z,,,,,,,,,,,,,,,,53,,,,,,,,,,,,,,474.87799997616094,,response,,,99,,,,,,Space,keypress(Space),,,,,---- -- ----- -- ------ a ------- --- ----------<br>------------- ------ ------ ---- ---- ------- ----- -- ----<br>-------- ------- -- ---------- --- - --- ----- ----- ----<br>---- --- --- ----- --- ---- ---- ------- ----- ---- -------<br>--- --- -- ----- -- --- ---- -- --- ---- -- ------ ------<br>--- ----- -- ----,45877.300000071526,45876.39999997616,45384.856,45390,45401.522,45884.836,,5,a
screen,html.Screen,0_2_0_1_6,2021-11-26T11:59:49.914Z,,,,,,,,,,,,,,,,53,,,,,,,,,,,,,,399.66399999999703,,response,,,99,,,,,,Space,keypress(Space),,,,,---- -- ----- -- ------ - lasting --- ----------<br>------------- ------ ------ ---- ---- ------- ----- -- ----<br>-------- ------- -- ---------- --- - --- ----- ----- ----<br>---- --- --- ----- --- ---- ---- ------- ----- ---- -------<br>--- --- -- ----- -- --- ---- -- --- ---- -- ------ ------<br>--- ----- -- ----,46285.39999997616,46284.5,45868.17,45877.89999997616,45884.836,46301.486,,6,lasting
screen,html.Screen,0_2_0_1_7,2021-11-26T11:59:50.386Z,,,,,,,,,,,,,,,,53,,,,,,,,,,,,,,454.913999976161,,response,,,99,,,,,,Space,keypress(Space),,,,,---- -- ----- -- ------ - ------- and ----------<br>------------- ------ ------ ---- ---- ------- ----- -- ----<br>-------- ------- -- ---------- --- - --- ----- ----- ----<br>---- --- --- ----- --- ---- ---- ------- ----- ---- -------<br>--- --- -- ----- -- --- ---- -- --- ---- -- ------ ------<br>--- ----- -- ----,46757.39999997616,46756.39999997616,46284.82,46285.700000047684,46301.486,46768.134,,7,and
screen,html.Screen,0_2_0_1_8,2021-11-26T11:59:51.114Z,,,,,,,,,,,,,,,,53,,,,,,,,,,,,,,716.26599997616,,response,,,99,,,,,,Space,keypress(Space),,,,,---- -- ----- -- ------ - ------- --- fulfilling<br>------------- ------ ------ ---- ---- ------- ----- -- ----<br>-------- ------- -- ---------- --- - --- ----- ----- ----<br>---- --- --- ----- --- ---- ---- ------- ----- ---- -------<br>--- --- -- ----- -- --- ---- -- --- ---- -- ------ ------<br>--- ----- -- ----,47485.5,47484.39999997616,46751.468,46757.700000047684,46768.134,47501.438,,8,fulfilling
screen,html.Screen,0_2_0_1_9,2021-11-26T11:59:51.778Z,,,,,,,,,,,,,,,,53,,,,,,,,,,,,,,646.8620000715237,,response,,,99,,,,,,Space,keypress(Space),,,,,"---- -- ----- -- ------ - ------- --- ----------<br>relationship, ------ ------ ---- ---- ------- ----- -- ----<br>-------- ------- -- ---------- --- - --- ----- ----- ----<br>---- --- --- ----- --- ---- ---- ------- ----- ---- -------<br>--- --- -- ----- -- --- ---- -- --- ---- -- ------ ------<br>--- ----- -- ----",48149.200000047684,48148.300000071526,47484.772,47485.89999997616,47501.438,48151.412,,9,"relationship,"
screen,html.Screen,0_2_0_1_10,2021-11-26T11:59:52.378Z,,,,,,,,,,,,,,,,53,,,,,,,,,,,,,,596.7880000476871,,response,,,99,,,,,,Space,keypress(Space),,,,,---- -- ----- -- ------ - ------- --- ----------<br>------------- common ------ ---- ---- ------- ----- -- ----<br>-------- ------- -- ---------- --- - --- ----- ----- ----<br>---- --- --- ----- --- ---- ---- ------- ----- ---- -------<br>--- --- -- ----- -- --- ---- -- --- ---- -- ------ ------<br>--- ----- -- ----,48749.300000071526,48748.200000047684,48134.746,48149.60000002384,48151.412,48751.388,,10,common
screen,html.Screen,0_2_0_1_11,2021-11-26T11:59:52.785Z,,,,,,,,,,,,,,,,53,,,,,,,,,,,,,,404.91200007152656,,response,,,99,,,,,,Space,keypress(Space),,,,,---- -- ----- -- ------ - ------- --- ----------<br>------------- ------ wisdom ---- ---- ------- ----- -- ----<br>-------- ------- -- ---------- --- - --- ----- ----- ----<br>---- --- --- ----- --- ---- ---- ------- ----- ---- -------<br>--- --- -- ----- -- --- ---- -- --- ---- -- ------ ------<br>--- ----- -- ----,49157.200000047684,49156.300000071526,48734.722,48749.60000002384,48751.388,49168.038,,11,wisdom
screen,html.Screen,0_2_0_1_12,2021-11-26T11:59:53.505Z,,,,,,,,,,,,,,,,53,,,,,,,,,,,,,,708.1620000476833,,response,,,99,,,,,,Space,keypress(Space),,,,,---- -- ----- -- ------ - ------- --- ----------<br>------------- ------ ------ says ---- ------- ----- -- ----<br>-------- ------- -- ---------- --- - --- ----- ----- ----<br>---- --- --- ----- --- ---- ---- ------- ----- ---- -------<br>--- --- -- ----- -- --- ---- -- --- ---- -- ------ ------<br>--- ----- -- ----,49877,49876.200000047684,49151.372,49157.5,49168.038,49884.676,,12,says
screen,html.Screen,0_2_0_1_13,2021-11-26T11:59:54.057Z,,,,,,,,,,,,,,,,53,,,,,,,,,,,,,,543.5240000476842,,response,,,99,,,,,,Space,keypress(Space),,,,,---- -- ----- -- ------ - ------- --- ----------<br>------------- ------ ------ ---- that ------- ----- -- ----<br>-------- ------- -- ---------- --- - --- ----- ----- ----<br>---- --- --- ----- --- ---- ---- ------- ----- ---- -------<br>--- --- -- ----- -- --- ---- -- --- ---- -- ------ ------<br>--- ----- -- ----,50429,50428.200000047684,49868.01,49877.300000071526,49884.676,50434.654,,13,that
screen,html.Screen,0_2_0_1_14,2021-11-26T11:59:54.817Z,,,,,,,,,,,,,,,,53,,,,,,,,,,,,,,753.4460000238396,,response,,,99,,,,,,Space,keypress(Space),,,,,---- -- ----- -- ------ - ------- --- ----------<br>------------- ------ ------ ---- ---- feeling ----- -- ----<br>-------- ------- -- ---------- --- - --- ----- ----- ----<br>---- --- --- ----- --- ---- ---- ------- ----- ---- -------<br>--- --- -- ----- -- --- ---- -- --- ---- -- ------ ------<br>--- ----- -- ----,51189,51188.10000002384,50417.988,50429.300000071526,50434.654,51201.29,,14,feeling
screen,html.Screen,0_2_0_1_15,2021-11-26T11:59:55.273Z,,,,,,,,,,,,,,,,53,,,,,,,,,,,,,,442.810000023841,,response,,,99,,,,,,Space,keypress(Space),,,,,---- -- ----- -- ------ - ------- --- ----------<br>------------- ------ ------ ---- ---- ------- close -- ----<br>-------- ------- -- ---------- --- - --- ----- ----- ----<br>---- --- --- ----- --- ---- ---- ------- ----- ---- -------<br>--- --- -- ----- -- --- ---- -- --- ---- -- ------ ------<br>--- ----- -- ----,51645.200000047684,51644.10000002384,51184.624,51189.200000047684,51201.29,51651.272,,15,close
screen,html.Screen,0_2_0_1_16,2021-11-26T11:59:55.665Z,,,,,,,,,,,,,,,,53,,,,,,,,,,,,,,384.82800002384465,,response,,,99,,,,,,Space,keypress(Space),,,,,---- -- ----- -- ------ - ------- --- ----------<br>------------- ------ ------ ---- ---- ------- ----- to ----<br>-------- ------- -- ---------- --- - --- ----- ----- ----<br>---- --- --- ----- --- ---- ---- ------- ----- ---- -------<br>--- --- -- ----- -- --- ---- -- --- ---- -- ------ ------<br>--- ----- -- ----,52036.800000071526,52036.10000002384,51634.606,51645.39999997616,51651.272,52051.256,,16,to
screen,html.Screen,0_2_0_1_17,2021-11-26T11:59:56.049Z,,,,,,,,,,,,,,,,53,,,,,,,,,,,,,,368.7439999999988,,response,,,99,,,,,,Space,keypress(Space),,,,,---- -- ----- -- ------ - ------- --- ----------<br>------------- ------ ------ ---- ---- ------- ----- -- your<br>-------- ------- -- ---------- --- - --- ----- ----- ----<br>---- --- --- ----- --- ---- ---- ------- ----- ---- -------<br>--- --- -- ----- -- --- ---- -- --- ---- -- ------ ------<br>--- ----- -- ----,52420.800000071526,52420,52034.59,52037.10000002384,52051.256,52434.574,,17,your
screen,html.Screen,0_2_0_1_18,2021-11-26T11:59:56.745Z,,,,,,,,,,,,,,,,53,,,,,,,,,,,,,,681.4259999999995,,response,,,99,,,,,,Space,keypress(Space),,,,,---- -- ----- -- ------ - ------- --- ----------<br>------------- ------ ------ ---- ---- ------- ----- -- ----<br>romantic ------- -- ---------- --- - --- ----- ----- ----<br>---- --- --- ----- --- ---- ---- ------- ----- ---- -------<br>--- --- -- ----- -- --- ---- -- --- ---- -- ------ ------<br>--- ----- -- ----,53116.800000071526,53116,52417.908,52421.200000047684,52434.574,53117.88,,18,romantic
screen,html.Screen,0_2_0_1_19,2021-11-26T11:59:57.169Z,,,,,,,,,,,,,,,,53,,,,,,,,,,,,,,422.4200000715282,,response,,,99,,,,,,Space,keypress(Space),,,,,---- -- ----- -- ------ - ------- --- ----------<br>------------- ------ ------ ---- ---- ------- ----- -- ----<br>-------- partner -- ---------- --- - --- ----- ----- ----<br>---- --- --- ----- --- ---- ---- ------- ----- ---- -------<br>--- --- -- ----- -- --- ---- -- --- ---- -- ------ ------<br>--- ----- -- ----,53541.200000047684,53540.300000071526,53101.214,53117,53117.88,53551.196,,19,partner
screen,html.Screen,0_2_0_1_20,2021-11-26T11:59:57.569Z,,,,,,,,,,,,,,,,53,,,,,,,,,,,,,,388.7039999761546,,response,,,99,,,,,,Space,keypress(Space),,,,,---- -- ----- -- ------ - ------- --- ----------<br>------------- ------ ------ ---- ---- ------- ----- -- ----<br>-------- ------- is ---------- --- - --- ----- ----- ----<br>---- --- --- ----- --- ---- ---- ------- ----- ---- -------<br>--- --- -- ----- -- --- ---- -- --- ---- -- ------ ------<br>--- ----- -- ----,53940.60000002384,53939.89999997616,53534.53,53541.39999997616,53551.196,53951.18,,20,is
screen,html.Screen,0_2_0_1_21,2021-11-26T11:59:58.497Z,,,,,,,,,,,,,,,,53,,,,,,,,,,,,,,916.7199999761579,,response,,,99,,,,,,Space,keypress(Space),,,,,---- -- ----- -- ------ - ------- --- ----------<br>------------- ------ ------ ---- ---- ------- ----- -- ----<br>-------- ------- -- paramount. --- - --- ----- ----- ----<br>---- --- --- ----- --- ---- ---- ------- ----- ---- -------<br>--- --- -- ----- -- --- ---- -- --- ---- -- ------ ------<br>--- ----- -- ----,54868.700000047684,54867.89999997616,53934.514,53940.89999997616,53951.18,54884.476,,21,paramount.
screen,html.Screen,0_2_0_1_22,2021-11-26T11:59:59.025Z,,,,,,,,,,,,,,,,53,,,,,,,,,,,,,,511.42399997615576,,response,,,99,,,,,,Space,keypress(Space),,,,,---- -- ----- -- ------ - ------- --- ----------<br>------------- ------ ------ ---- ---- ------- ----- -- ----<br>-------- ------- -- ---------- But - --- ----- ----- ----<br>---- --- --- ----- --- ---- ---- ------- ----- ---- -------<br>--- --- -- ----- -- --- ---- -- --- ---- -- ------ ------<br>--- ----- -- ----,55396.60000002384,55395.89999997616,54867.81,54869.200000047684,54884.476,55401.122,,22,But
screen,html.Screen,0_2_0_1_23,2021-11-26T11:59:59.457Z,,,,,,,,,,,,,,,,53,,,,,,,,,,,,,,426.7779999761551,,response,,,99,,,,,,Space,keypress(Space),,,,,---- -- ----- -- ------ - ------- --- ----------<br>------------- ------ ------ ---- ---- ------- ----- -- ----<br>-------- ------- -- ---------- --- a --- ----- ----- ----<br>---- --- --- ----- --- ---- ---- ------- ----- ---- -------<br>--- --- -- ----- -- --- ---- -- --- ---- -- ------ ------<br>--- ----- -- ----,55828.700000047684,55827.89999997616,55384.456,55396.89999997616,55401.122,55834.438,,23,a
screen,html.Screen,0_2_0_1_24,2021-11-26T11:59:59.841Z,,,,,,,,,,,,,,,,53,,,,,,,,,,,,,,377.36200007152365,,response,,,99,,,,,,Space,keypress(Space),,,,,---- -- ----- -- ------ - ------- --- ----------<br>------------- ------ ------ ---- ---- ------- ----- -- ----<br>-------- ------- -- ---------- --- - new ----- ----- ----<br>---- --- --- ----- --- ---- ---- ------- ----- ---- -------<br>--- --- -- ----- -- --- ---- -- --- ---- -- ------ ------<br>--- ----- -- ----,56212.60000002384,56211.800000071526,55817.772,55828.89999997616,55834.438,56217.756,,24,new
screen,html.Screen,0_2_0_1_25,2021-11-26T12:00:00.233Z,,,,,,,,,,,,,,,,53,,,,,,,,,,,,,,386.04400007152435,,response,,,99,,,,,,Space,keypress(Space),,,,,---- -- ----- -- ------ - ------- --- ----------<br>------------- ------ ------ ---- ---- ------- ----- -- ----<br>-------- ------- -- ---------- --- - --- study ----- ----<br>---- --- --- ----- --- ---- ---- ------- ----- ---- -------<br>--- --- -- ----- -- --- ---- -- --- ---- -- ------ ------<br>--- ----- -- ----,56604.700000047684,56603.800000071526,56201.09,56212.800000071526,56217.756,56617.74,,25,study
screen,html.Screen,0_2_0_1_26,2021-11-26T12:00:00.577Z,,,,,,,,,,,,,,,,53,,,,,,,,,,,,,,329.96000004768575,,response,,,99,,,,,,Space,keypress(Space),,,,,---- -- ----- -- ------ - ------- --- ----------<br>------------- ------ ------ ---- ---- ------- ----- -- ----<br>-------- ------- -- ---------- --- - --- ----- finds ----<br>---- --- --- ----- --- ---- ---- ------- ----- ---- -------<br>--- --- -- ----- -- --- ---- -- --- ---- -- ------ ------<br>--- ----- -- ----,56948.60000002384,56947.700000047684,56601.074,56604.800000071526,56617.74,56951.06,,26,finds
screen,html.Screen,0_2_0_1_27,2021-11-26T12:00:01.073Z,,,,,,,,,,,,,,,,53,,,,,,,,,,,,,,492.64000004768604,,response,,,99,,,,,,Space,keypress(Space),,,,,---- -- ----- -- ------ - ------- --- ----------<br>------------- ------ ------ ---- ---- ------- ----- -- ----<br>-------- ------- -- ---------- --- - --- ----- ----- that<br>---- --- --- ----- --- ---- ---- ------- ----- ---- -------<br>--- --- -- ----- -- --- ---- -- --- ---- -- ------ ------<br>--- ----- -- ----,57444.5,57443.700000047684,56934.394,56948.800000071526,56951.06,57451.04,,27,that
screen,html.Screen,0_2_0_1_28,2021-11-26T12:00:01.665Z,,,,,,,,,,,,,,,,53,,,,,,,,,,,,,,584.6600000476828,,response,,,99,,,,,,Space,keypress(Space),,,,,---- -- ----- -- ------ - ------- --- ----------<br>------------- ------ ------ ---- ---- ------- ----- -- ----<br>-------- ------- -- ---------- --- - --- ----- ----- ----<br>it's --- --- ----- --- ---- ---- ------- ----- ---- -------<br>--- --- -- ----- -- --- ---- -- --- ---- -- ------ ------<br>--- ----- -- ----,58036.5,58035.700000047684,57434.374,57444.700000047684,57451.04,58051.016,,28,it's
screen,html.Screen,0_2_0_1_29,2021-11-26T12:00:02.473Z,,,,,,,,,,,,,,,,53,,,,,,,,,,,,,,792.5840000238386,,response,,,99,,,,,,Space,keypress(Space),,,,,---- -- ----- -- ------ - ------- --- ----------<br>------------- ------ ------ ---- ---- ------- ----- -- ----<br>-------- ------- -- ---------- --- - --- ----- ----- ----<br>---- not --- ----- --- ---- ---- ------- ----- ---- -------<br>--- --- -- ----- -- --- ---- -- --- ---- -- ------ ------<br>--- ----- -- ----,58844.39999997616,58843.60000002384,58034.35,58036.700000047684,58051.016,58850.984,,29,not
screen,html.Screen,0_2_0_1_30,2021-11-26T12:00:02.881Z,,,,,,,,,,,,,,,,53,,,,,,,,,,,,,,400.6160000238451,,response,,,99,,,,,,Space,keypress(Space),,,,,---- -- ----- -- ------ - ------- --- ----------<br>------------- ------ ------ ---- ---- ------- ----- -- ----<br>-------- ------- -- ---------- --- - --- ----- ----- ----<br>---- --- how ----- --- ---- ---- ------- ----- ---- -------<br>--- --- -- ----- -- --- ---- -- --- ---- -- ------ ------<br>--- ----- -- ----,59252.39999997616,59251.60000002384,58834.318,58844.700000047684,58850.984,59267.634,,30,how
screen,html.Screen,0_2_0_1_31,2021-11-26T12:00:03.321Z,,,,,,,,,,,,,,,,53,,,,,,,,,,,,,,423.96600002384366,,response,,,99,,,,,,Space,keypress(Space),,,,,---- -- ----- -- ------ - ------- --- ----------<br>------------- ------ ------ ---- ---- ------- ----- -- ----<br>-------- ------- -- ---------- --- - --- ----- ----- ----<br>---- --- --- close --- ---- ---- ------- ----- ---- -------<br>--- --- -- ----- -- --- ---- -- --- ---- -- ------ ------<br>--- ----- -- ----,59692.60000002384,59691.60000002384,59250.968,59252.700000047684,59267.634,59700.95,,31,close
screen,html.Screen,0_2_0_1_32,2021-11-26T12:00:03.700Z,,,,,,,,,,,,,,,,53,,,,,,,,,,,,,,366.5500000000029,,response,,,99,,,,,,Space,keypress(Space),,,,,---- -- ----- -- ------ - ------- --- ----------<br>------------- ------ ------ ---- ---- ------- ----- -- ----<br>-------- ------- -- ---------- --- - --- ----- ----- ----<br>---- --- --- ----- you ---- ---- ------- ----- ---- -------<br>--- --- -- ----- -- --- ---- -- --- ---- -- ------ ------<br>--- ----- -- ----,60068.5,60067.5,59684.284,59692.800000071526,59700.95,60084.268,,32,you
screen,html.Screen,0_2_0_1_33,2021-11-26T12:00:04.100Z,,,,,,,,,,,,,,,,53,,,,,,,,,,,,,,383.33200002384547,,response,,,99,,,,,,Space,keypress(Space),,,,,---- -- ----- -- ------ - ------- --- ----------<br>------------- ------ ------ ---- ---- ------- ----- -- ----<br>-------- ------- -- ---------- --- - --- ----- ----- ----<br>---- --- --- ----- --- feel ---- ------- ----- ---- -------<br>--- --- -- ----- -- --- ---- -- --- ---- -- ------ ------<br>--- ----- -- ----,60468.39999997616,60467.60000002384,60067.602,60068.800000071526,60084.268,60484.252,,33,feel
screen,html.Screen,0_2_0_1_34,2021-11-26T12:00:04.484Z,,,,,,,,,,,,,,,,53,,,,,,,,,,,,,,367.2479999999996,,response,,,99,,,,,,Space,keypress(Space),,,,,---- -- ----- -- ------ - ------- --- ----------<br>------------- ------ ------ ---- ---- ------- ----- -- ----<br>-------- ------- -- ---------- --- - --- ----- ----- ----<br>---- --- --- ----- --- ---- that ------- ----- ---- -------<br>--- --- -- ----- -- --- ---- -- --- ---- -- ------ ------<br>--- ----- -- ----,60852.300000071526,60851.5,60467.586,60468.60000002384,60484.252,60867.57,,34,that
screen,html.Screen,0_2_0_1_35,2021-11-26T12:00:04.868Z,,,,,,,,,,,,,,,,53,,,,,,,,,,,,,,367.9300000000003,,response,,,99,,,,,,Space,keypress(Space),,,,,---- -- ----- -- ------ - ------- --- ----------<br>------------- ------ ------ ---- ---- ------- ----- -- ----<br>-------- ------- -- ---------- --- - --- ----- ----- ----<br>---- --- --- ----- --- ---- ---- matters ----- ---- -------<br>--- --- -- ----- -- --- ---- -- --- ---- -- ------ ------<br>--- ----- -- ----,61236.200000047684,61235.5,60850.904,60852.60000002384,60867.57,61250.888,,35,matters
screen,html.Screen,0_2_0_1_36,2021-11-26T12:00:05.444Z,,,,,,,,,,,,,,,,53,,,,,,,,,,,,,,560.612000000001,,response,,,99,,,,,,Space,keypress(Space),,,,,"---- -- ----- -- ------ - ------- --- ----------<br>------------- ------ ------ ---- ---- ------- ----- -- ----<br>-------- ------- -- ---------- --- - --- ----- ----- ----<br>---- --- --- ----- --- ---- ---- ------- most, ---- -------<br>--- --- -- ----- -- --- ---- -- --- ---- -- ------ ------<br>--- ----- -- ----",61812.200000047684,61811.5,61234.222,61236.5,61250.888,61817.532,,36,"most,"
screen,html.Screen,0_2_0_1_37,2021-11-26T12:00:06.084Z,,,,,,,,,,,,,,,,53,,,,,,,,,,,,,,633.8679999761589,,response,,,99,,,,,,Space,keypress(Space),,,,,---- -- ----- -- ------ - ------- --- ----------<br>------------- ------ ------ ---- ---- ------- ----- -- ----<br>-------- ------- -- ---------- --- - --- ----- ----- ----<br>---- --- --- ----- --- ---- ---- ------- ----- it's -------<br>--- --- -- ----- -- --- ---- -- --- ---- -- ------ ------<br>--- ----- -- ----,62452.200000047684,62451.39999997616,61800.866,61812.5,61817.532,62467.506,,37,it's
screen,html.Screen,0_2_0_1_38,2021-11-26T12:00:06.492Z,,,,,,,,,,,,,,,,53,,,,,,,,,,,,,,391.79400007152435,,response,,,99,,,,,,Space,keypress(Space),,,,,---- -- ----- -- ------ - ------- --- ----------<br>------------- ------ ------ ---- ---- ------- ----- -- ----<br>-------- ------- -- ---------- --- - --- ----- ----- ----<br>---- --- --- ----- --- ---- ---- ------- ----- ---- whether<br>--- --- -- ----- -- --- ---- -- --- ---- -- ------ ------<br>--- ----- -- ----,62860.10000002384,62859.300000071526,62450.84,62452.5,62467.506,62867.49,,38,whether
screen,html.Screen,0_2_0_1_39,2021-11-26T12:00:07.236Z,,,,,,,,,,,,,,,,53,,,,,,,,,,,,,,736.2100000476858,,response,,,99,,,,,,Space,keypress(Space),,,,,---- -- ----- -- ------ - ------- --- ----------<br>------------- ------ ------ ---- ---- ------- ----- -- ----<br>-------- ------- -- ---------- --- - --- ----- ----- ----<br>---- --- --- ----- --- ---- ---- ------- ----- ---- -------<br>you --- -- ----- -- --- ---- -- --- ---- -- ------ ------<br>--- ----- -- ----,63604.39999997616,63603.700000047684,62850.824,62860.300000071526,62867.49,63617.46,,39,you
screen,html.Screen,0_2_0_1_40,2021-11-26T12:00:07.668Z,,,,,,,,,,,,,,,,53,,,,,,,,,,,,,,417.7400000476846,,response,,,99,,,,,,Space,keypress(Space),,,,,---- -- ----- -- ------ - ------- --- ----------<br>------------- ------ ------ ---- ---- ------- ----- -- ----<br>-------- ------- -- ---------- --- - --- ----- ----- ----<br>---- --- --- ----- --- ---- ---- ------- ----- ---- -------<br>--- are -- ----- -- --- ---- -- --- ---- -- ------ ------<br>--- ----- -- ----,64036.10000002384,64035.200000047684,63600.794,63604.700000047684,63617.46,64050.776,,40,are
screen,html.Screen,0_2_0_1_41,2021-11-26T12:00:08.452Z,,,,,,,,,,,,,,,,53,,,,,,,,,,,,,,768.4240000476857,,response,,,99,,,,,,Space,keypress(Space),,,,,---- -- ----- -- ------ - ------- --- ----------<br>------------- ------ ------ ---- ---- ------- ----- -- ----<br>-------- ------- -- ---------- --- - --- ----- ----- ----<br>---- --- --- ----- --- ---- ---- ------- ----- ---- -------<br>--- --- as ----- -- --- ---- -- --- ---- -- ------ ------<br>--- ----- -- ----,64820.10000002384,64819.200000047684,64034.11,64036.39999997616,64050.776,64834.078,,41,as
screen,html.Screen,0_2_0_1_42,2021-11-26T12:00:08.876Z,,,,,,,,,,,,,,,,53,,,,,,,,,,,,,,409.22200007152423,,response,,,99,,,,,,Space,keypress(Space),,,,,---- -- ----- -- ------ - ------- --- ----------<br>------------- ------ ------ ---- ---- ------- ----- -- ----<br>-------- ------- -- ---------- --- - --- ----- ----- ----<br>---- --- --- ----- --- ---- ---- ------- ----- ---- -------<br>--- --- -- close -- --- ---- -- --- ---- -- ------ ------<br>--- ----- -- ----,65244,65243.300000071526,64817.412,64820.300000071526,64834.078,65250.728,,42,close
screen,html.Screen,0_2_0_1_43,2021-11-26T12:00:09.244Z,,,,,,,,,,,,,,,,53,,,,,,,,,,,,,,360.4720000476809,,response,,,99,,,,,,Space,keypress(Space),,,,,---- -- ----- -- ------ - ------- --- ----------<br>------------- ------ ------ ---- ---- ------- ----- -- ----<br>-------- ------- -- ---------- --- - --- ----- ----- ----<br>---- --- --- ----- --- ---- ---- ------- ----- ---- -------<br>--- --- -- ----- as --- ---- -- --- ---- -- ------ ------<br>--- ----- -- ----,65612,65611.20000004768,65234.062,65244.300000071526,65250.728,65617.38,,43,as
screen,html.Screen,0_2_0_1_44,2021-11-26T12:00:09.612Z,,,,,,,,,,,,,,,,53,,,,,,,,,,,,,,361.82000004767906,,response,,,99,,,,,,Space,keypress(Space),,,,,---- -- ----- -- ------ - ------- --- ----------<br>------------- ------ ------ ---- ---- ------- ----- -- ----<br>-------- ------- -- ---------- --- - --- ----- ----- ----<br>---- --- --- ----- --- ---- ---- ------- ----- ---- -------<br>--- --- -- ----- -- you ---- -- --- ---- -- ------ ------<br>--- ----- -- ----,65980.30000007153,65979.20000004768,65600.714,65612.30000007153,65617.38,65984.032,,44,you
screen,html.Screen,0_2_0_1_45,2021-11-26T12:00:09.964Z,,,,,,,,,,,,,,,,53,,,,,,,,,,,,,,347.06800002383534,,response,,,99,,,,,,Space,keypress(Space),,,,,---- -- ----- -- ------ - ------- --- ----------<br>------------- ------ ------ ---- ---- ------- ----- -- ----<br>-------- ------- -- ---------- --- - --- ----- ----- ----<br>---- --- --- ----- --- ---- ---- ------- ----- ---- -------<br>--- --- -- ----- -- --- want -- --- ---- -- ------ ------<br>--- ----- -- ----,66332,66331.10000002384,65967.366,65980.5,65984.032,66334.018,,45,want
screen,html.Screen,0_2_0_1_46,2021-11-26T12:00:10.324Z,,,,,,,,,,,,,,,,53,,,,,,,,,,,,,,357.1820000476873,,response,,,99,,,,,,Space,keypress(Space),,,,,---- -- ----- -- ------ - ------- --- ----------<br>------------- ------ ------ ---- ---- ------- ----- -- ----<br>-------- ------- -- ---------- --- - --- ----- ----- ----<br>---- --- --- ----- --- ---- ---- ------- ----- ---- -------<br>--- --- -- ----- -- --- ---- to --- ---- -- ------ ------<br>--- ----- -- ----,66691.89999997616,66691.20000004768,66317.352,66332.20000004768,66334.018,66700.67,,46,to
screen,html.Screen,0_2_0_1_47,2021-11-26T12:00:10.700Z,,,,,,,,,,,,,,,,53,,,,,,,,,,,,,,366.4300000238436,,response,,,99,,,,,,Space,keypress(Space),,,,,"---- -- ----- -- ------ - ------- --- ----------<br>------------- ------ ------ ---- ---- ------- ----- -- ----<br>-------- ------- -- ---------- --- - --- ----- ----- ----<br>---- --- --- ----- --- ---- ---- ------- ----- ---- -------<br>--- --- -- ----- -- --- ---- -- be, ---- -- ------ ------<br>--- ----- -- ----",67067.89999997616,67067.10000002384,66684.004,66692.10000002384,66700.67,67083.988,,47,"be,"
screen,html.Screen,0_2_0_1_48,2021-11-26T12:00:11.172Z,,,,,,,,,,,,,,,,53,,,,,,,,,,,,,,455.1120000238443,,response,,,99,,,,,,Space,keypress(Space),,,,,---- -- ----- -- ------ - ------- --- ----------<br>------------- ------ ------ ---- ---- ------- ----- -- ----<br>-------- ------- -- ---------- --- - --- ----- ----- ----<br>---- --- --- ----- --- ---- ---- ------- ----- ---- -------<br>--- --- -- ----- -- --- ---- -- --- even -- ------ ------<br>--- ----- -- ----,67539.89999997616,67539.10000002384,67067.322,67068.20000004768,67083.988,67550.636,,48,even
screen,html.Screen,0_2_0_1_49,2021-11-26T12:00:11.516Z,,,,,,,,,,,,,,,,53,,,,,,,,,,,,,,332.3640000000014,,response,,,99,,,,,,Space,keypress(Space),,,,,---- -- ----- -- ------ - ------- --- ----------<br>------------- ------ ------ ---- ---- ------- ----- -- ----<br>-------- ------- -- ---------- --- - --- ----- ----- ----<br>---- --- --- ----- --- ---- ---- ------- ----- ---- -------<br>--- --- -- ----- -- --- ---- -- --- ---- if ------ ------<br>--- ----- -- ----,67883.80000007153,67883,67533.97,67540.10000002384,67550.636,67900.622,,49,if
screen,html.Screen,0_2_0_1_50,2021-11-26T12:00:11.932Z,,,,,,,,,,,,,,,,53,,,,,,,,,,,,,,398.377999999997,,response,,,99,,,,,,Space,keypress(Space),,,,,---- -- ----- -- ------ - ------- --- ----------<br>------------- ------ ------ ---- ---- ------- ----- -- ----<br>-------- ------- -- ---------- --- - --- ----- ----- ----<br>---- --- --- ----- --- ---- ---- ------- ----- ---- -------<br>--- --- -- ----- -- --- ---- -- --- ---- -- that's ------<br>--- ----- -- ----,68299.80000007153,68299,67883.956,67884.10000002384,67900.622,68317.272,,50,that's
screen,html.Screen,0_2_0_1_51,2021-11-26T12:00:12.356Z,,,,,,,,,,,,,,,,53,,,,,,,,,,,,,,405.7280000000028,,response,,,99,,,,,,Space,keypress(Space),,,,,---- -- ----- -- ------ - ------- --- ----------<br>------------- ------ ------ ---- ---- ------- ----- -- ----<br>-------- ------- -- ---------- --- - --- ----- ----- ----<br>---- --- --- ----- --- ---- ---- ------- ----- ---- -------<br>--- --- -- ----- -- --- ---- -- --- ---- -- ------ really<br>--- ----- -- ----,68723.80000007153,68723,68300.606,68300,68317.272,68733.922,,51,really
screen,html.Screen,0_2_0_1_52,2021-11-26T12:00:12.923Z,,,,,,,,,,,,,,,,53,,,,,,,,,,,,,,557.0779999999941,,response,,,99,,,,,,Space,keypress(Space),,,,,---- -- ----- -- ------ - ------- --- ----------<br>------------- ------ ------ ---- ---- ------- ----- -- ----<br>-------- ------- -- ---------- --- - --- ----- ----- ----<br>---- --- --- ----- --- ---- ---- ------- ----- ---- -------<br>--- --- -- ----- -- --- ---- -- --- ---- -- ------ ------<br>not ----- -- ----,69291.80000007153,69291,68717.256,68724,68733.922,69300.566,,52,not
screen,html.Screen,0_2_0_1_53,2021-11-26T12:00:13.243Z,,,,,,,,,,,,,,,,53,,,,,,,,,,,,,,310.333999976152,,response,,,99,,,,,,Space,keypress(Space),,,,,---- -- ----- -- ------ - ------- --- ----------<br>------------- ------ ------ ---- ---- ------- ----- -- ----<br>-------- ------- -- ---------- --- - --- ----- ----- ----<br>---- --- --- ----- --- ---- ---- ------- ----- ---- -------<br>--- --- -- ----- -- --- ---- -- --- ---- -- ------ ------<br>--- close -- ----,69611.80000007153,69610.89999997616,69283.9,69292,69300.566,69617.22,,53,close
screen,html.Screen,0_2_0_1_54,2021-11-26T12:00:13.659Z,,,,,,,,,,,,,,,,53,,,,,,,,,,,,,,409.5800000715244,,response,,,99,,,,,,Space,keypress(Space),,,,,---- -- ----- -- ------ - ------- --- ----------<br>------------- ------ ------ ---- ---- ------- ----- -- ----<br>-------- ------- -- ---------- --- - --- ----- ----- ----<br>---- --- --- ----- --- ---- ---- ------- ----- ---- -------<br>--- --- -- ----- -- --- ---- -- --- ---- -- ------ ------<br>--- ----- at ----,70027.60000002384,70026.80000007153,69600.554,69612,69617.22,70033.87,,54,at
screen,html.Screen,0_2_0_1_55,2021-11-26T12:00:14.067Z,,,,,,,,,,,,,,,,53,,,,,,,,,,,,,,401.0299999761628,,response,,,99,,,,,,Space,keypress(Space),,,,,---- -- ----- -- ------ - ------- --- ----------<br>------------- ------ ------ ---- ---- ------- ----- -- ----<br>-------- ------- -- ---------- --- - --- ----- ----- ----<br>---- --- --- ----- --- ---- ---- ------- ----- ---- -------<br>--- --- -- ----- -- --- ---- -- --- ---- -- ------ ------<br>--- ----- -- all.,70435.70000004768,70434.89999997616,70017.204,70027.89999997616,70033.87,70450.52,,55,all.
Item 99,flow.Loop,0_2_0_1,2021-11-26T12:00:14.072Z,,,,,,,,,,,,,,,,,,,,,,,,,,,,,,27999.925999976156,,completion,,,,D,,,,,,,,,,silence,,70440.30000007153,70434.89999997616,42418.308,42424.89999997616,42434.974,70450.52,,,
Question 1,html.Screen,0_2_0_2,2021-11-26T12:00:18.536Z,,,,,,,,,,,,,,,,,,,,,,,,,,,true,FALSE,,4452.080000023838,,response,,,99,D,,,,,FALSE,click #choice-2,,,,silence,,74903.89999997616,74902.60000002384,70433.854,70440.5,70450.52,74933.674,,,
Question 2,html.Screen,0_2_0_3,2021-11-26T12:00:29.711Z,,,,,,,,,,,,,,,,,,,,,,,,,,,true,TRUE,,11144.225999976159,,response,,,99,D,,,,,TRUE,click #choice-1,,,,silence,,86079.10000002384,86077.89999997616,74917.008,74904.30000007153,74933.674,86099.894,,,
Item 99,flow.Sequence,0_2_0,2021-11-26T12:00:29.711Z,,,,,,,,,,,,,,,,,,,,,,,,,,,,,,53642.52599997616,,completion,,,,,,,,,,,,,,,,86079.60000002384,86077.89999997616,32418.708,32427.5,32435.374,86099.894,,,
Holding screen,html.Screen,0_2_1_0,2021-11-26T12:00:39.716Z,,,,,,,,,,,,,,,,,,,,,,,,,,,,,,9999.600000000006,,timeout,,,,,,,,,,,,,,,,96084.30000007153,96082.828,86066.562,86080.10000002384,86099.894,96099.494,,,
screen,html.Screen,0_2_1_1_0,2021-11-26T12:00:40.586Z,,,,,,,,,,,,,,,,54,,,,,,,,,,,,,,854.1060000238358,,response,,,100,,,,,,Space,keypress(Space),,,,,At --- ---- --- ------ ----- ------- ---- -- --- ------- --<br>------- ---------- ------ -- ----- -- ----- -- ---- ------<br>--- ----- --- --- ------ -------- ----- --- ------ ----- --<br>----- ----- ---------- --- --- ------ ------ ---- -- ------<br>------- --- ------ ----- --- ---- ------- -- ---- --- --<br>------- ------,96954.60000002384,96953.60000002384,96082.828,96084.80000007153,96099.494,96966.126,,0,At
screen,html.Screen,0_2_1_1_1,2021-11-26T12:00:41.018Z,,,,,,,,,,,,,,,,54,,,,,,,,,,,,,,418.974000023838,,response,,,100,,,,,,Space,keypress(Space),,,,,-- the ---- --- ------ ----- ------- ---- -- --- ------- --<br>------- ---------- ------ -- ----- -- ----- -- ---- ------<br>--- ----- --- --- ------ -------- ----- --- ------ ----- --<br>----- ----- ---------- --- --- ------ ------ ---- -- ------<br>------- --- ------ ----- --- ---- ------- -- ---- --- --<br>------- ------,97385.89999997616,97385.10000002384,96949.46,96954.80000007153,96966.126,97399.442,,1,the
screen,html.Screen,0_2_1_1_2,2021-11-26T12:00:41.378Z,,,,,,,,,,,,,,,,54,,,,,,,,,,,,,,345.6580000238464,,response,,,100,,,,,,Space,keypress(Space),,,,,-- --- time --- ------ ----- ------- ---- -- --- ------- --<br>------- ---------- ------ -- ----- -- ----- -- ---- ------<br>--- ----- --- --- ------ -------- ----- --- ------ ----- --<br>----- ----- ---------- --- --- ------ ------ ---- -- ------<br>------- --- ------ ----- --- ---- ------- -- ---- --- --<br>------- ------,97746,97745.10000002384,97382.776,97386.10000002384,97399.442,97749.428,,2,time
screen,html.Screen,0_2_1_1_3,2021-11-26T12:00:41.754Z,,,,,,,,,,,,,,,,54,,,,,,,,,,,,,,371.672000023842,,response,,,100,,,,,,Space,keypress(Space),,,,,-- --- ---- the ------ ----- ------- ---- -- --- ------- --<br>------- ---------- ------ -- ----- -- ----- -- ---- ------<br>--- ----- --- --- ------ -------- ----- --- ------ ----- --<br>----- ----- ---------- --- --- ------ ------ ---- -- ------<br>------- --- ------ ----- --- ---- ------- -- ---- --- --<br>------- ------,98121.89999997616,98121.10000002384,97732.762,97746.20000004768,97749.428,98132.746,,3,the
screen,html.Screen,0_2_1_1_4,2021-11-26T12:00:42.178Z,,,,,,,,,,,,,,,,54,,,,,,,,,,,,,,412.2540000000008,,response,,,100,,,,,,Space,keypress(Space),,,,,-- --- ---- --- French ----- ------- ---- -- --- ------- --<br>------- ---------- ------ -- ----- -- ----- -- ---- ------<br>--- ----- --- --- ------ -------- ----- --- ------ ----- --<br>----- ----- ---------- --- --- ------ ------ ---- -- ------<br>------- --- ------ ----- --- ---- ------- -- ---- --- --<br>------- ------,98545.89999997616,98545,98116.08,98122.10000002384,98132.746,98549.396,,4,French
screen,html.Screen,0_2_1_1_5,2021-11-26T12:00:42.554Z,,,,,,,,,,,,,,,,54,,,,,,,,,,,,,,371.7040000238485,,response,,,100,,,,,,Space,keypress(Space),,,,,-- --- ---- --- ------ crown ------- ---- -- --- ------- --<br>------- ---------- ------ -- ----- -- ----- -- ---- ------<br>--- ----- --- --- ------ -------- ----- --- ------ ----- --<br>----- ----- ---------- --- --- ------ ------ ---- -- ------<br>------- --- ------ ----- --- ---- ------- -- ---- --- --<br>------- ------,98921.80000007153,98921.10000002384,98532.73,98546.10000002384,98549.396,98932.714,,5,crown
screen,html.Screen,0_2_1_1_6,2021-11-26T12:00:42.954Z,,,,,,,,,,,,,,,,54,,,,,,,,,,,,,,388.2859999999928,,response,,,100,,,,,,Space,keypress(Space),,,,,-- --- ---- --- ------ ----- secured ---- -- --- ------- --<br>------- ---------- ------ -- ----- -- ----- -- ---- ------<br>--- ----- --- --- ------ -------- ----- --- ------ ----- --<br>----- ----- ---------- --- --- ------ ------ ---- -- ------<br>------- --- ------ ----- --- ---- ------- -- ---- --- --<br>------- ------,99321.80000007153,99321,98916.048,98922,98932.714,99332.698,,6,secured
screen,html.Screen,0_2_1_1_7,2021-11-26T12:00:44.098Z,,,,,,,,,,,,,,,,54,,,,,,,,,,,,,,1132.301999999996,,response,,,100,,,,,,Space,keypress(Space),,,,,-- --- ---- --- ------ ----- ------- much -- --- ------- --<br>------- ---------- ------ -- ----- -- ----- -- ---- ------<br>--- ----- --- --- ------ -------- ----- --- ------ ----- --<br>----- ----- ---------- --- --- ------ ------ ---- -- ------<br>------- --- ------ ----- --- ---- ------- -- ---- --- --<br>------- ------,100465.80000007153,100465,99316.032,99322.10000002384,99332.698,100482.652,,7,much
screen,html.Screen,0_2_1_1_8,2021-11-26T12:00:44.537Z,,,,,,,,,,,,,,,,54,,,,,,,,,,,,,,422.2479999761563,,response,,,100,,,,,,Space,keypress(Space),,,,,-- --- ---- --- ------ ----- ------- ---- of --- ------- --<br>------- ---------- ------ -- ----- -- ----- -- ---- ------<br>--- ----- --- --- ------ -------- ----- --- ------ ----- --<br>----- ----- ---------- --- --- ------ ------ ---- -- ------<br>------- --- ------ ----- --- ---- ------- -- ---- --- --<br>------- ------,100905.70000004768,100904.89999997616,100465.986,100466,100482.652,100915.968,,8,of
screen,html.Screen,0_2_1_1_9,2021-11-26T12:00:44.817Z,,,,,,,,,,,,,,,,54,,,,,,,,,,,,,,268.93199997616466,,response,,,100,,,,,,Space,keypress(Space),,,,,-- --- ---- --- ------ ----- ------- ---- -- its ------- --<br>------- ---------- ------ -- ----- -- ----- -- ---- ------<br>--- ----- --- --- ------ -------- ----- --- ------ ----- --<br>----- ----- ---------- --- --- ------ ------ ---- -- ------<br>------- --- ------ ----- --- ---- ------- -- ---- --- --<br>------- ------,101185.70000004768,101184.89999997616,100899.302,100906,100915.968,101199.29,,9,its
screen,html.Screen,0_2_1_1_10,2021-11-26T12:00:45.273Z,,,,,,,,,,,,,,,,54,,,,,,,,,,,,,,441.60999997616454,,response,,,100,,,,,,Space,keypress(Space),,,,,-- --- ---- --- ------ ----- ------- ---- -- --- revenue --<br>------- ---------- ------ -- ----- -- ----- -- ---- ------<br>--- ----- --- --- ------ -------- ----- --- ------ ----- --<br>----- ----- ---------- --- --- ------ ------ ---- -- ------<br>------- --- ------ ----- --- ---- ------- -- ---- --- --<br>------- ------,101641.70000004768,101640.89999997616,101182.624,101186,101199.29,101649.272,,10,revenue
screen,html.Screen,0_2_1_1_11,2021-11-26T12:00:45.641Z,,,,,,,,,,,,,,,,54,,,,,,,,,,,,,,359.52800007152837,,response,,,100,,,,,,Space,keypress(Space),,,,,-- --- ---- --- ------ ----- ------- ---- -- --- ------- by<br>------- ---------- ------ -- ----- -- ----- -- ---- ------<br>--- ----- --- --- ------ -------- ----- --- ------ ----- --<br>----- ----- ---------- --- --- ------ ------ ---- -- ------<br>------- --- ------ ----- --- ---- ------- -- ---- --- --<br>------- ------,102009.70000004768,102008.80000007153,101632.606,101642,101649.272,102015.924,,11,by
screen,html.Screen,0_2_1_1_12,2021-11-26T12:00:46.113Z,,,,,,,,,,,,,,,,54,,,,,,,,,,,,,,464.8760000715265,,response,,,100,,,,,,Space,keypress(Space),,,,,-- --- ---- --- ------ ----- ------- ---- -- --- ------- --<br>issuing ---------- ------ -- ----- -- ----- -- ---- ------<br>--- ----- --- --- ------ -------- ----- --- ------ ----- --<br>----- ----- ---------- --- --- ------ ------ ---- -- ------<br>------- --- ------ ----- --- ---- ------- -- ---- --- --<br>------- ------,102481.60000002384,102480.80000007153,101999.258,102010,102015.924,102499.238,,12,issuing
screen,html.Screen,0_2_1_1_13,2021-11-26T12:00:46.537Z,,,,,,,,,,,,,,,,54,,,,,,,,,,,,,,405.562000071528,,response,,,100,,,,,,Space,keypress(Space),,,,,-- --- ---- --- ------ ----- ------- ---- -- --- ------- --<br>------- government ------ -- ----- -- ----- -- ---- ------<br>--- ----- --- --- ------ -------- ----- --- ------ ----- --<br>----- ----- ---------- --- --- ------ ------ ---- -- ------<br>------- --- ------ ----- --- ---- ------- -- ---- --- --<br>------- ------,102905.60000002384,102904.80000007153,102482.572,102481.89999997616,102499.238,102915.888,,13,government
screen,html.Screen,0_2_1_1_14,2021-11-26T12:00:47.657Z,,,,,,,,,,,,,,,,54,,,,,,,,,,,,,,1108.9120000715193,,response,,,100,,,,,,Space,keypress(Space),,,,,-- --- ---- --- ------ ----- ------- ---- -- --- ------- --<br>------- ---------- bonds. -- ----- -- ----- -- ---- ------<br>--- ----- --- --- ------ -------- ----- --- ------ ----- --<br>----- ----- ---------- --- --- ------ ------ ---- -- ------<br>------- --- ------ ----- --- ---- ------- -- ---- --- --<br>------- ------,104025.5,104024.80000007153,102899.222,102905.80000007153,102915.888,104032.51,,14,bonds.
screen,html.Screen,0_2_1_1_15,2021-11-26T12:00:48.257Z,,,,,,,,,,,,,,,,54,,,,,,,,,,,,,,592.2900000715308,,response,,,100,,,,,,Space,keypress(Space),,,,,-- --- ---- --- ------ ----- ------- ---- -- --- ------- --<br>------- ---------- ------ In ----- -- ----- -- ---- ------<br>--- ----- --- --- ------ -------- ----- --- ------ ----- --<br>----- ----- ---------- --- --- ------ ------ ---- -- ------<br>------- --- ------ ----- --- ---- ------- -- ---- --- --<br>------- ------,104625.5,104624.80000007153,104015.844,104025.80000007153,104032.51,104632.486,,15,In
screen,html.Screen,0_2_1_1_16,2021-11-26T12:00:49.641Z,,,,,,,,,,,,,,,,54,,,,,,,,,,,,,,1376.2140000476793,,response,,,100,,,,,,Space,keypress(Space),,,,,"-- --- ---- --- ------ ----- ------- ---- -- --- ------- --<br>------- ---------- ------ -- 1727, -- ----- -- ---- ------<br>--- ----- --- --- ------ -------- ----- --- ------ ----- --<br>----- ----- ---------- --- --- ------ ------ ---- -- ------<br>------- --- ------ ----- --- ---- ------- -- ---- --- --<br>------- ------",106009.5,106008.70000004768,104615.82,104625.70000004768,104632.486,106015.764,,16,"1727,"
screen,html.Screen,0_2_1_1_17,2021-11-26T12:00:51.049Z,,,,,,,,,,,,,,,,54,,,,,,,,,,,,,,1401.1359999761626,,response,,,100,,,,,,Space,keypress(Space),,,,,-- --- ---- --- ------ ----- ------- ---- -- --- ------- --<br>------- ---------- ------ -- ----- in ----- -- ---- ------<br>--- ----- --- --- ------ -------- ----- --- ------ ----- --<br>----- ----- ---------- --- --- ------ ------ ---- -- ------<br>------- --- ------ ----- --- ---- ------- -- ---- --- --<br>------- ------,107417.70000004768,107416.89999997616,105999.098,106009.70000004768,106015.764,107432.374,,17,in
screen,html.Screen,0_2_1_1_18,2021-11-26T12:00:51.545Z,,,,,,,,,,,,,,,,54,,,,,,,,,,,,,,480.12600000000384,,response,,,100,,,,,,Space,keypress(Space),,,,,-- --- ---- --- ------ ----- ------- ---- -- --- ------- --<br>------- ---------- ------ -- ----- -- order -- ---- ------<br>--- ----- --- --- ------ -------- ----- --- ------ ----- --<br>----- ----- ---------- --- --- ------ ------ ---- -- ------<br>------- --- ------ ----- --- ---- ------- -- ---- --- --<br>------- ------,107913.30000007153,107912.5,107415.708,107417.89999997616,107432.374,107915.688,,18,order
screen,html.Screen,0_2_1_1_19,2021-11-26T12:00:52.001Z,,,,,,,,,,,,,,,,54,,,,,,,,,,,,,,452.81200000000536,,response,,,100,,,,,,Space,keypress(Space),,,,,-- --- ---- --- ------ ----- ------- ---- -- --- ------- --<br>------- ---------- ------ -- ----- -- ----- to ---- ------<br>--- ----- --- --- ------ -------- ----- --- ------ ----- --<br>----- ----- ---------- --- --- ------ ------ ---- -- ------<br>------- --- ------ ----- --- ---- ------- -- ---- --- --<br>------- ------,108369.30000007153,108368.5,107899.022,107913.5,107915.688,108382.336,,19,to
screen,html.Screen,0_2_1_1_20,2021-11-26T12:00:52.401Z,,,,,,,,,,,,,,,,54,,,,,,,,,,,,,,386.06399997616245,,response,,,100,,,,,,Space,keypress(Space),,,,,-- --- ---- --- ------ ----- ------- ---- -- --- ------- --<br>------- ---------- ------ -- ----- -- ----- -- save ------<br>--- ----- --- --- ------ -------- ----- --- ------ ----- --<br>----- ----- ---------- --- --- ------ ------ ---- -- ------<br>------- --- ------ ----- --- ---- ------- -- ---- --- --<br>------- ------,108769.30000007153,108768.39999997616,108365.67,108369.5,108382.336,108782.32,,20,save
screen,html.Screen,0_2_1_1_21,2021-11-26T12:00:52.801Z,,,,,,,,,,,,,,,,54,,,,,,,,,,,,,,386.179999999993,,response,,,100,,,,,,Space,keypress(Space),,,,,"-- --- ---- --- ------ ----- ------- ---- -- --- ------- --<br>------- ---------- ------ -- ----- -- ----- -- ---- money,<br>--- ----- --- --- ------ -------- ----- --- ------ ----- --<br>----- ----- ---------- --- --- ------ ------ ---- -- ------<br>------- --- ------ ----- --- ---- ------- -- ---- --- --<br>------- ------",109169.20000004768,109168.5,108765.654,108769.5,108782.32,109182.304,,21,"money,"
screen,html.Screen,0_2_1_1_22,2021-11-26T12:00:53.281Z,,,,,,,,,,,,,,,,54,,,,,,,,,,,,,,466.0959999761544,,response,,,100,,,,,,Space,keypress(Space),,,,,-- --- ---- --- ------ ----- ------- ---- -- --- ------- --<br>------- ---------- ------ -- ----- -- ----- -- ---- ------<br>the ----- --- --- ------ -------- ----- --- ------ ----- --<br>----- ----- ---------- --- --- ------ ------ ---- -- ------<br>------- --- ------ ----- --- ---- ------- -- ---- --- --<br>------- ------,109649.20000004768,109648.39999997616,109165.638,109169.5,109182.304,109665.618,,22,the
screen,html.Screen,0_2_1_1_23,2021-11-26T12:00:53.673Z,,,,,,,,,,,,,,,,54,,,,,,,,,,,,,,374.78199997615593,,response,,,100,,,,,,Space,keypress(Space),,,,,-- --- ---- --- ------ ----- ------- ---- -- --- ------- --<br>------- ---------- ------ -- ----- -- ----- -- ---- ------<br>--- state --- --- ------ -------- ----- --- ------ ----- --<br>----- ----- ---------- --- --- ------ ------ ---- -- ------<br>------- --- ------ ----- --- ---- ------- -- ---- --- --<br>------- ------,110041.10000002384,110040.39999997616,109648.952,109649.39999997616,109665.618,110048.936,,23,state
screen,html.Screen,0_2_1_1_24,2021-11-26T12:00:54.161Z,,,,,,,,,,,,,,,,54,,,,,,,,,,,,,,479.46399997615663,,response,,,100,,,,,,Space,keypress(Space),,,,,-- --- ---- --- ------ ----- ------- ---- -- --- ------- --<br>------- ---------- ------ -- ----- -- ----- -- ---- ------<br>--- ----- cut --- ------ -------- ----- --- ------ ----- --<br>----- ----- ---------- --- --- ------ ------ ---- -- ------<br>------- --- ------ ----- --- ---- ------- -- ---- --- --<br>------- ------,110529.10000002384,110528.39999997616,110032.27,110041.39999997616,110048.936,110532.25,,24,cut
screen,html.Screen,0_2_1_1_25,2021-11-26T12:00:54.553Z,,,,,,,,,,,,,,,,54,,,,,,,,,,,,,,388.0500000715256,,response,,,100,,,,,,Space,keypress(Space),,,,,-- --- ---- --- ------ ----- ------- ---- -- --- ------- --<br>------- ---------- ------ -- ----- -- ----- -- ---- ------<br>--- ----- --- the ------ -------- ----- --- ------ ----- --<br>----- ----- ---------- --- --- ------ ------ ---- -- ------<br>------- --- ------ ----- --- ---- ------- -- ---- --- --<br>------- ------,110921,110920.30000007153,110515.584,110529.30000007153,110532.25,110932.234,,25,the
screen,html.Screen,0_2_1_1_26,2021-11-26T12:00:54.993Z,,,,,,,,,,,,,,,,54,,,,,,,,,,,,,,428.06600007152883,,response,,,100,,,,,,Space,keypress(Space),,,,,-- --- ---- --- ------ ----- ------- ---- -- --- ------- --<br>------- ---------- ------ -- ----- -- ----- -- ---- ------<br>--- ----- --- --- bonds' -------- ----- --- ------ ----- --<br>----- ----- ---------- --- --- ------ ------ ---- -- ------<br>------- --- ------ ----- --- ---- ------- -- ---- --- --<br>------- ------,111361.10000002384,111360.30000007153,110915.568,110921.30000007153,110932.234,111365.55,,26,bonds'
screen,html.Screen,0_2_1_1_27,2021-11-26T12:00:55.545Z,,,,,,,,,,,,,,,,54,,,,,,,,,,,,,,546.6500000476808,,response,,,100,,,,,,Space,keypress(Space),,,,,-- --- ---- --- ------ ----- ------- ---- -- --- ------- --<br>------- ---------- ------ -- ----- -- ----- -- ---- ------<br>--- ----- --- --- ------ interest ----- --- ------ ----- --<br>----- ----- ---------- --- --- ------ ------ ---- -- ------<br>------- --- ------ ----- --- ---- ------- -- ---- --- --<br>------- ------,111913.10000002384,111912.20000004768,111348.884,111361.39999997616,111365.55,111915.528,,27,interest
screen,html.Screen,0_2_1_1_28,2021-11-26T12:00:56.145Z,,,,,,,,,,,,,,,,54,,,,,,,,,,,,,,596.672000047678,,response,,,100,,,,,,Space,keypress(Space),,,,,-- --- ---- --- ------ ----- ------- ---- -- --- ------- --<br>------- ---------- ------ -- ----- -- ----- -- ---- ------<br>--- ----- --- --- ------ -------- rate. --- ------ ----- --<br>----- ----- ---------- --- --- ------ ------ ---- -- ------<br>------- --- ------ ----- --- ---- ------- -- ---- --- --<br>------- ------,112513,112512.20000004768,111898.862,111913.39999997616,111915.528,112515.504,,28,rate.
screen,html.Screen,0_2_1_1_29,2021-11-26T12:00:56.705Z,,,,,,,,,,,,,,,,54,,,,,,,,,,,,,,556.596000023841,,response,,,100,,,,,,Space,keypress(Space),,,,,-- --- ---- --- ------ ----- ------- ---- -- --- ------- --<br>------- ---------- ------ -- ----- -- ----- -- ---- ------<br>--- ----- --- --- ------ -------- ----- The ------ ----- --<br>----- ----- ---------- --- --- ------ ------ ---- -- ------<br>------- --- ------ ----- --- ---- ------- -- ---- --- --<br>------- ------,113073,113072.10000002384,112498.838,112513.20000004768,112515.504,113082.148,,29,The
screen,html.Screen,0_2_1_1_30,2021-11-26T12:00:57.185Z,,,,,,,,,,,,,,,,54,,,,,,,,,,,,,,470.05200004768267,,response,,,100,,,,,,Space,keypress(Space),,,,,-- --- ---- --- ------ ----- ------- ---- -- --- ------- --<br>------- ---------- ------ -- ----- -- ----- -- ---- ------<br>--- ----- --- --- ------ -------- ----- --- market ----- --<br>----- ----- ---------- --- --- ------ ------ ---- -- ------<br>------- --- ------ ----- --- ---- ------- -- ---- --- --<br>------- ------,113553,113552.20000004768,113065.482,113073.20000004768,113082.148,113565.462,,30,market
screen,html.Screen,0_2_1_1_31,2021-11-26T12:00:57.617Z,,,,,,,,,,,,,,,,54,,,,,,,,,,,,,,418.53800000000047,,response,,,100,,,,,,Space,keypress(Space),,,,,-- --- ---- --- ------ ----- ------- ---- -- --- ------- --<br>------- ---------- ------ -- ----- -- ----- -- ---- ------<br>--- ----- --- --- ------ -------- ----- --- ------ value --<br>----- ----- ---------- --- --- ------ ------ ---- -- ------<br>------- --- ------ ----- --- ---- ------- -- ---- --- --<br>------- ------,113984.80000007153,113984,113548.796,113553.20000004768,113565.462,113998.778,,31,value
screen,html.Screen,0_2_1_1_32,2021-11-26T12:00:58.041Z,,,,,,,,,,,,,,,,54,,,,,,,,,,,,,,409.32200002383615,,response,,,100,,,,,,Space,keypress(Space),,,,,-- --- ---- --- ------ ----- ------- ---- -- --- ------- --<br>------- ---------- ------ -- ----- -- ----- -- ---- ------<br>--- ----- --- --- ------ -------- ----- --- ------ ----- of<br>----- ----- ---------- --- --- ------ ------ ---- -- ------<br>------- --- ------ ----- --- ---- ------- -- ---- --- --<br>------- ------,114408.89999997616,114408.10000002384,113982.112,113985.10000002384,113998.778,114415.428,,32,of
screen,html.Screen,0_2_1_1_33,2021-11-26T12:00:58.489Z,,,,,,,,,,,,,,,,54,,,,,,,,,,,,,,440.5720000000001,,response,,,100,,,,,,Space,keypress(Space),,,,,-- --- ---- --- ------ ----- ------- ---- -- --- ------- --<br>------- ---------- ------ -- ----- -- ----- -- ---- ------<br>--- ----- --- --- ------ -------- ----- --- ------ ----- --<br>these ----- ---------- --- --- ------ ------ ---- -- ------<br>------- --- ------ ----- --- ---- ------- -- ---- --- --<br>------- ------,114856.89999997616,114856,114398.762,114409.10000002384,114415.428,114865.41,,33,these
screen,html.Screen,0_2_1_1_34,2021-11-26T12:00:58.929Z,,,,,,,,,,,,,,,,54,,,,,,,,,,,,,,430.5899999999965,,response,,,100,,,,,,Space,keypress(Space),,,,,-- --- ---- --- ------ ----- ------- ---- -- --- ------- --<br>------- ---------- ------ -- ----- -- ----- -- ---- ------<br>--- ----- --- --- ------ -------- ----- --- ------ ----- --<br>----- bonds ---------- --- --- ------ ------ ---- -- ------<br>------- --- ------ ----- --- ---- ------- -- ---- --- --<br>------- ------,115296.89999997616,115296,114848.744,114857.10000002384,114865.41,115298.726,,34,bonds
screen,html.Screen,0_2_1_1_35,2021-11-26T12:00:59.617Z,,,,,,,,,,,,,,,,54,,,,,,,,,,,,,,685.2740000000049,,response,,,100,,,,,,Space,keypress(Space),,,,,"-- --- ---- --- ------ ----- ------- ---- -- --- ------- --<br>------- ---------- ------ -- ----- -- ----- -- ---- ------<br>--- ----- --- --- ------ -------- ----- --- ------ ----- --<br>----- ----- plummeted, --- --- ------ ------ ---- -- ------<br>------- --- ------ ----- --- ---- ------- -- ---- --- --<br>------- ------",115984.80000007153,115984,115282.06,115297.10000002384,115298.726,115998.698,,35,"plummeted,"
screen,html.Screen,0_2_1_1_36,2021-11-26T12:01:00.240Z,,,,,,,,,,,,,,,,54,,,,,,,,,,,,,,609.2019999761542,,response,,,100,,,,,,Space,keypress(Space),,,,,-- --- ---- --- ------ ----- ------- ---- -- --- ------- --<br>------- ---------- ------ -- ----- -- ----- -- ---- ------<br>--- ----- --- --- ------ -------- ----- --- ------ ----- --<br>----- ----- ---------- and --- ------ ------ ---- -- ------<br>------- --- ------ ----- --- ---- ------- -- ---- --- --<br>------- ------,116608.70000004768,116607.89999997616,115982.032,115985,115998.698,116615.34,,36,and
screen,html.Screen,0_2_1_1_37,2021-11-26T12:01:00.672Z,,,,,,,,,,,,,,,,54,,,,,,,,,,,,,,424.46000007152907,,response,,,100,,,,,,Space,keypress(Space),,,,,-- --- ---- --- ------ ----- ------- ---- -- --- ------- --<br>------- ---------- ------ -- ----- -- ----- -- ---- ------<br>--- ----- --- --- ------ -------- ----- --- ------ ----- --<br>----- ----- ---------- --- the ------ ------ ---- -- ------<br>------- --- ------ ----- --- ---- ------- -- ---- --- --<br>------- ------,117040.70000004768,117039.80000007153,116598.674,116609,116615.34,117048.656,,37,the
screen,html.Screen,0_2_1_1_38,2021-11-26T12:01:00.968Z,,,,,,,,,,,,,,,,54,,,,,,,,,,,,,,287.24399997615546,,response,,,100,,,,,,Space,keypress(Space),,,,,-- --- ---- --- ------ ----- ------- ---- -- --- ------- --<br>------- ---------- ------ -- ----- -- ----- -- ---- ------<br>--- ----- --- --- ------ -------- ----- --- ------ ----- --<br>----- ----- ---------- --- --- market ------ ---- -- ------<br>------- --- ------ ----- --- ---- ------- -- ---- --- --<br>------- ------,117336.70000004768,117335.89999997616,117031.99,117040.89999997616,117048.656,117348.644,,38,market
screen,html.Screen,0_2_1_1_39,2021-11-26T12:01:01.625Z,,,,,,,,,,,,,,,,54,,,,,,,,,,,,,,643.5560000476835,,response,,,100,,,,,,Space,keypress(Space),,,,,-- --- ---- --- ------ ----- ------- ---- -- --- ------- --<br>------- ---------- ------ -- ----- -- ----- -- ---- ------<br>--- ----- --- --- ------ -------- ----- --- ------ ----- --<br>----- ----- ---------- --- --- ------ became ---- -- ------<br>------- --- ------ ----- --- ---- ------- -- ---- --- --<br>------- ------,117993,117992.20000004768,117331.978,117336.89999997616,117348.644,117998.618,,39,became
screen,html.Screen,0_2_1_1_40,2021-11-26T12:01:02.032Z,,,,,,,,,,,,,,,,54,,,,,,,,,,,,,,401.18200007152336,,response,,,100,,,,,,Space,keypress(Space),,,,,-- --- ---- --- ------ ----- ------- ---- -- --- ------- --<br>------- ---------- ------ -- ----- -- ----- -- ---- ------<br>--- ----- --- --- ------ -------- ----- --- ------ ----- --<br>----- ----- ---------- --- --- ------ ------ wary -- ------<br>------- --- ------ ----- --- ---- ------- -- ---- --- --<br>------- ------,118400.70000004768,118399.80000007153,117981.952,117993.20000004768,117998.618,118415.268,,40,wary
screen,html.Screen,0_2_1_1_41,2021-11-26T12:01:02.576Z,,,,,,,,,,,,,,,,54,,,,,,,,,,,,,,528.6319999761618,,response,,,100,,,,,,Space,keypress(Space),,,,,-- --- ---- --- ------ ----- ------- ---- -- --- ------- --<br>------- ---------- ------ -- ----- -- ----- -- ---- ------<br>--- ----- --- --- ------ -------- ----- --- ------ ----- --<br>----- ----- ---------- --- --- ------ ------ ---- of ------<br>------- --- ------ ----- --- ---- ------- -- ---- --- --<br>------- ------,118944.60000002384,118943.89999997616,118398.602,118400.89999997616,118415.268,118948.58,,41,of
screen,html.Screen,0_2_1_1_42,2021-11-26T12:01:03.080Z,,,,,,,,,,,,,,,,54,,,,,,,,,,,,,,499.2200000715238,,response,,,100,,,,,,Space,keypress(Space),,,,,-- --- ---- --- ------ ----- ------- ---- -- --- ------- --<br>------- ---------- ------ -- ----- -- ----- -- ---- ------<br>--- ----- --- --- ------ -------- ----- --- ------ ----- --<br>----- ----- ---------- --- --- ------ ------ ---- -- French<br>------- --- ------ ----- --- ---- ------- -- ---- --- --<br>------- ------,119448.60000002384,119447.80000007153,118931.914,118944.80000007153,118948.58,119465.226,,42,French
screen,html.Screen,0_2_1_1_43,2021-11-26T12:01:03.568Z,,,,,,,,,,,,,,,,54,,,,,,,,,,,,,,470.4740000476886,,response,,,100,,,,,,Space,keypress(Space),,,,,-- --- ---- --- ------ ----- ------- ---- -- --- ------- --<br>------- ---------- ------ -- ----- -- ----- -- ---- ------<br>--- ----- --- --- ------ -------- ----- --- ------ ----- --<br>----- ----- ---------- --- --- ------ ------ ---- -- ------<br>credit. --- ------ ----- --- ---- ------- -- ---- --- --<br>------- ------,119936.5,119935.70000004768,119448.56,119448.80000007153,119465.226,119948.54,,43,credit.
screen,html.Screen,0_2_1_1_44,2021-11-26T12:01:04.141Z,,,,,,,,,,,,,,,,54,,,,,,,,,,,,,,555.1600000476901,,response,,,100,,,,,,Space,keypress(Space),,,,,-- --- ---- --- ------ ----- ------- ---- -- --- ------- --<br>------- ---------- ------ -- ----- -- ----- -- ---- ------<br>--- ----- --- --- ------ -------- ----- --- ------ ----- --<br>----- ----- ---------- --- --- ------ ------ ---- -- ------<br>------- The ------ ----- --- ---- ------- -- ---- --- --<br>------- ------,120504.5,120503.70000004768,119931.874,119936.80000007153,119948.54,120515.184,,44,The
screen,html.Screen,0_2_1_1_45,2021-11-26T12:01:04.541Z,,,,,,,,,,,,,,,,54,,,,,,,,,,,,,,388.5160000476899,,response,,,100,,,,,,Space,keypress(Space),,,,,-- --- ---- --- ------ ----- ------- ---- -- --- ------- --<br>------- ---------- ------ -- ----- -- ----- -- ---- ------<br>--- ----- --- --- ------ -------- ----- --- ------ ----- --<br>----- ----- ---------- --- --- ------ ------ ---- -- ------<br>------- --- French ----- --- ---- ------- -- ---- --- --<br>------- ------,120904.5,120903.70000004768,120498.518,120504.70000004768,120515.184,120915.168,,45,French
screen,html.Screen,0_2_1_1_46,2021-11-26T12:01:04.949Z,,,,,,,,,,,,,,,,54,,,,,,,,,,,,,,396.5320000476786,,response,,,100,,,,,,Space,keypress(Space),,,,,-- --- ---- --- ------ ----- ------- ---- -- --- ------- --<br>------- ---------- ------ -- ----- -- ----- -- ---- ------<br>--- ----- --- --- ------ -------- ----- --- ------ ----- --<br>----- ----- ---------- --- --- ------ ------ ---- -- ------<br>------- --- ------ state --- ---- ------- -- ---- --- --<br>------- ------,121312.39999997616,121311.70000004768,120898.502,120904.70000004768,120915.168,121315.152,,46,state
screen,html.Screen,0_2_1_1_47,2021-11-26T12:01:05.333Z,,,,,,,,,,,,,,,,54,,,,,,,,,,,,,,380.44800002384,,response,,,100,,,,,,Space,keypress(Space),,,,,-- --- ---- --- ------ ----- ------- ---- -- --- ------- --<br>------- ---------- ------ -- ----- -- ----- -- ---- ------<br>--- ----- --- --- ------ -------- ----- --- ------ ----- --<br>----- ----- ---------- --- --- ------ ------ ---- -- ------<br>------- --- ------ ----- was ---- ------- -- ---- --- --<br>------- ------,121696.39999997616,121695.60000002384,121298.486,121312.70000004768,121315.152,121698.47,,47,was
screen,html.Screen,0_2_1_1_48,2021-11-26T12:01:05.725Z,,,,,,,,,,,,,,,,54,,,,,,,,,,,,,,389.1300000238407,,response,,,100,,,,,,Space,keypress(Space),,,,,-- --- ---- --- ------ ----- ------- ---- -- --- ------- --<br>------- ---------- ------ -- ----- -- ----- -- ---- ------<br>--- ----- --- --- ------ -------- ----- --- ------ ----- --<br>----- ----- ---------- --- --- ------ ------ ---- -- ------<br>------- --- ------ ----- --- left ------- -- ---- --- --<br>------- ------,122088.39999997616,122087.60000002384,121681.804,121696.60000002384,121698.47,122098.454,,48,left
screen,html.Screen,0_2_1_1_49,2021-11-26T12:01:06.173Z,,,,,,,,,,,,,,,,54,,,,,,,,,,,,,,437.14600002384395,,response,,,100,,,,,,Space,keypress(Space),,,,,-- --- ---- --- ------ ----- ------- ---- -- --- ------- --<br>------- ---------- ------ -- ----- -- ----- -- ---- ------<br>--- ----- --- --- ------ -------- ----- --- ------ ----- --<br>----- ----- ---------- --- --- ------ ------ ---- -- ------<br>------- --- ------ ----- --- ---- without -- ---- --- --<br>------- ------,122536.39999997616,122535.60000002384,122081.788,122088.70000004768,122098.454,122548.436,,49,without
screen,html.Screen,0_2_1_1_50,2021-11-26T12:01:06.517Z,,,,,,,,,,,,,,,,54,,,,,,,,,,,,,,331.16400002384034,,response,,,100,,,,,,Space,keypress(Space),,,,,-- --- ---- --- ------ ----- ------- ---- -- --- ------- --<br>------- ---------- ------ -- ----- -- ----- -- ---- ------<br>--- ----- --- --- ------ -------- ----- --- ------ ----- --<br>----- ----- ---------- --- --- ------ ------ ---- -- ------<br>------- --- ------ ----- --- ---- ------- an ---- --- --<br>------- ------,122880.39999997616,122879.60000002384,122531.77,122536.60000002384,122548.436,122881.756,,50,an
screen,html.Screen,0_2_1_1_51,2021-11-26T12:01:06.868Z,,,,,,,,,,,,,,,,54,,,,,,,,,,,,,,349.74400000000605,,response,,,100,,,,,,Space,keypress(Space),,,,,-- --- ---- --- ------ ----- ------- ---- -- --- ------- --<br>------- ---------- ------ -- ----- -- ----- -- ---- ------<br>--- ----- --- --- ------ -------- ----- --- ------ ----- --<br>----- ----- ---------- --- --- ------ ------ ---- -- ------<br>------- --- ------ ----- --- ---- ------- -- easy --- --<br>------- ------,123232.20000004768,123231.5,122865.09,122880.60000002384,122881.756,123248.408,,51,easy
screen,html.Screen,0_2_1_1_52,2021-11-26T12:01:07.213Z,,,,,,,,,,,,,,,,54,,,,,,,,,,,,,,327.0920000000042,,response,,,100,,,,,,Space,keypress(Space),,,,,-- --- ---- --- ------ ----- ------- ---- -- --- ------- --<br>------- ---------- ------ -- ----- -- ----- -- ---- ------<br>--- ----- --- --- ------ -------- ----- --- ------ ----- --<br>----- ----- ---------- --- --- ------ ------ ---- -- ------<br>------- --- ------ ----- --- ---- ------- -- ---- way --<br>------- ------,123576.30000007153,123575.5,123231.742,123232.5,123248.408,123581.728,,52,way
screen,html.Screen,0_2_1_1_53,2021-11-26T12:01:07.557Z,,,,,,,,,,,,,,,,54,,,,,,,,,,,,,,337.7719999999972,,response,,,100,,,,,,Space,keypress(Space),,,,,-- --- ---- --- ------ ----- ------- ---- -- --- ------- --<br>------- ---------- ------ -- ----- -- ----- -- ---- ------<br>--- ----- --- --- ------ -------- ----- --- ------ ----- --<br>----- ----- ---------- --- --- ------ ------ ---- -- ------<br>------- --- ------ ----- --- ---- ------- -- ---- --- of<br>------- ------,123920.20000004768,123919.5,123565.062,123576.5,123581.728,123931.714,,53,of
screen,html.Screen,0_2_1_1_54,2021-11-26T12:01:07.917Z,,,,,,,,,,,,,,,,54,,,,,,,,,,,,,,347.6859999761509,,response,,,100,,,,,,Space,keypress(Space),,,,,-- --- ---- --- ------ ----- ------- ---- -- --- ------- --<br>------- ---------- ------ -- ----- -- ----- -- ---- ------<br>--- ----- --- --- ------ -------- ----- --- ------ ----- --<br>----- ----- ---------- --- --- ------ ------ ---- -- ------<br>------- --- ------ ----- --- ---- ------- -- ---- --- --<br>raising ------,124280.20000004768,124279.39999997616,123915.048,123920.5,123931.714,124281.7,,54,raising
screen,html.Screen,0_2_1_1_55,2021-11-26T12:01:08.301Z,,,,,,,,,,,,,,,,54,,,,,,,,,,,,,,381.69999997616105,,response,,,100,,,,,,Space,keypress(Space),,,,,-- --- ---- --- ------ ----- ------- ---- -- --- ------- --<br>------- ---------- ------ -- ----- -- ----- -- ---- ------<br>--- ----- --- --- ------ -------- ----- --- ------ ----- --<br>----- ----- ---------- --- --- ------ ------ ---- -- ------<br>------- --- ------ ----- --- ---- ------- -- ---- --- --<br>------- money.,124664.30000007153,124663.39999997616,124265.034,124280.5,124281.7,124681.684,,55,money.
Item 100,flow.Loop,0_2_1_1,2021-11-26T12:01:08.301Z,,,,,,,,,,,,,,,,,,,,,,,,,,,,,,28563.905999976152,,completion,,,,D,,,,,,,,,,silence,,124664.70000004768,124663.39999997616,96082.828,96084.60000002384,96099.494,124681.684,,,
Question 1,html.Screen,0_2_1_2,2021-11-26T12:01:10.953Z,,,,,,,,,,,,,,,,,,,,,,,,,,,true,TRUE,,2633.6160000715317,,response,,,100,D,,,,,TRUE,click #choice-1,,,,silence,,127316.39999997616,127315.30000007153,124665.018,124664.89999997616,124681.684,127331.578,,,
Question 2,html.Screen,0_2_1_3,2021-11-26T12:01:12.873Z,,,,,,,,,,,,,,,,,,,,,,,,,,,true,FALSE,,1903.6220000476897,,response,,,100,D,,,,,FALSE,click #choice-2,,,,silence,,129236.30000007153,129235.20000004768,127314.912,127316.80000007153,127331.578,129248.168,,,
Item 100,flow.Sequence,0_2_1,2021-11-26T12:01:12.873Z,,,,,,,,,,,,,,,,,,,,,,,,,,,,,,43135.30600004768,,completion,,,,,,,,,,,,,,,,129236.70000004768,129235.20000004768,86066.562,86080,86099.894,129248.168,,,
End of Practice,html.Page,0_2_2,2021-11-26T12:01:20.130Z,,,,,,,,,,,,,,,,,,,,,,,,,,,,,,7244.432000023837,,form submission,,,,,,,,,,,,,,,,136493.30000007153,136492.60000002384,129231.502,129236.80000007153,129248.168,136497.878,,,
Practice,flow.Sequence,0_2,2021-11-26T12:01:20.130Z,,,,,,,,,,,,,,,,,,,,,,,,,,,,,,104057.22600002385,,completion,,,,,,,,,,,,,,,,136493.70000004768,136492.60000002384,32418.708,32427.399999976158,32435.374,136497.878,,,
Trap_instruction,html.Page,0_3_0,2021-11-26T12:01:24.241Z,,,,,,,,,,,,,,,,,,,,,,,,,,,,,,4106.021999976161,,form submission,,,,,,,,,,,,,,,,140604.39999997616,140603.89999997616,136481.212,136494.10000002384,136497.878,140647.712,,,
trap_trial,html.Screen,0_3_1,2021-11-26T12:01:27.638Z,,,,,,,,,,,,,,,,,,,,,,,,,,,true,1,,3353.988000047684,,response,,,,,,,,,1,click #choice-1,,,,,,144002.20000004768,144001.70000004768,140597.714,140604.89999997616,140647.712,144014.244,,,
end of trap trial,html.Page,0_3_2,2021-11-26T12:01:29.368Z,,,,,,,,,,,,,,,,,,,,,,,,,,,,,,1717.3560000238358,,form submission,,,,,,,,,,,,,,,,145732,145731.60000002384,143997.578,144002.30000007153,144014.244,145747.508,,,
Trap 1,flow.Sequence,0_3,2021-11-26T12:01:29.369Z,,,,,,,,,,,,,,,,,,,,,,,,,,,,,,9233.722000023845,,completion,,,,,,,,,,,,,,,,145732.39999997616,145731.60000002384,136481.212,136494,136497.878,145747.508,,,
Standby,html.Page,0_4_0,2021-11-26T12:01:37.368Z,,,,,,,,,,,,,,,,,,,,,,,,,,,,,,7999.679999999993,,timeout,,,,,,,,,,,,,,,,153732,153730.522,145730.842,145732.70000004768,145747.508,153747.188,,,
Holding screen,html.Screen,0_4_1_0_0,2021-11-26T12:01:44.368Z,,,,,,,,,,,,,,,,,,,,,,,,,,,,,,6999.720000000001,,timeout,,,,,,,,,,,,,,,,160731.89999997616,160730.242,153730.522,153732.39999997616,153747.188,160746.908,,,
screen,html.Screen,0_4_1_0_1_0,2021-11-26T12:01:45.523Z,,,,,,,,,,,,,,,,15,,,,,,,,,,,,,,1138.692000023846,,response,,,7,D,,,,,Space,keypress(Space),,,,silence,Greg --------- ---------- - --- ------- -- --- ------------<br>----- -- -------- ------- ---- ------ - -------- ---- -----<br>--- ------- ---- -- --- -------- --- - ----- ------ ---- --<br>-------- --- -------- -------- --- -------- ---- -- ----- -<br>-------- ---- --- ---------- --------- -- ------- ------ -<br>--------- ----- -----,161886.5,161885.60000002384,160730.242,160732.39999997616,160746.908,161896.862,,0,Greg
screen,html.Screen,0_4_1_0_1_1,2021-11-26T12:01:46.194Z,,,,,,,,,,,,,,,,15,,,,,,,,,,,,,,660.1380000000063,,response,,,7,D,,,,,Space,keypress(Space),,,,silence,"---- Anderson, ---------- - --- ------- -- --- ------------<br>----- -- -------- ------- ---- ------ - -------- ---- -----<br>--- ------- ---- -- --- -------- --- - ----- ------ ---- --<br>-------- --- -------- -------- --- -------- ---- -- ----- -<br>-------- ---- --- ---------- --------- -- ------- ------ -<br>--------- ----- -----",162557.89999997616,162557,161880.196,161886.89999997616,161896.862,162563.502,,1,"Anderson,"
screen,html.Screen,0_4_1_0_1_2,2021-11-26T12:01:46.762Z,,,,,,,,,,,,,,,,15,,,,,,,,,,,,,,561.4979999999923,,response,,,7,D,,,,,Space,keypress(Space),,,,silence,---- --------- considered - --- ------- -- --- ------------<br>----- -- -------- ------- ---- ------ - -------- ---- -----<br>--- ------- ---- -- --- -------- --- - ----- ------ ---- --<br>-------- --- -------- -------- --- -------- ---- -- ----- -<br>-------- ---- --- ---------- --------- -- ------- ------ -<br>--------- ----- -----,163125.80000007153,163125,162546.836,162558.20000004768,162563.502,163130.146,,2,considered
screen,html.Screen,0_4_1_0_1_3,2021-11-26T12:01:47.154Z,,,,,,,,,,,,,,,,15,,,,,,,,,,,,,,386.8539999999921,,response,,,7,D,,,,,Space,keypress(Space),,,,silence,---- --------- ---------- a --- ------- -- --- ------------<br>----- -- -------- ------- ---- ------ - -------- ---- -----<br>--- ------- ---- -- --- -------- --- - ----- ------ ---- --<br>-------- --- -------- -------- --- -------- ---- -- ----- -<br>-------- ---- --- ---------- --------- -- ------- ------ -<br>--------- ----- -----,163517.89999997616,163517,163113.48,163126.20000004768,163130.146,163530.13,,3,a
screen,html.Screen,0_4_1_0_1_4,2021-11-26T12:01:47.562Z,,,,,,,,,,,,,,,,15,,,,,,,,,,,,,,394.86999999999534,,response,,,7,D,,,,,Space,keypress(Space),,,,silence,---- --------- ---------- - key ------- -- --- ------------<br>----- -- -------- ------- ---- ------ - -------- ---- -----<br>--- ------- ---- -- --- -------- --- - ----- ------ ---- --<br>-------- --- -------- -------- --- -------- ---- -- ----- -<br>-------- ---- --- ---------- --------- -- ------- ------ -<br>--------- ----- -----,163925.80000007153,163925,163513.464,163518.10000002384,163530.13,163930.114,,4,key
screen,html.Screen,0_4_1_0_1_5,2021-11-26T12:01:48.058Z,,,,,,,,,,,,,,,,15,,,,,,,,,,,,,,490.78599997615675,,response,,,7,D,,,,,Space,keypress(Space),,,,silence,---- --------- ---------- - --- witness -- --- ------------<br>----- -- -------- ------- ---- ------ - -------- ---- -----<br>--- ------- ---- -- --- -------- --- - ----- ------ ---- --<br>-------- --- -------- -------- --- -------- ---- -- ----- -<br>-------- ---- --- ---------- --------- -- ------- ------ -<br>--------- ----- -----,164421.80000007153,164420.89999997616,163913.448,163926.20000004768,163930.114,164430.094,,5,witness
screen,html.Screen,0_4_1_0_1_6,2021-11-26T12:01:48.690Z,,,,,,,,,,,,,,,,15,,,,,,,,,,,,,,622.7060000715137,,response,,,7,D,,,,,Space,keypress(Space),,,,silence,---- --------- ---------- - --- ------- by --- ------------<br>----- -- -------- ------- ---- ------ - -------- ---- -----<br>--- ------- ---- -- --- -------- --- - ----- ------ ---- --<br>-------- --- -------- -------- --- -------- ---- -- ----- -<br>-------- ---- --- ---------- --------- -- ------- ------ -<br>--------- ----- -----,165053.70000004768,165052.80000007153,164413.428,164422.10000002384,164430.094,165063.402,,6,by
screen,html.Screen,0_4_1_0_1_7,2021-11-26T12:01:49.074Z,,,,,,,,,,,,,,,,15,,,,,,,,,,,,,,373.3980000715237,,response,,,7,D,,,,,Space,keypress(Space),,,,silence,---- --------- ---------- - --- ------- -- the ------------<br>----- -- -------- ------- ---- ------ - -------- ---- -----<br>--- ------- ---- -- --- -------- --- - ----- ------ ---- --<br>-------- --- -------- -------- --- -------- ---- -- ----- -<br>-------- ---- --- ---------- --------- -- ------- ------ -<br>--------- ----- -----,165437.70000004768,165436.80000007153,165046.736,165054,165063.402,165446.72,,7,the
screen,html.Screen,0_4_1_0_1_8,2021-11-26T12:01:49.634Z,,,,,,,,,,,,,,,,15,,,,,,,,,,,,,,550.0800000715244,,response,,,7,D,,,,,Space,keypress(Space),,,,silence,"---- --------- ---------- - --- ------- -- --- prosecution,<br>----- -- -------- ------- ---- ------ - -------- ---- -----<br>--- ------- ---- -- --- -------- --- - ----- ------ ---- --<br>-------- --- -------- -------- --- -------- ---- -- ----- -<br>-------- ---- --- ---------- --------- -- ------- ------ -<br>--------- ----- -----",165997.60000002384,165996.80000007153,165430.054,165438.10000002384,165446.72,166013.364,,8,"prosecution,"
screen,html.Screen,0_4_1_0_1_9,2021-11-26T12:01:50.090Z,,,,,,,,,,,,,,,,15,,,,,,,,,,,,,,439.4360000715242,,response,,,7,D,,,,,Space,keypress(Space),,,,silence,---- --------- ---------- - --- ------- -- --- ------------<br>vowed -- -------- ------- ---- ------ - -------- ---- -----<br>--- ------- ---- -- --- -------- --- - ----- ------ ---- --<br>-------- --- -------- -------- --- -------- ---- -- ----- -<br>-------- ---- --- ---------- --------- -- ------- ------ -<br>--------- ----- -----,166453.60000002384,166452.80000007153,165996.698,165997.89999997616,166013.364,166463.346,,9,vowed
screen,html.Screen,0_4_1_0_1_10,2021-11-26T12:01:50.602Z,,,,,,,,,,,,,,,,15,,,,,,,,,,,,,,501.35400004769326,,response,,,7,D,,,,,Space,keypress(Space),,,,silence,---- --------- ---------- - --- ------- -- --- ------------<br>----- he -------- ------- ---- ------ - -------- ---- -----<br>--- ------- ---- -- --- -------- --- - ----- ------ ---- --<br>-------- --- -------- -------- --- -------- ---- -- ----- -<br>-------- ---- --- ---------- --------- -- ------- ------ -<br>--------- ----- -----,166965.5,166964.70000004768,166446.68,166454,166463.346,166979.992,,10,he
screen,html.Screen,0_4_1_0_1_11,2021-11-26T12:01:51.146Z,,,,,,,,,,,,,,,,15,,,,,,,,,,,,,,528.7080000476853,,response,,,7,D,,,,,Space,keypress(Space),,,,silence,---- --------- ---------- - --- ------- -- --- ------------<br>----- -- wouldn't ------- ---- ------ - -------- ---- -----<br>--- ------- ---- -- --- -------- --- - ----- ------ ---- --<br>-------- --- -------- -------- --- -------- ---- -- ----- -<br>-------- ---- --- ---------- --------- -- ------- ------ -<br>--------- ----- -----,167509.60000002384,167508.70000004768,166963.326,166965.89999997616,166979.992,167513.304,,11,wouldn't
screen,html.Screen,0_4_1_0_1_12,2021-11-26T12:01:51.970Z,,,,,,,,,,,,,,,,15,,,,,,,,,,,,,,819.39600004768,,response,,,7,D,,,,,Space,keypress(Space),,,,silence,---- --------- ---------- - --- ------- -- --- ------------<br>----- -- -------- testify ---- ------ - -------- ---- -----<br>--- ------- ---- -- --- -------- --- - ----- ------ ---- --<br>-------- --- -------- -------- --- -------- ---- -- ----- -<br>-------- ---- --- ---------- --------- -- ------- ------ -<br>--------- ----- -----,168333.5,168332.70000004768,167496.638,167509.80000007153,167513.304,168346.604,,12,testify
screen,html.Screen,0_4_1_0_1_13,2021-11-26T12:01:52.650Z,,,,,,,,,,,,,,,,15,,,,,,,,,,,,,,666.0960000476916,,response,,,7,D,,,,,Space,keypress(Space),,,,silence,---- --------- ---------- - --- ------- -- --- ------------<br>----- -- -------- ------- when ------ - -------- ---- -----<br>--- ------- ---- -- --- -------- --- - ----- ------ ---- --<br>-------- --- -------- -------- --- -------- ---- -- ----- -<br>-------- ---- --- ---------- --------- -- ------- ------ -<br>--------- ----- -----,169013.39999997616,169012.70000004768,168329.938,168333.70000004768,168346.604,169029.91,,13,when
screen,html.Screen,0_4_1_0_1_14,2021-11-26T12:01:53.490Z,,,,,,,,,,,,,,,,15,,,,,,,,,,,,,,822.5899999999965,,response,,,7,D,,,,,Space,keypress(Space),,,,silence,---- --------- ---------- - --- ------- -- --- ------------<br>----- -- -------- ------- ---- served - -------- ---- -----<br>--- ------- ---- -- --- -------- --- - ----- ------ ---- --<br>-------- --- -------- -------- --- -------- ---- -- ----- -<br>-------- ---- --- ---------- --------- -- ------- ------ -<br>--------- ----- -----,169853.39999997616,169852.5,169013.244,169013.70000004768,169029.91,169863.21,,14,served
screen,html.Screen,0_4_1_0_1_15,2021-11-26T12:01:53.898Z,,,,,,,,,,,,,,,,15,,,,,,,,,,,,,,397.29000000000815,,response,,,7,D,,,,,Space,keypress(Space),,,,silence,---- --------- ---------- - --- ------- -- --- ------------<br>----- -- -------- ------- ---- ------ a -------- ---- -----<br>--- ------- ---- -- --- -------- --- - ----- ------ ---- --<br>-------- --- -------- -------- --- -------- ---- -- ----- -<br>-------- ---- --- ---------- --------- -- ------- ------ -<br>--------- ----- -----,170261.30000007153,170260.5,169846.544,169853.70000004768,169863.21,170263.194,,15,a
screen,html.Screen,0_4_1_0_1_16,2021-11-26T12:01:55.602Z,,,,,,,,,,,,,,,,15,,,,,,,,,,,,,,1701.606000071537,,response,,,7,D,,,,,Space,keypress(Space),,,,silence,---- --------- ---------- - --- ------- -- --- ------------<br>----- -- -------- ------- ---- ------ - subpoena ---- -----<br>--- ------- ---- -- --- -------- --- - ----- ------ ---- --<br>-------- --- -------- -------- --- -------- ---- -- ----- -<br>-------- ---- --- ---------- --------- -- ------- ------ -<br>--------- ----- -----,171965.80000007153,171964.80000007153,170246.528,170261.60000002384,170263.194,171979.792,,16,subpoena
screen,html.Screen,0_4_1_0_1_17,2021-11-26T12:01:56.169Z,,,,,,,,,,,,,,,,15,,,,,,,,,,,,,,552.6079999761714,,response,,,7,D,,,,,Space,keypress(Space),,,,silence,---- --------- ---------- - --- ------- -- --- ------------<br>----- -- -------- ------- ---- ------ - -------- last -----<br>--- ------- ---- -- --- -------- --- - ----- ------ ---- --<br>-------- --- -------- -------- --- -------- ---- -- ----- -<br>-------- ---- --- ---------- --------- -- ------- ------ -<br>--------- ----- -----,172533.20000004768,172532.39999997616,171963.126,171966,171979.792,172546.436,,17,last
screen,html.Screen,0_4_1_0_1_18,2021-11-26T12:01:56.793Z,,,,,,,,,,,,,,,,15,,,,,,,,,,,,,,609.9639999761712,,response,,,7,D,,,,,Space,keypress(Space),,,,silence,---- --------- ---------- - --- ------- -- --- ------------<br>----- -- -------- ------- ---- ------ - -------- ---- week.<br>--- ------- ---- -- --- -------- --- - ----- ------ ---- --<br>-------- --- -------- -------- --- -------- ---- -- ----- -<br>-------- ---- --- ---------- --------- -- ------- ------ -<br>--------- ----- -----,173157.10000002384,173156.39999997616,172529.77,172533.39999997616,172546.436,173163.078,,18,week.
screen,html.Screen,0_4_1_0_1_19,2021-11-26T12:01:57.537Z,,,,,,,,,,,,,,,,15,,,,,,,,,,,,,,737.222000071517,,response,,,7,D,,,,,Space,keypress(Space),,,,silence,---- --------- ---------- - --- ------- -- --- ------------<br>----- -- -------- ------- ---- ------ - -------- ---- -----<br>His ------- ---- -- --- -------- --- - ----- ------ ---- --<br>-------- --- -------- -------- --- -------- ---- -- ----- -<br>-------- ---- --- ---------- --------- -- ------- ------ -<br>--------- ----- -----,173901.10000002384,173900.30000007153,173146.412,173157.39999997616,173163.078,173913.048,,19,His
screen,html.Screen,0_4_1_0_1_20,2021-11-26T12:01:58.081Z,,,,,,,,,,,,,,,,15,,,,,,,,,,,,,,531.2520000715158,,response,,,7,D,,,,,Space,keypress(Space),,,,silence,---- --------- ---------- - --- ------- -- --- ------------<br>----- -- -------- ------- ---- ------ - -------- ---- -----<br>--- lawyers ---- -- --- -------- --- - ----- ------ ---- --<br>-------- --- -------- -------- --- -------- ---- -- ----- -<br>-------- ---- --- ---------- --------- -- ------- ------ -<br>--------- ----- -----,174445.10000002384,174444.30000007153,173896.382,173901.30000007153,173913.048,174446.36,,20,lawyers
screen,html.Screen,0_4_1_0_1_21,2021-11-26T12:01:58.593Z,,,,,,,,,,,,,,,,15,,,,,,,,,,,,,,509.8400000476977,,response,,,7,D,,,,,Space,keypress(Space),,,,silence,---- --------- ---------- - --- ------- -- --- ------------<br>----- -- -------- ------- ---- ------ - -------- ---- -----<br>--- ------- said -- --- -------- --- - ----- ------ ---- --<br>-------- --- -------- -------- --- -------- ---- -- ----- -<br>-------- ---- --- ---------- --------- -- ------- ------ -<br>--------- ----- -----,174957,174956.20000004768,174429.694,174445.39999997616,174446.36,174963.006,,21,said
screen,html.Screen,0_4_1_0_1_22,2021-11-26T12:01:59.073Z,,,,,,,,,,,,,,,,15,,,,,,,,,,,,,,473.19400004768977,,response,,,7,D,,,,,Space,keypress(Space),,,,silence,---- --------- ---------- - --- ------- -- --- ------------<br>----- -- -------- ------- ---- ------ - -------- ---- -----<br>--- ------- ---- he --- -------- --- - ----- ------ ---- --<br>-------- --- -------- -------- --- -------- ---- -- ----- -<br>-------- ---- --- ---------- --------- -- ------- ------ -<br>--------- ----- -----,175437,175436.20000004768,174946.34,174957.20000004768,174963.006,175446.32,,22,he
screen,html.Screen,0_4_1_0_1_23,2021-11-26T12:01:59.545Z,,,,,,,,,,,,,,,,15,,,,,,,,,,,,,,461.88000004767673,,response,,,7,D,,,,,Space,keypress(Space),,,,silence,---- --------- ---------- - --- ------- -- --- ------------<br>----- -- -------- ------- ---- ------ - -------- ---- -----<br>--- ------- ---- -- was -------- --- - ----- ------ ---- --<br>-------- --- -------- -------- --- -------- ---- -- ----- -<br>-------- ---- --- ---------- --------- -- ------- ------ -<br>--------- ----- -----,175909,175908.20000004768,175429.654,175437.20000004768,175446.32,175912.968,,23,was
screen,html.Screen,0_4_1_0_1_24,2021-11-26T12:02:00.009Z,,,,,,,,,,,,,,,,15,,,,,,,,,,,,,,459.23200004769024,,response,,,7,D,,,,,Space,keypress(Space),,,,silence,---- --------- ---------- - --- ------- -- --- ------------<br>----- -- -------- ------- ---- ------ - -------- ---- -----<br>--- ------- ---- -- --- prepared --- - ----- ------ ---- --<br>-------- --- -------- -------- --- -------- ---- -- ----- -<br>-------- ---- --- ---------- --------- -- ------- ------ -<br>--------- ----- -----,176373,176372.20000004768,175896.302,175909.30000007153,175912.968,176379.616,,24,prepared
screen,html.Screen,0_4_1_0_1_25,2021-11-26T12:02:00.441Z,,,,,,,,,,,,,,,,15,,,,,,,,,,,,,,424.58400004767464,,response,,,7,D,,,,,Space,keypress(Space),,,,silence,---- --------- ---------- - --- ------- -- --- ------------<br>----- -- -------- ------- ---- ------ - -------- ---- -----<br>--- ------- ---- -- --- -------- for - ----- ------ ---- --<br>-------- --- -------- -------- --- -------- ---- -- ----- -<br>-------- ---- --- ---------- --------- -- ------- ------ -<br>--------- ----- -----,176805,176804.20000004768,176362.95,176373.20000004768,176379.616,176812.932,,25,for
screen,html.Screen,0_4_1_0_1_26,2021-11-26T12:02:00.865Z,,,,,,,,,,,,,,,,15,,,,,,,,,,,,,,415.16800002384116,,response,,,7,D,,,,,Space,keypress(Space),,,,silence,---- --------- ---------- - --- ------- -- --- ------------<br>----- -- -------- ------- ---- ------ - -------- ---- -----<br>--- ------- ---- -- --- -------- --- a ----- ------ ---- --<br>-------- --- -------- -------- --- -------- ---- -- ----- -<br>-------- ---- --- ---------- --------- -- ------- ------ -<br>--------- ----- -----,177228.80000007153,177228.10000002384,176796.266,176805.10000002384,176812.932,177246.248,,26,a
screen,html.Screen,0_4_1_0_1_27,2021-11-26T12:02:01.281Z,,,,,,,,,,,,,,,,15,,,,,,,,,,,,,,397.85200002384954,,response,,,7,D,,,,,Space,keypress(Space),,,,silence,---- --------- ---------- - --- ------- -- --- ------------<br>----- -- -------- ------- ---- ------ - -------- ---- -----<br>--- ------- ---- -- --- -------- --- - third ------ ---- --<br>-------- --- -------- -------- --- -------- ---- -- ----- -<br>-------- ---- --- ---------- --------- -- ------- ------ -<br>--------- ----- -----,177644.89999997616,177644.10000002384,177229.582,177229.20000004768,177246.248,177646.232,,27,third
screen,html.Screen,0_4_1_0_1_28,2021-11-26T12:02:01.745Z,,,,,,,,,,,,,,,,15,,,,,,,,,,,,,,461.8680000238528,,response,,,7,D,,,,,Space,keypress(Space),,,,silence,---- --------- ---------- - --- ------- -- --- ------------<br>----- -- -------- ------- ---- ------ - -------- ---- -----<br>--- ------- ---- -- --- -------- --- - ----- prison ---- --<br>-------- --- -------- -------- --- -------- ---- -- ----- -<br>-------- ---- --- ---------- --------- -- ------- ------ -<br>--------- ----- -----,178108.80000007153,178108.10000002384,177629.566,177645.10000002384,177646.232,178112.88,,28,prison
screen,html.Screen,0_4_1_0_1_29,2021-11-26T12:02:02.209Z,,,,,,,,,,,,,,,,15,,,,,,,,,,,,,,459.2200000238372,,response,,,7,D,,,,,Space,keypress(Space),,,,silence,---- --------- ---------- - --- ------- -- --- ------------<br>----- -- -------- ------- ---- ------ - -------- ---- -----<br>--- ------- ---- -- --- -------- --- - ----- ------ stay --<br>-------- --- -------- -------- --- -------- ---- -- ----- -<br>-------- ---- --- ---------- --------- -- ------- ------ -<br>--------- ----- -----,178572.80000007153,178572.10000002384,178096.214,178109,178112.88,178579.528,,29,stay
screen,html.Screen,0_4_1_0_1_30,2021-11-26T12:02:03.609Z,,,,,,,,,,,,,,,,15,,,,,,,,,,,,,,1392.4720000000088,,response,,,7,D,,,,,Space,keypress(Space),,,,silence,---- --------- ---------- - --- ------- -- --- ------------<br>----- -- -------- ------- ---- ------ - -------- ---- -----<br>--- ------- ---- -- --- -------- --- - ----- ------ ---- to<br>-------- --- -------- -------- --- -------- ---- -- ----- -<br>-------- ---- --- ---------- --------- -- ------- ------ -<br>--------- ----- -----,179972.80000007153,179972,178562.862,178573,178579.528,179979.472,,30,to
screen,html.Screen,0_4_1_0_1_31,2021-11-26T12:02:05.188Z,,,,,,,,,,,,,,,,15,,,,,,,,,,,,,,1568.3280000715167,,response,,,7,D,,,,,Space,keypress(Space),,,,silence,---- --------- ---------- - --- ------- -- --- ------------<br>----- -- -------- ------- ---- ------ - -------- ---- -----<br>--- ------- ---- -- --- -------- --- - ----- ------ ---- --<br>maintain --- -------- -------- --- -------- ---- -- ----- -<br>-------- ---- --- ---------- --------- -- ------- ------ -<br>--------- ----- -----,181548.60000002384,181547.80000007153,179962.806,179973,179979.472,181562.742,,31,maintain
screen,html.Screen,0_4_1_0_1_32,2021-11-26T12:02:05.580Z,,,,,,,,,,,,,,,,15,,,,,,,,,,,,,,377.0580000715272,,response,,,7,D,,,,,Space,keypress(Space),,,,silence,---- --------- ---------- - --- ------- -- --- ------------<br>----- -- -------- ------- ---- ------ - -------- ---- -----<br>--- ------- ---- -- --- -------- --- - ----- ------ ---- --<br>-------- his -------- -------- --- -------- ---- -- ----- -<br>-------- ---- --- ---------- --------- -- ------- ------ -<br>--------- ----- -----,181940.60000002384,181939.80000007153,181546.076,181548.89999997616,181562.742,181946.06,,32,his
screen,html.Screen,0_4_1_0_1_33,2021-11-26T12:02:05.997Z,,,,,,,,,,,,,,,,15,,,,,,,,,,,,,,410.0400000238442,,response,,,7,D,,,,,Space,keypress(Space),,,,silence,---- --------- ---------- - --- ------- -- --- ------------<br>----- -- -------- ------- ---- ------ - -------- ---- -----<br>--- ------- ---- -- --- -------- --- - ----- ------ ---- --<br>-------- --- silence. -------- --- -------- ---- -- ----- -<br>-------- ---- --- ---------- --------- -- ------- ------ -<br>--------- ----- -----,182357,182356.10000002384,181929.394,181940.89999997616,181946.06,182362.71,,33,silence.
screen,html.Screen,0_4_1_0_1_34,2021-11-26T12:02:06.524Z,,,,,,,,,,,,,,,,15,,,,,,,,,,,,,,520.9900000476919,,response,,,7,D,,,,,Space,keypress(Space),,,,silence,---- --------- ---------- - --- ------- -- --- ------------<br>----- -- -------- ------- ---- ------ - -------- ---- -----<br>--- ------- ---- -- --- -------- --- - ----- ------ ---- --<br>-------- --- -------- Anderson --- -------- ---- -- ----- -<br>-------- ---- --- ---------- --------- -- ------- ------ -<br>--------- ----- -----,182884.60000002384,182883.70000004768,182346.044,182357.20000004768,182362.71,182896.022,,34,Anderson
screen,html.Screen,0_4_1_0_1_35,2021-11-26T12:02:07.028Z,,,,,,,,,,,,,,,,15,,,,,,,,,,,,,,491.6780000476865,,response,,,7,D,,,,,Space,keypress(Space),,,,silence,---- --------- ---------- - --- ------- -- --- ------------<br>----- -- -------- ------- ---- ------ - -------- ---- -----<br>--- ------- ---- -- --- -------- --- - ----- ------ ---- --<br>-------- --- -------- -------- was -------- ---- -- ----- -<br>-------- ---- --- ---------- --------- -- ------- ------ -<br>--------- ----- -----,183388.5,183387.70000004768,182879.356,182884.89999997616,182896.022,183396.002,,35,was
screen,html.Screen,0_4_1_0_1_36,2021-11-26T12:02:07.460Z,,,,,,,,,,,,,,,,15,,,,,,,,,,,,,,423.5980000238342,,response,,,7,D,,,,,Space,keypress(Space),,,,silence,---- --------- ---------- - --- ------- -- --- ------------<br>----- -- -------- ------- ---- ------ - -------- ---- -----<br>--- ------- ---- -- --- -------- --- - ----- ------ ---- --<br>-------- --- -------- -------- --- released ---- -- ----- -<br>-------- ---- --- ---------- --------- -- ------- ------ -<br>--------- ----- -----,183820.5,183819.60000002384,183379.336,183388.80000007153,183396.002,183829.318,,36,released
screen,html.Screen,0_4_1_0_1_37,2021-11-26T12:02:08.140Z,,,,,,,,,,,,,,,,15,,,,,,,,,,,,,,670.2820000238426,,response,,,7,D,,,,,Space,keypress(Space),,,,silence,---- --------- ---------- - --- ------- -- --- ------------<br>----- -- -------- ------- ---- ------ - -------- ---- -----<br>--- ------- ---- -- --- -------- --- - ----- ------ ---- --<br>-------- --- -------- -------- --- -------- July -- ----- -<br>-------- ---- --- ---------- --------- -- ------- ------ -<br>--------- ----- -----,184500.5,184499.60000002384,183812.652,183820.70000004768,183829.318,184512.624,,37,July
screen,html.Screen,0_4_1_0_1_38,2021-11-26T12:02:08.596Z,,,,,,,,,,,,,,,,15,,,,,,,,,,,,,,442.97600002383115,,response,,,7,D,,,,,Space,keypress(Space),,,,silence,---- --------- ---------- - --- ------- -- --- ------------<br>----- -- -------- ------- ---- ------ - -------- ---- -----<br>--- ------- ---- -- --- -------- --- - ----- ------ ---- --<br>-------- --- -------- -------- --- -------- ---- 20 ----- -<br>-------- ---- --- ---------- --------- -- ------- ------ -<br>--------- ----- -----,184956.39999997616,184955.60000002384,184495.958,184500.60000002384,184512.624,184962.606,,38,20
screen,html.Screen,0_4_1_0_1_39,2021-11-26T12:02:10.116Z,,,,,,,,,,,,,,,,15,,,,,,,,,,,,,,1512.8940000000002,,response,,,7,D,,,,,Space,keypress(Space),,,,silence,---- --------- ---------- - --- ------- -- --- ------------<br>----- -- -------- ------- ---- ------ - -------- ---- -----<br>--- ------- ---- -- --- -------- --- - ----- ------ ---- --<br>-------- --- -------- -------- --- -------- ---- -- after -<br>-------- ---- --- ---------- --------- -- ------- ------ -<br>--------- ----- -----,186476.30000007153,186475.5,184945.94,184956.60000002384,184962.606,186479.212,,39,after
screen,html.Screen,0_4_1_0_1_40,2021-11-26T12:02:10.500Z,,,,,,,,,,,,,,,,15,,,,,,,,,,,,,,380.28800000000047,,response,,,7,D,,,,,Space,keypress(Space),,,,silence,---- --------- ---------- - --- ------- -- --- ------------<br>----- -- -------- ------- ---- ------ - -------- ---- -----<br>--- ------- ---- -- --- -------- --- - ----- ------ ---- --<br>-------- --- -------- -------- --- -------- ---- -- ----- a<br>-------- ---- --- ---------- --------- -- ------- ------ -<br>--------- ----- -----,186860.30000007153,186859.5,186462.546,186476.60000002384,186479.212,186862.53,,40,a
screen,html.Screen,0_4_1_0_1_41,2021-11-26T12:02:11.020Z,,,,,,,,,,,,,,,,15,,,,,,,,,,,,,,516.8699999761593,,response,,,7,D,,,,,Space,keypress(Space),,,,silence,---- --------- ---------- - --- ------- -- --- ------------<br>----- -- -------- ------- ---- ------ - -------- ---- -----<br>--- ------- ---- -- --- -------- --- - ----- ------ ---- --<br>-------- --- -------- -------- --- -------- ---- -- ----- -<br>two-week ---- --- ---------- --------- -- ------- ------ -<br>--------- ----- -----,187380.20000004768,187379.39999997616,186845.864,186860.5,186862.53,187395.842,,41,two-week
screen,html.Screen,0_4_1_0_1_42,2021-11-26T12:02:11.484Z,,,,,,,,,,,,,,,,15,,,,,,,,,,,,,,447.55799997615395,,response,,,7,D,,,,,Space,keypress(Space),,,,silence,---- --------- ---------- - --- ------- -- --- ------------<br>----- -- -------- ------- ---- ------ - -------- ---- -----<br>--- ------- ---- -- --- -------- --- - ----- ------ ---- --<br>-------- --- -------- -------- --- -------- ---- -- ----- -<br>-------- stay --- ---------- --------- -- ------- ------ -<br>--------- ----- -----,187844.20000004768,187843.39999997616,187379.176,187380.5,187395.842,187845.824,,42,stay
screen,html.Screen,0_4_1_0_1_43,2021-11-26T12:02:11.940Z,,,,,,,,,,,,,,,,15,,,,,,,,,,,,,,453.4760000715323,,response,,,7,D,,,,,Space,keypress(Space),,,,silence,---- --------- ---------- - --- ------- -- --- ------------<br>----- -- -------- ------- ---- ------ - -------- ---- -----<br>--- ------- ---- -- --- -------- --- - ----- ------ ---- --<br>-------- --- -------- -------- --- -------- ---- -- ----- -<br>-------- ---- for ---------- --------- -- ------- ------ -<br>--------- ----- -----,188300.10000002384,188299.30000007153,187829.158,187844.5,187845.824,188312.472,,43,for
screen,html.Screen,0_4_1_0_1_44,2021-11-26T12:02:12.596Z,,,,,,,,,,,,,,,,15,,,,,,,,,,,,,,642.9279999761493,,response,,,7,D,,,,,Space,keypress(Space),,,,silence,---- --------- ---------- - --- ------- -- --- ------------<br>----- -- -------- ------- ---- ------ - -------- ---- -----<br>--- ------- ---- -- --- -------- --- - ----- ------ ---- --<br>-------- --- -------- -------- --- -------- ---- -- ----- -<br>-------- ---- --- previously --------- -- ------- ------ -<br>--------- ----- -----,188956.20000004768,188955.39999997616,188295.806,188300.39999997616,188312.472,188962.446,,44,previously
screen,html.Screen,0_4_1_0_1_45,2021-11-26T12:02:13.404Z,,,,,,,,,,,,,,,,15,,,,,,,,,,,,,,800.8540000715293,,response,,,7,D,,,,,Space,keypress(Space),,,,silence,---- --------- ---------- - --- ------- -- --- ------------<br>----- -- -------- ------- ---- ------ - -------- ---- -----<br>--- ------- ---- -- --- -------- --- - ----- ------ ---- --<br>-------- --- -------- -------- --- -------- ---- -- ----- -<br>-------- ---- --- ---------- declining -- ------- ------ -<br>--------- ----- -----,189764.10000002384,189763.30000007153,188945.78,188956.39999997616,188962.446,189779.08,,45,declining
screen,html.Screen,0_4_1_0_1_46,2021-11-26T12:02:13.924Z,,,,,,,,,,,,,,,,15,,,,,,,,,,,,,,504.2200000715384,,response,,,7,D,,,,,Space,keypress(Space),,,,silence,---- --------- ---------- - --- ------- -- --- ------------<br>----- -- -------- ------- ---- ------ - -------- ---- -----<br>--- ------- ---- -- --- -------- --- - ----- ------ ---- --<br>-------- --- -------- -------- --- -------- ---- -- ----- -<br>-------- ---- --- ---------- --------- to ------- ------ -<br>--------- ----- -----,190284.10000002384,190283.30000007153,189762.414,189764.39999997616,189779.08,190295.726,,46,to
screen,html.Screen,0_4_1_0_1_47,2021-11-26T12:02:14.356Z,,,,,,,,,,,,,,,,15,,,,,,,,,,,,,,419.37400002384675,,response,,,7,D,,,,,Space,keypress(Space),,,,silence,---- --------- ---------- - --- ------- -- --- ------------<br>----- -- -------- ------- ---- ------ - -------- ---- -----<br>--- ------- ---- -- --- -------- --- - ----- ------ ---- --<br>-------- --- -------- -------- --- -------- ---- -- ----- -<br>-------- ---- --- ---------- --------- -- testify ------ -<br>--------- ----- -----,190716,190715.10000002384,190279.06,190284.30000007153,190295.726,190729.042,,47,testify
screen,html.Screen,0_4_1_0_1_48,2021-11-26T12:02:14.804Z,,,,,,,,,,,,,,,,15,,,,,,,,,,,,,,434.158000047697,,response,,,7,D,,,,,Space,keypress(Space),,,,silence,---- --------- ---------- - --- ------- -- --- ------------<br>----- -- -------- ------- ---- ------ - -------- ---- -----<br>--- ------- ---- -- --- -------- --- - ----- ------ ---- --<br>-------- --- -------- -------- --- -------- ---- -- ----- -<br>-------- ---- --- ---------- --------- -- ------- before -<br>--------- ----- -----,191164,191163.20000004768,190712.376,190716.20000004768,190729.042,191179.024,,48,before
screen,html.Screen,0_4_1_0_1_49,2021-11-26T12:02:15.204Z,,,,,,,,,,,,,,,,15,,,,,,,,,,,,,,384.1760000476788,,response,,,7,D,,,,,Space,keypress(Space),,,,silence,---- --------- ---------- - --- ------- -- --- ------------<br>----- -- -------- ------- ---- ------ - -------- ---- -----<br>--- ------- ---- -- --- -------- --- - ----- ------ ---- --<br>-------- --- -------- -------- --- -------- ---- -- ----- -<br>-------- ---- --- ---------- --------- -- ------- ------ a<br>--------- ----- -----,191564,191563.20000004768,191162.358,191164.30000007153,191179.024,191579.008,,49,a
screen,html.Screen,0_4_1_0_1_50,2021-11-26T12:02:15.900Z,,,,,,,,,,,,,,,,15,,,,,,,,,,,,,,680.0920000238402,,response,,,7,D,,,,,Space,keypress(Space),,,,silence,---- --------- ---------- - --- ------- -- --- ------------<br>----- -- -------- ------- ---- ------ - -------- ---- -----<br>--- ------- ---- -- --- -------- --- - ----- ------ ---- --<br>-------- --- -------- -------- --- -------- ---- -- ----- -<br>-------- ---- --- ---------- --------- -- ------- ------ -<br>different ----- -----,192260,192259.10000002384,191562.342,191564.20000004768,191579.008,192262.314,,50,different
screen,html.Screen,0_4_1_0_1_51,2021-11-26T12:02:16.476Z,,,,,,,,,,,,,,,,15,,,,,,,,,,,,,,573.185999999987,,response,,,7,D,,,,,Space,keypress(Space),,,,silence,---- --------- ---------- - --- ------- -- --- ------------<br>----- -- -------- ------- ---- ------ - -------- ---- -----<br>--- ------- ---- -- --- -------- --- - ----- ------ ---- --<br>-------- --- -------- -------- --- -------- ---- -- ----- -<br>-------- ---- --- ---------- --------- -- ------- ------ -<br>--------- grand -----,192836.30000007153,192835.5,192245.648,192260.20000004768,192262.314,192845.624,,51,grand
screen,html.Screen,0_4_1_0_1_52,2021-11-26T12:02:17.059Z,,,,,,,,,,,,,,,,15,,,,,,,,,,,,,,573.4760000238311,,response,,,7,D,,,,,Space,keypress(Space),,,,silence,---- --------- ---------- - --- ------- -- --- ------------<br>----- -- -------- ------- ---- ------ - -------- ---- -----<br>--- ------- ---- -- --- -------- --- - ----- ------ ---- --<br>-------- --- -------- -------- --- -------- ---- -- ----- -<br>-------- ---- --- ---------- --------- -- ------- ------ -<br>--------- ----- jury.,193419.89999997616,193419.10000002384,192828.958,192836.5,192845.624,193428.934,,52,jury.
Item 7,flow.Loop,0_4_1_0_1,2021-11-26T12:02:17.060Z,,,,,,,,,,,,,,,,,,,,,,,,,,,,,,32672.192000023846,,completion,,,,,,,,,,,,,,,,193420.20000004768,193419.10000002384,160730.242,160732.30000007153,160746.908,193428.934,,,
Question 1,html.Screen,0_4_1_0_2,2021-11-26T12:02:21.048Z,,,,,,,,,,,,,,,,,,,,,,,,,,,false,FALSE,,3977.866000071517,,response,,,7,D,,,,,TRUE,click #choice-1,,,,silence,,197408,197406.80000007153,193412.268,193420.5,193428.934,197412.108,,,
