sender,sender_type,sender_id,timestamp,meta,,Blues,Classical,Country,Dance,Electronic,Folk,Gospel,Hip-Hop,Jazz,Latin,Musical/Film,New-age,Pop,Provo_ID,R&B,Rap,Reggae,Religious,Rock,Soul,Swing,Traditional,age,artist_name,correct,correctResponse,distraction,duration,education,ended_on,familiarity,gender,item,list,music_frequency,offensiveness,pleasantness,preference,response,response_action,snippet_file,song_name,song_rating,sound,text,time_commit,time_end,time_render,time_run,time_show,time_switch,url,word,word_ID
Instructions,html.Page,0_0,2021-11-19T10:45:03.694Z,"{""labjs_version"":""20.2.3"",""labjs_build"":{""flavor"":""production"",""commit"":""7ea907d66ca8aeef8054924ca5d82ffbe11e34e5""},""location"":""https://run.pavlovia.org/mvasilev/lab_music_b/"",""userAgent"":""Mozilla/5.0 (Windows NT 6.1; Win64; x64) AppleWebKit/537.36 (KHTML, like Gecko) Chrome/96.0.4664.45 Safari/537.36"",""platform"":""Win32"",""language"":""en-US"",""locale"":""en-US"",""timeZone"":""Europe/London"",""timezoneOffset"":0,""screen_width"":1920,""screen_height"":1080,""scroll_width"":1920,""scroll_height"":959,""window_innerWidth"":1920,""window_innerHeight"":1007,""devicePixelRatio"":1}",,,,,,,,,,,,,,,,,,,,,,,,,,,,,3144.346999904632,,form submission,,,,,,,,,,,,,,,,26446.200000047684,26445.099999904633,23267.455,23277,23300.753,26458.727,{},,
Headphones,html.Page,0_1,2021-11-19T10:45:08.427Z,,,,,,,,,,,,,,,,,,,,,,,,,,,,,,4720.572999952317,,form submission,,,,,,,,,,,,,,,,31179.900000095367,31179.299999952316,26442.056,26446.900000095367,26458.727,31193.478,,,
Holding screen,html.Screen,0_2_0_0,2021-11-19T10:45:18.432Z,,,,,,,,,,,,,,,,,,,,,,,,,,,,,,10002.418000000001,,timeout,,,,,,,,,,,,,,,,41184.5,41179.226,31176.806,31180.599999904633,31193.478,41195.896,,,
screen,html.Screen,0_2_0_1_0,2021-11-19T10:45:20.443Z,,,,,,,,,,,,,,,,53,,,,,,,,,,,,,,1997.703999904632,,response,,,99,,,,,,Space,keypress(Space),,,,,When -- ----- -- ------ - ------- --- ----------<br>------------- ------ ------ ---- ---- ------- ----- -- ----<br>-------- ------- -- ---------- --- - --- ----- ----- ----<br>---- --- --- ----- --- ---- ---- ------- ----- ---- -------<br>--- --- -- ----- -- --- ---- -- --- ---- -- ------ ------<br>--- ----- -- ----,43195.09999990463,43193.59999990463,41179.226,41184.90000009537,41195.896,43196.797,,0,When
screen,html.Screen,0_2_0_1_1,2021-11-19T10:45:21.530Z,,,,,,,,,,,,,,,,53,,,,,,,,,,,,,,1084.802999904634,,response,,,99,,,,,,Space,keypress(Space),,,,,---- it ----- -- ------ - ------- --- ----------<br>------------- ------ ------ ---- ---- ------- ----- -- ----<br>-------- ------- -- ---------- --- - --- ----- ----- ----<br>---- --- --- ----- --- ---- ---- ------- ----- ---- -------<br>--- --- -- ----- -- --- ---- -- --- ---- -- ------ ------<br>--- ----- -- ----,44282.5,44281.59999990463,43180.125,43195.5,43196.797,44296.795,,1,it
screen,html.Screen,0_2_0_1_2,2021-11-19T10:45:22.730Z,,,,,,,,,,,,,,,,53,,,,,,,,,,,,,,1184.7050000000017,,response,,,99,,,,,,Space,keypress(Space),,,,,---- -- comes -- ------ - ------- --- ----------<br>------------- ------ ------ ---- ---- ------- ----- -- ----<br>-------- ------- -- ---------- --- - --- ----- ----- ----<br>---- --- --- ----- --- ---- ---- ------- ----- ---- -------<br>--- --- -- ----- -- --- ---- -- --- ---- -- ------ ------<br>--- ----- -- ----,45482.5,45481.5,44280.125,44282.700000047684,44296.795,45497.234,,2,comes
screen,html.Screen,0_2_0_1_3,2021-11-19T10:45:23.314Z,,,,,,,,,,,,,,,,53,,,,,,,,,,,,,,568.2660000000033,,response,,,99,,,,,,Space,keypress(Space),,,,,---- -- ----- to ------ - ------- --- ----------<br>------------- ------ ------ ---- ---- ------- ----- -- ----<br>-------- ------- -- ---------- --- - --- ----- ----- ----<br>---- --- --- ----- --- ---- ---- ------- ----- ---- -------<br>--- --- -- ----- -- --- ---- -- --- ---- -- ------ ------<br>--- ----- -- ----,46066.5,46065.5,45480.563,45482.700000047684,45497.234,46080.656,,3,to
screen,html.Screen,0_2_0_1_4,2021-11-19T10:45:24.010Z,,,,,,,,,,,,,,,,53,,,,,,,,,,,,,,680.8439999999973,,response,,,99,,,,,,Space,keypress(Space),,,,,---- -- ----- -- having - ------- --- ----------<br>------------- ------ ------ ---- ---- ------- ----- -- ----<br>-------- ------- -- ---------- --- - --- ----- ----- ----<br>---- --- --- ----- --- ---- ---- ------- ----- ---- -------<br>--- --- -- ----- -- --- ---- -- --- ---- -- ------ ------<br>--- ----- -- ----,46762.700000047684,46761.5,46063.986,46066.90000009537,46080.656,46764.245,,4,having
screen,html.Screen,0_2_0_1_5,2021-11-19T10:45:24.602Z,,,,,,,,,,,,,,,,53,,,,,,,,,,,,,,589.0549999523137,,response,,,99,,,,,,Space,keypress(Space),,,,,---- -- ----- -- ------ a ------- --- ----------<br>------------- ------ ------ ---- ---- ------- ----- -- ----<br>-------- ------- -- ---------- --- - --- ----- ----- ----<br>---- --- --- ----- --- ---- ---- ------- ----- ---- -------<br>--- --- -- ----- -- --- ---- -- --- ---- -- ------ ------<br>--- ----- -- ----,47354.299999952316,47353.299999952316,46747.574,46762.90000009537,46764.245,47364.412,,5,a
screen,html.Screen,0_2_0_1_6,2021-11-19T10:45:25.474Z,,,,,,,,,,,,,,,,53,,,,,,,,,,,,,,860.8879999523197,,response,,,99,,,,,,Space,keypress(Space),,,,,---- -- ----- -- ------ - lasting --- ----------<br>------------- ------ ------ ---- ---- ------- ----- -- ----<br>-------- ------- -- ---------- --- - --- ----- ----- ----<br>---- --- --- ----- --- ---- ---- ------- ----- ---- -------<br>--- --- -- ----- -- --- ---- -- --- ---- -- ------ ------<br>--- ----- -- ----,48226.200000047684,48225.299999952316,47347.741,47354.700000047684,47364.412,48231.313,,6,lasting
screen,html.Screen,0_2_0_1_7,2021-11-19T10:45:26.050Z,,,,,,,,,,,,,,,,53,,,,,,,,,,,,,,570.0870000953655,,response,,,99,,,,,,Space,keypress(Space),,,,,---- -- ----- -- ------ - ------- and ----------<br>------------- ------ ------ ---- ---- ------- ----- -- ----<br>-------- ------- -- ---------- --- - --- ----- ----- ----<br>---- --- --- ----- --- ---- ---- ------- ----- ---- -------<br>--- --- -- ----- -- --- ---- -- --- ---- -- ------ ------<br>--- ----- -- ----,48802.299999952316,48801.40000009537,48214.642,48226.59999990463,48231.313,48814.748,,7,and
screen,html.Screen,0_2_0_1_8,2021-11-19T10:45:26.586Z,,,,,,,,,,,,,,,,53,,,,,,,,,,,,,,522.9520000476841,,response,,,99,,,,,,Space,keypress(Space),,,,,---- -- ----- -- ------ - ------- --- fulfilling<br>------------- ------ ------ ---- ---- ------- ----- -- ----<br>-------- ------- -- ---------- --- - --- ----- ----- ----<br>---- --- --- ----- --- ---- ---- ------- ----- ---- -------<br>--- --- -- ----- -- --- ---- -- --- ---- -- ------ ------<br>--- ----- -- ----,49338.799999952316,49337.700000047684,48798.078,48802.5,48814.748,49348.201,,8,fulfilling
screen,html.Screen,0_2_0_1_9,2021-11-19T10:45:27.186Z,,,,,,,,,,,,,,,,53,,,,,,,,,,,,,,588.9990000476828,,response,,,99,,,,,,Space,keypress(Space),,,,,"---- -- ----- -- ------ - ------- --- ----------<br>relationship, ------ ------ ---- ---- ------- ----- -- ----<br>-------- ------- -- ---------- --- - --- ----- ----- ----<br>---- --- --- ----- --- ---- ---- ------- ----- ---- -------<br>--- --- -- ----- -- --- ---- -- --- ---- -- ------ ------<br>--- ----- -- ----",49938.200000047684,49937.200000047684,49331.531,49339,49348.201,49948.441,,9,"relationship,"
screen,html.Screen,0_2_0_1_10,2021-11-19T10:45:27.850Z,,,,,,,,,,,,,,,,53,,,,,,,,,,,,,,652.9590000953685,,response,,,99,,,,,,Space,keypress(Space),,,,,---- -- ----- -- ------ - ------- --- ----------<br>------------- common ------ ---- ---- ------- ----- -- ----<br>-------- ------- -- ---------- --- - --- ----- ----- ----<br>---- --- --- ----- --- ---- ---- ------- ----- ---- -------<br>--- --- -- ----- -- --- ---- -- --- ---- -- ------ ------<br>--- ----- -- ----,50602.200000047684,50601.40000009537,49931.77,49938.5,49948.441,50615.29,,10,common
screen,html.Screen,0_2_0_1_11,2021-11-19T10:45:28.330Z,,,,,,,,,,,,,,,,53,,,,,,,,,,,,,,466.0099999523154,,response,,,99,,,,,,Space,keypress(Space),,,,,---- -- ----- -- ------ - ------- --- ----------<br>------------- ------ wisdom ---- ---- ------- ----- -- ----<br>-------- ------- -- ---------- --- - --- ----- ----- ----<br>---- --- --- ----- --- ---- ---- ------- ----- ---- -------<br>--- --- -- ----- -- --- ---- -- --- ---- -- ------ ------<br>--- ----- -- ----,51082.200000047684,51081.299999952316,50598.619,50602.5,50615.29,51098.707,,11,wisdom
screen,html.Screen,0_2_0_1_12,2021-11-19T10:45:28.754Z,,,,,,,,,,,,,,,,53,,,,,,,,,,,,,,406.59299995231413,,response,,,99,,,,,,Space,keypress(Space),,,,,---- -- ----- -- ------ - ------- --- ----------<br>------------- ------ ------ says ---- ------- ----- -- ----<br>-------- ------- -- ---------- --- - --- ----- ----- ----<br>---- --- --- ----- --- ---- ---- ------- ----- ---- -------<br>--- --- -- ----- -- --- ---- -- --- ---- -- ------ ------<br>--- ----- -- ----,51506.09999990463,51505.299999952316,51082.037,51082.5,51098.707,51515.528,,12,says
screen,html.Screen,0_2_0_1_13,2021-11-19T10:45:29.121Z,,,,,,,,,,,,,,,,53,,,,,,,,,,,,,,357.57199990463414,,response,,,99,,,,,,Space,keypress(Space),,,,,---- -- ----- -- ------ - ------- --- ----------<br>------------- ------ ------ ---- that ------- ----- -- ----<br>-------- ------- -- ---------- --- - --- ----- ----- ----<br>---- --- --- ----- --- ---- ---- ------- ----- ---- -------<br>--- --- -- ----- -- --- ---- -- --- ---- -- ------ ------<br>--- ----- -- ----,51873.5,51873.09999990463,51498.857,51506.40000009537,51515.528,51882.299,,13,that
screen,html.Screen,0_2_0_1_14,2021-11-19T10:45:30.098Z,,,,,,,,,,,,,,,,53,,,,,,,,,,,,,,966.9010000476846,,response,,,99,,,,,,Space,keypress(Space),,,,,---- -- ----- -- ------ - ------- --- ----------<br>------------- ------ ------ ---- ---- feeling ----- -- ----<br>-------- ------- -- ---------- --- - --- ----- ----- ----<br>---- --- --- ----- --- ---- ---- ------- ----- ---- -------<br>--- --- -- ----- -- --- ---- -- --- ---- -- ------ ------<br>--- ----- -- ----,52850.09999990463,52849.200000047684,51865.628,51873.5,51882.299,52865.819,,14,feeling
screen,html.Screen,0_2_0_1_15,2021-11-19T10:45:30.913Z,,,,,,,,,,,,,,,,53,,,,,,,,,,,,,,799.3810000476806,,response,,,99,,,,,,Space,keypress(Space),,,,,---- -- ----- -- ------ - ------- --- ----------<br>------------- ------ ------ ---- ---- ------- close -- ----<br>-------- ------- -- ---------- --- - --- ----- ----- ----<br>---- --- --- ----- --- ---- ---- ------- ----- ---- -------<br>--- --- -- ----- -- --- ---- -- --- ---- -- ------ ------<br>--- ----- -- ----,53666,53665.200000047684,52849.149,52850.299999952316,52865.819,53682.67,,15,close
screen,html.Screen,0_2_0_1_16,2021-11-19T10:45:31.289Z,,,,,,,,,,,,,,,,53,,,,,,,,,,,,,,358.53000004768546,,response,,,99,,,,,,Space,keypress(Space),,,,,---- -- ----- -- ------ - ------- --- ----------<br>------------- ------ ------ ---- ---- ------- ----- to ----<br>-------- ------- -- ---------- --- - --- ----- ----- ----<br>---- --- --- ----- --- ---- ---- ------- ----- ---- -------<br>--- --- -- ----- -- --- ---- -- --- ---- -- ------ ------<br>--- ----- -- ----,54041.90000009537,54041.200000047684,53666,53666.299999952316,53682.67,54049.551,,16,to
screen,html.Screen,0_2_0_1_17,2021-11-19T10:45:31.657Z,,,,,,,,,,,,,,,,53,,,,,,,,,,,,,,359.64900004768424,,response,,,99,,,,,,Space,keypress(Space),,,,,---- -- ----- -- ------ - ------- --- ----------<br>------------- ------ ------ ---- ---- ------- ----- -- your<br>-------- ------- -- ---------- --- - --- ----- ----- ----<br>---- --- --- ----- --- ---- ---- ------- ----- ---- -------<br>--- --- -- ----- -- --- ---- -- --- ---- -- ------ ------<br>--- ----- -- ----,54410,54409.200000047684,54032.88,54042.200000047684,54049.551,54416.314,,17,your
screen,html.Screen,0_2_0_1_18,2021-11-19T10:45:32.105Z,,,,,,,,,,,,,,,,53,,,,,,,,,,,,,,440.7859999046341,,response,,,99,,,,,,Space,keypress(Space),,,,,---- -- ----- -- ------ - ------- --- ----------<br>------------- ------ ------ ---- ---- ------- ----- -- ----<br>romantic ------- -- ---------- --- - --- ----- ----- ----<br>---- --- --- ----- --- ---- ---- ------- ----- ---- -------<br>--- --- -- ----- -- --- ---- -- --- ---- -- ------ ------<br>--- ----- -- ----,54857.90000009537,54857.09999990463,54399.643,54410.200000047684,54416.314,54866.264,,18,romantic
screen,html.Screen,0_2_0_1_19,2021-11-19T10:45:32.521Z,,,,,,,,,,,,,,,,53,,,,,,,,,,,,,,406.8359999046297,,response,,,99,,,,,,Space,keypress(Space),,,,,---- -- ----- -- ------ - ------- --- ----------<br>------------- ------ ------ ---- ---- ------- ----- -- ----<br>-------- partner -- ---------- --- - --- ----- ----- ----<br>---- --- --- ----- --- ---- ---- ------- ----- ---- -------<br>--- --- -- ----- -- --- ---- -- --- ---- -- ------ ------<br>--- ----- -- ----,55273.90000009537,55273.09999990463,54849.596,54858.200000047684,54866.264,55283.319,,19,partner
screen,html.Screen,0_2_0_1_20,2021-11-19T10:45:32.897Z,,,,,,,,,,,,,,,,53,,,,,,,,,,,,,,365.7809999046294,,response,,,99,,,,,,Space,keypress(Space),,,,,---- -- ----- -- ------ - ------- --- ----------<br>------------- ------ ------ ---- ---- ------- ----- -- ----<br>-------- ------- is ---------- --- - --- ----- ----- ----<br>---- --- --- ----- --- ---- ---- ------- ----- ---- -------<br>--- --- -- ----- -- --- ---- -- --- ---- -- ------ ------<br>--- ----- -- ----,55649.90000009537,55649.09999990463,55266.646,55274.09999990463,55283.319,55666.484,,20,is
screen,html.Screen,0_2_0_1_21,2021-11-19T10:45:34.106Z,,,,,,,,,,,,,,,,53,,,,,,,,,,,,,,1190.716000047687,,response,,,99,,,,,,Space,keypress(Space),,,,,---- -- ----- -- ------ - ------- --- ----------<br>------------- ------ ------ ---- ---- ------- ----- -- ----<br>-------- ------- -- paramount. --- - --- ----- ----- ----<br>---- --- --- ----- --- ---- ---- ------- ----- ---- -------<br>--- --- -- ----- -- --- ---- -- --- ---- -- ------ ------<br>--- ----- -- ----,56858.09999990463,56857.200000047684,55649.816,55650.200000047684,55666.484,56867.054,,21,paramount.
screen,html.Screen,0_2_0_1_22,2021-11-19T10:45:34.697Z,,,,,,,,,,,,,,,,53,,,,,,,,,,,,,,582.0459999046361,,response,,,99,,,,,,Space,keypress(Space),,,,,---- -- ----- -- ------ - ------- --- ----------<br>------------- ------ ------ ---- ---- ------- ----- -- ----<br>-------- ------- -- ---------- But - --- ----- ----- ----<br>---- --- --- ----- --- ---- ---- ------- ----- ---- -------<br>--- --- -- ----- -- --- ---- -- --- ---- -- ------ ------<br>--- ----- -- ----,57449.799999952316,57449.09999990463,56850.382,56858.5,56867.054,57467.103,,22,But
screen,html.Screen,0_2_0_1_23,2021-11-19T10:45:35.041Z,,,,,,,,,,,,,,,,53,,,,,,,,,,,,,,325.8969999999972,,response,,,99,,,,,,Space,keypress(Space),,,,,---- -- ----- -- ------ - ------- --- ----------<br>------------- ------ ------ ---- ---- ------- ----- -- ----<br>-------- ------- -- ---------- --- a --- ----- ----- ----<br>---- --- --- ----- --- ---- ---- ------- ----- ---- -------<br>--- --- -- ----- -- --- ---- -- --- ---- -- ------ ------<br>--- ----- -- ----,57793.799999952316,57793,57450.432,57450.200000047684,57467.103,57800.436,,23,a
screen,html.Screen,0_2_0_1_24,2021-11-19T10:45:35.361Z,,,,,,,,,,,,,,,,53,,,,,,,,,,,,,,312.5639999999985,,response,,,99,,,,,,Space,keypress(Space),,,,,---- -- ----- -- ------ - ------- --- ----------<br>------------- ------ ------ ---- ---- ------- ----- -- ----<br>-------- ------- -- ---------- --- - new ----- ----- ----<br>---- --- --- ----- --- ---- ---- ------- ----- ---- -------<br>--- --- -- ----- -- --- ---- -- --- ---- -- ------ ------<br>--- ----- -- ----,58113.799999952316,58113,57783.766,57794.09999990463,57800.436,58117.315,,24,new
screen,html.Screen,0_2_0_1_25,2021-11-19T10:45:35.689Z,,,,,,,,,,,,,,,,53,,,,,,,,,,,,,,323.6849999999977,,response,,,99,,,,,,Space,keypress(Space),,,,,---- -- ----- -- ------ - ------- --- ----------<br>------------- ------ ------ ---- ---- ------- ----- -- ----<br>-------- ------- -- ---------- --- - --- study ----- ----<br>---- --- --- ----- --- ---- ---- ------- ----- ---- -------<br>--- --- -- ----- -- --- ---- -- --- ---- -- ------ ------<br>--- ----- -- ----,58441.799999952316,58441,58100.643,58114.200000047684,58117.315,58450.653,,25,study
screen,html.Screen,0_2_0_1_26,2021-11-19T10:45:36.089Z,,,,,,,,,,,,,,,,53,,,,,,,,,,,,,,390.3470000000016,,response,,,99,,,,,,Space,keypress(Space),,,,,---- -- ----- -- ------ - ------- --- ----------<br>------------- ------ ------ ---- ---- ------- ----- -- ----<br>-------- ------- -- ---------- --- - --- ----- finds ----<br>---- --- --- ----- --- ---- ---- ------- ----- ---- -------<br>--- --- -- ----- -- --- ---- -- --- ---- -- ------ ------<br>--- ----- -- ----,58841.799999952316,58841,58433.983,58442.09999990463,58450.653,58850.917,,26,finds
screen,html.Screen,0_2_0_1_27,2021-11-19T10:45:36.409Z,,,,,,,,,,,,,,,,53,,,,,,,,,,,,,,310.0829999999987,,response,,,99,,,,,,Space,keypress(Space),,,,,---- -- ----- -- ------ - ------- --- ----------<br>------------- ------ ------ ---- ---- ------- ----- -- ----<br>-------- ------- -- ---------- --- - --- ----- ----- that<br>---- --- --- ----- --- ---- ---- ------- ----- ---- -------<br>--- --- -- ----- -- --- ---- -- --- ---- -- ------ ------<br>--- ----- -- ----,59161.90000009537,59161,58834.244,58842.200000047684,58850.917,59167.587,,27,that
screen,html.Screen,0_2_0_1_28,2021-11-19T10:45:37.026Z,,,,,,,,,,,,,,,,53,,,,,,,,,,,,,,609.8130000953679,,response,,,99,,,,,,Space,keypress(Space),,,,,---- -- ----- -- ------ - ------- --- ----------<br>------------- ------ ------ ---- ---- ------- ----- -- ----<br>-------- ------- -- ---------- --- - --- ----- ----- ----<br>it's --- --- ----- --- ---- ---- ------- ----- ---- -------<br>--- --- -- ----- -- --- ---- -- --- ---- -- ------ ------<br>--- ----- -- ----,59778.200000047684,59777.40000009537,59150.916,59162.200000047684,59167.587,59784.43,,28,it's
screen,html.Screen,0_2_0_1_29,2021-11-19T10:45:37.404Z,,,,,,,,,,,,,,,,53,,,,,,,,,,,,,,368.47000009536714,,response,,,99,,,,,,Space,keypress(Space),,,,,---- -- ----- -- ------ - ------- --- ----------<br>------------- ------ ------ ---- ---- ------- ----- -- ----<br>-------- ------- -- ---------- --- - --- ----- ----- ----<br>---- not --- ----- --- ---- ---- ------- ----- ---- -------<br>--- --- -- ----- -- --- ---- -- --- ---- -- ------ ------<br>--- ----- -- ----,60153.700000047684,60152.90000009537,59767.759,59778.5,59784.43,60167.789,,29,not
screen,html.Screen,0_2_0_1_30,2021-11-19T10:45:37.868Z,,,,,,,,,,,,,,,,53,,,,,,,,,,,,,,449.1110000953704,,response,,,99,,,,,,Space,keypress(Space),,,,,---- -- ----- -- ------ - ------- --- ----------<br>------------- ------ ------ ---- ---- ------- ----- -- ----<br>-------- ------- -- ---------- --- - --- ----- ----- ----<br>---- --- how ----- --- ---- ---- ------- ----- ---- -------<br>--- --- -- ----- -- --- ---- -- --- ---- -- ------ ------<br>--- ----- -- ----,60617.90000009537,60616.90000009537,60151.119,60154,60167.789,60634.631,,30,how
screen,html.Screen,0_2_0_1_31,2021-11-19T10:45:38.204Z,,,,,,,,,,,,,,,,53,,,,,,,,,,,,,,318.2690000953662,,response,,,99,,,,,,Space,keypress(Space),,,,,---- -- ----- -- ------ - ------- --- ----------<br>------------- ------ ------ ---- ---- ------- ----- -- ----<br>-------- ------- -- ---------- --- - --- ----- ----- ----<br>---- --- --- close --- ---- ---- ------- ----- ---- -------<br>--- --- -- ----- -- --- ---- -- --- ---- -- ------ ------<br>--- ----- -- ----,60953.59999990463,60952.90000009537,60617.96,60618.299999952316,60634.631,60968.039,,31,close
screen,html.Screen,0_2_0_1_32,2021-11-19T10:45:38.572Z,,,,,,,,,,,,,,,,53,,,,,,,,,,,,,,352.8610000953704,,response,,,99,,,,,,Space,keypress(Space),,,,,---- -- ----- -- ------ - ------- --- ----------<br>------------- ------ ------ ---- ---- ------- ----- -- ----<br>-------- ------- -- ---------- --- - --- ----- ----- ----<br>---- --- --- ----- you ---- ---- ------- ----- ---- -------<br>--- --- -- ----- -- --- ---- -- --- ---- -- ------ ------<br>--- ----- -- ----,61321.700000047684,61320.90000009537,60951.369,60953.90000009537,60968.039,61334.837,,32,you
screen,html.Screen,0_2_0_1_33,2021-11-19T10:45:39.052Z,,,,,,,,,,,,,,,,53,,,,,,,,,,,,,,465.96299995231675,,response,,,99,,,,,,Space,keypress(Space),,,,,---- -- ----- -- ------ - ------- --- ----------<br>------------- ------ ------ ---- ---- ------- ----- -- ----<br>-------- ------- -- ---------- --- - --- ----- ----- ----<br>---- --- --- ----- --- feel ---- ------- ----- ---- -------<br>--- --- -- ----- -- --- ---- -- --- ---- -- ------ ------<br>--- ----- -- ----,61801.5,61800.799999952316,61318.166,61322,61334.837,61818.302,,33,feel
screen,html.Screen,0_2_0_1_34,2021-11-19T10:45:39.364Z,,,,,,,,,,,,,,,,53,,,,,,,,,,,,,,294.5980000953641,,response,,,99,,,,,,Space,keypress(Space),,,,,---- -- ----- -- ------ - ------- --- ----------<br>------------- ------ ------ ---- ---- ------- ----- -- ----<br>-------- ------- -- ---------- --- - --- ----- ----- ----<br>---- --- --- ----- --- ---- that ------- ----- ---- -------<br>--- --- -- ----- -- --- ---- -- --- ---- -- ------ ------<br>--- ----- -- ----,62113.59999990463,62112.90000009537,61801.631,61801.799999952316,61818.302,62118.383,,34,that
screen,html.Screen,0_2_0_1_35,2021-11-19T10:45:39.884Z,,,,,,,,,,,,,,,,53,,,,,,,,,,,,,,514.4169999523147,,response,,,99,,,,,,Space,keypress(Space),,,,,---- -- ----- -- ------ - ------- --- ----------<br>------------- ------ ------ ---- ---- ------- ----- -- ----<br>-------- ------- -- ---------- --- - --- ----- ----- ----<br>---- --- --- ----- --- ---- ---- matters ----- ---- -------<br>--- --- -- ----- -- --- ---- -- --- ---- -- ------ ------<br>--- ----- -- ----,62633.59999990463,62632.799999952316,62101.712,62113.799999952316,62118.383,62635.133,,35,matters
screen,html.Screen,0_2_0_1_36,2021-11-19T10:45:40.252Z,,,,,,,,,,,,,,,,53,,,,,,,,,,,,,,365.66699995231465,,response,,,99,,,,,,Space,keypress(Space),,,,,"---- -- ----- -- ------ - ------- --- ----------<br>------------- ------ ------ ---- ---- ------- ----- -- ----<br>-------- ------- -- ---------- --- - --- ----- ----- ----<br>---- --- --- ----- --- ---- ---- ------- most, ---- -------<br>--- --- -- ----- -- --- ---- -- --- ---- -- ------ ------<br>--- ----- -- ----",63001.700000047684,63000.799999952316,62618.463,62633.799999952316,62635.133,63018.673,,36,"most,"
screen,html.Screen,0_2_0_1_37,2021-11-19T10:45:40.620Z,,,,,,,,,,,,,,,,53,,,,,,,,,,,,,,350.1269999523138,,response,,,99,,,,,,Space,keypress(Space),,,,,---- -- ----- -- ------ - ------- --- ----------<br>------------- ------ ------ ---- ---- ------- ----- -- ----<br>-------- ------- -- ---------- --- - --- ----- ----- ----<br>---- --- --- ----- --- ---- ---- ------- ----- it's -------<br>--- --- -- ----- -- --- ---- -- --- ---- -- ------ ------<br>--- ----- -- ----,63369.59999990463,63368.799999952316,63002.001,63001.90000009537,63018.673,63385.361,,37,it's
screen,html.Screen,0_2_0_1_38,2021-11-19T10:45:41.220Z,,,,,,,,,,,,,,,,53,,,,,,,,,,,,,,583.3390000476866,,response,,,99,,,,,,Space,keypress(Space),,,,,---- -- ----- -- ------ - ------- --- ----------<br>------------- ------ ------ ---- ---- ------- ----- -- ----<br>-------- ------- -- ---------- --- - --- ----- ----- ----<br>---- --- --- ----- --- ---- ---- ------- ----- ---- whether<br>--- --- -- ----- -- --- ---- -- --- ---- -- ------ ------<br>--- ----- -- ----,63969.5,63968.700000047684,63368.691,63369.799999952316,63385.361,63985.498,,38,whether
screen,html.Screen,0_2_0_1_39,2021-11-19T10:45:41.844Z,,,,,,,,,,,,,,,,53,,,,,,,,,,,,,,607.2020000476841,,response,,,99,,,,,,Space,keypress(Space),,,,,---- -- ----- -- ------ - ------- --- ----------<br>------------- ------ ------ ---- ---- ------- ----- -- ----<br>-------- ------- -- ---------- --- - --- ----- ----- ----<br>---- --- --- ----- --- ---- ---- ------- ----- ---- -------<br>you --- -- ----- -- --- ---- -- --- ---- -- ------ ------<br>--- ----- -- ----,64593.5,64592.700000047684,63968.828,63969.700000047684,63985.498,64602.373,,39,you
screen,html.Screen,0_2_0_1_40,2021-11-19T10:45:42.411Z,,,,,,,,,,,,,,,,53,,,,,,,,,,,,,,558.3270000476841,,response,,,99,,,,,,Space,keypress(Space),,,,,---- -- ----- -- ------ - ------- --- ----------<br>------------- ------ ------ ---- ---- ------- ----- -- ----<br>-------- ------- -- ---------- --- - --- ----- ----- ----<br>---- --- --- ----- --- ---- ---- ------- ----- ---- -------<br>--- are -- ----- -- --- ---- -- --- ---- -- ------ ------<br>--- ----- -- ----,65161.5,65160.700000047684,64585.702,64593.799999952316,64602.373,65169.195,,40,are
screen,html.Screen,0_2_0_1_41,2021-11-19T10:45:42.771Z,,,,,,,,,,,,,,,,53,,,,,,,,,,,,,,351.1049999523166,,response,,,99,,,,,,Space,keypress(Space),,,,,---- -- ----- -- ------ - ------- --- ----------<br>------------- ------ ------ ---- ---- ------- ----- -- ----<br>-------- ------- -- ---------- --- - --- ----- ----- ----<br>---- --- --- ----- --- ---- ---- ------- ----- ---- -------<br>--- --- as ----- -- --- ---- -- --- ---- -- ------ ------<br>--- ----- -- ----,65520.59999990463,65520.299999952316,65152.524,65161.700000047684,65169.195,65535.967,,41,as
screen,html.Screen,0_2_0_1_42,2021-11-19T10:45:43.347Z,,,,,,,,,,,,,,,,53,,,,,,,,,,,,,,560.6329999046357,,response,,,99,,,,,,Space,keypress(Space),,,,,---- -- ----- -- ------ - ------- --- ----------<br>------------- ------ ------ ---- ---- ------- ----- -- ----<br>-------- ------- -- ---------- --- - --- ----- ----- ----<br>---- --- --- ----- --- ---- ---- ------- ----- ---- -------<br>--- --- -- close -- --- ---- -- --- ---- -- ------ ------<br>--- ----- -- ----,66097.40000009537,66096.59999990463,65519.296,65520.799999952316,65535.967,66102.639,,42,close
screen,html.Screen,0_2_0_1_43,2021-11-19T10:45:43.667Z,,,,,,,,,,,,,,,,53,,,,,,,,,,,,,,313.960999904637,,response,,,99,,,,,,Space,keypress(Space),,,,,---- -- ----- -- ------ - ------- --- ----------<br>------------- ------ ------ ---- ---- ------- ----- -- ----<br>-------- ------- -- ---------- --- - --- ----- ----- ----<br>---- --- --- ----- --- ---- ---- ------- ----- ---- -------<br>--- --- -- ----- as --- ---- -- --- ---- -- ------ ------<br>--- ----- -- ----,66417.40000009537,66416.59999990463,66085.97,66097.70000004768,66102.639,66419.36,,43,as
screen,html.Screen,0_2_0_1_44,2021-11-19T10:45:43.971Z,,,,,,,,,,,,,,,,53,,,,,,,,,,,,,,301.34000004768313,,response,,,99,,,,,,Space,keypress(Space),,,,,---- -- ----- -- ------ - ------- --- ----------<br>------------- ------ ------ ---- ---- ------- ----- -- ----<br>-------- ------- -- ---------- --- - --- ----- ----- ----<br>---- --- --- ----- --- ---- ---- ------- ----- ---- -------<br>--- --- -- ----- -- you ---- -- --- ---- -- ------ ------<br>--- ----- -- ----,66721.40000009537,66720.70000004768,66402.691,66417.70000004768,66419.36,66736.366,,44,you
screen,html.Screen,0_2_0_1_45,2021-11-19T10:45:44.571Z,,,,,,,,,,,,,,,,53,,,,,,,,,,,,,,584.3340000476892,,response,,,99,,,,,,Space,keypress(Space),,,,,---- -- ----- -- ------ - ------- --- ----------<br>------------- ------ ------ ---- ---- ------- ----- -- ----<br>-------- ------- -- ---------- --- - --- ----- ----- ----<br>---- --- --- ----- --- ---- ---- ------- ----- ---- -------<br>--- --- -- ----- -- --- want -- --- ---- -- ------ ------<br>--- ----- -- ----,67321.40000009537,67320.70000004768,66719.693,66721.59999990463,66736.366,67336.395,,45,want
screen,html.Screen,0_2_0_1_46,2021-11-19T10:45:44.891Z,,,,,,,,,,,,,,,,53,,,,,,,,,,,,,,304.2049999046285,,response,,,99,,,,,,Space,keypress(Space),,,,,---- -- ----- -- ------ - ------- --- ----------<br>------------- ------ ------ ---- ---- ------- ----- -- ----<br>-------- ------- -- ---------- --- - --- ----- ----- ----<br>---- --- --- ----- --- ---- ---- ------- ----- ---- -------<br>--- --- -- ----- -- --- ---- to --- ---- -- ------ ------<br>--- ----- -- ----,67641.40000009537,67640.59999990463,67319.725,67321.70000004768,67336.395,67653.014,,46,to
screen,html.Screen,0_2_0_1_47,2021-11-19T10:45:45.203Z,,,,,,,,,,,,,,,,53,,,,,,,,,,,,,,299.585999904637,,response,,,99,,,,,,Space,keypress(Space),,,,,"---- -- ----- -- ------ - ------- --- ----------<br>------------- ------ ------ ---- ---- ------- ----- -- ----<br>-------- ------- -- ---------- --- - --- ----- ----- ----<br>---- --- --- ----- --- ---- ---- ------- ----- ---- -------<br>--- --- -- ----- -- --- ---- -- be, ---- -- ------ ------<br>--- ----- -- ----",67953.40000009537,67952.59999990463,67636.346,67641.59999990463,67653.014,67969.995,,47,"be,"
screen,html.Screen,0_2_0_1_48,2021-11-19T10:45:45.923Z,,,,,,,,,,,,,,,,53,,,,,,,,,,,,,,702.4050000953721,,response,,,99,,,,,,Space,keypress(Space),,,,,---- -- ----- -- ------ - ------- --- ----------<br>------------- ------ ------ ---- ---- ------- ----- -- ----<br>-------- ------- -- ---------- --- - --- ----- ----- ----<br>---- --- --- ----- --- ---- ---- ------- ----- ---- -------<br>--- --- -- ----- -- --- ---- -- --- even -- ------ ------<br>--- ----- -- ----,68672.79999995232,68672.40000009537,67953.323,67953.79999995232,67969.995,68686.757,,48,even
screen,html.Screen,0_2_0_1_49,2021-11-19T10:45:46.475Z,,,,,,,,,,,,,,,,53,,,,,,,,,,,,,,537.7430000000022,,response,,,99,,,,,,Space,keypress(Space),,,,,---- -- ----- -- ------ - ------- --- ----------<br>------------- ------ ------ ---- ---- ------- ----- -- ----<br>-------- ------- -- ---------- --- - --- ----- ----- ----<br>---- --- --- ----- --- ---- ---- ------- ----- ---- -------<br>--- --- -- ----- -- --- ---- -- --- ---- if ------ ------<br>--- ----- -- ----,69225.29999995232,69224.5,68670.087,68672.90000009537,68686.757,69236.884,,49,if
screen,html.Screen,0_2_0_1_50,2021-11-19T10:45:46.923Z,,,,,,,,,,,,,,,,53,,,,,,,,,,,,,,435.61599999999453,,response,,,99,,,,,,Space,keypress(Space),,,,,---- -- ----- -- ------ - ------- --- ----------<br>------------- ------ ------ ---- ---- ------- ----- -- ----<br>-------- ------- -- ---------- --- - --- ----- ----- ----<br>---- --- --- ----- --- ---- ---- ------- ----- ---- -------<br>--- --- -- ----- -- --- ---- -- --- ---- -- that's ------<br>--- ----- -- ----,69673.20000004768,69672.5,69220.214,69225.5,69236.884,69687.072,,50,that's
screen,html.Screen,0_2_0_1_51,2021-11-19T10:45:47.364Z,,,,,,,,,,,,,,,,53,,,,,,,,,,,,,,425.8280000953673,,response,,,99,,,,,,Space,keypress(Space),,,,,---- -- ----- -- ------ - ------- --- ----------<br>------------- ------ ------ ---- ---- ------- ----- -- ----<br>-------- ------- -- ---------- --- - --- ----- ----- ----<br>---- --- --- ----- --- ---- ---- ------- ----- ---- -------<br>--- --- -- ----- -- --- ---- -- --- ---- -- ------ really<br>--- ----- -- ----,70113.59999990463,70112.90000009537,69670.401,69673.5,69687.072,70120.477,,51,really
screen,html.Screen,0_2_0_1_52,2021-11-19T10:45:47.867Z,,,,,,,,,,,,,,,,53,,,,,,,,,,,,,,495.9230000953685,,response,,,99,,,,,,Space,keypress(Space),,,,,---- -- ----- -- ------ - ------- --- ----------<br>------------- ------ ------ ---- ---- ------- ----- -- ----<br>-------- ------- -- ---------- --- - --- ----- ----- ----<br>---- --- --- ----- --- ---- ---- ------- ----- ---- -------<br>--- --- -- ----- -- --- ---- -- --- ---- -- ------ ------<br>not ----- -- ----,70617.20000004768,70616.40000009537,70103.807,70113.79999995232,70120.477,70620.661,,52,not
screen,html.Screen,0_2_0_1_53,2021-11-19T10:45:48.155Z,,,,,,,,,,,,,,,,53,,,,,,,,,,,,,,283.8390000000072,,response,,,99,,,,,,Space,keypress(Space),,,,,---- -- ----- -- ------ - ------- --- ----------<br>------------- ------ ------ ---- ---- ------- ----- -- ----<br>-------- ------- -- ---------- --- - --- ----- ----- ----<br>---- --- --- ----- --- ---- ---- ------- ----- ---- -------<br>--- --- -- ----- -- --- ---- -- --- ---- -- ------ ------<br>--- close -- ----,70905.20000004768,70904.5,70603.99,70617.5,70620.661,70920.758,,53,close
screen,html.Screen,0_2_0_1_54,2021-11-19T10:45:48.531Z,,,,,,,,,,,,,,,,53,,,,,,,,,,,,,,359.6420000953658,,response,,,99,,,,,,Space,keypress(Space),,,,,---- -- ----- -- ------ - ------- --- ----------<br>------------- ------ ------ ---- ---- ------- ----- -- ----<br>-------- ------- -- ---------- --- - --- ----- ----- ----<br>---- --- --- ----- --- ---- ---- ------- ----- ---- -------<br>--- --- -- ----- -- --- ---- -- --- ---- -- ------ ------<br>--- ----- at ----,71281.09999990463,71280.40000009537,70904.087,70905.5,70920.758,71287.482,,54,at
screen,html.Screen,0_2_0_1_55,2021-11-19T10:45:49.091Z,,,,,,,,,,,,,,,,53,,,,,,,,,,,,,,552.9180000953638,,response,,,99,,,,,,Space,keypress(Space),,,,,---- -- ----- -- ------ - ------- --- ----------<br>------------- ------ ------ ---- ---- ------- ----- -- ----<br>-------- ------- -- ---------- --- - --- ----- ----- ----<br>---- --- --- ----- --- ---- ---- ------- ----- ---- -------<br>--- --- -- ----- -- --- ---- -- --- ---- -- ------ ------<br>--- ----- -- all.,71841.09999990463,71840.40000009537,71270.812,71281.40000009537,71287.482,71854.361,,55,all.
Item 99,flow.Loop,0_2_0_1,2021-11-19T10:45:49.096Z,,,,,,,,,,,,,,,,,,,,,,,,,,,,,,30644.504000095367,,completion,,,,B,,,,,,,,,,silence,,71845.5,71840.40000009537,41179.226,41184.799999952316,41195.896,71854.361,,,
Question 1,html.Screen,0_2_0_2,2021-11-19T10:45:58.051Z,,,,,,,,,,,,,,,,,,,,,,,,,,,true,FALSE,,8945.438999952312,,response,,,99,B,,,,,FALSE,click #choice-2,,,,silence,,80801.40000009537,80799.79999995232,71837.69,71845.79999995232,71854.361,80805.917,,,
Question 2,html.Screen,0_2_0_3,2021-11-19T10:46:07.171Z,,,,,,,,,,,,,,,,,,,,,,,,,,,true,TRUE,,9113.483000095366,,response,,,99,B,,,,,TRUE,click #choice-1,,,,silence,,89920.59999990463,89919.40000009537,80789.253,80801.70000004768,80805.917,89925.872,,,
Item 99,flow.Sequence,0_2_0,2021-11-19T10:46:07.171Z,,,,,,,,,,,,,,,,,,,,,,,,,,,,,,58725.922000095365,,completion,,,,,,,,,,,,,,,,89921.20000004768,89919.40000009537,31176.806,31180.5,31193.478,89925.872,,,
Holding screen,html.Screen,0_2_1_0,2021-11-19T10:46:17.163Z,,,,,,,,,,,,,,,,,,,,,,,,,,,,,,10002.593999999997,,timeout,,,,,,,,,,,,,,,,99912.70000004768,99911.795,89909.201,89921.59999990463,89925.872,99928.466,,,
screen,html.Screen,0_2_1_1_0,2021-11-19T10:46:18.450Z,,,,,,,,,,,,,,,,54,,,,,,,,,,,,,,1270.7340000476834,,response,,,100,,,,,,Space,keypress(Space),,,,,At --- ---- --- ------ ----- ------- ---- -- --- ------- --<br>------- ---------- ------ -- ----- -- ----- -- ---- ------<br>--- ----- --- --- ------ -------- ----- --- ------ ----- --<br>----- ----- ---------- --- --- ------ ------ ---- -- ------<br>------- --- ------ ----- --- ---- ------- -- ---- --- --<br>------- ------,101200,101199.20000004768,99911.795,99913.20000004768,99928.466,101212.317,,0,At
screen,html.Screen,0_2_1_1_1,2021-11-19T10:46:18.954Z,,,,,,,,,,,,,,,,54,,,,,,,,,,,,,,490.7829999046371,,response,,,100,,,,,,Space,keypress(Space),,,,,-- the ---- --- ------ ----- ------- ---- -- --- ------- --<br>------- ---------- ------ -- ----- -- ----- -- ---- ------<br>--- ----- --- --- ------ -------- ----- --- ------ ----- --<br>----- ----- ---------- --- --- ------ ------ ---- -- ------<br>------- --- ------ ----- --- ---- ------- -- ---- --- --<br>------- ------,101703.90000009537,101703.09999990463,101195.645,101200.29999995232,101212.317,101712.279,,1,the
screen,html.Screen,0_2_1_1_2,2021-11-19T10:46:19.250Z,,,,,,,,,,,,,,,,54,,,,,,,,,,,,,,286.8209999046376,,response,,,100,,,,,,Space,keypress(Space),,,,,-- --- time --- ------ ----- ------- ---- -- --- ------- --<br>------- ---------- ------ -- ----- -- ----- -- ---- ------<br>--- ----- --- --- ------ -------- ----- --- ------ ----- --<br>----- ----- ---------- --- --- ------ ------ ---- -- ------<br>------- --- ------ ----- --- ---- ------- -- ---- --- --<br>------- ------,101999.79999995232,101999.09999990463,101695.609,101704.09999990463,101712.279,102012.334,,2,time
screen,html.Screen,0_2_1_1_3,2021-11-19T10:46:19.594Z,,,,,,,,,,,,,,,,54,,,,,,,,,,,,,,330.76599990463,,response,,,100,,,,,,Space,keypress(Space),,,,,-- --- ---- the ------ ----- ------- ---- -- --- ------- --<br>------- ---------- ------ -- ----- -- ----- -- ---- ------<br>--- ----- --- --- ------ -------- ----- --- ------ ----- --<br>----- ----- ---------- --- --- ------ ------ ---- -- ------<br>------- --- ------ ----- --- ---- ------- -- ---- --- --<br>------- ------,102343.79999995232,102343.09999990463,101995.664,102000.09999990463,102012.334,102345.931,,3,the
screen,html.Screen,0_2_1_1_4,2021-11-19T10:46:21.914Z,,,,,,,,,,,,,,,,54,,,,,,,,,,,,,,2317.4690000953706,,response,,,100,,,,,,Space,keypress(Space),,,,,-- --- ---- --- French ----- ------- ---- -- --- ------- --<br>------- ---------- ------ -- ----- -- ----- -- ---- ------<br>--- ----- --- --- ------ -------- ----- --- ------ ----- --<br>----- ----- ---------- --- --- ------ ------ ---- -- ------<br>------- --- ------ ----- --- ---- ------- -- ---- --- --<br>------- ------,104664.20000004768,104663.40000009537,102329.258,102344.09999990463,102345.931,104679.642,,4,French
screen,html.Screen,0_2_1_1_5,2021-11-19T10:46:22.490Z,,,,,,,,,,,,,,,,54,,,,,,,,,,,,,,559.2580000953603,,response,,,100,,,,,,Space,keypress(Space),,,,,-- --- ---- --- ------ crown ------- ---- -- --- ------- --<br>------- ---------- ------ -- ----- -- ----- -- ---- ------<br>--- ----- --- --- ------ -------- ----- --- ------ ----- --<br>----- ----- ---------- --- --- ------ ------ ---- -- ------<br>------- --- ------ ----- --- ---- ------- -- ---- --- --<br>------- ------,105239.70000004768,105238.90000009537,104662.972,104664.40000009537,104679.642,105246.664,,5,crown
screen,html.Screen,0_2_1_1_6,2021-11-19T10:46:23.314Z,,,,,,,,,,,,,,,,54,,,,,,,,,,,,,,816.2360000953631,,response,,,100,,,,,,Space,keypress(Space),,,,,-- --- ---- --- ------ ----- secured ---- -- --- ------- --<br>------- ---------- ------ -- ----- -- ----- -- ---- ------<br>--- ----- --- --- ------ -------- ----- --- ------ ----- --<br>----- ----- ---------- --- --- ------ ------ ---- -- ------<br>------- --- ------ ----- --- ---- ------- -- ---- --- --<br>------- ------,106063.59999990463,106062.90000009537,105229.993,105240,105246.664,106080.19,,6,secured
screen,html.Screen,0_2_1_1_7,2021-11-19T10:46:23.898Z,,,,,,,,,,,,,,,,54,,,,,,,,,,,,,,566.7100000953651,,response,,,100,,,,,,Space,keypress(Space),,,,,-- --- ---- --- ------ ----- ------- much -- --- ------- --<br>------- ---------- ------ -- ----- -- ----- -- ---- ------<br>--- ----- --- --- ------ -------- ----- --- ------ ----- --<br>----- ----- ---------- --- --- ------ ------ ---- -- ------<br>------- --- ------ ----- --- ---- ------- -- ---- --- --<br>------- ------,106647.59999990463,106646.90000009537,106063.519,106063.90000009537,106080.19,106663.575,,7,much
screen,html.Screen,0_2_1_1_8,2021-11-19T10:46:24.546Z,,,,,,,,,,,,,,,,54,,,,,,,,,,,,,,631.2249999523192,,response,,,100,,,,,,Space,keypress(Space),,,,,-- --- ---- --- ------ ----- ------- ---- of --- ------- --<br>------- ---------- ------ -- ----- -- ----- -- ---- ------<br>--- ----- --- --- ------ -------- ----- --- ------ ----- --<br>----- ----- ---------- --- --- ------ ------ ---- -- ------<br>------- --- ------ ----- --- ---- ------- -- ---- --- --<br>------- ------,107295.5,107294.79999995232,106646.905,106647.90000009537,106663.575,107297.203,,8,of
screen,html.Screen,0_2_1_1_9,2021-11-19T10:46:25.186Z,,,,,,,,,,,,,,,,54,,,,,,,,,,,,,,637.6970000953734,,response,,,100,,,,,,Space,keypress(Space),,,,,-- --- ---- --- ------ ----- ------- ---- -- its ------- --<br>------- ---------- ------ -- ----- -- ----- -- ---- ------<br>--- ----- --- --- ------ -------- ----- --- ------ ----- --<br>----- ----- ---------- --- --- ------ ------ ---- -- ------<br>------- --- ------ ----- --- ---- ------- -- ---- --- --<br>------- ------,107935.59999990463,107934.90000009537,107280.532,107295.70000004768,107297.203,107947.302,,9,its
screen,html.Screen,0_2_1_1_10,2021-11-19T10:46:26.106Z,,,,,,,,,,,,,,,,54,,,,,,,,,,,,,,907.4979999523202,,response,,,100,,,,,,Space,keypress(Space),,,,,-- --- ---- --- ------ ----- ------- ---- -- --- revenue --<br>------- ---------- ------ -- ----- -- ----- -- ---- ------<br>--- ----- --- --- ------ -------- ----- --- ------ ----- --<br>----- ----- ---------- --- --- ------ ------ ---- -- ------<br>------- --- ------ ----- --- ---- ------- -- ---- --- --<br>------- ------,108855.5,108854.79999995232,107930.632,107935.79999995232,107947.302,108864.285,,10,revenue
screen,html.Screen,0_2_1_1_11,2021-11-19T10:46:26.618Z,,,,,,,,,,,,,,,,54,,,,,,,,,,,,,,502.5149999523128,,response,,,100,,,,,,Space,keypress(Space),,,,,-- --- ---- --- ------ ----- ------- ---- -- --- ------- by<br>------- ---------- ------ -- ----- -- ----- -- ---- ------<br>--- ----- --- --- ------ -------- ----- --- ------ ----- --<br>----- ----- ---------- --- --- ------ ------ ---- -- ------<br>------- --- ------ ----- --- ---- ------- -- ---- --- --<br>------- ------,109367.5,109366.79999995232,108847.614,108855.70000004768,108864.285,109381.077,,11,by
screen,html.Screen,0_2_1_1_12,2021-11-19T10:46:27.514Z,,,,,,,,,,,,,,,,54,,,,,,,,,,,,,,881.7229999523115,,response,,,100,,,,,,Space,keypress(Space),,,,,-- --- ---- --- ------ ----- ------- ---- -- --- ------- --<br>issuing ---------- ------ -- ----- -- ----- -- ---- ------<br>--- ----- --- --- ------ -------- ----- --- ------ ----- --<br>----- ----- ---------- --- --- ------ ------ ---- -- ------<br>------- --- ------ ----- --- ---- ------- -- ---- --- --<br>------- ------,110263.5,110262.79999995232,109364.406,109367.79999995232,109381.077,110264.645,,12,issuing
screen,html.Screen,0_2_1_1_13,2021-11-19T10:46:28.058Z,,,,,,,,,,,,,,,,54,,,,,,,,,,,,,,542.0550000476796,,response,,,100,,,,,,Space,keypress(Space),,,,,-- --- ---- --- ------ ----- ------- ---- -- --- ------- --<br>------- government ------ -- ----- -- ----- -- ---- ------<br>--- ----- --- --- ------ -------- ----- --- ------ ----- --<br>----- ----- ---------- --- --- ------ ------ ---- -- ------<br>------- --- ------ ----- --- ---- ------- -- ---- --- --<br>------- ------,110807.5,110806.70000004768,110247.974,110263.70000004768,110264.645,110814.791,,13,government
screen,html.Screen,0_2_1_1_14,2021-11-19T10:46:28.505Z,,,,,,,,,,,,,,,,54,,,,,,,,,,,,,,439.80899990463513,,response,,,100,,,,,,Space,keypress(Space),,,,,-- --- ---- --- ------ ----- ------- ---- -- --- ------- --<br>------- ---------- bonds. -- ----- -- ----- -- ---- ------<br>--- ----- --- --- ------ -------- ----- --- ------ ----- --<br>----- ----- ---------- --- --- ------ ------ ---- -- ------<br>------- --- ------ ----- --- ---- ------- -- ---- --- --<br>------- ------,111255.40000009537,111254.59999990463,110798.12,110807.70000004768,110814.791,111264.938,,14,bonds.
screen,html.Screen,0_2_1_1_15,2021-11-19T10:46:29.153Z,,,,,,,,,,,,,,,,54,,,,,,,,,,,,,,637.6619999046379,,response,,,100,,,,,,Space,keypress(Space),,,,,-- --- ---- --- ------ ----- ------- ---- -- --- ------- --<br>------- ---------- ------ In ----- -- ----- -- ---- ------<br>--- ----- --- --- ------ -------- ----- --- ------ ----- --<br>----- ----- ---------- --- --- ------ ------ ---- -- ------<br>------- --- ------ ----- --- ---- ------- -- ---- --- --<br>------- ------,111903.5,111902.59999990463,111248.267,111255.70000004768,111264.938,111915.03,,15,In
screen,html.Screen,0_2_1_1_16,2021-11-19T10:46:30.370Z,,,,,,,,,,,,,,,,54,,,,,,,,,,,,,,1203.5699999046337,,response,,,100,,,,,,Space,keypress(Space),,,,,"-- --- ---- --- ------ ----- ------- ---- -- --- ------- --<br>------- ---------- ------ -- 1727, -- ----- -- ---- ------<br>--- ----- --- --- ------ -------- ----- --- ------ ----- --<br>----- ----- ---------- --- --- ------ ------ ---- -- ------<br>------- --- ------ ----- --- ---- ------- -- ---- --- --<br>------- ------",113119.59999990463,113118.59999990463,111898.36,111903.59999990463,111915.03,113131.847,,16,"1727,"
screen,html.Screen,0_2_1_1_17,2021-11-19T10:46:30.897Z,,,,,,,,,,,,,,,,54,,,,,,,,,,,,,,514.7529999046383,,response,,,100,,,,,,Space,keypress(Space),,,,,-- --- ---- --- ------ ----- ------- ---- -- --- ------- --<br>------- ---------- ------ -- ----- in ----- -- ---- ------<br>--- ----- --- --- ------ -------- ----- --- ------ ----- --<br>----- ----- ---------- --- --- ------ ------ ---- -- ------<br>------- --- ------ ----- --- ---- ------- -- ---- --- --<br>------- ------,113647.40000009537,113646.59999990463,113115.178,113119.90000009537,113131.847,113648.925,,17,in
screen,html.Screen,0_2_1_1_18,2021-11-19T10:46:31.609Z,,,,,,,,,,,,,,,,54,,,,,,,,,,,,,,709.5749999999971,,response,,,100,,,,,,Space,keypress(Space),,,,,-- --- ---- --- ------ ----- ------- ---- -- --- ------- --<br>------- ---------- ------ -- ----- -- order -- ---- ------<br>--- ----- --- --- ------ -------- ----- --- ------ ----- --<br>----- ----- ---------- --- --- ------ ------ ---- -- ------<br>------- --- ------ ----- --- ---- ------- -- ---- --- --<br>------- ------,114359.29999995232,114358.5,113632.254,113647.70000004768,113648.925,114365.768,,18,order
screen,html.Screen,0_2_1_1_19,2021-11-19T10:46:32.138Z,,,,,,,,,,,,,,,,54,,,,,,,,,,,,,,521.2320000000036,,response,,,100,,,,,,Space,keypress(Space),,,,,-- --- ---- --- ------ ----- ------- ---- -- --- ------- --<br>------- ---------- ------ -- ----- -- ----- to ---- ------<br>--- ----- --- --- ------ -------- ----- --- ------ ----- --<br>----- ----- ---------- --- --- ------ ------ ---- -- ------<br>------- --- ------ ----- --- ---- ------- -- ---- --- --<br>------- ------,114887.70000004768,114887,114349.097,114359.59999990463,114365.768,114899.237,,19,to
screen,html.Screen,0_2_1_1_20,2021-11-19T10:46:32.537Z,,,,,,,,,,,,,,,,54,,,,,,,,,,,,,,387.2630000000063,,response,,,100,,,,,,Space,keypress(Space),,,,,-- --- ---- --- ------ ----- ------- ---- -- --- ------- --<br>------- ---------- ------ -- ----- -- ----- -- save ------<br>--- ----- --- --- ------ -------- ----- --- ------ ----- --<br>----- ----- ---------- --- --- ------ ------ ---- -- ------<br>------- --- ------ ----- --- ---- ------- -- ---- --- --<br>------- ------,115287.29999995232,115286.5,114882.566,114888.09999990463,114899.237,115299.281,,20,save
screen,html.Screen,0_2_1_1_21,2021-11-19T10:46:33.305Z,,,,,,,,,,,,,,,,54,,,,,,,,,,,,,,755.2189999999973,,response,,,100,,,,,,Space,keypress(Space),,,,,"-- --- ---- --- ------ ----- ------- ---- -- --- ------- --<br>------- ---------- ------ -- ----- -- ----- -- ---- money,<br>--- ----- --- --- ------ -------- ----- --- ------ ----- --<br>----- ----- ---------- --- --- ------ ------ ---- -- ------<br>------- --- ------ ----- --- ---- ------- -- ---- --- --<br>------- ------",116055.29999995232,116054.5,115282.611,115287.5,115299.281,116066.151,,21,"money,"
screen,html.Screen,0_2_1_1_22,2021-11-19T10:46:33.753Z,,,,,,,,,,,,,,,,54,,,,,,,,,,,,,,436.349000000002,,response,,,100,,,,,,Space,keypress(Space),,,,,-- --- ---- --- ------ ----- ------- ---- -- --- ------- --<br>------- ---------- ------ -- ----- -- ----- -- ---- ------<br>the ----- --- --- ------ -------- ----- --- ------ ----- --<br>----- ----- ---------- --- --- ------ ------ ---- -- ------<br>------- --- ------ ----- --- ---- ------- -- ---- --- --<br>------- ------,116503.29999995232,116502.5,116049.481,116055.5,116066.151,116516.33,,22,the
screen,html.Screen,0_2_1_1_23,2021-11-19T10:46:34.209Z,,,,,,,,,,,,,,,,54,,,,,,,,,,,,,,442.0700000953657,,response,,,100,,,,,,Space,keypress(Space),,,,,-- --- ---- --- ------ ----- ------- ---- -- --- ------- --<br>------- ---------- ------ -- ----- -- ----- -- ---- ------<br>--- state --- --- ------ -------- ----- --- ------ ----- --<br>----- ----- ---------- --- --- ------ ------ ---- -- ------<br>------- --- ------ ----- --- ---- ------- -- ---- --- --<br>------- ------,116959.29999995232,116958.40000009537,116499.659,116503.59999990463,116516.33,116966.412,,23,state
screen,html.Screen,0_2_1_1_24,2021-11-19T10:46:34.721Z,,,,,,,,,,,,,,,,54,,,,,,,,,,,,,,503.9880000953708,,response,,,100,,,,,,Space,keypress(Space),,,,,-- --- ---- --- ------ ----- ------- ---- -- --- ------- --<br>------- ---------- ------ -- ----- -- ----- -- ---- ------<br>--- ----- cut --- ------ -------- ----- --- ------ ----- --<br>----- ----- ---------- --- --- ------ ------ ---- -- ------<br>------- --- ------ ----- --- ---- ------- -- ---- --- --<br>------- ------,117471.20000004768,117470.40000009537,116949.742,116959.5,116966.412,117483.257,,24,cut
screen,html.Screen,0_2_1_1_25,2021-11-19T10:46:35.089Z,,,,,,,,,,,,,,,,54,,,,,,,,,,,,,,355.14300009536964,,response,,,100,,,,,,Space,keypress(Space),,,,,-- --- ---- --- ------ ----- ------- ---- -- --- ------- --<br>------- ---------- ------ -- ----- -- ----- -- ---- ------<br>--- ----- --- the ------ -------- ----- --- ------ ----- --<br>----- ----- ---------- --- --- ------ ------ ---- -- ------<br>------- --- ------ ----- --- ---- ------- -- ---- --- --<br>------- ------,117839.20000004768,117838.40000009537,117466.586,117471.40000009537,117483.257,117849.988,,25,the
screen,html.Screen,0_2_1_1_26,2021-11-19T10:46:35.529Z,,,,,,,,,,,,,,,,54,,,,,,,,,,,,,,428.4120000953699,,response,,,100,,,,,,Space,keypress(Space),,,,,-- --- ---- --- ------ ----- ------- ---- -- --- ------- --<br>------- ---------- ------ -- ----- -- ----- -- ---- ------<br>--- ----- --- --- bonds' -------- ----- --- ------ ----- --<br>----- ----- ---------- --- --- ------ ------ ---- -- ------<br>------- --- ------ ----- --- ---- ------- -- ---- --- --<br>------- ------,118279.09999990463,118278.40000009537,117833.318,117839.5,117849.988,118283.487,,26,bonds'
screen,html.Screen,0_2_1_1_27,2021-11-19T10:46:36.217Z,,,,,,,,,,,,,,,,54,,,,,,,,,,,,,,682.9130000953737,,response,,,100,,,,,,Space,keypress(Space),,,,,-- --- ---- --- ------ ----- ------- ---- -- --- ------- --<br>------- ---------- ------ -- ----- -- ----- -- ---- ------<br>--- ----- --- --- ------ interest ----- --- ------ ----- --<br>----- ----- ---------- --- --- ------ ------ ---- -- ------<br>------- --- ------ ----- --- ---- ------- -- ---- --- --<br>------- ------,118967.20000004768,118966.40000009537,118266.816,118279.59999990463,118283.487,118983.598,,27,interest
screen,html.Screen,0_2_1_1_28,2021-11-19T10:46:36.737Z,,,,,,,,,,,,,,,,54,,,,,,,,,,,,,,502.70199995231815,,response,,,100,,,,,,Space,keypress(Space),,,,,-- --- ---- --- ------ ----- ------- ---- -- --- ------- --<br>------- ---------- ------ -- ----- -- ----- -- ---- ------<br>--- ----- --- --- ------ -------- rate. --- ------ ----- --<br>----- ----- ---------- --- --- ------ ------ ---- -- ------<br>------- --- ------ ----- --- ---- ------- -- ---- --- --<br>------- ------,119487.09999990463,119486.29999995232,118966.928,118967.40000009537,118983.598,119500.461,,28,rate.
screen,html.Screen,0_2_1_1_29,2021-11-19T10:46:37.412Z,,,,,,,,,,,,,,,,54,,,,,,,,,,,,,,657.8389999523206,,response,,,100,,,,,,Space,keypress(Space),,,,,-- --- ---- --- ------ ----- ------- ---- -- --- ------- --<br>------- ---------- ------ -- ----- -- ----- -- ---- ------<br>--- ----- --- --- ------ -------- ----- The ------ ----- --<br>----- ----- ---------- --- --- ------ ------ ---- -- ------<br>------- --- ------ ----- --- ---- ------- -- ---- --- --<br>------- ------,120159.09999990463,120158.29999995232,119483.79,119487.29999995232,119500.461,120167.25,,29,The
screen,html.Screen,0_2_1_1_30,2021-11-19T10:46:37.804Z,,,,,,,,,,,,,,,,54,,,,,,,,,,,,,,383.0499999523163,,response,,,100,,,,,,Space,keypress(Space),,,,,-- --- ---- --- ------ ----- ------- ---- -- --- ------- --<br>------- ---------- ------ -- ----- -- ----- -- ---- ------<br>--- ----- --- --- ------ -------- ----- --- market ----- --<br>----- ----- ---------- --- --- ------ ------ ---- -- ------<br>------- --- ------ ----- --- ---- ------- -- ---- --- --<br>------- ------,120551.09999990463,120550.29999995232,120150.58,120159.29999995232,120167.25,120567.431,,30,market
screen,html.Screen,0_2_1_1_31,2021-11-19T10:46:38.108Z,,,,,,,,,,,,,,,,54,,,,,,,,,,,,,,286.8689999523194,,response,,,100,,,,,,Space,keypress(Space),,,,,-- --- ---- --- ------ ----- ------- ---- -- --- ------- --<br>------- ---------- ------ -- ----- -- ----- -- ---- ------<br>--- ----- --- --- ------ -------- ----- --- ------ value --<br>----- ----- ---------- --- --- ------ ------ ---- -- ------<br>------- --- ------ ----- --- ---- ------- -- ---- --- --<br>------- ------,120855.20000004768,120854.29999995232,120550.76,120551.40000009537,120567.431,120867.498,,31,value
screen,html.Screen,0_2_1_1_32,2021-11-19T10:46:38.636Z,,,,,,,,,,,,,,,,54,,,,,,,,,,,,,,514.7020000476768,,response,,,100,,,,,,Space,keypress(Space),,,,,-- --- ---- --- ------ ----- ------- ---- -- --- ------- --<br>------- ---------- ------ -- ----- -- ----- -- ---- ------<br>--- ----- --- --- ------ -------- ----- --- ------ ----- of<br>----- ----- ---------- --- --- ------ ------ ---- -- ------<br>------- --- ------ ----- --- ---- ------- -- ---- --- --<br>------- ------,121383,121382.20000004768,120850.827,120855.40000009537,120867.498,121384.302,,32,of
screen,html.Screen,0_2_1_1_33,2021-11-19T10:46:39.108Z,,,,,,,,,,,,,,,,54,,,,,,,,,,,,,,469.8980000476877,,response,,,100,,,,,,Space,keypress(Space),,,,,-- --- ---- --- ------ ----- ------- ---- -- --- ------- --<br>------- ---------- ------ -- ----- -- ----- -- ---- ------<br>--- ----- --- --- ------ -------- ----- --- ------ ----- --<br>these ----- ---------- --- --- ------ ------ ---- -- ------<br>------- --- ------ ----- --- ---- ------- -- ---- --- --<br>------- ------,121855,121854.20000004768,121367.631,121383.29999995232,121384.302,121867.765,,33,these
screen,html.Screen,0_2_1_1_34,2021-11-19T10:46:39.444Z,,,,,,,,,,,,,,,,54,,,,,,,,,,,,,,322.4350000476843,,response,,,100,,,,,,Space,keypress(Space),,,,,-- --- ---- --- ------ ----- ------- ---- -- --- ------- --<br>------- ---------- ------ -- ----- -- ----- -- ---- ------<br>--- ----- --- --- ------ -------- ----- --- ------ ----- --<br>----- bonds ---------- --- --- ------ ------ ---- -- ------<br>------- --- ------ ----- --- ---- ------- -- ---- --- --<br>------- ------,122191,122190.20000004768,121851.094,121855.20000004768,121867.765,122201.203,,34,bonds
screen,html.Screen,0_2_1_1_35,2021-11-19T10:46:39.804Z,,,,,,,,,,,,,,,,54,,,,,,,,,,,,,,348.99700004768965,,response,,,100,,,,,,Space,keypress(Space),,,,,"-- --- ---- --- ------ ----- ------- ---- -- --- ------- --<br>------- ---------- ------ -- ----- -- ----- -- ---- ------<br>--- ----- --- --- ------ -------- ----- --- ------ ----- --<br>----- ----- plummeted, --- --- ------ ------ ---- -- ------<br>------- --- ------ ----- --- ---- ------- -- ---- --- --<br>------- ------",122551,122550.20000004768,122184.532,122191.20000004768,122201.203,122567.853,,35,"plummeted,"
screen,html.Screen,0_2_1_1_36,2021-11-19T10:46:40.396Z,,,,,,,,,,,,,,,,54,,,,,,,,,,,,,,574.2469999046298,,response,,,100,,,,,,Space,keypress(Space),,,,,-- --- ---- --- ------ ----- ------- ---- -- --- ------- --<br>------- ---------- ------ -- ----- -- ----- -- ---- ------<br>--- ----- --- --- ------ -------- ----- --- ------ ----- --<br>----- ----- ---------- and --- ------ ------ ---- -- ------<br>------- --- ------ ----- --- ---- ------- -- ---- --- --<br>------- ------,123142.79999995232,123142.09999990463,122551.184,122551.20000004768,122567.853,123151.512,,36,and
screen,html.Screen,0_2_1_1_37,2021-11-19T10:46:40.708Z,,,,,,,,,,,,,,,,54,,,,,,,,,,,,,,302.5879999046301,,response,,,100,,,,,,Space,keypress(Space),,,,,-- --- ---- --- ------ ----- ------- ---- -- --- ------- --<br>------- ---------- ------ -- ----- -- ----- -- ---- ------<br>--- ----- --- --- ------ -------- ----- --- ------ ----- --<br>----- ----- ---------- --- the ------ ------ ---- -- ------<br>------- --- ------ ----- --- ---- ------- -- ---- --- --<br>------- ------,123454.90000009537,123454.09999990463,123134.84,123143.09999990463,123151.512,123468.2,,37,the
screen,html.Screen,0_2_1_1_38,2021-11-19T10:46:41.268Z,,,,,,,,,,,,,,,,54,,,,,,,,,,,,,,545.8999999046355,,response,,,100,,,,,,Space,keypress(Space),,,,,-- --- ---- --- ------ ----- ------- ---- -- --- ------- --<br>------- ---------- ------ -- ----- -- ----- -- ---- ------<br>--- ----- --- --- ------ -------- ----- --- ------ ----- --<br>----- ----- ---------- --- --- market ------ ---- -- ------<br>------- --- ------ ----- --- ---- ------- -- ---- --- --<br>------- ------,124014.79999995232,124014.09999990463,123451.529,123455.09999990463,123468.2,124018.307,,38,market
screen,html.Screen,0_2_1_1_39,2021-11-19T10:46:41.828Z,,,,,,,,,,,,,,,,54,,,,,,,,,,,,,,555.6929999999993,,response,,,100,,,,,,Space,keypress(Space),,,,,-- --- ---- --- ------ ----- ------- ---- -- --- ------- --<br>------- ---------- ------ -- ----- -- ----- -- ---- ------<br>--- ----- --- --- ------ -------- ----- --- ------ ----- --<br>----- ----- ---------- --- --- ------ became ---- -- ------<br>------- --- ------ ----- --- ---- ------- -- ---- --- --<br>------- ------,124574.79999995232,124574,124001.637,124015.09999990463,124018.307,124585.161,,39,became
screen,html.Screen,0_2_1_1_40,2021-11-19T10:46:42.500Z,,,,,,,,,,,,,,,,54,,,,,,,,,,,,,,661.3390000000072,,response,,,100,,,,,,Space,keypress(Space),,,,,-- --- ---- --- ------ ----- ------- ---- -- --- ------- --<br>------- ---------- ------ -- ----- -- ----- -- ---- ------<br>--- ----- --- --- ------ -------- ----- --- ------ ----- --<br>----- ----- ---------- --- --- ------ ------ wary -- ------<br>------- --- ------ ----- --- ---- ------- -- ---- --- --<br>------- ------,125247.29999995232,125246.5,124568.49,124575,124585.161,125252.005,,40,wary
screen,html.Screen,0_2_1_1_41,2021-11-19T10:46:42.844Z,,,,,,,,,,,,,,,,54,,,,,,,,,,,,,,338.19500004767906,,response,,,100,,,,,,Space,keypress(Space),,,,,-- --- ---- --- ------ ----- ------- ---- -- --- ------- --<br>------- ---------- ------ -- ----- -- ----- -- ---- ------<br>--- ----- --- --- ------ -------- ----- --- ------ ----- --<br>----- ----- ---------- --- --- ------ ------ ---- of ------<br>------- --- ------ ----- --- ---- ------- -- ---- --- --<br>------- ------,125591,125590.20000004768,125235.334,125247.5,125252.005,125602.124,,41,of
screen,html.Screen,0_2_1_1_42,2021-11-19T10:46:43.348Z,,,,,,,,,,,,,,,,54,,,,,,,,,,,,,,491.9759999046364,,response,,,100,,,,,,Space,keypress(Space),,,,,-- --- ---- --- ------ ----- ------- ---- -- --- ------- --<br>------- ---------- ------ -- ----- -- ----- -- ---- ------<br>--- ----- --- --- ------ -------- ----- --- ------ ----- --<br>----- ----- ---------- --- --- ------ ------ ---- -- French<br>------- --- ------ ----- --- ---- ------- -- ---- --- --<br>------- ------,126094.79999995232,126094.09999990463,125585.453,125591.20000004768,125602.124,126102.253,,42,French
screen,html.Screen,0_2_1_1_43,2021-11-19T10:46:43.796Z,,,,,,,,,,,,,,,,54,,,,,,,,,,,,,,439.747000000003,,response,,,100,,,,,,Space,keypress(Space),,,,,-- --- ---- --- ------ ----- ------- ---- -- --- ------- --<br>------- ---------- ------ -- ----- -- ----- -- ---- ------<br>--- ----- --- --- ------ -------- ----- --- ------ ----- --<br>----- ----- ---------- --- --- ------ ------ ---- -- ------<br>credit. --- ------ ----- --- ---- ------- -- ---- --- --<br>------- ------,126543,126542,126085.582,126095.09999990463,126102.253,126552.322,,43,credit.
screen,html.Screen,0_2_1_1_44,2021-11-19T10:46:44.356Z,,,,,,,,,,,,,,,,54,,,,,,,,,,,,,,549.5780000953673,,response,,,100,,,,,,Space,keypress(Space),,,,,-- --- ---- --- ------ ----- ------- ---- -- --- ------- --<br>------- ---------- ------ -- ----- -- ----- -- ---- ------<br>--- ----- --- --- ------ -------- ----- --- ------ ----- --<br>----- ----- ---------- --- --- ------ ------ ---- -- ------<br>------- The ------ ----- --- ---- ------- -- ---- --- --<br>------- ------,127102.70000004768,127101.90000009537,126535.652,126543.20000004768,126552.322,127119.113,,44,The
screen,html.Screen,0_2_1_1_45,2021-11-19T10:46:44.780Z,,,,,,,,,,,,,,,,54,,,,,,,,,,,,,,406.88700000000244,,response,,,100,,,,,,Space,keypress(Space),,,,,-- --- ---- --- ------ ----- ------- ---- -- --- ------- --<br>------- ---------- ------ -- ----- -- ----- -- ---- ------<br>--- ----- --- --- ------ -------- ----- --- ------ ----- --<br>----- ----- ---------- --- --- ------ ------ ---- -- ------<br>------- --- French ----- --- ---- ------- -- ---- --- --<br>------- ------,127526.79999995232,127526,127102.443,127103,127119.113,127535.969,,45,French
screen,html.Screen,0_2_1_1_46,2021-11-19T10:46:45.124Z,,,,,,,,,,,,,,,,54,,,,,,,,,,,,,,334.0310000000027,,response,,,100,,,,,,Space,keypress(Space),,,,,-- --- ---- --- ------ ----- ------- ---- -- --- ------- --<br>------- ---------- ------ -- ----- -- ----- -- ---- ------<br>--- ----- --- --- ------ -------- ----- --- ------ ----- --<br>----- ----- ---------- --- --- ------ ------ ---- -- ------<br>------- --- ------ state --- ---- ------- -- ---- --- --<br>------- ------,127870.90000009537,127870,127519.298,127527,127535.969,127886.004,,46,state
screen,html.Screen,0_2_1_1_47,2021-11-19T10:46:45.404Z,,,,,,,,,,,,,,,,54,,,,,,,,,,,,,,263.8960000953666,,response,,,100,,,,,,Space,keypress(Space),,,,,-- --- ---- --- ------ ----- ------- ---- -- --- ------- --<br>------- ---------- ------ -- ----- -- ----- -- ---- ------<br>--- ----- --- --- ------ -------- ----- --- ------ ----- --<br>----- ----- ---------- --- --- ------ ------ ---- -- ------<br>------- --- ------ ----- was ---- ------- -- ---- --- --<br>------- ------,128150.70000004768,128149.90000009537,127869.334,127871.20000004768,127886.004,128152.79,,47,was
screen,html.Screen,0_2_1_1_48,2021-11-19T10:46:46.428Z,,,,,,,,,,,,,,,,54,,,,,,,,,,,,,,1021.1100000953738,,response,,,100,,,,,,Space,keypress(Space),,,,,-- --- ---- --- ------ ----- ------- ---- -- --- ------- --<br>------- ---------- ------ -- ----- -- ----- -- ---- ------<br>--- ----- --- --- ------ -------- ----- --- ------ ----- --<br>----- ----- ---------- --- --- ------ ------ ---- -- ------<br>------- --- ------ ----- --- left ------- -- ---- --- --<br>------- ------,129174.70000004768,129173.90000009537,128136.119,128151,128152.79,129186.315,,48,left
screen,html.Screen,0_2_1_1_49,2021-11-19T10:46:47.067Z,,,,,,,,,,,,,,,,54,,,,,,,,,,,,,,627.5850000953651,,response,,,100,,,,,,Space,keypress(Space),,,,,-- --- ---- --- ------ ----- ------- ---- -- --- ------- --<br>------- ---------- ------ -- ----- -- ----- -- ---- ------<br>--- ----- --- --- ------ -------- ----- --- ------ ----- --<br>----- ----- ---------- --- --- ------ ------ ---- -- ------<br>------- --- ------ ----- --- ---- without -- ---- --- --<br>------- ------,129814.59999990463,129813.90000009537,129169.645,129174.90000009537,129186.315,129819.955,,49,without
screen,html.Screen,0_2_1_1_50,2021-11-19T10:46:47.611Z,,,,,,,,,,,,,,,,54,,,,,,,,,,,,,,537.9450000953657,,response,,,100,,,,,,Space,keypress(Space),,,,,-- --- ---- --- ------ ----- ------- ---- -- --- ------- --<br>------- ---------- ------ -- ----- -- ----- -- ---- ------<br>--- ----- --- --- ------ -------- ----- --- ------ ----- --<br>----- ----- ---------- --- --- ------ ------ ---- -- ------<br>------- --- ------ ----- --- ---- ------- an ---- --- --<br>------- ------,130358.59999990463,130357.90000009537,129803.284,129814.90000009537,129819.955,130370.047,,50,an
screen,html.Screen,0_2_1_1_51,2021-11-19T10:46:48.003Z,,,,,,,,,,,,,,,,54,,,,,,,,,,,,,,379.6530000476778,,response,,,100,,,,,,Space,keypress(Space),,,,,-- --- ---- --- ------ ----- ------- ---- -- --- ------- --<br>------- ---------- ------ -- ----- -- ----- -- ---- ------<br>--- ----- --- --- ------ -------- ----- --- ------ ----- --<br>----- ----- ---------- --- --- ------ ------ ---- -- ------<br>------- --- ------ ----- --- ---- ------- -- easy --- --<br>------- ------,130750.5,130749.70000004768,130353.376,130358.90000009537,130370.047,130753.488,,51,easy
screen,html.Screen,0_2_1_1_52,2021-11-19T10:46:48.347Z,,,,,,,,,,,,,,,,54,,,,,,,,,,,,,,340.4120000953699,,response,,,100,,,,,,Space,keypress(Space),,,,,-- --- ---- --- ------ ----- ------- ---- -- --- ------- --<br>------- ---------- ------ -- ----- -- ----- -- ---- ------<br>--- ----- --- --- ------ -------- ----- --- ------ ----- --<br>----- ----- ---------- --- --- ------ ------ ---- -- ------<br>------- --- ------ ----- --- ---- ------- -- ---- way --<br>------- ------,131094.59999990463,131093.90000009537,130736.817,130750.79999995232,130753.488,131103.58,,52,way
screen,html.Screen,0_2_1_1_53,2021-11-19T10:46:48.803Z,,,,,,,,,,,,,,,,54,,,,,,,,,,,,,,446.1200000476965,,response,,,100,,,,,,Space,keypress(Space),,,,,-- --- ---- --- ------ ----- ------- ---- -- --- ------- --<br>------- ---------- ------ -- ----- -- ----- -- ---- ------<br>--- ----- --- --- ------ -------- ----- --- ------ ----- --<br>----- ----- ---------- --- --- ------ ------ ---- -- ------<br>------- --- ------ ----- --- ---- ------- -- ---- --- of<br>------- ------,131550.59999990463,131549.70000004768,131086.909,131094.90000009537,131103.58,131553.702,,53,of
screen,html.Screen,0_2_1_1_54,2021-11-19T10:46:49.555Z,,,,,,,,,,,,,,,,54,,,,,,,,,,,,,,748.0979999523261,,response,,,100,,,,,,Space,keypress(Space),,,,,-- --- ---- --- ------ ----- ------- ---- -- --- ------- --<br>------- ---------- ------ -- ----- -- ----- -- ---- ------<br>--- ----- --- --- ------ -------- ----- --- ------ ----- --<br>----- ----- ---------- --- --- ------ ------ ---- -- ------<br>------- --- ------ ----- --- ---- ------- -- ---- --- --<br>raising ------,132302.5,132301.79999995232,131537.031,131550.79999995232,131553.702,132303.914,,54,raising
screen,html.Screen,0_2_1_1_55,2021-11-19T10:46:50.355Z,,,,,,,,,,,,,,,,54,,,,,,,,,,,,,,797.786000047694,,response,,,100,,,,,,Space,keypress(Space),,,,,-- --- ---- --- ------ ----- ------- ---- -- --- ------- --<br>------- ---------- ------ -- ----- -- ----- -- ---- ------<br>--- ----- --- --- ------ -------- ----- --- ------ ----- --<br>----- ----- ---------- --- --- ------ ------ ---- -- ------<br>------- --- ------ ----- --- ---- ------- -- ---- --- --<br>------- money.,133102.59999990463,133101.70000004768,132287.243,132302.79999995232,132303.914,133120.723,,55,money.
Item 100,flow.Loop,0_2_1_1,2021-11-19T10:46:50.356Z,,,,,,,,,,,,,,,,,,,,,,,,,,,,,,33173.23400004768,,completion,,,,B,,,,,,,,,,silence,,133103.09999990463,133101.70000004768,99911.795,99913,99928.466,133120.723,,,
Question 1,html.Screen,0_2_1_2,2021-11-19T10:46:54.380Z,,,,,,,,,,,,,,,,,,,,,,,,,,,true,TRUE,,4004.6770000953693,,response,,,100,B,,,,,TRUE,click #choice-1,,,,silence,,137126.70000004768,137125.40000009537,133104.053,133103.29999995232,133120.723,137138.542,,,
Question 2,html.Screen,0_2_1_3,2021-11-19T10:46:57.395Z,,,,,,,,,,,,,,,,,,,,,,,,,,,true,FALSE,,3002.658000047697,,response,,,100,B,,,,,FALSE,click #choice-2,,,,silence,,140142.29999995232,140141.20000004768,137121.865,137126.90000009537,137138.542,140156.02,,,
Item 100,flow.Sequence,0_2_1,2021-11-19T10:46:57.396Z,,,,,,,,,,,,,,,,,,,,,,,,,,,,,,50215.32800004768,,completion,,,,,,,,,,,,,,,,140142.79999995232,140141.20000004768,89909.201,89921.40000009537,89925.872,140156.02,,,
End of Practice,html.Page,0_2_2,2021-11-19T10:47:03.268Z,,,,,,,,,,,,,,,,,,,,,,,,,,,,,,5858.279999952327,,form submission,,,,,,,,,,,,,,,,146014.90000009537,146014.29999995232,140139.344,140143,140156.02,146025.47,,,
Practice,flow.Sequence,0_2,2021-11-19T10:47:03.268Z,,,,,,,,,,,,,,,,,,,,,,,,,,,,,,114820.82199995231,,completion,,,,,,,,,,,,,,,,146015.59999990463,146014.29999995232,31176.806,31180.299999952316,31193.478,146025.47,,,
Trap_instruction,html.Page,0_3_0,2021-11-19T10:47:08.483Z,,,,,,,,,,,,,,,,,,,,,,,,,,,,,,5204.629999904631,,form submission,,,,,,,,,,,,,,,,151230.5,151230.09999990463,146008.792,146016,146025.47,151257.377,,,
trap_trial,html.Screen,0_3_1,2021-11-19T10:47:11.891Z,,,,,,,,,,,,,,,,,,,,,,,,,,,true,1,,3379.222999904625,,response,,,,,,,,,1,click #choice-1,,,,,,154637.90000009537,154636.59999990463,151224.047,151230.90000009537,151257.377,154642.954,,,
end of trap trial,html.Page,0_3_2,2021-11-19T10:47:14.339Z,,,,,,,,,,,,,,,,,,,,,,,,,,,,,,2443.046000000002,,form submission,,,,,,,,,,,,,,,,157086.40000009537,157086,154626.284,154638.20000004768,154642.954,157093.838,,,
Trap 1,flow.Sequence,0_3,2021-11-19T10:47:14.340Z,,,,,,,,,,,,,,,,,,,,,,,,,,,,,,11060.529999999999,,completion,,,,,,,,,,,,,,,,157086.90000009537,157086,146008.792,146015.90000009537,146025.47,157093.838,,,
Standby,html.Page,0_4_0,2021-11-19T10:47:22.334Z,,,,,,,,,,,,,,,,,,,,,,,,,,,,,,8002.103000000003,,timeout,,,,,,,,,,,,,,,,165080.90000009537,165079.27,157077.167,157087.29999995232,157093.838,165095.941,,,
Holding screen,html.Screen,0_4_1_0_0,2021-11-19T10:47:29.335Z,,,,,,,,,,,,,,,,,,,,,,,,,,,,,,7001.8550000000105,,timeout,,,,,,,,,,,,,,,,172082.59999990463,172081.126,165079.27,165081.29999995232,165095.941,172097.796,,,
screen,html.Screen,0_4_1_0_1_0,2021-11-19T10:47:35.538Z,,,,,,,,,,,,,,,,51,,,,,,,,,,,,,,6186.503999952314,,response,,,13,B,,,,,Space,keypress(Space),,,,lyrical,American -------- --- --- ---- --- --- ------ -- --------<br>---- --------- --- ------- ------------ ---------- ---------<br>--- ---------- ------- ---------- ------- -- -------- ----<br>---- --- ------ ----- ------ -- ---- --- ----- -- - -------<br>-------- -- --- --- -- ----- ----------- ----- -----------<br>---- --- ---------- --- ---- --- -- ----------,178285.20000004768,178284.29999995232,172081.126,172083.09999990463,172097.796,178299.06,,0,American
screen,html.Screen,0_4_1_0_1_1,2021-11-19T10:47:36.049Z,,,,,,,,,,,,,,,,51,,,,,,,,,,,,,,496.64000004768604,,response,,,13,B,,,,,Space,keypress(Space),,,,lyrical,-------- industry --- --- ---- --- --- ------ -- --------<br>---- --------- --- ------- ------------ ---------- ---------<br>--- ---------- ------- ---------- ------- -- -------- ----<br>---- --- ------ ----- ------ -- ---- --- ----- -- - -------<br>-------- -- --- --- -- ----- ----------- ----- -----------<br>---- --- ---------- --- ---- --- -- ----------,178796.59999990463,178795.70000004768,178282.39,178285.59999990463,178299.06,178799.641,,1,industry
screen,html.Screen,0_4_1_0_1_2,2021-11-19T10:47:36.625Z,,,,,,,,,,,,,,,,51,,,,,,,,,,,,,,572.0590000476805,,response,,,13,B,,,,,Space,keypress(Space),,,,lyrical,-------- -------- may --- ---- --- --- ------ -- --------<br>---- --------- --- ------- ------------ ---------- ---------<br>--- ---------- ------- ---------- ------- -- -------- ----<br>---- --- ------ ----- ------ -- ---- --- ----- -- - -------<br>-------- -- --- --- -- ----- ----------- ----- -----------<br>---- --- ---------- --- ---- --- -- ----------,179372.59999990463,179371.70000004768,178782.97,178796.79999995232,178799.641,179383.16,,2,may
screen,html.Screen,0_4_1_0_1_3,2021-11-19T10:47:36.961Z,,,,,,,,,,,,,,,,51,,,,,,,,,,,,,,324.4399999046291,,response,,,13,B,,,,,Space,keypress(Space),,,,lyrical,-------- -------- --- not ---- --- --- ------ -- --------<br>---- --------- --- ------- ------------ ---------- ---------<br>--- ---------- ------- ---------- ------- -- -------- ----<br>---- --- ------ ----- ------ -- ---- --- ----- -- - -------<br>-------- -- --- --- -- ----- ----------- ----- -----------<br>---- --- ---------- --- ---- --- -- ----------,179708.40000009537,179707.59999990463,179366.489,179372.90000009537,179383.16,179716.725,,3,not
screen,html.Screen,0_4_1_0_1_4,2021-11-19T10:47:37.361Z,,,,,,,,,,,,,,,,51,,,,,,,,,,,,,,390.87499990462675,,response,,,13,B,,,,,Space,keypress(Space),,,,lyrical,-------- -------- --- --- know --- --- ------ -- --------<br>---- --------- --- ------- ------------ ---------- ---------<br>--- ---------- ------- ---------- ------- -- -------- ----<br>---- --- ------ ----- ------ -- ---- --- ----- -- - -------<br>-------- -- --- --- -- ----- ----------- ----- -----------<br>---- --- ---------- --- ---- --- -- ----------,180108.5,180107.59999990463,179700.052,179708.70000004768,179716.725,180116.71,,4,know
screen,html.Screen,0_4_1_0_1_5,2021-11-19T10:47:37.676Z,,,,,,,,,,,,,,,,51,,,,,,,,,,,,,,310.79000000000815,,response,,,13,B,,,,,Space,keypress(Space),,,,lyrical,"-------- -------- --- --- ---- it, --- ------ -- --------<br>---- --------- --- ------- ------------ ---------- ---------<br>--- ---------- ------- ---------- ------- -- -------- ----<br>---- --- ------ ----- ------ -- ---- --- ----- -- - -------<br>-------- -- --- --- -- ----- ----------- ----- -----------<br>---- --- ---------- --- ---- --- -- ----------",180428.59999990463,180427.5,180100.04,180108.70000004768,180116.71,180433.509,,5,"it,"
screen,html.Screen,0_4_1_0_1_6,2021-11-19T10:47:38.044Z,,,,,,,,,,,,,,,,51,,,,,,,,,,,,,,362.1910000476928,,response,,,13,B,,,,,Space,keypress(Space),,,,lyrical,-------- -------- --- --- ---- --- but ------ -- --------<br>---- --------- --- ------- ------------ ---------- ---------<br>--- ---------- ------- ---------- ------- -- -------- ----<br>---- --- ------ ----- ------ -- ---- --- ----- -- - -------<br>-------- -- --- --- -- ----- ----------- ----- -----------<br>---- --- ---------- --- ---- --- -- ----------,180796.5,180795.70000004768,180416.838,180428.79999995232,180433.509,180800.243,,6,but
screen,html.Screen,0_4_1_0_1_7,2021-11-19T10:47:38.355Z,,,,,,,,,,,,,,,,51,,,,,,,,,,,,,,307.25700000001234,,response,,,13,B,,,,,Space,keypress(Space),,,,lyrical,-------- -------- --- --- ---- --- --- debate -- --------<br>---- --------- --- ------- ------------ ---------- ---------<br>--- ---------- ------- ---------- ------- -- -------- ----<br>---- --- ------ ----- ------ -- ---- --- ----- -- - -------<br>-------- -- --- --- -- ----- ----------- ----- -----------<br>---- --- ---------- --- ---- --- -- ----------,181108.29999995232,181107.5,180783.573,180796.90000009537,180800.243,181116.884,,7,debate
screen,html.Screen,0_4_1_0_1_8,2021-11-19T10:47:38.796Z,,,,,,,,,,,,,,,,51,,,,,,,,,,,,,,430.6160000000091,,response,,,13,B,,,,,Space,keypress(Space),,,,lyrical,-------- -------- --- --- ---- --- --- ------ in --------<br>---- --------- --- ------- ------------ ---------- ---------<br>--- ---------- ------- ---------- ------- -- -------- ----<br>---- --- ------ ----- ------ -- ---- --- ----- -- - -------<br>-------- -- --- --- -- ----- ----------- ----- -----------<br>---- --- ---------- --- ---- --- -- ----------,181548.29999995232,181547.5,181100.216,181108.5,181116.884,181550.501,,8,in
screen,html.Screen,0_4_1_0_1_9,2021-11-19T10:47:39.212Z,,,,,,,,,,,,,,,,51,,,,,,,,,,,,,,413.0989999046433,,response,,,13,B,,,,,Space,keypress(Space),,,,lyrical,-------- -------- --- --- ---- --- --- ------ -- Congress<br>---- --------- --- ------- ------------ ---------- ---------<br>--- ---------- ------- ---------- ------- -- -------- ----<br>---- --- ------ ----- ------ -- ---- --- ----- -- - -------<br>-------- -- --- --- -- ----- ----------- ----- -----------<br>---- --- ---------- --- ---- --- -- ----------,181964.40000009537,181963.59999990463,181533.829,181548.59999990463,181550.501,181967.276,,9,Congress
screen,html.Screen,0_4_1_0_1_10,2021-11-19T10:47:39.764Z,,,,,,,,,,,,,,,,51,,,,,,,,,,,,,,548.32399990462,,response,,,13,B,,,,,Space,keypress(Space),,,,lyrical,-------- -------- --- --- ---- --- --- ------ -- --------<br>over --------- --- ------- ------------ ---------- ---------<br>--- ---------- ------- ---------- ------- -- -------- ----<br>---- --- ------ ----- ------ -- ---- --- ----- -- - -------<br>-------- -- --- --- -- ----- ----------- ----- -----------<br>---- --- ---------- --- ---- --- -- ----------,182516.40000009537,182515.59999990463,181950.605,181964.59999990463,181967.276,182517.399,,10,over
screen,html.Screen,0_4_1_0_1_11,2021-11-19T10:47:40.147Z,,,,,,,,,,,,,,,,51,,,,,,,,,,,,,,382.2009999046277,,response,,,13,B,,,,,Space,keypress(Space),,,,lyrical,-------- -------- --- --- ---- --- --- ------ -- --------<br>---- reforming --- ------- ------------ ---------- ---------<br>--- ---------- ------- ---------- ------- -- -------- ----<br>---- --- ------ ----- ------ -- ---- --- ----- -- - -------<br>-------- -- --- --- -- ----- ----------- ----- -----------<br>---- --- ---------- --- ---- --- -- ----------,182900.29999995232,182899.59999990463,182500.728,182516.59999990463,182517.399,182917.467,,11,reforming
screen,html.Screen,0_4_1_0_1_12,2021-11-19T10:47:40.763Z,,,,,,,,,,,,,,,,51,,,,,,,,,,,,,,598.0329999999958,,response,,,13,B,,,,,Space,keypress(Space),,,,lyrical,-------- -------- --- --- ---- --- --- ------ -- --------<br>---- --------- the ------- ------------ ---------- ---------<br>--- ---------- ------- ---------- ------- -- -------- ----<br>---- --- ------ ----- ------ -- ---- --- ----- -- - -------<br>-------- -- --- --- -- ----- ----------- ----- -----------<br>---- --- ---------- --- ---- --- -- ----------,183516.29999995232,183515.5,182900.797,182900.5,182917.467,183517.678,,12,the
screen,html.Screen,0_4_1_0_1_13,2021-11-19T10:47:41.572Z,,,,,,,,,,,,,,,,51,,,,,,,,,,,,,,805.8219999999856,,response,,,13,B,,,,,Space,keypress(Space),,,,lyrical,-------- -------- --- --- ---- --- --- ------ -- --------<br>---- --------- --- federal ------------ ---------- ---------<br>--- ---------- ------- ---------- ------- -- -------- ----<br>---- --- ------ ----- ------ -- ---- --- ----- -- - -------<br>-------- -- --- --- -- ----- ----------- ----- -----------<br>---- --- ---------- --- ---- --- -- ----------,184324.29999995232,184323.5,183501.007,183516.59999990463,183517.678,184334.553,,13,federal
screen,html.Screen,0_4_1_0_1_14,2021-11-19T10:47:42.355Z,,,,,,,,,,,,,,,,51,,,,,,,,,,,,,,772.847000095353,,response,,,13,B,,,,,Space,keypress(Space),,,,lyrical,-------- -------- --- --- ---- --- --- ------ -- --------<br>---- --------- --- ------- government's ---------- ---------<br>--- ---------- ------- ---------- ------- -- -------- ----<br>---- --- ------ ----- ------ -- ---- --- ----- -- - -------<br>-------- -- --- --- -- ----- ----------- ----- -----------<br>---- --- ---------- --- ---- --- -- ----------,185108.09999990463,185107.40000009537,184317.882,184324.70000004768,184334.553,185118.102,,14,government's
screen,html.Screen,0_4_1_0_1_15,2021-11-19T10:47:43.035Z,,,,,,,,,,,,,,,,51,,,,,,,,,,,,,,669.1979999523028,,response,,,13,B,,,,,Space,keypress(Space),,,,lyrical,-------- -------- --- --- ---- --- --- ------ -- --------<br>---- --------- --- ------- ------------ regulatory ---------<br>--- ---------- ------- ---------- ------- -- -------- ----<br>---- --- ------ ----- ------ -- ---- --- ----- -- - -------<br>-------- -- --- --- -- ----- ----------- ----- -----------<br>---- --- ---------- --- ---- --- -- ----------,185788.20000004768,185787.29999995232,185101.431,185108.5,185118.102,185801.621,,15,regulatory
screen,html.Screen,0_4_1_0_1_16,2021-11-19T10:47:43.875Z,,,,,,,,,,,,,,,,51,,,,,,,,,,,,,,825.6789999523025,,response,,,13,B,,,,,Space,keypress(Space),,,,lyrical,-------- -------- --- --- ---- --- --- ------ -- --------<br>---- --------- --- ------- ------------ ---------- apparatus<br>--- ---------- ------- ---------- ------- -- -------- ----<br>---- --- ------ ----- ------ -- ---- --- ----- -- - -------<br>-------- -- --- --- -- ----- ----------- ----- -----------<br>---- --- ---------- --- ---- --- -- ----------,186628,186627.29999995232,185784.95,185788.59999990463,185801.621,186635.085,,16,apparatus
screen,html.Screen,0_4_1_0_1_17,2021-11-19T10:47:44.643Z,,,,,,,,,,,,,,,,51,,,,,,,,,,,,,,760.2149999523244,,response,,,13,B,,,,,Space,keypress(Space),,,,lyrical,-------- -------- --- --- ---- --- --- ------ -- --------<br>---- --------- --- ------- ------------ ---------- ---------<br>may ---------- ------- ---------- ------- -- -------- ----<br>---- --- ------ ----- ------ -- ---- --- ----- -- - -------<br>-------- -- --- --- -- ----- ----------- ----- -----------<br>---- --- ---------- --- ---- --- -- ----------,187396.20000004768,187395.29999995232,186618.415,186628.29999995232,186635.085,187402.029,,17,may
screen,html.Screen,0_4_1_0_1_18,2021-11-19T10:47:45.227Z,,,,,,,,,,,,,,,,51,,,,,,,,,,,,,,577.2709999523067,,response,,,13,B,,,,,Space,keypress(Space),,,,lyrical,-------- -------- --- --- ---- --- --- ------ -- --------<br>---- --------- --- ------- ------------ ---------- ---------<br>--- profoundly ------- ---------- ------- -- -------- ----<br>---- --- ------ ----- ------ -- ---- --- ----- -- - -------<br>-------- -- --- --- -- ----- ----------- ----- -----------<br>---- --- ---------- --- ---- --- -- ----------,187980.20000004768,187979.29999995232,187385.358,187396.40000009537,187402.029,187985.471,,18,profoundly
screen,html.Screen,0_4_1_0_1_19,2021-11-19T10:47:45.916Z,,,,,,,,,,,,,,,,51,,,,,,,,,,,,,,682.1289999046421,,response,,,13,B,,,,,Space,keypress(Space),,,,lyrical,-------- -------- --- --- ---- --- --- ------ -- --------<br>---- --------- --- ------- ------------ ---------- ---------<br>--- ---------- improve ---------- ------- -- -------- ----<br>---- --- ------ ----- ------ -- ---- --- ----- -- - -------<br>-------- -- --- --- -- ----- ----------- ----- -----------<br>---- --- ---------- --- ---- --- -- ----------,188668.40000009537,188667.59999990463,187968.801,187980.29999995232,187985.471,188685.601,,19,improve
screen,html.Screen,0_4_1_0_1_20,2021-11-19T10:47:46.611Z,,,,,,,,,,,,,,,,51,,,,,,,,,,,,,,677.6989999523212,,response,,,13,B,,,,,Space,keypress(Space),,,,lyrical,-------- -------- --- --- ---- --- --- ------ -- --------<br>---- --------- --- ------- ------------ ---------- ---------<br>--- ---------- ------- companies' ------- -- -------- ----<br>---- --- ------ ----- ------ -- ---- --- ----- -- - -------<br>-------- -- --- --- -- ----- ----------- ----- -----------<br>---- --- ---------- --- ---- --- -- ----------,189364,189363.29999995232,188668.931,188668.70000004768,188685.601,189369.342,,20,companies'
screen,html.Screen,0_4_1_0_1_21,2021-11-19T10:47:47.179Z,,,,,,,,,,,,,,,,51,,,,,,,,,,,,,,561.8580000476795,,response,,,13,B,,,,,Space,keypress(Space),,,,lyrical,-------- -------- --- --- ---- --- --- ------ -- --------<br>---- --------- --- ------- ------------ ---------- ---------<br>--- ---------- ------- ---------- ability -- -------- ----<br>---- --- ------ ----- ------ -- ---- --- ----- -- - -------<br>-------- -- --- --- -- ----- ----------- ----- -----------<br>---- --- ---------- --- ---- --- -- ----------,189932,189931.20000004768,189352.67,189364.29999995232,189369.342,189936.06,,21,ability
screen,html.Screen,0_4_1_0_1_22,2021-11-19T10:47:47.835Z,,,,,,,,,,,,,,,,51,,,,,,,,,,,,,,651.0399999046349,,response,,,13,B,,,,,Space,keypress(Space),,,,lyrical,-------- -------- --- --- ---- --- --- ------ -- --------<br>---- --------- --- ------- ------------ ---------- ---------<br>--- ---------- ------- ---------- ------- to -------- ----<br>---- --- ------ ----- ------ -- ---- --- ----- -- - -------<br>-------- -- --- --- -- ----- ----------- ----- -----------<br>---- --- ---------- --- ---- --- -- ----------,190587.90000009537,190587.09999990463,189919.389,189932.29999995232,189936.06,190602.908,,22,to
screen,html.Screen,0_4_1_0_1_23,2021-11-19T10:47:48.371Z,,,,,,,,,,,,,,,,51,,,,,,,,,,,,,,520.2920000476879,,response,,,13,B,,,,,Space,keypress(Space),,,,lyrical,-------- -------- --- --- ---- --- --- ------ -- --------<br>---- --------- --- ------- ------------ ---------- ---------<br>--- ---------- ------- ---------- ------- -- survive. ----<br>---- --- ------ ----- ------ -- ---- --- ----- -- - -------<br>-------- -- --- --- -- ----- ----------- ----- -----------<br>---- --- ---------- --- ---- --- -- ----------,191124,191123.20000004768,190586.237,190588.09999990463,190602.908,191136.388,,23,survive.
screen,html.Screen,0_4_1_0_1_24,2021-11-19T10:47:48.995Z,,,,,,,,,,,,,,,,51,,,,,,,,,,,,,,610.6119999999937,,response,,,13,B,,,,,Space,keypress(Space),,,,lyrical,-------- -------- --- --- ---- --- --- ------ -- --------<br>---- --------- --- ------- ------------ ---------- ---------<br>--- ---------- ------- ---------- ------- -- -------- This<br>---- --- ------ ----- ------ -- ---- --- ----- -- - -------<br>-------- -- --- --- -- ----- ----------- ----- -----------<br>---- --- ---------- --- ---- --- -- ----------,191747.90000009537,191747,191119.717,191124.29999995232,191136.388,191753.17,,24,This
screen,html.Screen,0_4_1_0_1_25,2021-11-19T10:47:49.643Z,,,,,,,,,,,,,,,,51,,,,,,,,,,,,,,642.0300000476709,,response,,,13,B,,,,,Space,keypress(Space),,,,lyrical,-------- -------- --- --- ---- --- --- ------ -- --------<br>---- --------- --- ------- ------------ ---------- ---------<br>--- ---------- ------- ---------- ------- -- -------- ----<br>week --- ------ ----- ------ -- ---- --- ----- -- - -------<br>-------- -- --- --- -- ----- ----------- ----- -----------<br>---- --- ---------- --- ---- --- -- ----------,192395.90000009537,192395.20000004768,191736.5,191748.20000004768,191753.17,192403.393,,25,week
screen,html.Screen,0_4_1_0_1_26,2021-11-19T10:47:50.235Z,,,,,,,,,,,,,,,,51,,,,,,,,,,,,,,583.6069999999891,,response,,,13,B,,,,,Space,keypress(Space),,,,lyrical,-------- -------- --- --- ---- --- --- ------ -- --------<br>---- --------- --- ------- ------------ ---------- ---------<br>--- ---------- ------- ---------- ------- -- -------- ----<br>---- the ------ ----- ------ -- ---- --- ----- -- - -------<br>-------- -- --- --- -- ----- ----------- ----- -----------<br>---- --- ---------- --- ---- --- -- ----------,192987.90000009537,192987,192386.722,192396.20000004768,192403.393,193003.356,,26,the
screen,html.Screen,0_4_1_0_1_27,2021-11-19T10:47:50.603Z,,,,,,,,,,,,,,,,51,,,,,,,,,,,,,,351.7439999046328,,response,,,13,B,,,,,Space,keypress(Space),,,,lyrical,-------- -------- --- --- ---- --- --- ------ -- --------<br>---- --------- --- ------- ------------ ---------- ---------<br>--- ---------- ------- ---------- ------- -- -------- ----<br>---- --- Senate ----- ------ -- ---- --- ----- -- - -------<br>-------- -- --- --- -- ----- ----------- ----- -----------<br>---- --- ---------- --- ---- --- -- ----------,193355.90000009537,193355.09999990463,192986.687,192988.09999990463,193003.356,193370.271,,27,Senate
screen,html.Screen,0_4_1_0_1_28,2021-11-19T10:47:50.955Z,,,,,,,,,,,,,,,,51,,,,,,,,,,,,,,336.6290000953595,,response,,,13,B,,,,,Space,keypress(Space),,,,lyrical,-------- -------- --- --- ---- --- --- ------ -- --------<br>---- --------- --- ------- ------------ ---------- ---------<br>--- ---------- ------- ---------- ------- -- -------- ----<br>---- --- ------ seems ------ -- ---- --- ----- -- - -------<br>-------- -- --- --- -- ----- ----------- ----- -----------<br>---- --- ---------- --- ---- --- -- ----------,193707.90000009537,193706.90000009537,193353.6,193356.09999990463,193370.271,193720.368,,28,seems
screen,html.Screen,0_4_1_0_1_29,2021-11-19T10:47:51.331Z,,,,,,,,,,,,,,,,51,,,,,,,,,,,,,,362.7319999046449,,response,,,13,B,,,,,Space,keypress(Space),,,,lyrical,-------- -------- --- --- ---- --- --- ------ -- --------<br>---- --------- --- ------- ------------ ---------- ---------<br>--- ---------- ------- ---------- ------- -- -------- ----<br>---- --- ------ ----- poised -- ---- --- ----- -- - -------<br>-------- -- --- --- -- ----- ----------- ----- -----------<br>---- --- ---------- --- ---- --- -- ----------,194083.90000009537,194083.09999990463,193703.697,193708.09999990463,193720.368,194087.148,,29,poised
screen,html.Screen,0_4_1_0_1_30,2021-11-19T10:47:51.603Z,,,,,,,,,,,,,,,,51,,,,,,,,,,,,,,267.8520000000135,,response,,,13,B,,,,,Space,keypress(Space),,,,lyrical,-------- -------- --- --- ---- --- --- ------ -- --------<br>---- --------- --- ------- ------------ ---------- ---------<br>--- ---------- ------- ---------- ------- -- -------- ----<br>---- --- ------ ----- ------ to ---- --- ----- -- - -------<br>-------- -- --- --- -- ----- ----------- ----- -----------<br>---- --- ---------- --- ---- --- -- ----------,194355.79999995232,194355,194070.477,194084.09999990463,194087.148,194370.588,,30,to
screen,html.Screen,0_4_1_0_1_31,2021-11-19T10:47:51.963Z,,,,,,,,,,,,,,,,51,,,,,,,,,,,,,,344.4120000000112,,response,,,13,B,,,,,Space,keypress(Space),,,,lyrical,-------- -------- --- --- ---- --- --- ------ -- --------<br>---- --------- --- ------- ------------ ---------- ---------<br>--- ---------- ------- ---------- ------- -- -------- ----<br>---- --- ------ ----- ------ -- join --- ----- -- - -------<br>-------- -- --- --- -- ----- ----------- ----- -----------<br>---- --- ---------- --- ---- --- -- ----------,194715.90000009537,194715,194353.917,194356.09999990463,194370.588,194720.695,,31,join
screen,html.Screen,0_4_1_0_1_32,2021-11-19T10:47:52.299Z,,,,,,,,,,,,,,,,51,,,,,,,,,,,,,,330.4049999046256,,response,,,13,B,,,,,Space,keypress(Space),,,,lyrical,-------- -------- --- --- ---- --- --- ------ -- --------<br>---- --------- --- ------- ------------ ---------- ---------<br>--- ---------- ------- ---------- ------- -- -------- ----<br>---- --- ------ ----- ------ -- ---- the ----- -- - -------<br>-------- -- --- --- -- ----- ----------- ----- -----------<br>---- --- ---------- --- ---- --- -- ----------,195051.79999995232,195051.09999990463,194704.024,194716.09999990463,194720.695,195053.941,,32,the
screen,html.Screen,0_4_1_0_1_33,2021-11-19T10:47:52.611Z,,,,,,,,,,,,,,,,51,,,,,,,,,,,,,,309.0590000000084,,response,,,13,B,,,,,Space,keypress(Space),,,,lyrical,-------- -------- --- --- ---- --- --- ------ -- --------<br>---- --------- --- ------- ------------ ---------- ---------<br>--- ---------- ------- ---------- ------- -- -------- ----<br>---- --- ------ ----- ------ -- ---- --- House -- - -------<br>-------- -- --- --- -- ----- ----------- ----- -----------<br>---- --- ---------- --- ---- --- -- ----------,195364,195363,195037.273,195052.09999990463,195053.941,195370.88,,33,House
screen,html.Screen,0_4_1_0_1_34,2021-11-19T10:47:52.995Z,,,,,,,,,,,,,,,,51,,,,,,,,,,,,,,376.0200000953628,,response,,,13,B,,,,,Space,keypress(Space),,,,lyrical,-------- -------- --- --- ---- --- --- ------ -- --------<br>---- --------- --- ------- ------------ ---------- ---------<br>--- ---------- ------- ---------- ------- -- -------- ----<br>---- --- ------ ----- ------ -- ---- --- ----- in - -------<br>-------- -- --- --- -- ----- ----------- ----- -----------<br>---- --- ---------- --- ---- --- -- ----------,195747.70000004768,195746.90000009537,195354.208,195364.20000004768,195370.88,195754.168,,34,in
screen,html.Screen,0_4_1_0_1_35,2021-11-19T10:47:53.339Z,,,,,,,,,,,,,,,,51,,,,,,,,,,,,,,336.8319999999949,,response,,,13,B,,,,,Space,keypress(Space),,,,lyrical,-------- -------- --- --- ---- --- --- ------ -- --------<br>---- --------- --- ------- ------------ ---------- ---------<br>--- ---------- ------- ---------- ------- -- -------- ----<br>---- --- ------ ----- ------ -- ---- --- ----- -- a -------<br>-------- -- --- --- -- ----- ----------- ----- -----------<br>---- --- ---------- --- ---- --- -- ----------,196091.79999995232,196091,195737.499,195747.90000009537,195754.168,196104.47,,35,a
screen,html.Screen,0_4_1_0_1_36,2021-11-19T10:47:53.891Z,,,,,,,,,,,,,,,,51,,,,,,,,,,,,,,538.5299999999988,,response,,,13,B,,,,,Space,keypress(Space),,,,lyrical,-------- -------- --- --- ---- --- --- ------ -- --------<br>---- --------- --- ------- ------------ ---------- ---------<br>--- ---------- ------- ---------- ------- -- -------- ----<br>---- --- ------ ----- ------ -- ---- --- ----- -- - massive<br>-------- -- --- --- -- ----- ----------- ----- -----------<br>---- --- ---------- --- ---- --- -- ----------,196643.70000004768,196643,196087.797,196091.90000009537,196104.47,196654.349,,36,massive
screen,html.Screen,0_4_1_0_1_37,2021-11-19T10:47:54.363Z,,,,,,,,,,,,,,,,51,,,,,,,,,,,,,,460.6510000000126,,response,,,13,B,,,,,Space,keypress(Space),,,,lyrical,-------- -------- --- --- ---- --- --- ------ -- --------<br>---- --------- --- ------- ------------ ---------- ---------<br>--- ---------- ------- ---------- ------- -- -------- ----<br>---- --- ------ ----- ------ -- ---- --- ----- -- - -------<br>overhaul -- --- --- -- ----- ----------- ----- -----------<br>---- --- ---------- --- ---- --- -- ----------,197115.70000004768,197115,196637.681,196644,196654.349,197121.44,,37,overhaul
screen,html.Screen,0_4_1_0_1_38,2021-11-19T10:47:54.747Z,,,,,,,,,,,,,,,,51,,,,,,,,,,,,,,377.4600000953651,,response,,,13,B,,,,,Space,keypress(Space),,,,lyrical,-------- -------- --- --- ---- --- --- ------ -- --------<br>---- --------- --- ------- ------------ ---------- ---------<br>--- ---------- ------- ---------- ------- -- -------- ----<br>---- --- ------ ----- ------ -- ---- --- ----- -- - -------<br>-------- of --- --- -- ----- ----------- ----- -----------<br>---- --- ---------- --- ---- --- -- ----------,197499.79999995232,197498.90000009537,197104.767,197116,197121.44,197504.773,,38,of
screen,html.Screen,0_4_1_0_1_39,2021-11-19T10:47:55.075Z,,,,,,,,,,,,,,,,51,,,,,,,,,,,,,,321.9270000476972,,response,,,13,B,,,,,Space,keypress(Space),,,,lyrical,-------- -------- --- --- ---- --- --- ------ -- --------<br>---- --------- --- ------- ------------ ---------- ---------<br>--- ---------- ------- ---------- ------- -- -------- ----<br>---- --- ------ ----- ------ -- ---- --- ----- -- - -------<br>-------- -- the --- -- ----- ----------- ----- -----------<br>---- --- ---------- --- ---- --- -- ----------,197827.59999990463,197826.70000004768,197488.102,197499.90000009537,197504.773,197838.16,,39,the
screen,html.Screen,0_4_1_0_1_40,2021-11-19T10:47:55.323Z,,,,,,,,,,,,,,,,51,,,,,,,,,,,,,,236.74000009536394,,response,,,13,B,,,,,Space,keypress(Space),,,,lyrical,-------- -------- --- --- ---- --- --- ------ -- --------<br>---- --------- --- ------- ------------ ---------- ---------<br>--- ---------- ------- ---------- ------- -- -------- ----<br>---- --- ------ ----- ------ -- ---- --- ----- -- - -------<br>-------- -- --- way -- ----- ----------- ----- -----------<br>---- --- ---------- --- ---- --- -- ----------,198075.70000004768,198074.90000009537,197821.49,197827.79999995232,197838.16,198088.254,,40,way
screen,html.Screen,0_4_1_0_1_41,2021-11-19T10:47:55.587Z,,,,,,,,,,,,,,,,51,,,,,,,,,,,,,,250.54599995233002,,response,,,13,B,,,,,Space,keypress(Space),,,,lyrical,-------- -------- --- --- ---- --- --- ------ -- --------<br>---- --------- --- ------- ------------ ---------- ---------<br>--- ---------- ------- ---------- ------- -- -------- ----<br>---- --- ------ ----- ------ -- ---- --- ----- -- - -------<br>-------- -- --- --- in ----- ----------- ----- -----------<br>---- --- ---------- --- ---- --- -- ----------,198339.59999990463,198338.79999995232,198071.583,198076,198088.254,198354.901,,41,in
screen,html.Screen,0_4_1_0_1_42,2021-11-19T10:47:55.915Z,,,,,,,,,,,,,,,,51,,,,,,,,,,,,,,311.99900009535486,,response,,,13,B,,,,,Space,keypress(Space),,,,lyrical,-------- -------- --- --- ---- --- --- ------ -- --------<br>---- --------- --- ------- ------------ ---------- ---------<br>--- ---------- ------- ---------- ------- -- -------- ----<br>---- --- ------ ----- ------ -- ---- --- ----- -- - -------<br>-------- -- --- --- -- which ----------- ----- -----------<br>---- --- ---------- --- ---- --- -- ----------,198667.70000004768,198666.90000009537,198338.232,198339.79999995232,198354.901,198671.771,,42,which
screen,html.Screen,0_4_1_0_1_43,2021-11-19T10:47:56.763Z,,,,,,,,,,,,,,,,51,,,,,,,,,,,,,,843.5289999523084,,response,,,13,B,,,,,Space,keypress(Space),,,,lyrical,-------- -------- --- --- ---- --- --- ------ -- --------<br>---- --------- --- ------- ------------ ---------- ---------<br>--- ---------- ------- ---------- ------- -- -------- ----<br>---- --- ------ ----- ------ -- ---- --- ----- -- - -------<br>-------- -- --- --- -- ----- bureaucrats ----- -----------<br>---- --- ---------- --- ---- --- -- ----------,199516.09999990463,199515.29999995232,198655.099,198667.90000009537,198671.771,199521.988,,43,bureaucrats
screen,html.Screen,0_4_1_0_1_44,2021-11-19T10:47:57.115Z,,,,,,,,,,,,,,,,51,,,,,,,,,,,,,,344.7120000476716,,response,,,13,B,,,,,Space,keypress(Space),,,,lyrical,-------- -------- --- --- ---- --- --- ------ -- --------<br>---- --------- --- ------- ------------ ---------- ---------<br>--- ---------- ------- ---------- ------- -- -------- ----<br>---- --- ------ ----- ------ -- ---- --- ----- -- - -------<br>-------- -- --- --- -- ----- ----------- enact -----------<br>---- --- ---------- --- ---- --- -- ----------,199867.59999990463,199866.70000004768,199505.317,199516.5,199521.988,199871.84,,44,enact
screen,html.Screen,0_4_1_0_1_45,2021-11-19T10:47:57.435Z,,,,,,,,,,,,,,,,51,,,,,,,,,,,,,,314.75999990463606,,response,,,13,B,,,,,Space,keypress(Space),,,,lyrical,-------- -------- --- --- ---- --- --- ------ -- --------<br>---- --------- --- ------- ------------ ---------- ---------<br>--- ---------- ------- ---------- ------- -- -------- ----<br>---- --- ------ ----- ------ -- ---- --- ----- -- - -------<br>-------- -- --- --- -- ----- ----------- ----- regulations<br>---- --- ---------- --- ---- --- -- ----------,200187.59999990463,200186.59999990463,199855.172,199867.70000004768,199871.84,200188.844,,45,regulations
screen,html.Screen,0_4_1_0_1_46,2021-11-19T10:47:57.963Z,,,,,,,,,,,,,,,,51,,,,,,,,,,,,,,525.9559999523044,,response,,,13,B,,,,,Space,keypress(Space),,,,lyrical,-------- -------- --- --- ---- --- --- ------ -- --------<br>---- --------- --- ------- ------------ ---------- ---------<br>--- ---------- ------- ---------- ------- -- -------- ----<br>---- --- ------ ----- ------ -- ---- --- ----- -- - -------<br>-------- -- --- --- -- ----- ----------- ----- -----------<br>that --- ---------- --- ---- --- -- ----------,200715.59999990463,200714.79999995232,200172.173,200187.79999995232,200188.844,200722.263,,46,that
screen,html.Screen,0_4_1_0_1_47,2021-11-19T10:47:58.171Z,,,,,,,,,,,,,,,,51,,,,,,,,,,,,,,200.53699995231,,response,,,13,B,,,,,Space,keypress(Space),,,,lyrical,-------- -------- --- --- ---- --- --- ------ -- --------<br>---- --------- --- ------- ------------ ---------- ---------<br>--- ---------- ------- ---------- ------- -- -------- ----<br>---- --- ------ ----- ------ -- ---- --- ----- -- - -------<br>-------- -- --- --- -- ----- ----------- ----- -----------<br>---- are ---------- --- ---- --- -- ----------,200923.70000004768,200922.79999995232,200705.593,200715.90000009537,200722.263,200938.976,,47,are
screen,html.Screen,0_4_1_0_1_48,2021-11-19T10:47:58.355Z,,,,,,,,,,,,,,,,51,,,,,,,,,,,,,,167.62399990463746,,response,,,13,B,,,,,Space,keypress(Space),,,,lyrical,-------- -------- --- --- ---- --- --- ------ -- --------<br>---- --------- --- ------- ------------ ---------- ---------<br>--- ---------- ------- ---------- ------- -- -------- ----<br>---- --- ------ ----- ------ -- ---- --- ----- -- - -------<br>-------- -- --- --- -- ----- ----------- ----- -----------<br>---- --- strangling --- ---- --- -- ----------,201107.5,201106.59999990463,200922.306,200923.90000009537,200938.976,201122.418,,48,strangling
screen,html.Screen,0_4_1_0_1_49,2021-11-19T10:47:58.547Z,,,,,,,,,,,,,,,,51,,,,,,,,,,,,,,176.38199995231116,,response,,,13,B,,,,,Space,keypress(Space),,,,lyrical,-------- -------- --- --- ---- --- --- ------ -- --------<br>---- --------- --- ------- ------------ ---------- ---------<br>--- ---------- ------- ---------- ------- -- -------- ----<br>---- --- ------ ----- ------ -- ---- --- ----- -- - -------<br>-------- -- --- --- -- ----- ----------- ----- -----------<br>---- --- ---------- the ---- --- -- ----------,201299.59999990463,201298.79999995232,201105.747,201107.79999995232,201122.418,201305.737,,49,the
screen,html.Screen,0_4_1_0_1_50,2021-11-19T10:47:58.947Z,,,,,,,,,,,,,,,,51,,,,,,,,,,,,,,393.06299995232257,,response,,,13,B,,,,,Space,keypress(Space),,,,lyrical,-------- -------- --- --- ---- --- --- ------ -- --------<br>---- --------- --- ------- ------------ ---------- ---------<br>--- ---------- ------- ---------- ------- -- -------- ----<br>---- --- ------ ----- ------ -- ---- --- ----- -- - -------<br>-------- -- --- --- -- ----- ----------- ----- -----------<br>---- --- ---------- --- life --- -- ----------,201699.59999990463,201698.79999995232,201289.068,201299.90000009537,201305.737,201705.89,,50,life
