sender,sender_type,sender_id,timestamp,meta,,Blues,Classical,Country,Dance,Electronic,Folk,Gospel,Hip-Hop,Jazz,Latin,Musical/Film,New-age,Pop,Provo_ID,R&B,Rap,Reggae,Religious,Rock,Soul,Swing,Traditional,age,artist_name,correct,correctResponse,distraction,duration,education,ended_on,familiarity,gender,item,list,music_frequency,offensiveness,pleasantness,preference,response,response_action,snippet_file,song_name,song_rating,sound,text,time_commit,time_end,time_render,time_run,time_show,time_switch,url,word,word_ID
Instructions,html.Page,0_0,2021-11-26T10:37:39.082Z,"{""labjs_version"":""20.2.3"",""labjs_build"":{""flavor"":""production"",""commit"":""7ea907d66ca8aeef8054924ca5d82ffbe11e34e5""},""location"":""https://run.pavlovia.org/mvasilev/lab_music_d/"",""userAgent"":""Mozilla/5.0 (Windows NT 6.1; Win64; x64) AppleWebKit/537.36 (KHTML, like Gecko) Chrome/96.0.4664.45 Safari/537.36"",""platform"":""Win32"",""language"":""en-US"",""locale"":""en-US"",""timeZone"":""Europe/London"",""timezoneOffset"":0,""screen_width"":1920,""screen_height"":1080,""scroll_width"":1904,""scroll_height"":900,""window_innerWidth"":1904,""window_innerHeight"":948,""devicePixelRatio"":1}",,,,,,,,,,,,,,,,,,,,,,,,,,,,,21761.563000000184,,form submission,,,,,,,,,,,,,,,,33083.89999999944,33082.700000000186,11304.467,11318.5,11321.137,33093.816,{},,
Headphones,html.Page,0_1,2021-11-26T10:37:39.397Z,,,,,,,,,,,,,,,,,,,,,,,,,,,,,,304.38400000018737,,form submission,,,,,,,,,,,,,,,,33398.59999999963,33398.200000000186,33077.126,33084.59999999963,33093.816,33410.244,,,
Holding screen,html.Screen,0_2_0_0,2021-11-26T10:37:49.400Z,,,,,,,,,,,,,,,,,,,,,,,,,,,,,,10002.455999999998,,timeout,,,,,,,,,,,,,,,,43402.09999999963,43396.03,33393.574,33399.09999999963,33410.244,43412.7,,,
screen,html.Screen,0_2_0_1_0,2021-11-26T10:37:51.571Z,,,,,,,,,,,,,,,,53,,,,,,,,,,,,,,2159.300000000003,,response,,,99,,,,,,Space,keypress(Space),,,,,When -- ----- -- ------ - ------- --- ----------<br>------------- ------ ------ ---- ---- ------- ----- -- ----<br>-------- ------- -- ---------- --- - --- ----- ----- ----<br>---- --- --- ----- --- ---- ---- ------- ----- ---- -------<br>--- --- -- ----- -- --- ---- -- --- ---- -- ------ ------<br>--- ----- -- ----,45573.39999999944,45572,43396.03,43402.5,43412.7,45580.119,,0,When
screen,html.Screen,0_2_0_1_1,2021-11-26T10:37:52.610Z,,,,,,,,,,,,,,,,53,,,,,,,,,,,,,,1031.2809999994424,,response,,,99,,,,,,Space,keypress(Space),,,,,---- it ----- -- ------ - ------- --- ----------<br>------------- ------ ------ ---- ---- ------- ----- -- ----<br>-------- ------- -- ---------- --- - --- ----- ----- ----<br>---- --- --- ----- --- ---- ---- ------- ----- ---- -------<br>--- --- -- ----- -- --- ---- -- --- ---- -- ------ ------<br>--- ----- -- ----,46612.299999999814,46611.39999999944,45563.448,45573.700000000186,45580.119,46613.444,,1,it
screen,html.Screen,0_2_0_1_2,2021-11-26T10:37:53.402Z,,,,,,,,,,,,,,,,53,,,,,,,,,,,,,,789.9559999994381,,response,,,99,,,,,,Space,keypress(Space),,,,,---- -- comes -- ------ - ------- --- ----------<br>------------- ------ ------ ---- ---- ------- ----- -- ----<br>-------- ------- -- ---------- --- - --- ----- ----- ----<br>---- --- --- ----- --- ---- ---- ------- ----- ---- -------<br>--- --- -- ----- -- --- ---- -- --- ---- -- ------ ------<br>--- ----- -- ----,47404.200000000186,47403.39999999944,46596.774,46612.59999999963,46613.444,47413.697,,2,comes
screen,html.Screen,0_2_0_1_3,2021-11-26T10:37:54.074Z,,,,,,,,,,,,,,,,53,,,,,,,,,,,,,,661.6029999998136,,response,,,99,,,,,,Space,keypress(Space),,,,,---- -- ----- to ------ - ------- --- ----------<br>------------- ------ ------ ---- ---- ------- ----- -- ----<br>-------- ------- -- ---------- --- - --- ----- ----- ----<br>---- --- --- ----- --- ---- ---- ------- ----- ---- -------<br>--- --- -- ----- -- --- ---- -- --- ---- -- ------ ------<br>--- ----- -- ----,48076.299999999814,48075.299999999814,47397.027,47404.5,47413.697,48080.685,,3,to
screen,html.Screen,0_2_0_1_4,2021-11-26T10:37:54.786Z,,,,,,,,,,,,,,,,53,,,,,,,,,,,,,,706.7149999994435,,response,,,99,,,,,,Space,keypress(Space),,,,,---- -- ----- -- having - ------- --- ----------<br>------------- ------ ------ ---- ---- ------- ----- -- ----<br>-------- ------- -- ---------- --- - --- ----- ----- ----<br>---- --- --- ----- --- ---- ---- ------- ----- ---- -------<br>--- --- -- ----- -- --- ---- -- --- ---- -- ------ ------<br>--- ----- -- ----,48788.39999999944,48787.39999999944,48064.014,48076.799999999814,48080.685,48797.431,,4,having
screen,html.Screen,0_2_0_1_5,2021-11-26T10:37:55.458Z,,,,,,,,,,,,,,,,53,,,,,,,,,,,,,,661.8689999998169,,response,,,99,,,,,,Space,keypress(Space),,,,,---- -- ----- -- ------ a ------- --- ----------<br>------------- ------ ------ ---- ---- ------- ----- -- ----<br>-------- ------- -- ---------- --- - --- ----- ----- ----<br>---- --- --- ----- --- ---- ---- ------- ----- ---- -------<br>--- --- -- ----- -- --- ---- -- --- ---- -- ------ ------<br>--- ----- -- ----,49460.09999999963,49459.299999999814,48780.761,48788.700000000186,48797.431,49464.278,,5,a
screen,html.Screen,0_2_0_1_6,2021-11-26T10:37:56.202Z,,,,,,,,,,,,,,,,53,,,,,,,,,,,,,,738.9220000001878,,response,,,99,,,,,,Space,keypress(Space),,,,,---- -- ----- -- ------ - lasting --- ----------<br>------------- ------ ------ ---- ---- ------- ----- -- ----<br>-------- ------- -- ---------- --- - --- ----- ----- ----<br>---- --- --- ----- --- ---- ---- ------- ----- ---- -------<br>--- --- -- ----- -- --- ---- -- --- ---- -- ------ ------<br>--- ----- -- ----,50204.09999999963,50203.200000000186,49447.608,49460.59999999963,49464.278,50214.467,,6,lasting
screen,html.Screen,0_2_0_1_7,2021-11-26T10:37:56.914Z,,,,,,,,,,,,,,,,53,,,,,,,,,,,,,,700.6329999996306,,response,,,99,,,,,,Space,keypress(Space),,,,,---- -- ----- -- ------ - ------- and ----------<br>------------- ------ ------ ---- ---- ------- ----- -- ----<br>-------- ------- -- ---------- --- - --- ----- ----- ----<br>---- --- --- ----- --- ---- ---- ------- ----- ---- -------<br>--- --- -- ----- -- --- ---- -- --- ---- -- ------ ------<br>--- ----- -- ----,50916.09999999963,50915.09999999963,50197.797,50204.39999999944,50214.467,50931.295,,7,and
screen,html.Screen,0_2_0_1_8,2021-11-26T10:37:57.778Z,,,,,,,,,,,,,,,,53,,,,,,,,,,,,,,847.8049999996292,,response,,,99,,,,,,Space,keypress(Space),,,,,---- -- ----- -- ------ - ------- --- fulfilling<br>------------- ------ ------ ---- ---- ------- ----- -- ----<br>-------- ------- -- ---------- --- - --- ----- ----- ----<br>---- --- --- ----- --- ---- ---- ------- ----- ---- -------<br>--- --- -- ----- -- --- ---- -- --- ---- -- ------ ------<br>--- ----- -- ----,51780.200000000186,51779.09999999963,50914.625,50916.39999999944,50931.295,51781.513,,8,fulfilling
screen,html.Screen,0_2_0_1_9,2021-11-26T10:37:58.898Z,,,,,,,,,,,,,,,,53,,,,,,,,,,,,,,1117.487000000001,,response,,,99,,,,,,Space,keypress(Space),,,,,"---- -- ----- -- ------ - ------- --- ----------<br>relationship, ------ ------ ---- ---- ------- ----- -- ----<br>-------- ------- -- ---------- --- - --- ----- ----- ----<br>---- --- --- ----- --- ---- ---- ------- ----- ---- -------<br>--- --- -- ----- -- --- ---- -- --- ---- -- ------ ------<br>--- ----- -- ----",52899.89999999944,52899,51764.843,51780.39999999944,51781.513,52915.206,,9,"relationship,"
screen,html.Screen,0_2_0_1_10,2021-11-26T10:37:59.794Z,,,,,,,,,,,,,,,,53,,,,,,,,,,,,,,879.7940000000017,,response,,,99,,,,,,Space,keypress(Space),,,,,---- -- ----- -- ------ - ------- --- ----------<br>------------- common ------ ---- ---- ------- ----- -- ----<br>-------- ------- -- ---------- --- - --- ----- ----- ----<br>---- --- --- ----- --- ---- ---- ------- ----- ---- -------<br>--- --- -- ----- -- --- ---- -- --- ---- -- ------ ------<br>--- ----- -- ----,53795.89999999944,53795,52898.535,52900.200000000186,52915.206,53798.657,,10,common
screen,html.Screen,0_2_0_1_11,2021-11-26T10:38:00.818Z,,,,,,,,,,,,,,,,53,,,,,,,,,,,,,,1020.242999999442,,response,,,99,,,,,,Space,keypress(Space),,,,,---- -- ----- -- ------ - ------- --- ----------<br>------------- ------ wisdom ---- ---- ------- ----- -- ----<br>-------- ------- -- ---------- --- - --- ----- ----- ----<br>---- --- --- ----- --- ---- ---- ------- ----- ---- -------<br>--- --- -- ----- -- --- ---- -- --- ---- -- ------ ------<br>--- ----- -- ----,54819.799999999814,54818.89999999944,53781.987,53796.09999999963,53798.657,54832.272,,11,wisdom
screen,html.Screen,0_2_0_1_12,2021-11-26T10:38:01.890Z,,,,,,,,,,,,,,,,53,,,,,,,,,,,,,,1059.0279999998165,,response,,,99,,,,,,Space,keypress(Space),,,,,---- -- ----- -- ------ - ------- --- ----------<br>------------- ------ ------ says ---- ------- ----- -- ----<br>-------- ------- -- ---------- --- - --- ----- ----- ----<br>---- --- --- ----- --- ---- ---- ------- ----- ---- -------<br>--- --- -- ----- -- --- ---- -- --- ---- -- ------ ------<br>--- ----- -- ----,55892,55891.299999999814,54815.602,54820,54832.272,55899.178,,12,says
screen,html.Screen,0_2_0_1_13,2021-11-26T10:38:02.770Z,,,,,,,,,,,,,,,,53,,,,,,,,,,,,,,871.6219999998139,,response,,,99,,,,,,Space,keypress(Space),,,,,---- -- ----- -- ------ - ------- --- ----------<br>------------- ------ ------ ---- that ------- ----- -- ----<br>-------- ------- -- ---------- --- - --- ----- ----- ----<br>---- --- --- ----- --- ---- ---- ------- ----- ---- -------<br>--- --- -- ----- -- --- ---- -- --- ---- -- ------ ------<br>--- ----- -- ----,56771.5,56770.799999999814,55882.508,55892.299999999814,55899.178,56782.758,,13,that
screen,html.Screen,0_2_0_1_14,2021-11-26T10:38:03.546Z,,,,,,,,,,,,,,,,53,,,,,,,,,,,,,,763.9420000001846,,response,,,99,,,,,,Space,keypress(Space),,,,,---- -- ----- -- ------ - ------- --- ----------<br>------------- ------ ------ ---- ---- feeling ----- -- ----<br>-------- ------- -- ---------- --- - --- ----- ----- ----<br>---- --- --- ----- --- ---- ---- ------- ----- ---- -------<br>--- --- -- ----- -- --- ---- -- --- ---- -- ------ ------<br>--- ----- -- ----,57547.59999999963,57546.700000000186,56766.088,56771.799999999814,56782.758,57549.618,,14,feeling
screen,html.Screen,0_2_0_1_15,2021-11-26T10:38:04.386Z,,,,,,,,,,,,,,,,53,,,,,,,,,,,,,,837.082000000184,,response,,,99,,,,,,Space,keypress(Space),,,,,---- -- ----- -- ------ - ------- --- ----------<br>------------- ------ ------ ---- ---- ------- close -- ----<br>-------- ------- -- ---------- --- - --- ----- ----- ----<br>---- --- --- ----- --- ---- ---- ------- ----- ---- -------<br>--- --- -- ----- -- --- ---- -- --- ---- -- ------ ------<br>--- ----- -- ----,58387.5,58386.700000000186,57532.948,57547.89999999944,57549.618,58399.826,,15,close
screen,html.Screen,0_2_0_1_16,2021-11-26T10:38:05.033Z,,,,,,,,,,,,,,,,53,,,,,,,,,,,,,,634.8740000001853,,response,,,99,,,,,,Space,keypress(Space),,,,,---- -- ----- -- ------ - ------- --- ----------<br>------------- ------ ------ ---- ---- ------- ----- to ----<br>-------- ------- -- ---------- --- - --- ----- ----- ----<br>---- --- --- ----- --- ---- ---- ------- ----- ---- -------<br>--- --- -- ----- -- --- ---- -- --- ---- -- ------ ------<br>--- ----- -- ----,59035.39999999944,59034.700000000186,58383.156,58387.799999999814,58399.826,59050.06,,16,to
screen,html.Screen,0_2_0_1_17,2021-11-26T10:38:05.705Z,,,,,,,,,,,,,,,,53,,,,,,,,,,,,,,656.5399999996298,,response,,,99,,,,,,Space,keypress(Space),,,,,---- -- ----- -- ------ - ------- --- ----------<br>------------- ------ ------ ---- ---- ------- ----- -- your<br>-------- ------- -- ---------- --- - --- ----- ----- ----<br>---- --- --- ----- --- ---- ---- ------- ----- ---- -------<br>--- --- -- ----- -- --- ---- -- --- ---- -- ------ ------<br>--- ----- -- ----,59707.39999999944,59706.59999999963,59033.389,59035.700000000186,59050.06,59716.822,,17,your
screen,html.Screen,0_2_0_1_18,2021-11-26T10:38:06.238Z,,,,,,,,,,,,,,,,53,,,,,,,,,,,,,,517.6779999999999,,response,,,99,,,,,,Space,keypress(Space),,,,,---- -- ----- -- ------ - ------- --- ----------<br>------------- ------ ------ ---- ---- ------- ----- -- ----<br>romantic ------- -- ---------- --- - --- ----- ----- ----<br>---- --- --- ----- --- ---- ---- ------- ----- ---- -------<br>--- --- -- ----- -- --- ---- -- --- ---- -- ------ ------<br>--- ----- -- ----,60235.299999999814,60234.5,59700.152,59707.59999999963,59716.822,60250.302,,18,romantic
screen,html.Screen,0_2_0_1_19,2021-11-26T10:38:06.662Z,,,,,,,,,,,,,,,,53,,,,,,,,,,,,,,408.1979999999967,,response,,,99,,,,,,Space,keypress(Space),,,,,---- -- ----- -- ------ - ------- --- ----------<br>------------- ------ ------ ---- ---- ------- ----- -- ----<br>-------- partner -- ---------- --- - --- ----- ----- ----<br>---- --- --- ----- --- ---- ---- ------- ----- ---- -------<br>--- --- -- ----- -- --- ---- -- --- ---- -- ------ ------<br>--- ----- -- ----,60659.299999999814,60658.5,60233.632,60235.5,60250.302,60667.079,,19,partner
screen,html.Screen,0_2_0_1_20,2021-11-26T10:38:07.254Z,,,,,,,,,,,,,,,,53,,,,,,,,,,,,,,583.4210000000021,,response,,,99,,,,,,Space,keypress(Space),,,,,---- -- ----- -- ------ - ------- --- ----------<br>------------- ------ ------ ---- ---- ------- ----- -- ----<br>-------- ------- is ---------- --- - --- ----- ----- ----<br>---- --- --- ----- --- ---- ---- ------- ----- ---- -------<br>--- --- -- ----- -- --- ---- -- --- ---- -- ------ ------<br>--- ----- -- ----,61251.299999999814,61250.5,60650.409,60659.59999999963,60667.079,61267.275,,20,is
screen,html.Screen,0_2_0_1_21,2021-11-26T10:38:08.382Z,,,,,,,,,,,,,,,,53,,,,,,,,,,,,,,1111.2249999999985,,response,,,99,,,,,,Space,keypress(Space),,,,,---- -- ----- -- ------ - ------- --- ----------<br>------------- ------ ------ ---- ---- ------- ----- -- ----<br>-------- ------- -- paramount. --- - --- ----- ----- ----<br>---- --- --- ----- --- ---- ---- ------- ----- ---- -------<br>--- --- -- ----- -- --- ---- -- --- ---- -- ------ ------<br>--- ----- -- ----,62379.200000000186,62378.5,61250.604,61251.59999999963,61267.275,62384.135,,21,paramount.
screen,html.Screen,0_2_0_1_22,2021-11-26T10:38:09.438Z,,,,,,,,,,,,,,,,53,,,,,,,,,,,,,,1050.2649999994392,,response,,,99,,,,,,Space,keypress(Space),,,,,---- -- ----- -- ------ - ------- --- ----------<br>------------- ------ ------ ---- ---- ------- ----- -- ----<br>-------- ------- -- ---------- But - --- ----- ----- ----<br>---- --- --- ----- --- ---- ---- ------- ----- ---- -------<br>--- --- -- ----- -- --- ---- -- --- ---- -- ------ ------<br>--- ----- -- ----,63435.200000000186,63434.39999999944,62367.465,62379.700000000186,62384.135,63451.076,,22,But
screen,html.Screen,0_2_0_1_23,2021-11-26T10:38:10.286Z,,,,,,,,,,,,,,,,53,,,,,,,,,,,,,,831.2239999998128,,response,,,99,,,,,,Space,keypress(Space),,,,,---- -- ----- -- ------ - ------- --- ----------<br>------------- ------ ------ ---- ---- ------- ----- -- ----<br>-------- ------- -- ---------- --- a --- ----- ----- ----<br>---- --- --- ----- --- ---- ---- ------- ----- ---- -------<br>--- --- -- ----- -- --- ---- -- --- ---- -- ------ ------<br>--- ----- -- ----,64283.09999999963,64282.299999999814,63434.406,63435.39999999944,63451.076,64284.621,,23,a
screen,html.Screen,0_2_0_1_24,2021-11-26T10:38:10.958Z,,,,,,,,,,,,,,,,53,,,,,,,,,,,,,,669.6789999998146,,response,,,99,,,,,,Space,keypress(Space),,,,,---- -- ----- -- ------ - ------- --- ----------<br>------------- ------ ------ ---- ---- ------- ----- -- ----<br>-------- ------- -- ---------- --- - new ----- ----- ----<br>---- --- --- ----- --- ---- ---- ------- ----- ---- -------<br>--- --- -- ----- -- --- ---- -- --- ---- -- ------ ------<br>--- ----- -- ----,64955.09999999963,64954.299999999814,64267.951,64283.39999999944,64284.621,64968.137,,24,new
screen,html.Screen,0_2_0_1_25,2021-11-26T10:38:12.078Z,,,,,,,,,,,,,,,,53,,,,,,,,,,,,,,1106.1629999998113,,response,,,99,,,,,,Space,keypress(Space),,,,,---- -- ----- -- ------ - ------- --- ----------<br>------------- ------ ------ ---- ---- ------- ----- -- ----<br>-------- ------- -- ---------- --- - --- study ----- ----<br>---- --- --- ----- --- ---- ---- ------- ----- ---- -------<br>--- --- -- ----- -- --- ---- -- --- ---- -- ------ ------<br>--- ----- -- ----,66074.79999999981,66074.29999999981,64951.467,64955.299999999814,64968.137,66085.07,,25,study
screen,html.Screen,0_2_0_1_26,2021-11-26T10:38:12.702Z,,,,,,,,,,,,,,,,53,,,,,,,,,,,,,,613.0299999996205,,response,,,99,,,,,,Space,keypress(Space),,,,,---- -- ----- -- ------ - ------- --- ----------<br>------------- ------ ------ ---- ---- ------- ----- -- ----<br>-------- ------- -- ---------- --- - --- ----- finds ----<br>---- --- --- ----- --- ---- ---- ------- ----- ---- -------<br>--- --- -- ----- -- --- ---- -- --- ---- -- ------ ------<br>--- ----- -- ----,66698.89999999944,66698.09999999963,66068.4,66075,66085.07,66701.886,,26,finds
screen,html.Screen,0_2_0_1_27,2021-11-26T10:38:13.446Z,,,,,,,,,,,,,,,,53,,,,,,,,,,,,,,740.2139999996289,,response,,,99,,,,,,Space,keypress(Space),,,,,---- -- ----- -- ------ - ------- --- ----------<br>------------- ------ ------ ---- ---- ------- ----- -- ----<br>-------- ------- -- ---------- --- - --- ----- ----- that<br>---- --- --- ----- --- ---- ---- ------- ----- ---- -------<br>--- --- -- ----- -- --- ---- -- --- ---- -- ------ ------<br>--- ----- -- ----,67442.89999999944,67442.09999999963,66685.216,66699.09999999963,66701.886,67452.088,,27,that
screen,html.Screen,0_2_0_1_28,2021-11-26T10:38:14.374Z,,,,,,,,,,,,,,,,53,,,,,,,,,,,,,,918.0119999996241,,response,,,99,,,,,,Space,keypress(Space),,,,,---- -- ----- -- ------ - ------- --- ----------<br>------------- ------ ------ ---- ---- ------- ----- -- ----<br>-------- ------- -- ---------- --- - --- ----- ----- ----<br>it's --- --- ----- --- ---- ---- ------- ----- ---- -------<br>--- --- -- ----- -- --- ---- -- --- ---- -- ------ ------<br>--- ----- -- ----,68370.89999999944,68370.09999999963,67435.418,67443.09999999963,67452.088,68385.626,,28,it's
screen,html.Screen,0_2_0_1_29,2021-11-26T10:38:15.293Z,,,,,,,,,,,,,,,,53,,,,,,,,,,,,,,904.3739999999962,,response,,,99,,,,,,Space,keypress(Space),,,,,---- -- ----- -- ------ - ------- --- ----------<br>------------- ------ ------ ---- ---- ------- ----- -- ----<br>-------- ------- -- ---------- --- - --- ----- ----- ----<br>---- not --- ----- --- ---- ---- ------- ----- ---- -------<br>--- --- -- ----- -- --- ---- -- --- ---- -- ------ ------<br>--- ----- -- ----,69290.79999999981,69290,68368.956,68371.09999999963,68385.626,69302.534,,29,not
screen,html.Screen,0_2_0_1_30,2021-11-26T10:38:16.101Z,,,,,,,,,,,,,,,,53,,,,,,,,,,,,,,795.3659999994416,,response,,,99,,,,,,Space,keypress(Space),,,,,---- -- ----- -- ------ - ------- --- ----------<br>------------- ------ ------ ---- ---- ------- ----- -- ----<br>-------- ------- -- ---------- --- - --- ----- ----- ----<br>---- --- how ----- --- ---- ---- ------- ----- ---- -------<br>--- --- -- ----- -- --- ---- -- --- ---- -- ------ ------<br>--- ----- -- ----,70098.59999999963,70097.89999999944,69285.864,69291,69302.534,70102.743,,30,how
screen,html.Screen,0_2_0_1_31,2021-11-26T10:38:16.805Z,,,,,,,,,,,,,,,,53,,,,,,,,,,,,,,699.156999999439,,response,,,99,,,,,,Space,keypress(Space),,,,,---- -- ----- -- ------ - ------- --- ----------<br>------------- ------ ------ ---- ---- ------- ----- -- ----<br>-------- ------- -- ---------- --- - --- ----- ----- ----<br>---- --- --- close --- ---- ---- ------- ----- ---- -------<br>--- --- -- ----- -- --- ---- -- --- ---- -- ------ ------<br>--- ----- -- ----,70802.59999999963,70801.89999999944,70086.073,70098.79999999981,70102.743,70819.465,,31,close
screen,html.Screen,0_2_0_1_32,2021-11-26T10:38:17.477Z,,,,,,,,,,,,,,,,53,,,,,,,,,,,,,,654.3349999998172,,response,,,99,,,,,,Space,keypress(Space),,,,,---- -- ----- -- ------ - ------- --- ----------<br>------------- ------ ------ ---- ---- ------- ----- -- ----<br>-------- ------- -- ---------- --- - --- ----- ----- ----<br>---- --- --- ----- you ---- ---- ------- ----- ---- -------<br>--- --- -- ----- -- --- ---- -- --- ---- -- ------ ------<br>--- ----- -- ----,71474.59999999963,71473.79999999981,70802.796,70802.89999999944,70819.465,71486.499,,32,you
screen,html.Screen,0_2_0_1_33,2021-11-26T10:38:18.118Z,,,,,,,,,,,,,,,,53,,,,,,,,,,,,,,627.2010000001901,,response,,,99,,,,,,Space,keypress(Space),,,,,---- -- ----- -- ------ - ------- --- ----------<br>------------- ------ ------ ---- ---- ------- ----- -- ----<br>-------- ------- -- ---------- --- - --- ----- ----- ----<br>---- --- --- ----- --- feel ---- ------- ----- ---- -------<br>--- --- -- ----- -- --- ---- -- --- ---- -- ------ ------<br>--- ----- -- ----,72114.79999999981,72113.70000000019,71469.828,71474.89999999944,71486.499,72119.919,,33,feel
screen,html.Screen,0_2_0_1_34,2021-11-26T10:38:18.885Z,,,,,,,,,,,,,,,,53,,,,,,,,,,,,,,761.7810000001919,,response,,,99,,,,,,Space,keypress(Space),,,,,---- -- ----- -- ------ - ------- --- ----------<br>------------- ------ ------ ---- ---- ------- ----- -- ----<br>-------- ------- -- ---------- --- - --- ----- ----- ----<br>---- --- --- ----- --- ---- that ------- ----- ---- -------<br>--- --- -- ----- -- --- ---- -- --- ---- -- ------ ------<br>--- ----- -- ----,72882.5,72881.70000000019,72103.249,72115,72119.919,72886.725,,34,that
screen,html.Screen,0_2_0_1_35,2021-11-26T10:38:19.845Z,,,,,,,,,,,,,,,,53,,,,,,,,,,,,,,954.9750000001804,,response,,,99,,,,,,Space,keypress(Space),,,,,---- -- ----- -- ------ - ------- --- ----------<br>------------- ------ ------ ---- ---- ------- ----- -- ----<br>-------- ------- -- ---------- --- - --- ----- ----- ----<br>---- --- --- ----- --- ---- ---- matters ----- ---- -------<br>--- --- -- ----- -- --- ---- -- --- ---- -- ------ ------<br>--- ----- -- ----,73842.5,73841.70000000019,72870.055,72882.70000000019,72886.725,73853.749,,35,matters
screen,html.Screen,0_2_0_1_36,2021-11-26T10:38:20.901Z,,,,,,,,,,,,,,,,53,,,,,,,,,,,,,,1043.8509999996313,,response,,,99,,,,,,Space,keypress(Space),,,,,"---- -- ----- -- ------ - ------- --- ----------<br>------------- ------ ------ ---- ---- ------- ----- -- ----<br>-------- ------- -- ---------- --- - --- ----- ----- ----<br>---- --- --- ----- --- ---- ---- ------- most, ---- -------<br>--- --- -- ----- -- --- ---- -- --- ---- -- ------ ------<br>--- ----- -- ----",74898.59999999963,74897.59999999963,73837.078,73842.70000000019,73853.749,74903.768,,36,"most,"
screen,html.Screen,0_2_0_1_37,2021-11-26T10:38:21.621Z,,,,,,,,,,,,,,,,53,,,,,,,,,,,,,,713.8319999996311,,response,,,99,,,,,,Space,keypress(Space),,,,,---- -- ----- -- ------ - ------- --- ----------<br>------------- ------ ------ ---- ---- ------- ----- -- ----<br>-------- ------- -- ---------- --- - --- ----- ----- ----<br>---- --- --- ----- --- ---- ---- ------- ----- it's -------<br>--- --- -- ----- -- --- ---- -- --- ---- -- ------ ------<br>--- ----- -- ----,75618.39999999944,75617.59999999963,74887.099,74898.79999999981,74903.768,75620.715,,37,it's
screen,html.Screen,0_2_0_1_38,2021-11-26T10:38:22.221Z,,,,,,,,,,,,,,,,53,,,,,,,,,,,,,,597.2850000000035,,response,,,99,,,,,,Space,keypress(Space),,,,,---- -- ----- -- ------ - ------- --- ----------<br>------------- ------ ------ ---- ---- ------- ----- -- ----<br>-------- ------- -- ---------- --- - --- ----- ----- ----<br>---- --- --- ----- --- ---- ---- ------- ----- ---- whether<br>--- --- -- ----- -- --- ---- -- --- ---- -- ------ ------<br>--- ----- -- ----,76218.79999999981,76218,75604.045,75618.5,75620.715,76220.899,,38,whether
screen,html.Screen,0_2_0_1_39,2021-11-26T10:38:23.421Z,,,,,,,,,,,,,,,,53,,,,,,,,,,,,,,1196.600999999995,,response,,,99,,,,,,Space,keypress(Space),,,,,---- -- ----- -- ------ - ------- --- ----------<br>------------- ------ ------ ---- ---- ------- ----- -- ----<br>-------- ------- -- ---------- --- - --- ----- ----- ----<br>---- --- --- ----- --- ---- ---- ------- ----- ---- -------<br>you --- -- ----- -- --- ---- -- --- ---- -- ------ ------<br>--- ----- -- ----,77418.39999999944,77417.5,76204.229,76219,76220.899,77421.283,,39,you
screen,html.Screen,0_2_0_1_40,2021-11-26T10:38:24.037Z,,,,,,,,,,,,,,,,53,,,,,,,,,,,,,,612.2170000000042,,response,,,99,,,,,,Space,keypress(Space),,,,,---- -- ----- -- ------ - ------- --- ----------<br>------------- ------ ------ ---- ---- ------- ----- -- ----<br>-------- ------- -- ---------- --- - --- ----- ----- ----<br>---- --- --- ----- --- ---- ---- ------- ----- ---- -------<br>--- are -- ----- -- --- ---- -- --- ---- -- ------ ------<br>--- ----- -- ----,78034.20000000019,78033.5,77404.612,77418.70000000019,77421.283,78037.98,,40,are
screen,html.Screen,0_2_0_1_41,2021-11-26T10:38:24.557Z,,,,,,,,,,,,,,,,53,,,,,,,,,,,,,,515.4199999994453,,response,,,99,,,,,,Space,keypress(Space),,,,,---- -- ----- -- ------ - ------- --- ----------<br>------------- ------ ------ ---- ---- ------- ----- -- ----<br>-------- ------- -- ---------- --- - --- ----- ----- ----<br>---- --- --- ----- --- ---- ---- ------- ----- ---- -------<br>--- --- as ----- -- --- ---- -- --- ---- -- ------ ------<br>--- ----- -- ----,78554.20000000019,78553.39999999944,78021.31,78034.39999999944,78037.98,78571.589,,41,as
screen,html.Screen,0_2_0_1_42,2021-11-26T10:38:25.021Z,,,,,,,,,,,,,,,,53,,,,,,,,,,,,,,445.7109999998065,,response,,,99,,,,,,Space,keypress(Space),,,,,---- -- ----- -- ------ - ------- --- ----------<br>------------- ------ ------ ---- ---- ------- ----- -- ----<br>-------- ------- -- ---------- --- - --- ----- ----- ----<br>---- --- --- ----- --- ---- ---- ------- ----- ---- -------<br>--- --- -- close -- --- ---- -- --- ---- -- ------ ------<br>--- ----- -- ----,79018.09999999963,79017.29999999981,78554.918,78554.5,78571.589,79021.633,,42,close
screen,html.Screen,0_2_0_1_43,2021-11-26T10:38:25.477Z,,,,,,,,,,,,,,,,53,,,,,,,,,,,,,,451.6669999998121,,response,,,99,,,,,,Space,keypress(Space),,,,,---- -- ----- -- ------ - ------- --- ----------<br>------------- ------ ------ ---- ---- ------- ----- -- ----<br>-------- ------- -- ---------- --- - --- ----- ----- ----<br>---- --- --- ----- --- ---- ---- ------- ----- ---- -------<br>--- --- -- ----- as --- ---- -- --- ---- -- ------ ------<br>--- ----- -- ----,79474.09999999963,79473.29999999981,79004.963,79018.39999999944,79021.633,79488.474,,43,as
screen,html.Screen,0_2_0_1_44,2021-11-26T10:38:25.989Z,,,,,,,,,,,,,,,,53,,,,,,,,,,,,,,496.82599999981176,,response,,,99,,,,,,Space,keypress(Space),,,,,---- -- ----- -- ------ - ------- --- ----------<br>------------- ------ ------ ---- ---- ------- ----- -- ----<br>-------- ------- -- ---------- --- - --- ----- ----- ----<br>---- --- --- ----- --- ---- ---- ------- ----- ---- -------<br>--- --- -- ----- -- you ---- -- --- ---- -- ------ ------<br>--- ----- -- ----,79986.09999999963,79985.29999999981,79471.803,79474.39999999944,79488.474,79988.55,,44,you
screen,html.Screen,0_2_0_1_45,2021-11-26T10:38:26.533Z,,,,,,,,,,,,,,,,53,,,,,,,,,,,,,,540.7499999998108,,response,,,99,,,,,,Space,keypress(Space),,,,,---- -- ----- -- ------ - ------- --- ----------<br>------------- ------ ------ ---- ---- ------- ----- -- ----<br>-------- ------- -- ---------- --- - --- ----- ----- ----<br>---- --- --- ----- --- ---- ---- ------- ----- ---- -------<br>--- --- -- ----- -- --- want -- --- ---- -- ------ ------<br>--- ----- -- ----,80530,80529.29999999981,79971.88,79986.29999999981,79988.55,80538.69,,45,want
screen,html.Screen,0_2_0_1_46,2021-11-26T10:38:26.957Z,,,,,,,,,,,,,,,,53,,,,,,,,,,,,,,414.6099999998114,,response,,,99,,,,,,Space,keypress(Space),,,,,---- -- ----- -- ------ - ------- --- ----------<br>------------- ------ ------ ---- ---- ------- ----- -- ----<br>-------- ------- -- ---------- --- - --- ----- ----- ----<br>---- --- --- ----- --- ---- ---- ------- ----- ---- -------<br>--- --- -- ----- -- --- ---- to --- ---- -- ------ ------<br>--- ----- -- ----,80954.09999999963,80953.29999999981,80522.02,80530.29999999981,80538.69,80955.469,,46,to
screen,html.Screen,0_2_0_1_47,2021-11-26T10:38:27.525Z,,,,,,,,,,,,,,,,53,,,,,,,,,,,,,,565.7310000001889,,response,,,99,,,,,,Space,keypress(Space),,,,,"---- -- ----- -- ------ - ------- --- ----------<br>------------- ------ ------ ---- ---- ------- ----- -- ----<br>-------- ------- -- ---------- --- - --- ----- ----- ----<br>---- --- --- ----- --- ---- ---- ------- ----- ---- -------<br>--- --- -- ----- -- --- ---- -- be, ---- -- ------ ------<br>--- ----- -- ----",81522,81521.20000000019,80938.799,80954.20000000019,80955.469,81538.839,,47,"be,"
screen,html.Screen,0_2_0_1_48,2021-11-26T10:38:28.805Z,,,,,,,,,,,,,,,,53,,,,,,,,,,,,,,1262.361000000179,,response,,,99,,,,,,Space,keypress(Space),,,,,---- -- ----- -- ------ - ------- --- ----------<br>------------- ------ ------ ---- ---- ------- ----- -- ----<br>-------- ------- -- ---------- --- - --- ----- ----- ----<br>---- --- --- ----- --- ---- ---- ------- ----- ---- -------<br>--- --- -- ----- -- --- ---- -- --- even -- ------ ------<br>--- ----- -- ----,82801.89999999944,82801.20000000019,81522.17,81522.20000000019,81538.839,82805.994,,48,even
screen,html.Screen,0_2_0_1_49,2021-11-26T10:38:29.485Z,,,,,,,,,,,,,,,,53,,,,,,,,,,,,,,675.1059999996214,,response,,,99,,,,,,Space,keypress(Space),,,,,---- -- ----- -- ------ - ------- --- ----------<br>------------- ------ ------ ---- ---- ------- ----- -- ----<br>-------- ------- -- ---------- --- - --- ----- ----- ----<br>---- --- --- ----- --- ---- ---- ------- ----- ---- -------<br>--- --- -- ----- -- --- ---- -- --- ---- if ------ ------<br>--- ----- -- ----,83481.79999999981,83481.09999999963,82789.323,82802.20000000019,82805.994,83489.407,,49,if
screen,html.Screen,0_2_0_1_50,2021-11-26T10:38:30.045Z,,,,,,,,,,,,,,,,53,,,,,,,,,,,,,,551.692999999621,,response,,,99,,,,,,Space,keypress(Space),,,,,---- -- ----- -- ------ - ------- --- ----------<br>------------- ------ ------ ---- ---- ------- ----- -- ----<br>-------- ------- -- ---------- --- - --- ----- ----- ----<br>---- --- --- ----- --- ---- ---- ------- ----- ---- -------<br>--- --- -- ----- -- --- ---- -- --- ---- -- that's ------<br>--- ----- -- ----,84041.79999999981,84041.09999999963,83472.737,83482.09999999963,83489.407,84056.161,,50,that's
screen,html.Screen,0_2_0_1_51,2021-11-26T10:38:30.684Z,,,,,,,,,,,,,,,,53,,,,,,,,,,,,,,624.8390000000072,,response,,,99,,,,,,Space,keypress(Space),,,,,---- -- ----- -- ------ - ------- --- ----------<br>------------- ------ ------ ---- ---- ------- ----- -- ----<br>-------- ------- -- ---------- --- - --- ----- ----- ----<br>---- --- --- ----- --- ---- ---- ------- ----- ---- -------<br>--- --- -- ----- -- --- ---- -- --- ---- -- ------ really<br>--- ----- -- ----,84681.79999999981,84681,84039.491,84042.09999999963,84056.161,84689.794,,51,really
screen,html.Screen,0_2_0_1_52,2021-11-26T10:38:31.340Z,,,,,,,,,,,,,,,,53,,,,,,,,,,,,,,647.2060000000056,,response,,,99,,,,,,Space,keypress(Space),,,,,---- -- ----- -- ------ - ------- --- ----------<br>------------- ------ ------ ---- ---- ------- ----- -- ----<br>-------- ------- -- ---------- --- - --- ----- ----- ----<br>---- --- --- ----- --- ---- ---- ------- ----- ---- -------<br>--- --- -- ----- -- --- ---- -- --- ---- -- ------ ------<br>not ----- -- ----,85337.70000000019,85337,84673.123,84682,84689.794,85339.879,,52,not
screen,html.Screen,0_2_0_1_53,2021-11-26T10:38:31.908Z,,,,,,,,,,,,,,,,53,,,,,,,,,,,,,,565.0209999994404,,response,,,99,,,,,,Space,keypress(Space),,,,,---- -- ----- -- ------ - ------- --- ----------<br>------------- ------ ------ ---- ---- ------- ----- -- ----<br>-------- ------- -- ---------- --- - --- ----- ----- ----<br>---- --- --- ----- --- ---- ---- ------- ----- ---- -------<br>--- --- -- ----- -- --- ---- -- --- ---- -- ------ ------<br>--- close -- ----,85905.70000000019,85904.89999999944,85323.209,85337.89999999944,85339.879,85906.745,,53,close
screen,html.Screen,0_2_0_1_54,2021-11-26T10:38:32.293Z,,,,,,,,,,,,,,,,53,,,,,,,,,,,,,,382.5549999998184,,response,,,99,,,,,,Space,keypress(Space),,,,,---- -- ----- -- ------ - ------- --- ----------<br>------------- ------ ------ ---- ---- ------- ----- -- ----<br>-------- ------- -- ---------- --- - --- ----- ----- ----<br>---- --- --- ----- --- ---- ---- ------- ----- ---- -------<br>--- --- -- ----- -- --- ---- -- --- ---- -- ------ ------<br>--- ----- at ----,86290.09999999963,86289.29999999981,85890.074,85905.79999999981,85906.745,86306.681,,54,at
screen,html.Screen,0_2_0_1_55,2021-11-26T10:38:33.820Z,,,,,,,,,,,,,,,,53,,,,,,,,,,,,,,1510.1189999998169,,response,,,99,,,,,,Space,keypress(Space),,,,,---- -- ----- -- ------ - ------- --- ----------<br>------------- ------ ------ ---- ---- ------- ----- -- ----<br>-------- ------- -- ---------- --- - --- ----- ----- ----<br>---- --- --- ----- --- ---- ---- ------- ----- ---- -------<br>--- --- -- ----- -- --- ---- -- --- ---- -- ------ ------<br>--- ----- -- all.,87817.70000000019,87816.79999999981,86290.012,86290.29999999981,86306.681,87823.905,,55,all.
Item 99,flow.Loop,0_2_0_1,2021-11-26T10:38:33.825Z,,,,,,,,,,,,,,,,,,,,,,,,,,,,,,44404.09999999982,,completion,,,,D,,,,,,,,,,silence,,87822.09999999963,87816.79999999981,43396.03,43402.39999999944,43412.7,87823.905,,,
Question 1,html.Screen,0_2_0_2,2021-11-26T10:38:44.836Z,,,,,,,,,,,,,,,,,,,,,,,,,,,true,FALSE,,11008.595000000001,,response,,,99,D,,,,,FALSE,click #choice-2,,,,silence,,98833.70000000019,98832.5,87807.234,87822.39999999944,87823.905,98859.963,,,
Question 2,html.Screen,0_2_0_3,2021-11-26T10:38:49.731Z,,,,,,,,,,,,,,,,,,,,,,,,,,,true,TRUE,,4867.636999999624,,response,,,99,D,,,,,TRUE,click #choice-1,,,,silence,,103728.70000000019,103727.59999999963,98843.325,98834,98859.963,103744.498,,,
Item 99,flow.Sequence,0_2_0,2021-11-26T10:38:49.732Z,,,,,,,,,,,,,,,,,,,,,,,,,,,,,,70317.35599999962,,completion,,,,,,,,,,,,,,,,103729.09999999963,103727.59999999963,33393.574,33399,33410.244,103744.498,,,
Holding screen,html.Screen,0_2_1_0,2021-11-26T10:38:59.735Z,,,,,,,,,,,,,,,,,,,,,,,,,,,,,,10002.371,,timeout,,,,,,,,,,,,,,,,113731.89999999944,113730.199,103727.827,103729.5,103744.498,113746.869,,,
screen,html.Screen,0_2_1_1_0,2021-11-26T10:39:00.747Z,,,,,,,,,,,,,,,,54,,,,,,,,,,,,,,996.7309999996214,,response,,,100,,,,,,Space,keypress(Space),,,,,At --- ---- --- ------ ----- ------- ---- -- --- ------- --<br>------- ---------- ------ -- ----- -- ----- -- ---- ------<br>--- ----- --- --- ------ -------- ----- --- ------ ----- --<br>----- ----- ---------- --- --- ------ ------ ---- -- ------<br>------- --- ------ ----- --- ---- ------- -- ---- --- --<br>------- ------,114744.5,114743.59999999963,113730.199,113732.20000000019,113746.869,114747.283,,0,At
screen,html.Screen,0_2_1_1_1,2021-11-26T10:39:01.795Z,,,,,,,,,,,,,,,,54,,,,,,,,,,,,,,1043.7170000000042,,response,,,100,,,,,,Space,keypress(Space),,,,,-- the ---- --- ------ ----- ------- ---- -- --- ------- --<br>------- ---------- ------ -- ----- -- ----- -- ---- ------<br>--- ----- --- --- ------ -------- ----- --- ------ ----- --<br>----- ----- ---------- --- --- ------ ------ ---- -- ------<br>------- --- ------ ----- --- ---- ------- -- ---- --- --<br>------- ------,115791.79999999981,115791,114730.612,114744.70000000019,114747.283,115797.432,,1,the
screen,html.Screen,0_2_1_1_2,2021-11-26T10:39:02.674Z,,,,,,,,,,,,,,,,54,,,,,,,,,,,,,,873.4679999994405,,response,,,100,,,,,,Space,keypress(Space),,,,,-- --- time --- ------ ----- ------- ---- -- --- ------- --<br>------- ---------- ------ -- ----- -- ----- -- ---- ------<br>--- ----- --- --- ------ -------- ----- --- ------ ----- --<br>----- ----- ---------- --- --- ------ ------ ---- -- ------<br>------- --- ------ ----- --- ---- ------- -- ---- --- --<br>------- ------,116671.79999999981,116670.89999999944,115780.762,115792.09999999963,115797.432,116680.993,,2,time
screen,html.Screen,0_2_1_1_3,2021-11-26T10:39:03.298Z,,,,,,,,,,,,,,,,54,,,,,,,,,,,,,,613.906999999439,,response,,,100,,,,,,Space,keypress(Space),,,,,-- --- ---- the ------ ----- ------- ---- -- --- ------- --<br>------- ---------- ------ -- ----- -- ----- -- ---- ------<br>--- ----- --- --- ------ -------- ----- --- ------ ----- --<br>----- ----- ---------- --- --- ------ ------ ---- -- ------<br>------- --- ------ ----- --- ---- ------- -- ---- --- --<br>------- ------,117295.70000000019,117294.89999999944,116664.323,116672,116680.993,117297.833,,3,the
screen,html.Screen,0_2_1_1_4,2021-11-26T10:39:03.978Z,,,,,,,,,,,,,,,,54,,,,,,,,,,,,,,677.0669999994425,,response,,,100,,,,,,Space,keypress(Space),,,,,-- --- ---- --- French ----- ------- ---- -- --- ------- --<br>------- ---------- ------ -- ----- -- ----- -- ---- ------<br>--- ----- --- --- ------ -------- ----- --- ------ ----- --<br>----- ----- ---------- --- --- ------ ------ ---- -- ------<br>------- --- ------ ----- --- ---- ------- -- ---- --- --<br>------- ------,117975.70000000019,117974.89999999944,117281.163,117296,117297.833,117981.334,,4,French
screen,html.Screen,0_2_1_1_5,2021-11-26T10:39:05.074Z,,,,,,,,,,,,,,,,54,,,,,,,,,,,,,,1089.4659999998112,,response,,,100,,,,,,Space,keypress(Space),,,,,-- --- ---- --- ------ crown ------- ---- -- --- ------- --<br>------- ---------- ------ -- ----- -- ----- -- ---- ------<br>--- ----- --- --- ------ -------- ----- --- ------ ----- --<br>----- ----- ---------- --- --- ------ ------ ---- -- ------<br>------- --- ------ ----- --- ---- ------- -- ---- --- --<br>------- ------,119071.59999999963,119070.79999999981,117964.664,117975.89999999944,117981.334,119081.569,,5,crown
screen,html.Screen,0_2_1_1_6,2021-11-26T10:39:06.058Z,,,,,,,,,,,,,,,,54,,,,,,,,,,,,,,973.2309999998106,,response,,,100,,,,,,Space,keypress(Space),,,,,-- --- ---- --- ------ ----- secured ---- -- --- ------- --<br>------- ---------- ------ -- ----- -- ----- -- ---- ------<br>--- ----- --- --- ------ -------- ----- --- ------ ----- --<br>----- ----- ---------- --- --- ------ ------ ---- -- ------<br>------- --- ------ ----- --- ---- ------- -- ---- --- --<br>------- ------,120055.59999999963,120054.79999999981,119064.899,119071.89999999944,119081.569,120065.167,,6,secured
screen,html.Screen,0_2_1_1_7,2021-11-26T10:39:06.486Z,,,,,,,,,,,,,,,,54,,,,,,,,,,,,,,413.533000000185,,response,,,100,,,,,,Space,keypress(Space),,,,,-- --- ---- --- ------ ----- ------- much -- --- ------- --<br>------- ---------- ------ -- ----- -- ----- -- ---- ------<br>--- ----- --- --- ------ -------- ----- --- ------ ----- --<br>----- ----- ---------- --- --- ------ ------ ---- -- ------<br>------- --- ------ ----- --- ---- ------- -- ---- --- --<br>------- ------,120479.5,120478.70000000019,120048.497,120055.79999999981,120065.167,120481.966,,7,much
screen,html.Screen,0_2_1_1_8,2021-11-26T10:39:07.078Z,,,,,,,,,,,,,,,,54,,,,,,,,,,,,,,588.7340000001859,,response,,,100,,,,,,Space,keypress(Space),,,,,-- --- ---- --- ------ ----- ------- ---- of --- ------- --<br>------- ---------- ------ -- ----- -- ----- -- ---- ------<br>--- ----- --- --- ------ -------- ----- --- ------ ----- --<br>----- ----- ---------- --- --- ------ ------ ---- -- ------<br>------- --- ------ ----- --- ---- ------- -- ---- --- --<br>------- ------,121071.5,121070.70000000019,120465.296,120479.70000000019,120481.966,121082.114,,8,of
screen,html.Screen,0_2_1_1_9,2021-11-26T10:39:07.566Z,,,,,,,,,,,,,,,,54,,,,,,,,,,,,,,476.4859999996261,,response,,,100,,,,,,Space,keypress(Space),,,,,-- --- ---- --- ------ ----- ------- ---- -- its ------- --<br>------- ---------- ------ -- ----- -- ----- -- ---- ------<br>--- ----- --- --- ------ -------- ----- --- ------ ----- --<br>----- ----- ---------- --- --- ------ ------ ---- -- ------<br>------- --- ------ ----- --- ---- ------- -- ---- --- --<br>------- ------,121559.39999999944,121558.59999999963,121065.444,121071.70000000019,121082.114,121565.559,,9,its
screen,html.Screen,0_2_1_1_10,2021-11-26T10:39:08.085Z,,,,,,,,,,,,,,,,54,,,,,,,,,,,,,,513.0409999996336,,response,,,100,,,,,,Space,keypress(Space),,,,,-- --- ---- --- ------ ----- ------- ---- -- --- revenue --<br>------- ---------- ------ -- ----- -- ----- -- ---- ------<br>--- ----- --- --- ------ -------- ----- --- ------ ----- --<br>----- ----- ---------- --- --- ------ ------ ---- -- ------<br>------- --- ------ ----- --- ---- ------- -- ---- --- --<br>------- ------,122079.39999999944,122078.59999999963,121548.889,121559.70000000019,121565.559,122082.365,,10,revenue
screen,html.Screen,0_2_1_1_11,2021-11-26T10:39:08.613Z,,,,,,,,,,,,,,,,54,,,,,,,,,,,,,,524.2349999996222,,response,,,100,,,,,,Space,keypress(Space),,,,,-- --- ---- --- ------ ----- ------- ---- -- --- ------- by<br>------- ---------- ------ -- ----- -- ----- -- ---- ------<br>--- ----- --- --- ------ -------- ----- --- ------ ----- --<br>----- ----- ---------- --- --- ------ ------ ---- -- ------<br>------- --- ------ ----- --- ---- ------- -- ---- --- --<br>------- ------,122607.39999999944,122606.59999999963,122065.695,122079.59999999963,122082.365,122615.835,,11,by
screen,html.Screen,0_2_1_1_12,2021-11-26T10:39:09.157Z,,,,,,,,,,,,,,,,54,,,,,,,,,,,,,,534.7649999996211,,response,,,100,,,,,,Space,keypress(Space),,,,,-- --- ---- --- ------ ----- ------- ---- -- --- ------- --<br>issuing ---------- ------ -- ----- -- ----- -- ---- ------<br>--- ----- --- --- ------ -------- ----- --- ------ ----- --<br>----- ----- ---------- --- --- ------ ------ ---- -- ------<br>------- --- ------ ----- --- ---- ------- -- ---- --- --<br>------- ------,123151.29999999981,123150.59999999963,122599.165,122607.5,122615.835,123165.958,,12,issuing
screen,html.Screen,0_2_1_1_13,2021-11-26T10:39:09.645Z,,,,,,,,,,,,,,,,54,,,,,,,,,,,,,,472.5420000000013,,response,,,100,,,,,,Space,keypress(Space),,,,,-- --- ---- --- ------ ----- ------- ---- -- --- ------- --<br>------- government ------ -- ----- -- ----- -- ---- ------<br>--- ----- --- --- ------ -------- ----- --- ------ ----- --<br>----- ----- ---------- --- --- ------ ------ ---- -- ------<br>------- --- ------ ----- --- ---- ------- -- ---- --- --<br>------- ------,123639.29999999981,123638.5,123149.288,123151.59999999963,123165.958,123649.41,,13,government
screen,html.Screen,0_2_1_1_14,2021-11-26T10:39:10.053Z,,,,,,,,,,,,,,,,54,,,,,,,,,,,,,,397.0899999999965,,response,,,100,,,,,,Space,keypress(Space),,,,,-- --- ---- --- ------ ----- ------- ---- -- --- ------- --<br>------- ---------- bonds. -- ----- -- ----- -- ---- ------<br>--- ----- --- --- ------ -------- ----- --- ------ ----- --<br>----- ----- ---------- --- --- ------ ------ ---- -- ------<br>------- --- ------ ----- --- ---- ------- -- ---- --- --<br>------- ------,124047.29999999981,124046.5,123632.74,123639.5,123649.41,124049.508,,14,bonds.
screen,html.Screen,0_2_1_1_15,2021-11-26T10:39:12.966Z,,,,,,,,,,,,,,,,54,,,,,,,,,,,,,,2909.1920000001846,,response,,,100,,,,,,Space,keypress(Space),,,,,-- --- ---- --- ------ ----- ------- ---- -- --- ------- --<br>------- ---------- ------ In ----- -- ----- -- ---- ------<br>--- ----- --- --- ------ -------- ----- --- ------ ----- --<br>----- ----- ---------- --- --- ------ ------ ---- -- ------<br>------- --- ------ ----- --- ---- ------- -- ---- --- --<br>------- ------,126959.70000000019,126958.70000000019,124032.838,124047.5,124049.508,126966.773,,15,In
screen,html.Screen,0_2_1_1_16,2021-11-26T10:39:13.845Z,,,,,,,,,,,,,,,,54,,,,,,,,,,,,,,871.5269999998127,,response,,,100,,,,,,Space,keypress(Space),,,,,"-- --- ---- --- ------ ----- ------- ---- -- --- ------- --<br>------- ---------- ------ -- 1727, -- ----- -- ---- ------<br>--- ----- --- --- ------ -------- ----- --- ------ ----- --<br>----- ----- ---------- --- --- ------ ------ ---- -- ------<br>------- --- ------ ----- --- ---- ------- -- ---- --- --<br>------- ------",127839.09999999963,127838.29999999981,126950.103,126959.89999999944,126966.773,127850.575,,16,"1727,"
screen,html.Screen,0_2_1_1_17,2021-11-26T10:39:14.477Z,,,,,,,,,,,,,,,,54,,,,,,,,,,,,,,619.6250000001892,,response,,,100,,,,,,Space,keypress(Space),,,,,-- --- ---- --- ------ ----- ------- ---- -- --- ------- --<br>------- ---------- ------ -- ----- in ----- -- ---- ------<br>--- ----- --- --- ------ -------- ----- --- ------ ----- --<br>----- ----- ---------- --- --- ------ ------ ---- -- ------<br>------- --- ------ ----- --- ---- ------- -- ---- --- --<br>------- ------,128471,128470.20000000019,127833.904,127839.29999999981,127850.575,128483.947,,17,in
screen,html.Screen,0_2_1_1_18,2021-11-26T10:39:14.973Z,,,,,,,,,,,,,,,,54,,,,,,,,,,,,,,482.25300000018615,,response,,,100,,,,,,Space,keypress(Space),,,,,-- --- ---- --- ------ ----- ------- ---- -- --- ------- --<br>------- ---------- ------ -- ----- -- order -- ---- ------<br>--- ----- --- --- ------ -------- ----- --- ------ ----- --<br>----- ----- ---------- --- --- ------ ------ ---- -- ------<br>------- --- ------ ----- --- ---- ------- -- ---- --- --<br>------- ------,128967,128966.20000000019,128467.277,128471.20000000019,128483.947,128984.032,,18,order
screen,html.Screen,0_2_1_1_19,2021-11-26T10:39:15.365Z,,,,,,,,,,,,,,,,54,,,,,,,,,,,,,,374.06799999962095,,response,,,100,,,,,,Space,keypress(Space),,,,,-- --- ---- --- ------ ----- ------- ---- -- --- ------- --<br>------- ---------- ------ -- ----- -- ----- to ---- ------<br>--- ----- --- --- ------ -------- ----- --- ------ ----- --<br>----- ----- ---------- --- --- ------ ------ ---- -- ------<br>------- --- ------ ----- --- ---- ------- -- ---- --- --<br>------- ------,129359,129358.09999999963,128967.362,128967.20000000019,128984.032,129367.537,,19,to
screen,html.Screen,0_2_1_1_20,2021-11-26T10:39:15.837Z,,,,,,,,,,,,,,,,54,,,,,,,,,,,,,,462.56299999963085,,response,,,100,,,,,,Space,keypress(Space),,,,,-- --- ---- --- ------ ----- ------- ---- -- --- ------- --<br>------- ---------- ------ -- ----- -- ----- -- save ------<br>--- ----- --- --- ------ -------- ----- --- ------ ----- --<br>----- ----- ---------- --- --- ------ ------ ---- -- ------<br>------- --- ------ ----- --- ---- ------- -- ---- --- --<br>------- ------,129830.89999999944,129830.09999999963,129350.866,129359.20000000019,129367.537,129834.333,,20,save
screen,html.Screen,0_2_1_1_21,2021-11-26T10:39:16.373Z,,,,,,,,,,,,,,,,54,,,,,,,,,,,,,,531.7669999996288,,response,,,100,,,,,,Space,keypress(Space),,,,,"-- --- ---- --- ------ ----- ------- ---- -- --- ------- --<br>------- ---------- ------ -- ----- -- ----- -- ---- money,<br>--- ----- --- --- ------ -------- ----- --- ------ ----- --<br>----- ----- ---------- --- --- ------ ------ ---- -- ------<br>------- --- ------ ----- --- ---- ------- -- ---- --- --<br>------- ------",130366.79999999981,130366.09999999963,129817.662,129831.09999999963,129834.333,130384.403,,21,"money,"
screen,html.Screen,0_2_1_1_22,2021-11-26T10:39:16.997Z,,,,,,,,,,,,,,,,54,,,,,,,,,,,,,,605.5969999999943,,response,,,100,,,,,,Space,keypress(Space),,,,,-- --- ---- --- ------ ----- ------- ---- -- --- ------- --<br>------- ---------- ------ -- ----- -- ----- -- ---- ------<br>the ----- --- --- ------ -------- ----- --- ------ ----- --<br>----- ----- ---------- --- --- ------ ------ ---- -- ------<br>------- --- ------ ----- --- ---- ------- -- ---- --- --<br>------- ------,130990.70000000019,130990,130367.733,130367.09999999963,130384.403,131001.293,,22,the
screen,html.Screen,0_2_1_1_23,2021-11-26T10:39:17.653Z,,,,,,,,,,,,,,,,54,,,,,,,,,,,,,,644.8069999996223,,response,,,100,,,,,,Space,keypress(Space),,,,,-- --- ---- --- ------ ----- ------- ---- -- --- ------- --<br>------- ---------- ------ -- ----- -- ----- -- ---- ------<br>--- state --- --- ------ -------- ----- --- ------ ----- --<br>----- ----- ---------- --- --- ------ ------ ---- -- ------<br>------- --- ------ ----- --- ---- ------- -- ---- --- --<br>------- ------,131646.89999999944,131646.09999999963,130984.622,130991,131001.293,131651.388,,23,state
screen,html.Screen,0_2_1_1_24,2021-11-26T10:39:18.189Z,,,,,,,,,,,,,,,,54,,,,,,,,,,,,,,530.6119999999937,,response,,,100,,,,,,Space,keypress(Space),,,,,-- --- ---- --- ------ ----- ------- ---- -- --- ------- --<br>------- ---------- ------ -- ----- -- ----- -- ---- ------<br>--- ----- cut --- ------ -------- ----- --- ------ ----- --<br>----- ----- ---------- --- --- ------ ------ ---- -- ------<br>------- --- ------ ----- --- ---- ------- -- ---- --- --<br>------- ------,132182.7999999998,132182,131634.718,131647.09999999963,131651.388,132184.772,,24,cut
screen,html.Screen,0_2_1_1_25,2021-11-26T10:39:18.725Z,,,,,,,,,,,,,,,,54,,,,,,,,,,,,,,533.2280000000028,,response,,,100,,,,,,Space,keypress(Space),,,,,-- --- ---- --- ------ ----- ------- ---- -- --- ------- --<br>------- ---------- ------ -- ----- -- ----- -- ---- ------<br>--- ----- --- the ------ -------- ----- --- ------ ----- --<br>----- ----- ---------- --- --- ------ ------ ---- -- ------<br>------- --- ------ ----- --- ---- ------- -- ---- --- --<br>------- ------,132718.89999999944,132718,132168.103,132183.09999999963,132184.772,132735.07,,25,the
screen,html.Screen,0_2_1_1_26,2021-11-26T10:39:19.621Z,,,,,,,,,,,,,,,,54,,,,,,,,,,,,,,878.8299999994342,,response,,,100,,,,,,Space,keypress(Space),,,,,-- --- ---- --- ------ ----- ------- ---- -- --- ------- --<br>------- ---------- ------ -- ----- -- ----- -- ---- ------<br>--- ----- --- --- bonds' -------- ----- --- ------ ----- --<br>----- ----- ---------- --- --- ------ ------ ---- -- ------<br>------- --- ------ ----- --- ---- ------- -- ---- --- --<br>------- ------,133614.59999999963,133613.89999999944,132718.399,132719.09999999963,132735.07,133618.547,,26,bonds'
screen,html.Screen,0_2_1_1_27,2021-11-26T10:39:20.349Z,,,,,,,,,,,,,,,,54,,,,,,,,,,,,,,723.3529999994498,,response,,,100,,,,,,Space,keypress(Space),,,,,-- --- ---- --- ------ ----- ------- ---- -- --- ------- --<br>------- ---------- ------ -- ----- -- ----- -- ---- ------<br>--- ----- --- --- ------ interest ----- --- ------ ----- --<br>----- ----- ---------- --- --- ------ ------ ---- -- ------<br>------- --- ------ ----- --- ---- ------- -- ---- --- --<br>------- ------,134342.59999999963,134341.89999999944,133601.877,133614.89999999944,133618.547,134352.048,,27,interest
screen,html.Screen,0_2_1_1_28,2021-11-26T10:39:20.861Z,,,,,,,,,,,,,,,,54,,,,,,,,,,,,,,501.75199999980396,,response,,,100,,,,,,Space,keypress(Space),,,,,-- --- ---- --- ------ ----- ------- ---- -- --- ------- --<br>------- ---------- ------ -- ----- -- ----- -- ---- ------<br>--- ----- --- --- ------ -------- rate. --- ------ ----- --<br>----- ----- ---------- --- --- ------ ------ ---- -- ------<br>------- --- ------ ----- --- ---- ------- -- ---- --- --<br>------- ------,134854.7000000002,134853.7999999998,134335.378,134342.7999999998,134352.048,134868.81,,28,rate.
screen,html.Screen,0_2_1_1_29,2021-11-26T10:39:22.109Z,,,,,,,,,,,,,,,,54,,,,,,,,,,,,,,1232.989999999816,,response,,,100,,,,,,Space,keypress(Space),,,,,-- --- ---- --- ------ ----- ------- ---- -- --- ------- --<br>------- ---------- ------ -- ----- -- ----- -- ---- ------<br>--- ----- --- --- ------ -------- ----- The ------ ----- --<br>----- ----- ---------- --- --- ------ ------ ---- -- ------<br>------- --- ------ ----- --- ---- ------- -- ---- --- --<br>------- ------,136102.59999999963,136101.7999999998,134852.14,134855,134868.81,136119.252,,29,The
screen,html.Screen,0_2_1_1_30,2021-11-26T10:39:23.053Z,,,,,,,,,,,,,,,,54,,,,,,,,,,,,,,926.8479999996198,,response,,,100,,,,,,Space,keypress(Space),,,,,-- --- ---- --- ------ ----- ------- ---- -- --- ------- --<br>------- ---------- ------ -- ----- -- ----- -- ---- ------<br>--- ----- --- --- ------ -------- ----- --- market ----- --<br>----- ----- ---------- --- --- ------ ------ ---- -- ------<br>------- --- ------ ----- --- ---- ------- -- ---- --- --<br>------- ------,137047,137046.09999999963,136102.581,136102.89999999944,136119.252,137052.729,,30,market
screen,html.Screen,0_2_1_1_31,2021-11-26T10:39:23.621Z,,,,,,,,,,,,,,,,54,,,,,,,,,,,,,,560.8709999996354,,response,,,100,,,,,,Space,keypress(Space),,,,,-- --- ---- --- ------ ----- ------- ---- -- --- ------- --<br>------- ---------- ------ -- ----- -- ----- -- ---- ------<br>--- ----- --- --- ------ -------- ----- --- ------ value --<br>----- ----- ---------- --- --- ------ ------ ---- -- ------<br>------- --- ------ ----- --- ---- ------- -- ---- --- --<br>------- ------,137614.39999999944,137613.59999999963,137036.059,137047.2000000002,137052.729,137619.488,,31,value
screen,html.Screen,0_2_1_1_32,2021-11-26T10:39:24.524Z,,,,,,,,,,,,,,,,54,,,,,,,,,,,,,,898.0119999999879,,response,,,100,,,,,,Space,keypress(Space),,,,,-- --- ---- --- ------ ----- ------- ---- -- --- ------- --<br>------- ---------- ------ -- ----- -- ----- -- ---- ------<br>--- ----- --- --- ------ -------- ----- --- ------ ----- of<br>----- ----- ---------- --- --- ------ ------ ---- -- ------<br>------- --- ------ ----- --- ---- ------- -- ---- --- --<br>------- ------,138518.2999999998,138517.5,137602.818,137614.7000000002,137619.488,138519.832,,32,of
screen,html.Screen,0_2_1_1_33,2021-11-26T10:39:25.052Z,,,,,,,,,,,,,,,,54,,,,,,,,,,,,,,525.6680000000051,,response,,,100,,,,,,Space,keypress(Space),,,,,-- --- ---- --- ------ ----- ------- ---- -- --- ------- --<br>------- ---------- ------ -- ----- -- ----- -- ---- ------<br>--- ----- --- --- ------ -------- ----- --- ------ ----- --<br>these ----- ---------- --- --- ------ ------ ---- -- ------<br>------- --- ------ ----- --- ---- ------- -- ---- --- --<br>------- ------,139046.2999999998,139045.5,138503.161,138518.5,138519.832,139053.108,,33,these
screen,html.Screen,0_2_1_1_34,2021-11-26T10:39:25.917Z,,,,,,,,,,,,,,,,54,,,,,,,,,,,,,,856.2919999994338,,response,,,100,,,,,,Space,keypress(Space),,,,,-- --- ---- --- ------ ----- ------- ---- -- --- ------- --<br>------- ---------- ------ -- ----- -- ----- -- ---- ------<br>--- ----- --- --- ------ -------- ----- --- ------ ----- --<br>----- bonds ---------- --- --- ------ ------ ---- -- ------<br>------- --- ------ ----- --- ---- ------- -- ---- --- --<br>------- ------,139910.5,139909.39999999944,139036.439,139046.59999999963,139053.108,139920.069,,34,bonds
screen,html.Screen,0_2_1_1_35,2021-11-26T10:39:26.804Z,,,,,,,,,,,,,,,,54,,,,,,,,,,,,,,877.4310000000114,,response,,,100,,,,,,Space,keypress(Space),,,,,"-- --- ---- --- ------ ----- ------- ---- -- --- ------- --<br>------- ---------- ------ -- ----- -- ----- -- ---- ------<br>--- ----- --- --- ------ -------- ----- --- ------ ----- --<br>----- ----- plummeted, --- --- ------ ------ ---- -- ------<br>------- --- ------ ----- --- ---- ------- -- ---- --- --<br>------- ------",140798.2000000002,140797.5,139903.399,139910.7999999998,139920.069,140803.85,,35,"plummeted,"
screen,html.Screen,0_2_1_1_36,2021-11-26T10:39:27.252Z,,,,,,,,,,,,,,,,54,,,,,,,,,,,,,,441.5499999994354,,response,,,100,,,,,,Space,keypress(Space),,,,,-- --- ---- --- ------ ----- ------- ---- -- --- ------- --<br>------- ---------- ------ -- ----- -- ----- -- ---- ------<br>--- ----- --- --- ------ -------- ----- --- ------ ----- --<br>----- ----- ---------- and --- ------ ------ ---- -- ------<br>------- --- ------ ----- --- ---- ------- -- ---- --- --<br>------- ------,141246.2000000002,141245.39999999944,140787.178,140798.5,140803.85,141253.754,,36,and
screen,html.Screen,0_2_1_1_37,2021-11-26T10:39:27.708Z,,,,,,,,,,,,,,,,54,,,,,,,,,,,,,,447.64599999945494,,response,,,100,,,,,,Space,keypress(Space),,,,,-- --- ---- --- ------ ----- ------- ---- -- --- ------- --<br>------- ---------- ------ -- ----- -- ----- -- ---- ------<br>--- ----- --- --- ------ -------- ----- --- ------ ----- --<br>----- ----- ---------- --- the ------ ------ ---- -- ------<br>------- --- ------ ----- --- ---- ------- -- ---- --- --<br>------- ------,141702.2000000002,141701.39999999944,141237.084,141246.39999999944,141253.754,141703.881,,37,the
screen,html.Screen,0_2_1_1_38,2021-11-26T10:39:28.196Z,,,,,,,,,,,,,,,,54,,,,,,,,,,,,,,485.51899999944726,,response,,,100,,,,,,Space,keypress(Space),,,,,-- --- ---- --- ------ ----- ------- ---- -- --- ------- --<br>------- ---------- ------ -- ----- -- ----- -- ---- ------<br>--- ----- --- --- ------ -------- ----- --- ------ ----- --<br>----- ----- ---------- --- --- market ------ ---- -- ------<br>------- --- ------ ----- --- ---- ------- -- ---- --- --<br>------- ------,142190.09999999963,142189.39999999944,141687.211,141702.39999999944,141703.881,142204.076,,38,market
screen,html.Screen,0_2_1_1_39,2021-11-26T10:39:28.684Z,,,,,,,,,,,,,,,,54,,,,,,,,,,,,,,473.12400000018533,,response,,,100,,,,,,Space,keypress(Space),,,,,-- --- ---- --- ------ ----- ------- ---- -- --- ------- --<br>------- ---------- ------ -- ----- -- ----- -- ---- ------<br>--- ----- --- --- ------ -------- ----- --- ------ ----- --<br>----- ----- ---------- --- --- ------ became ---- -- ------<br>------- --- ------ ----- --- ---- ------- -- ---- --- --<br>------- ------,142678,142677.2000000002,142187.405,142190.39999999944,142204.076,142687.485,,39,became
screen,html.Screen,0_2_1_1_40,2021-11-26T10:39:29.124Z,,,,,,,,,,,,,,,,54,,,,,,,,,,,,,,429.71500000020023,,response,,,100,,,,,,Space,keypress(Space),,,,,-- --- ---- --- ------ ----- ------- ---- -- --- ------- --<br>------- ---------- ------ -- ----- -- ----- -- ---- ------<br>--- ----- --- --- ------ -------- ----- --- ------ ----- --<br>----- ----- ---------- --- --- ------ ------ wary -- ------<br>------- --- ------ ----- --- ---- ------- -- ---- --- --<br>------- ------,143118.09999999963,143117.2000000002,142670.815,142678.2999999998,142687.485,143120.975,,40,wary
screen,html.Screen,0_2_1_1_41,2021-11-26T10:39:29.516Z,,,,,,,,,,,,,,,,54,,,,,,,,,,,,,,388.22500000018044,,response,,,100,,,,,,Space,keypress(Space),,,,,-- --- ---- --- ------ ----- ------- ---- -- --- ------- --<br>------- ---------- ------ -- ----- -- ----- -- ---- ------<br>--- ----- --- --- ------ -------- ----- --- ------ ----- --<br>----- ----- ---------- --- --- ------ ------ ---- of ------<br>------- --- ------ ----- --- ---- ------- -- ---- --- --<br>------- ------,143510.09999999963,143509.2000000002,143104.304,143118.2999999998,143120.975,143521.029,,41,of
screen,html.Screen,0_2_1_1_42,2021-11-26T10:39:29.884Z,,,,,,,,,,,,,,,,54,,,,,,,,,,,,,,356.2709999998042,,response,,,100,,,,,,Space,keypress(Space),,,,,-- --- ---- --- ------ ----- ------- ---- -- --- ------- --<br>------- ---------- ------ -- ----- -- ----- -- ---- ------<br>--- ----- --- --- ------ -------- ----- --- ------ ----- --<br>----- ----- ---------- --- --- ------ ------ ---- -- French<br>------- --- ------ ----- --- ---- ------- -- ---- --- --<br>------- ------,143878.09999999963,143877.2999999998,143504.359,143510.2999999998,143521.029,143887.798,,42,French
screen,html.Screen,0_2_1_1_43,2021-11-26T10:39:30.356Z,,,,,,,,,,,,,,,,54,,,,,,,,,,,,,,461.50199999980396,,response,,,100,,,,,,Space,keypress(Space),,,,,-- --- ---- --- ------ ----- ------- ---- -- --- ------- --<br>------- ---------- ------ -- ----- -- ----- -- ---- ------<br>--- ----- --- --- ------ -------- ----- --- ------ ----- --<br>----- ----- ---------- --- --- ------ ------ ---- -- ------<br>credit. --- ------ ----- --- ---- ------- -- ---- --- --<br>------- ------,144350,144349.2999999998,143871.128,143878.2999999998,143887.798,144354.615,,43,credit.
screen,html.Screen,0_2_1_1_44,2021-11-26T10:39:31.316Z,,,,,,,,,,,,,,,,54,,,,,,,,,,,,,,954.4849999996368,,response,,,100,,,,,,Space,keypress(Space),,,,,-- --- ---- --- ------ ----- ------- ---- -- --- ------- --<br>------- ---------- ------ -- ----- -- ----- -- ---- ------<br>--- ----- --- --- ------ -------- ----- --- ------ ----- --<br>----- ----- ---------- --- --- ------ ------ ---- -- ------<br>------- The ------ ----- --- ---- ------- -- ---- --- --<br>------- ------,145309.89999999944,145309.09999999963,144337.944,144350.2999999998,144354.615,145321.463,,44,The
screen,html.Screen,0_2_1_1_45,2021-11-26T10:39:31.716Z,,,,,,,,,,,,,,,,54,,,,,,,,,,,,,,387.63699999963865,,response,,,100,,,,,,Space,keypress(Space),,,,,-- --- ---- --- ------ ----- ------- ---- -- --- ------- --<br>------- ---------- ------ -- ----- -- ----- -- ---- ------<br>--- ----- --- --- ------ -------- ----- --- ------ ----- --<br>----- ----- ---------- --- --- ------ ------ ---- -- ------<br>------- --- French ----- --- ---- ------- -- ---- --- --<br>------- ------,145710,145709.09999999963,145304.793,145310.2000000002,145321.463,145721.536,,45,French
screen,html.Screen,0_2_1_1_46,2021-11-26T10:39:32.164Z,,,,,,,,,,,,,,,,54,,,,,,,,,,,,,,435.6640000001935,,response,,,100,,,,,,Space,keypress(Space),,,,,-- --- ---- --- ------ ----- ------- ---- -- --- ------- --<br>------- ---------- ------ -- ----- -- ----- -- ---- ------<br>--- ----- --- --- ------ -------- ----- --- ------ ----- --<br>----- ----- ---------- --- --- ------ ------ ---- -- ------<br>------- --- ------ state --- ---- ------- -- ---- --- --<br>------- ------,146157.89999999944,146157.2000000002,145704.866,145710.2000000002,145721.536,146171.69,,46,state
screen,html.Screen,0_2_1_1_47,2021-11-26T10:39:32.548Z,,,,,,,,,,,,,,,,54,,,,,,,,,,,,,,369.40999999962514,,response,,,100,,,,,,Space,keypress(Space),,,,,-- --- ---- --- ------ ----- ------- ---- -- --- ------- --<br>------- ---------- ------ -- ----- -- ----- -- ---- ------<br>--- ----- --- --- ------ -------- ----- --- ------ ----- --<br>----- ----- ---------- --- --- ------ ------ ---- -- ------<br>------- --- ------ ----- was ---- ------- -- ---- --- --<br>------- ------,146541.7999999998,146541.09999999963,146155.02,146158.09999999963,146171.69,146555.124,,47,was
screen,html.Screen,0_2_1_1_48,2021-11-26T10:39:33.252Z,,,,,,,,,,,,,,,,54,,,,,,,,,,,,,,690.2759999994305,,response,,,100,,,,,,Space,keypress(Space),,,,,-- --- ---- --- ------ ----- ------- ---- -- --- ------- --<br>------- ---------- ------ -- ----- -- ----- -- ---- ------<br>--- ----- --- --- ------ -------- ----- --- ------ ----- --<br>----- ----- ---------- --- --- ------ ------ ---- -- ------<br>------- --- ------ ----- --- left ------- -- ---- --- --<br>------- ------,147246.2999999998,147245.39999999944,146538.454,146542.09999999963,146555.124,147255.281,,48,left
screen,html.Screen,0_2_1_1_49,2021-11-26T10:39:33.596Z,,,,,,,,,,,,,,,,54,,,,,,,,,,,,,,333.81899999963935,,response,,,100,,,,,,Space,keypress(Space),,,,,-- --- ---- --- ------ ----- ------- ---- -- --- ------- --<br>------- ---------- ------ -- ----- -- ----- -- ---- ------<br>--- ----- --- --- ------ -------- ----- --- ------ ----- --<br>----- ----- ---------- --- --- ------ ------ ---- -- ------<br>------- --- ------ ----- --- ---- without -- ---- --- --<br>------- ------,147589.7999999998,147589.09999999963,147238.611,147246.5,147255.281,147605.212,,49,without
screen,html.Screen,0_2_1_1_50,2021-11-26T10:39:33.924Z,,,,,,,,,,,,,,,,54,,,,,,,,,,,,,,311.78800000000047,,response,,,100,,,,,,Space,keypress(Space),,,,,-- --- ---- --- ------ ----- ------- ---- -- --- ------- --<br>------- ---------- ------ -- ----- -- ----- -- ---- ------<br>--- ----- --- --- ------ -------- ----- --- ------ ----- --<br>----- ----- ---------- --- --- ------ ------ ---- -- ------<br>------- --- ------ ----- --- ---- ------- an ---- --- --<br>------- ------,147917.7000000002,147917,147588.544,147590.09999999963,147605.212,147922.164,,50,an
screen,html.Screen,0_2_1_1_51,2021-11-26T10:39:34.252Z,,,,,,,,,,,,,,,,54,,,,,,,,,,,,,,322.73599999945145,,response,,,100,,,,,,Space,keypress(Space),,,,,-- --- ---- --- ------ ----- ------- ---- -- --- ------- --<br>------- ---------- ------ -- ----- -- ----- -- ---- ------<br>--- ----- --- --- ------ -------- ----- --- ------ ----- --<br>----- ----- ---------- --- --- ------ ------ ---- -- ------<br>------- --- ------ ----- --- ---- ------- -- easy --- --<br>------- ------,148245.7000000002,148244.89999999944,147905.493,147918,147922.164,148255.573,,51,easy
screen,html.Screen,0_2_1_1_52,2021-11-26T10:39:34.556Z,,,,,,,,,,,,,,,,54,,,,,,,,,,,,,,293.42699999999604,,response,,,100,,,,,,Space,keypress(Space),,,,,-- --- ---- --- ------ ----- ------- ---- -- --- ------- --<br>------- ---------- ------ -- ----- -- ----- -- ---- ------<br>--- ----- --- --- ------ -------- ----- --- ------ ----- --<br>----- ----- ---------- --- --- ------ ------ ---- -- ------<br>------- --- ------ ----- --- ---- ------- -- ---- way --<br>------- ------,148549.7000000002,148549,148238.902,148246,148255.573,148555.614,,52,way
screen,html.Screen,0_2_1_1_53,2021-11-26T10:39:34.868Z,,,,,,,,,,,,,,,,54,,,,,,,,,,,,,,305.2859999994398,,response,,,100,,,,,,Space,keypress(Space),,,,,-- --- ---- --- ------ ----- ------- ---- -- --- ------- --<br>------- ---------- ------ -- ----- -- ----- -- ---- ------<br>--- ----- --- --- ------ -------- ----- --- ------ ----- --<br>----- ----- ---------- --- --- ------ ------ ---- -- ------<br>------- --- ------ ----- --- ---- ------- -- ---- --- of<br>------- ------,148861.7999999998,148860.89999999944,148538.944,148549.89999999944,148555.614,148872.367,,53,of
screen,html.Screen,0_2_1_1_54,2021-11-26T10:39:35.260Z,,,,,,,,,,,,,,,,54,,,,,,,,,,,,,,380.53299999944284,,response,,,100,,,,,,Space,keypress(Space),,,,,-- --- ---- --- ------ ----- ------- ---- -- --- ------- --<br>------- ---------- ------ -- ----- -- ----- -- ---- ------<br>--- ----- --- --- ------ -------- ----- --- ------ ----- --<br>----- ----- ---------- --- --- ------ ------ ---- -- ------<br>------- --- ------ ----- --- ---- ------- -- ---- --- --<br>raising ------,149253.7000000002,149252.89999999944,148855.697,148861.89999999944,148872.367,149255.829,,54,raising
screen,html.Screen,0_2_1_1_55,2021-11-26T10:39:35.796Z,,,,,,,,,,,,,,,,54,,,,,,,,,,,,,,533.0709999994433,,response,,,100,,,,,,Space,keypress(Space),,,,,-- --- ---- --- ------ ----- ------- ---- -- --- ------- --<br>------- ---------- ------ -- ----- -- ----- -- ---- ------<br>--- ----- --- --- ------ -------- ----- --- ------ ----- --<br>----- ----- ---------- --- --- ------ ------ ---- -- ------<br>------- --- ------ ----- --- ---- ------- -- ---- --- --<br>------- money.,149789.7000000002,149788.89999999944,149239.158,149253.89999999944,149255.829,149805.919,,55,money.
Item 100,flow.Loop,0_2_1_1,2021-11-26T10:39:35.796Z,,,,,,,,,,,,,,,,,,,,,,,,,,,,,,36042.030999999435,,completion,,,,D,,,,,,,,,,silence,,149790.09999999963,149788.89999999944,113730.199,113732.09999999963,113746.869,149805.919,,,
Question 1,html.Screen,0_2_1_2,2021-11-26T10:39:39.036Z,,,,,,,,,,,,,,,,,,,,,,,,,,,true,TRUE,,3222.480999999447,,response,,,100,D,,,,,TRUE,click #choice-1,,,,silence,,153029.59999999963,153028.39999999944,149789.249,149790.39999999944,149805.919,153040.092,,,
Question 2,html.Screen,0_2_1_3,2021-11-26T10:39:41.308Z,,,,,,,,,,,,,,,,,,,,,,,,,,,true,FALSE,,2260.2079999998095,,response,,,100,D,,,,,FALSE,click #choice-2,,,,silence,,155301.39999999944,155300.2999999998,153023.421,153029.89999999944,153040.092,155307.228,,,
Item 100,flow.Sequence,0_2_1,2021-11-26T10:39:41.308Z,,,,,,,,,,,,,,,,,,,,,,,,,,,,,,51555.80199999981,,completion,,,,,,,,,,,,,,,,155301.7999999998,155300.2999999998,103727.827,103729.29999999981,103744.498,155307.228,,,
End of Practice,html.Page,0_2_2,2021-11-26T10:39:46.917Z,,,,,,,,,,,,,,,,,,,,,,,,,,,,,,5602.871999999625,,form submission,,,,,,,,,,,,,,,,160910.59999999963,160910.09999999963,155290.559,155302,155307.228,160925.341,,,
Practice,flow.Sequence,0_2,2021-11-26T10:39:46.917Z,,,,,,,,,,,,,,,,,,,,,,,,,,,,,,127499.85599999962,,completion,,,,,,,,,,,,,,,,160911.2000000002,160910.09999999963,33393.574,33398.89999999944,33410.244,160925.341,,,
Trap_instruction,html.Page,0_3_0,2021-11-26T10:39:53.716Z,,,,,,,,,,,,,,,,,,,,,,,,,,,,,,6783.558999999455,,form submission,,,,,,,,,,,,,,,,167709.39999999944,167708.89999999944,160908.67,160911.59999999963,160925.341,167743.877,,,
trap_trial,html.Screen,0_3_1,2021-11-26T10:39:56.931Z,,,,,,,,,,,,,,,,,,,,,,,,,,,true,1,,3180.22299999962,,response,,,,,,,,,1,click #choice-1,,,,,,170925.09999999963,170924.09999999963,167693.861,167709.59999999963,167743.877,170944.331,,,
end of trap trial,html.Page,0_3_2,2021-11-26T10:39:58.987Z,,,,,,,,,,,,,,,,,,,,,,,,,,,,,,2036.0689999994356,,form submission,,,,,,,,,,,,,,,,172980.89999999944,172980.39999999944,170927.661,170925.2999999998,170944.331,172994.977,,,
Trap 1,flow.Sequence,0_3,2021-11-26T10:39:58.987Z,,,,,,,,,,,,,,,,,,,,,,,,,,,,,,12055.058999999455,,completion,,,,,,,,,,,,,,,,172981.39999999944,172980.39999999944,160908.67,160911.39999999944,160925.341,172994.977,,,
Standby,html.Page,0_4_0,2021-11-26T10:40:06.991Z,,,,,,,,,,,,,,,,,,,,,,,,,,,,,,8002.146999999997,,timeout,,,,,,,,,,,,,,,,180981.5,180980.453,172978.307,172981.59999999963,172994.977,180997.124,,,
Holding screen,html.Screen,0_4_1_0_0,2021-11-26T10:40:13.993Z,,,,,,,,,,,,,,,,,,,,,,,,,,,,,,7001.447999999975,,timeout,,,,,,,,,,,,,,,,187983.2999999998,187981.903,180980.453,180981.89999999944,180997.124,187998.572,,,
screen,html.Screen,0_4_1_0_1_0,2021-11-26T10:40:19.669Z,,,,,,,,,,,,,,,,51,,,,,,,,,,,,,,5660.027999999642,,response,,,13,D,,,,,Space,keypress(Space),,,,silence,American -------- --- --- ---- --- --- ------ -- --------<br>---- --------- --- ------- ------------ ---------- ---------<br>--- ---------- ------- ---------- ------- -- -------- ----<br>---- --- ------ ----- ------ -- ---- --- ----- -- - -------<br>-------- -- --- --- -- ----- ----------- ----- -----------<br>---- --- ---------- --- ---- --- -- ----------,193659.5,193658.59999999963,187981.903,187983.7000000002,187998.572,193666.909,,0,American
screen,html.Screen,0_4_1_0_1_1,2021-11-26T10:40:20.596Z,,,,,,,,,,,,,,,,51,,,,,,,,,,,,,,919.0909999999858,,response,,,13,D,,,,,Space,keypress(Space),,,,silence,-------- industry --- --- ---- --- --- ------ -- --------<br>---- --------- --- ------- ------------ ---------- ---------<br>--- ---------- ------- ---------- ------- -- -------- ----<br>---- --- ------ ----- ------ -- ---- --- ----- -- - -------<br>-------- -- --- --- -- ----- ----------- ----- -----------<br>---- --- ---------- --- ---- --- -- ----------,194586.7999999998,194586,193650.238,193659.7999999998,193666.909,194600.239,,1,industry
screen,html.Screen,0_4_1_0_1_2,2021-11-26T10:40:21.364Z,,,,,,,,,,,,,,,,51,,,,,,,,,,,,,,753.6609999994398,,response,,,13,D,,,,,Space,keypress(Space),,,,silence,-------- -------- may --- ---- --- --- ------ -- --------<br>---- --------- --- ------- ------------ ---------- ---------<br>--- ---------- ------- ---------- ------- -- -------- ----<br>---- --- ------ ----- ------ -- ---- --- ----- -- - -------<br>-------- -- --- --- -- ----- ----------- ----- -----------<br>---- --- ---------- --- ---- --- -- ----------,195354.7999999998,195353.89999999944,194583.569,194587.09999999963,194600.239,195367.162,,2,may
screen,html.Screen,0_4_1_0_1_3,2021-11-26T10:40:22.148Z,,,,,,,,,,,,,,,,51,,,,,,,,,,,,,,770.73799999943,,response,,,13,D,,,,,Space,keypress(Space),,,,silence,-------- -------- --- not ---- --- --- ------ -- --------<br>---- --------- --- ------- ------------ ---------- ---------<br>--- ---------- ------- ---------- ------- -- -------- ----<br>---- --- ------ ----- ------ -- ---- --- ----- -- - -------<br>-------- -- --- --- -- ----- ----------- ----- -----------<br>---- --- ---------- --- ---- --- -- ----------,196138.7999999998,196137.89999999944,195350.492,195355,195367.162,196150.868,,3,not
screen,html.Screen,0_4_1_0_1_4,2021-11-26T10:40:23.124Z,,,,,,,,,,,,,,,,51,,,,,,,,,,,,,,962.9319999998261,,response,,,13,D,,,,,Space,keypress(Space),,,,silence,-------- -------- --- --- know --- --- ------ -- --------<br>---- --------- --- ------- ------------ ---------- ---------<br>--- ---------- ------- ---------- ------- -- -------- ----<br>---- --- ------ ----- ------ -- ---- --- ----- -- - -------<br>-------- -- --- --- -- ----- ----------- ----- -----------<br>---- --- ---------- --- ---- --- -- ----------,197114.5,197113.7999999998,196134.197,196139.09999999963,196150.868,197117.75,,4,know
screen,html.Screen,0_4_1_0_1_5,2021-11-26T10:40:23.940Z,,,,,,,,,,,,,,,,51,,,,,,,,,,,,,,812.0499999998137,,response,,,13,D,,,,,Space,keypress(Space),,,,silence,"-------- -------- --- --- ---- it, --- ------ -- --------<br>---- --------- --- ------- ------------ ---------- ---------<br>--- ---------- ------- ---------- ------- -- -------- ----<br>---- --- ------ ----- ------ -- ---- --- ----- -- - -------<br>-------- -- --- --- -- ----- ----------- ----- -----------<br>---- --- ---------- --- ---- --- -- ----------",197930.7000000002,197929.7999999998,197101.079,197114.7999999998,197117.75,197934.388,,5,"it,"
screen,html.Screen,0_4_1_0_1_6,2021-11-26T10:40:24.500Z,,,,,,,,,,,,,,,,51,,,,,,,,,,,,,,555.31200000018,,response,,,13,D,,,,,Space,keypress(Space),,,,silence,-------- -------- --- --- ---- --- but ------ -- --------<br>---- --------- --- ------- ------------ ---------- ---------<br>--- ---------- ------- ---------- ------- -- -------- ----<br>---- --- ------ ----- ------ -- ---- --- ----- -- - -------<br>-------- -- --- --- -- ----- ----------- ----- -----------<br>---- --- ---------- --- ---- --- -- ----------,198490.59999999963,198489.7000000002,197917.719,197930.7999999998,197934.388,198501.426,,6,but
screen,html.Screen,0_4_1_0_1_7,2021-11-26T10:40:24.940Z,,,,,,,,,,,,,,,,51,,,,,,,,,,,,,,428.373999999807,,response,,,13,D,,,,,Space,keypress(Space),,,,silence,-------- -------- --- --- ---- --- --- debate -- --------<br>---- --------- --- ------- ------------ ---------- ---------<br>--- ---------- ------- ---------- ------- -- -------- ----<br>---- --- ------ ----- ------ -- ---- --- ----- -- - -------<br>-------- -- --- --- -- ----- ----------- ----- -----------<br>---- --- ---------- --- ---- --- -- ----------,198930.5,198929.7999999998,198484.755,198490.7999999998,198501.426,198934.813,,7,debate
screen,html.Screen,0_4_1_0_1_8,2021-11-26T10:40:25.420Z,,,,,,,,,,,,,,,,51,,,,,,,,,,,,,,474.8870000001916,,response,,,13,D,,,,,Space,keypress(Space),,,,silence,-------- -------- --- --- ---- --- --- ------ in --------<br>---- --------- --- ------- ------------ ---------- ---------<br>--- ---------- ------- ---------- ------- -- -------- ----<br>---- --- ------ ----- ------ -- ---- --- ----- -- - -------<br>-------- -- --- --- -- ----- ----------- ----- -----------<br>---- --- ---------- --- ---- --- -- ----------,199410.5,199409.7000000002,198918.143,198930.7999999998,198934.813,199418.267,,8,in
screen,html.Screen,0_4_1_0_1_9,2021-11-26T10:40:26.204Z,,,,,,,,,,,,,,,,51,,,,,,,,,,,,,,775.4330000001937,,response,,,13,D,,,,,Space,keypress(Space),,,,silence,-------- -------- --- --- ---- --- --- ------ -- Congress<br>---- --------- --- ------- ------------ ---------- ---------<br>--- ---------- ------- ---------- ------- -- -------- ----<br>---- --- ------ ----- ------ -- ---- --- ----- -- - -------<br>-------- -- --- --- -- ----- ----------- ----- -----------<br>---- --- ---------- --- ---- --- -- ----------,200194.39999999944,200193.7000000002,199401.597,199410.7000000002,199418.267,200201.843,,9,Congress
screen,html.Screen,0_4_1_0_1_10,2021-11-26T10:40:27.084Z,,,,,,,,,,,,,,,,51,,,,,,,,,,,,,,871.756999999634,,response,,,13,D,,,,,Space,keypress(Space),,,,silence,-------- -------- --- --- ---- --- --- ------ -- --------<br>over --------- --- ------- ------------ ---------- ---------<br>--- ---------- ------- ---------- ------- -- -------- ----<br>---- --- ------ ----- ------ -- ---- --- ----- -- - -------<br>-------- -- --- --- -- ----- ----------- ----- -----------<br>---- --- ---------- --- ---- --- -- ----------,201074.39999999944,201073.59999999963,200185.172,200194.7000000002,200201.843,201085.317,,10,over
screen,html.Screen,0_4_1_0_1_11,2021-11-26T10:40:27.948Z,,,,,,,,,,,,,,,,51,,,,,,,,,,,,,,852.2829999996175,,response,,,13,D,,,,,Space,keypress(Space),,,,silence,-------- -------- --- --- ---- --- --- ------ -- --------<br>---- reforming --- ------- ------------ ---------- ---------<br>--- ---------- ------- ---------- ------- -- -------- ----<br>---- --- ------ ----- ------ -- ---- --- ----- -- - -------<br>-------- -- --- --- -- ----- ----------- ----- -----------<br>---- --- ---------- --- ---- --- -- ----------,201938.2999999998,201937.59999999963,201068.647,201074.59999999963,201085.317,201952.219,,11,reforming
screen,html.Screen,0_4_1_0_1_12,2021-11-26T10:40:28.548Z,,,,,,,,,,,,,,,,51,,,,,,,,,,,,,,585.2809999999881,,response,,,13,D,,,,,Space,keypress(Space),,,,silence,-------- -------- --- --- ---- --- --- ------ -- --------<br>---- --------- the ------- ------------ ---------- ---------<br>--- ---------- ------- ---------- ------- -- -------- ----<br>---- --- ------ ----- ------ -- ---- --- ----- -- - -------<br>-------- -- --- --- -- ----- ----------- ----- -----------<br>---- --- ---------- --- ---- --- -- ----------,202538.2999999998,202537.5,201935.549,201938.59999999963,201952.219,202552.354,,12,the
screen,html.Screen,0_4_1_0_1_13,2021-11-26T10:40:29.364Z,,,,,,,,,,,,,,,,51,,,,,,,,,,,,,,801.0459999994491,,response,,,13,D,,,,,Space,keypress(Space),,,,silence,-------- -------- --- --- ---- --- --- ------ -- --------<br>---- --------- --- federal ------------ ---------- ---------<br>--- ---------- ------- ---------- ------- -- -------- ----<br>---- --- ------ ----- ------ -- ---- --- ----- -- - -------<br>-------- -- --- --- -- ----- ----------- ----- -----------<br>---- --- ---------- --- ---- --- -- ----------,203354.2000000002,203353.39999999944,202535.684,202538.59999999963,202552.354,203369.236,,13,federal
screen,html.Screen,0_4_1_0_1_14,2021-11-26T10:40:29.972Z,,,,,,,,,,,,,,,,51,,,,,,,,,,,,,,592.6639999994368,,response,,,13,D,,,,,Space,keypress(Space),,,,silence,-------- -------- --- --- ---- --- --- ------ -- --------<br>---- --------- --- ------- government's ---------- ---------<br>--- ---------- ------- ---------- ------- -- -------- ----<br>---- --- ------ ----- ------ -- ---- --- ----- -- - -------<br>-------- -- --- --- -- ----- ----------- ----- -----------<br>---- --- ---------- --- ---- --- -- ----------,203962.7000000002,203961.89999999944,203352.566,203354.2999999998,203369.236,203969.376,,14,government's
screen,html.Screen,0_4_1_0_1_15,2021-11-26T10:40:30.884Z,,,,,,,,,,,,,,,,51,,,,,,,,,,,,,,904.0239999994519,,response,,,13,D,,,,,Space,keypress(Space),,,,silence,-------- -------- --- --- ---- --- --- ------ -- --------<br>---- --------- --- ------- ------------ regulatory ---------<br>--- ---------- ------- ---------- ------- -- -------- ----<br>---- --- ------ ----- ------ -- ---- --- ----- -- - -------<br>-------- -- --- --- -- ----- ----------- ----- -----------<br>---- --- ---------- --- ---- --- -- ----------,204874.09999999963,204873.39999999944,203952.706,203962.7999999998,203969.376,204886.276,,15,regulatory
screen,html.Screen,0_4_1_0_1_16,2021-11-26T10:40:31.612Z,,,,,,,,,,,,,,,,51,,,,,,,,,,,,,,715.0239999998012,,response,,,13,D,,,,,Space,keypress(Space),,,,silence,-------- -------- --- --- ---- --- --- ------ -- --------<br>---- --------- --- ------- ------------ ---------- apparatus<br>--- ---------- ------- ---------- ------- -- -------- ----<br>---- --- ------ ----- ------ -- ---- --- ----- -- - -------<br>-------- -- --- --- -- ----- ----------- ----- -----------<br>---- --- ---------- --- ---- --- -- ----------,205602.09999999963,205601.2999999998,204869.606,204874.2999999998,204886.276,205603.124,,16,apparatus
screen,html.Screen,0_4_1_0_1_17,2021-11-26T10:40:32.700Z,,,,,,,,,,,,,,,,51,,,,,,,,,,,,,,1086.0760000001756,,response,,,13,D,,,,,Space,keypress(Space),,,,silence,-------- -------- --- --- ---- --- --- ------ -- --------<br>---- --------- --- ------- ------------ ---------- ---------<br>may ---------- ------- ---------- ------- -- -------- ----<br>---- --- ------ ----- ------ -- ---- --- ----- -- - -------<br>-------- -- --- --- -- ----- ----------- ----- -----------<br>---- --- ---------- --- ---- --- -- ----------,206690,206689.2000000002,205586.454,205602.2999999998,205603.124,206703.379,,17,may
screen,html.Screen,0_4_1_0_1_18,2021-11-26T10:40:33.676Z,,,,,,,,,,,,,,,,51,,,,,,,,,,,,,,961.8210000002,,response,,,13,D,,,,,Space,keypress(Space),,,,silence,-------- -------- --- --- ---- --- --- ------ -- --------<br>---- --------- --- ------- ------------ ---------- ---------<br>--- profoundly ------- ---------- ------- -- -------- ----<br>---- --- ------ ----- ------ -- ---- --- ----- -- - -------<br>-------- -- --- --- -- ----- ----------- ----- -----------<br>---- --- ---------- --- ---- --- -- ----------,207666,207665.2000000002,206686.709,206690.2000000002,206703.379,207670.29,,18,profoundly
screen,html.Screen,0_4_1_0_1_19,2021-11-26T10:40:34.564Z,,,,,,,,,,,,,,,,51,,,,,,,,,,,,,,882.8099999996193,,response,,,13,D,,,,,Space,keypress(Space),,,,silence,-------- -------- --- --- ---- --- --- ------ -- --------<br>---- --------- --- ------- ------------ ---------- ---------<br>--- ---------- improve ---------- ------- -- -------- ----<br>---- --- ------ ----- ------ -- ---- --- ----- -- - -------<br>-------- -- --- --- -- ----- ----------- ----- -----------<br>---- --- ---------- --- ---- --- -- ----------,208554,208553.09999999963,207653.62,207666.2000000002,207670.29,208570.521,,19,improve
screen,html.Screen,0_4_1_0_1_20,2021-11-26T10:40:35.227Z,,,,,,,,,,,,,,,,51,,,,,,,,,,,,,,646.4789999999921,,response,,,13,D,,,,,Space,keypress(Space),,,,silence,-------- -------- --- --- ---- --- --- ------ -- --------<br>---- --------- --- ------- ------------ ---------- ---------<br>--- ---------- ------- companies' ------- -- -------- ----<br>---- --- ------ ----- ------ -- ---- --- ----- -- - -------<br>-------- -- --- --- -- ----- ----------- ----- -----------<br>---- --- ---------- --- ---- --- -- ----------,209217.89999999944,209217,208553.851,208554.2000000002,208570.521,209220.7,,20,companies'
screen,html.Screen,0_4_1_0_1_21,2021-11-26T10:40:35.803Z,,,,,,,,,,,,,,,,51,,,,,,,,,,,,,,572.2999999999884,,response,,,13,D,,,,,Space,keypress(Space),,,,silence,-------- -------- --- --- ---- --- --- ------ -- --------<br>---- --------- --- ------- ------------ ---------- ---------<br>--- ---------- ------- ---------- ability -- -------- ----<br>---- --- ------ ----- ------ -- ---- --- ----- -- - -------<br>-------- -- --- --- -- ----- ----------- ----- -----------<br>---- --- ---------- --- ---- --- -- ----------,209793.7999999998,209793,209204.03,209218.09999999963,209220.7,209804.193,,21,ability
screen,html.Screen,0_4_1_0_1_22,2021-11-26T10:40:36.267Z,,,,,,,,,,,,,,,,51,,,,,,,,,,,,,,452.8070000000007,,response,,,13,D,,,,,Space,keypress(Space),,,,silence,-------- -------- --- --- ---- --- --- ------ -- --------<br>---- --------- --- ------- ------------ ---------- ---------<br>--- ---------- ------- ---------- ------- to -------- ----<br>---- --- ------ ----- ------ -- ---- --- ----- -- - -------<br>-------- -- --- --- -- ----- ----------- ----- -----------<br>---- --- ---------- --- ---- --- -- ----------,210257.7000000002,210257,209787.523,209794,209804.193,210270.956,,22,to
screen,html.Screen,0_4_1_0_1_23,2021-11-26T10:40:36.771Z,,,,,,,,,,,,,,,,51,,,,,,,,,,,,,,490.0439999999944,,response,,,13,D,,,,,Space,keypress(Space),,,,silence,-------- -------- --- --- ---- --- --- ------ -- --------<br>---- --------- --- ------- ------------ ---------- ---------<br>--- ---------- ------- ---------- ------- -- survive. ----<br>---- --- ------ ----- ------ -- ---- --- ----- -- - -------<br>-------- -- --- --- -- ----- ----------- ----- -----------<br>---- --- ---------- --- ---- --- -- ----------,210761.7000000002,210761,210254.286,210258,210270.956,210771.136,,23,survive.
screen,html.Screen,0_4_1_0_1_24,2021-11-26T10:40:37.219Z,,,,,,,,,,,,,,,,51,,,,,,,,,,,,,,437.8640000000014,,response,,,13,D,,,,,Space,keypress(Space),,,,silence,-------- -------- --- --- ---- --- --- ------ -- --------<br>---- --------- --- ------- ------------ ---------- ---------<br>--- ---------- ------- ---------- ------- -- -------- This<br>---- --- ------ ----- ------ -- ---- --- ----- -- - -------<br>-------- -- --- --- -- ----- ----------- ----- -----------<br>---- --- ---------- --- ---- --- -- ----------,211209.59999999963,211209,210754.465,210762,210771.136,211221.196,,24,This
screen,html.Screen,0_4_1_0_1_25,2021-11-26T10:40:37.771Z,,,,,,,,,,,,,,,,51,,,,,,,,,,,,,,539.7039999994449,,response,,,13,D,,,,,Space,keypress(Space),,,,silence,-------- -------- --- --- ---- --- --- ------ -- --------<br>---- --------- --- ------- ------------ ---------- ---------<br>--- ---------- ------- ---------- ------- -- -------- ----<br>week --- ------ ----- ------ -- ---- --- ----- -- - -------<br>-------- -- --- --- -- ----- ----------- ----- -----------<br>---- --- ---------- --- ---- --- -- ----------,211761.7000000002,211760.89999999944,211204.526,211209.89999999944,211221.196,211771.34,,25,week
screen,html.Screen,0_4_1_0_1_26,2021-11-26T10:40:38.155Z,,,,,,,,,,,,,,,,51,,,,,,,,,,,,,,373.5599999994447,,response,,,13,D,,,,,Space,keypress(Space),,,,silence,-------- -------- --- --- ---- --- --- ------ -- --------<br>---- --------- --- ------- ------------ ---------- ---------<br>--- ---------- ------- ---------- ------- -- -------- ----<br>---- the ------ ----- ------ -- ---- --- ----- -- - -------<br>-------- -- --- --- -- ----- ----------- ----- -----------<br>---- --- ---------- --- ---- --- -- ----------,212145.7000000002,212144.89999999944,211754.67,211762,211771.34,212154.762,,26,the
screen,html.Screen,0_4_1_0_1_27,2021-11-26T10:40:38.667Z,,,,,,,,,,,,,,,,51,,,,,,,,,,,,,,502.1379999994533,,response,,,13,D,,,,,Space,keypress(Space),,,,silence,-------- -------- --- --- ---- --- --- ------ -- --------<br>---- --------- --- ------- ------------ ---------- ---------<br>--- ---------- ------- ---------- ------- -- -------- ----<br>---- --- Senate ----- ------ -- ---- --- ----- -- - -------<br>-------- -- --- --- -- ----- ----------- ----- -----------<br>---- --- ---------- --- ---- --- -- ----------,212657.59999999963,212656.89999999944,212138.092,212145.89999999944,212154.762,212671.464,,27,Senate
screen,html.Screen,0_4_1_0_1_28,2021-11-26T10:40:39.531Z,,,,,,,,,,,,,,,,51,,,,,,,,,,,,,,849.3359999998065,,response,,,13,D,,,,,Space,keypress(Space),,,,silence,-------- -------- --- --- ---- --- --- ------ -- --------<br>---- --------- --- ------- ------------ ---------- ---------<br>--- ---------- ------- ---------- ------- -- -------- ----<br>---- --- ------ seems ------ -- ---- --- ----- -- - -------<br>-------- -- --- --- -- ----- ----------- ----- -----------<br>---- --- ---------- --- ---- --- -- ----------,213521.7000000002,213520.7999999998,212654.795,212657.89999999944,212671.464,213538.581,,28,seems
screen,html.Screen,0_4_1_0_1_29,2021-11-26T10:40:40.532Z,,,,,,,,,,,,,,,,51,,,,,,,,,,,,,,982.5189999996219,,response,,,13,D,,,,,Space,keypress(Space),,,,silence,-------- -------- --- --- ---- --- --- ------ -- --------<br>---- --------- --- ------- ------------ ---------- ---------<br>--- ---------- ------- ---------- ------- -- -------- ----<br>---- --- ------ ----- poised -- ---- --- ----- -- - -------<br>-------- -- --- --- -- ----- ----------- ----- -----------<br>---- --- ---------- --- ---- --- -- ----------,214521.89999999944,214521.09999999963,213521.909,213522,213538.581,214538.748,,29,poised
screen,html.Screen,0_4_1_0_1_30,2021-11-26T10:40:41.083Z,,,,,,,,,,,,,,,,51,,,,,,,,,,,,,,533.952000000194,,response,,,13,D,,,,,Space,keypress(Space),,,,silence,-------- -------- --- --- ---- --- --- ------ -- --------<br>---- --------- --- ------- ------------ ---------- ---------<br>--- ---------- ------- ---------- ------- -- -------- ----<br>---- --- ------ ----- ------ to ---- --- ----- -- - -------<br>-------- -- --- --- -- ----- ----------- ----- -----------<br>---- --- ---------- --- ---- --- -- ----------,215073.59999999963,215072.7000000002,214522.077,214522.2000000002,214538.748,215088.838,,30,to
screen,html.Screen,0_4_1_0_1_31,2021-11-26T10:40:41.867Z,,,,,,,,,,,,,,,,51,,,,,,,,,,,,,,767.7619999996386,,response,,,13,D,,,,,Space,keypress(Space),,,,silence,-------- -------- --- --- ---- --- --- ------ -- --------<br>---- --------- --- ------- ------------ ---------- ---------<br>--- ---------- ------- ---------- ------- -- -------- ----<br>---- --- ------ ----- ------ -- join --- ----- -- - -------<br>-------- -- --- --- -- ----- ----------- ----- -----------<br>---- --- ---------- --- ---- --- -- ----------,215857.39999999944,215856.59999999963,215072.168,215073.7000000002,215088.838,215872.328,,31,join
screen,html.Screen,0_4_1_0_1_32,2021-11-26T10:40:42.691Z,,,,,,,,,,,,,,,,51,,,,,,,,,,,,,,808.2719999996189,,response,,,13,D,,,,,Space,keypress(Space),,,,silence,-------- -------- --- --- ---- --- --- ------ -- --------<br>---- --------- --- ------- ------------ ---------- ---------<br>--- ---------- ------- ---------- ------- -- -------- ----<br>---- --- ------ ----- ------ -- ---- the ----- -- - -------<br>-------- -- --- --- -- ----- ----------- ----- -----------<br>---- --- ---------- --- ---- --- -- ----------,216681.39999999944,216680.59999999963,215855.658,215857.7000000002,215872.328,216689.211,,32,the
screen,html.Screen,0_4_1_0_1_33,2021-11-26T10:40:43.467Z,,,,,,,,,,,,,,,,51,,,,,,,,,,,,,,767.3889999996172,,response,,,13,D,,,,,Space,keypress(Space),,,,silence,-------- -------- --- --- ---- --- --- ------ -- --------<br>---- --------- --- ------- ------------ ---------- ---------<br>--- ---------- ------- ---------- ------- -- -------- ----<br>---- --- ------ ----- ------ -- ---- --- House -- - -------<br>-------- -- --- --- -- ----- ----------- ----- -----------<br>---- --- ---------- --- ---- --- -- ----------,217457.39999999944,217456.59999999963,216672.541,216681.59999999963,216689.211,217472.745,,33,House
screen,html.Screen,0_4_1_0_1_34,2021-11-26T10:40:43.875Z,,,,,,,,,,,,,,,,51,,,,,,,,,,,,,,391.8549999996321,,response,,,13,D,,,,,Space,keypress(Space),,,,silence,-------- -------- --- --- ---- --- --- ------ -- --------<br>---- --------- --- ------- ------------ ---------- ---------<br>--- ---------- ------- ---------- ------- -- -------- ----<br>---- --- ------ ----- ------ -- ---- --- ----- in - -------<br>-------- -- --- --- -- ----- ----------- ----- -----------<br>---- --- ---------- --- ---- --- -- ----------,217865.39999999944,217864.59999999963,217456.075,217457.59999999963,217472.745,217872.863,,34,in
screen,html.Screen,0_4_1_0_1_35,2021-11-26T10:40:44.307Z,,,,,,,,,,,,,,,,51,,,,,,,,,,,,,,423.6369999999879,,response,,,13,D,,,,,Space,keypress(Space),,,,silence,-------- -------- --- --- ---- --- --- ------ -- --------<br>---- --------- --- ------- ------------ ---------- ---------<br>--- ---------- ------- ---------- ------- -- -------- ----<br>---- --- ------ ----- ------ -- ---- --- ----- -- a -------<br>-------- -- --- --- -- ----- ----------- ----- -----------<br>---- --- ---------- --- ---- --- -- ----------,218297.2999999998,218296.5,217856.193,217865.59999999963,217872.863,218306.214,,35,a
screen,html.Screen,0_4_1_0_1_36,2021-11-26T10:40:44.851Z,,,,,,,,,,,,,,,,51,,,,,,,,,,,,,,534.2859999999928,,response,,,13,D,,,,,Space,keypress(Space),,,,silence,-------- -------- --- --- ---- --- --- ------ -- --------<br>---- --------- --- ------- ------------ ---------- ---------<br>--- ---------- ------- ---------- ------- -- -------- ----<br>---- --- ------ ----- ------ -- ---- --- ----- -- - massive<br>-------- -- --- --- -- ----- ----------- ----- -----------<br>---- --- ---------- --- ---- --- -- ----------,218841.2999999998,218840.5,218289.545,218297.59999999963,218306.214,218856.597,,36,massive
screen,html.Screen,0_4_1_0_1_37,2021-11-26T10:40:45.331Z,,,,,,,,,,,,,,,,51,,,,,,,,,,,,,,463.90299999999115,,response,,,13,D,,,,,Space,keypress(Space),,,,silence,-------- -------- --- --- ---- --- --- ------ -- --------<br>---- --------- --- ------- ------------ ---------- ---------<br>--- ---------- ------- ---------- ------- -- -------- ----<br>---- --- ------ ----- ------ -- ---- --- ----- -- - -------<br>overhaul -- --- --- -- ----- ----------- ----- -----------<br>---- --- ---------- --- ---- --- -- ----------,219321.2000000002,219320.5,218839.924,218841.5,218856.597,219323.203,,37,overhaul
screen,html.Screen,0_4_1_0_1_38,2021-11-26T10:40:45.763Z,,,,,,,,,,,,,,,,51,,,,,,,,,,,,,,429.2969999999914,,response,,,13,D,,,,,Space,keypress(Space),,,,silence,-------- -------- --- --- ---- --- --- ------ -- --------<br>---- --------- --- ------- ------------ ---------- ---------<br>--- ---------- ------- ---------- ------- -- -------- ----<br>---- --- ------ ----- ------ -- ---- --- ----- -- - -------<br>-------- of --- --- -- ----- ----------- ----- -----------<br>---- --- ---------- --- ---- --- -- ----------,219753.2000000002,219752.5,219306.533,219321.5,219323.203,219756.671,,38,of
screen,html.Screen,0_4_1_0_1_39,2021-11-26T10:40:46.083Z,,,,,,,,,,,,,,,,51,,,,,,,,,,,,,,315.7289999994391,,response,,,13,D,,,,,Space,keypress(Space),,,,silence,-------- -------- --- --- ---- --- --- ------ -- --------<br>---- --------- --- ------- ------------ ---------- ---------<br>--- ---------- ------- ---------- ------- -- -------- ----<br>---- --- ------ ----- ------ -- ---- --- ----- -- - -------<br>-------- -- the --- -- ----- ----------- ----- -----------<br>---- --- ---------- --- ---- --- -- ----------,220073.09999999963,220072.39999999944,219740.001,219753.5,219756.671,220090.076,,39,the
screen,html.Screen,0_4_1_0_1_40,2021-11-26T10:40:46.331Z,,,,,,,,,,,,,,,,51,,,,,,,,,,,,,,230.32399999944028,,response,,,13,D,,,,,Space,keypress(Space),,,,silence,-------- -------- --- --- ---- --- --- ------ -- --------<br>---- --------- --- ------- ------------ ---------- ---------<br>--- ---------- ------- ---------- ------- -- -------- ----<br>---- --- ------ ----- ------ -- ---- --- ----- -- - -------<br>-------- -- --- way -- ----- ----------- ----- -----------<br>---- --- ---------- --- ---- --- -- ----------,220321.09999999963,220320.39999999944,220073.406,220073.39999999944,220090.076,220323.479,,40,way
screen,html.Screen,0_4_1_0_1_41,2021-11-26T10:40:46.691Z,,,,,,,,,,,,,,,,51,,,,,,,,,,,,,,356.9209999994491,,response,,,13,D,,,,,Space,keypress(Space),,,,silence,-------- -------- --- --- ---- --- --- ------ -- --------<br>---- --------- --- ------- ------------ ---------- ---------<br>--- ---------- ------- ---------- ------- -- -------- ----<br>---- --- ------ ----- ------ -- ---- --- ----- -- - -------<br>-------- -- --- --- in ----- ----------- ----- -----------<br>---- --- ---------- --- ---- --- -- ----------,220681.09999999963,220680.39999999944,220306.809,220321.39999999944,220323.479,220690.233,,41,in
screen,html.Screen,0_4_1_0_1_42,2021-11-26T10:40:47.211Z,,,,,,,,,,,,,,,,51,,,,,,,,,,,,,,510.0669999998063,,response,,,13,D,,,,,Space,keypress(Space),,,,silence,-------- -------- --- --- ---- --- --- ------ -- --------<br>---- --------- --- ------- ------------ ---------- ---------<br>--- ---------- ------- ---------- ------- -- -------- ----<br>---- --- ------ ----- ------ -- ---- --- ----- -- - -------<br>-------- -- --- --- -- which ----------- ----- -----------<br>---- --- ---------- --- ---- --- -- ----------,221201.09999999963,221200.2999999998,220673.563,220681.2999999998,220690.233,221207.06,,42,which
screen,html.Screen,0_4_1_0_1_43,2021-11-26T10:40:48.683Z,,,,,,,,,,,,,,,,51,,,,,,,,,,,,,,1465.1400000001886,,response,,,13,D,,,,,Space,keypress(Space),,,,silence,-------- -------- --- --- ---- --- --- ------ -- --------<br>---- --------- --- ------- ------------ ---------- ---------<br>--- ---------- ------- ---------- ------- -- -------- ----<br>---- --- ------ ----- ------ -- ---- --- ----- -- - -------<br>-------- -- --- --- -- ----- bureaucrats ----- -----------<br>---- --- ---------- --- ---- --- -- ----------,222673.09999999963,222672.2000000002,221190.389,221201.39999999944,221207.06,222674.007,,43,bureaucrats
screen,html.Screen,0_4_1_0_1_44,2021-11-26T10:40:49.659Z,,,,,,,,,,,,,,,,51,,,,,,,,,,,,,,974.0929999996151,,response,,,13,D,,,,,Space,keypress(Space),,,,silence,-------- -------- --- --- ---- --- --- ------ -- --------<br>---- --------- --- ------- ------------ ---------- ---------<br>--- ---------- ------- ---------- ------- -- -------- ----<br>---- --- ------ ----- ------ -- ---- --- ----- -- - -------<br>-------- -- --- --- -- ----- ----------- enact -----------<br>---- --- ---------- --- ---- --- -- ----------,223648.89999999944,223648.09999999963,222657.337,222673.2999999998,222674.007,223657.572,,44,enact
screen,html.Screen,0_4_1_0_1_45,2021-11-26T10:40:50.523Z,,,,,,,,,,,,,,,,51,,,,,,,,,,,,,,854.5279999996419,,response,,,13,D,,,,,Space,keypress(Space),,,,silence,-------- -------- --- --- ---- --- --- ------ -- --------<br>---- --------- --- ------- ------------ ---------- ---------<br>--- ---------- ------- ---------- ------- -- -------- ----<br>---- --- ------ ----- ------ -- ---- --- ----- -- - -------<br>-------- -- --- --- -- ----- ----------- ----- regulations<br>---- --- ---------- --- ---- --- -- ----------,224512.89999999944,224512.09999999963,223640.902,223649.09999999963,223657.572,224524.45,,45,regulations
screen,html.Screen,0_4_1_0_1_46,2021-11-26T10:40:51.531Z,,,,,,,,,,,,,,,,51,,,,,,,,,,,,,,996.0499999999884,,response,,,13,D,,,,,Space,keypress(Space),,,,silence,-------- -------- --- --- ---- --- --- ------ -- --------<br>---- --------- --- ------- ------------ ---------- ---------<br>--- ---------- ------- ---------- ------- -- -------- ----<br>---- --- ------ ----- ------ -- ---- --- ----- -- - -------<br>-------- -- --- --- -- ----- ----------- ----- -----------<br>that --- ---------- --- ---- --- -- ----------,225521.2000000002,225520.5,224507.78,224513.09999999963,224524.45,225524.796,,46,that
screen,html.Screen,0_4_1_0_1_47,2021-11-26T10:40:52.035Z,,,,,,,,,,,,,,,,51,,,,,,,,,,,,,,499.3039999996254,,response,,,13,D,,,,,Space,keypress(Space),,,,silence,-------- -------- --- --- ---- --- --- ------ -- --------<br>---- --------- --- ------- ------------ ---------- ---------<br>--- ---------- ------- ---------- ------- -- -------- ----<br>---- --- ------ ----- ------ -- ---- --- ----- -- - -------<br>-------- -- --- --- -- ----- ----------- ----- -----------<br>---- are ---------- --- ---- --- -- ----------,226025,226024.09999999963,225508.125,225521.39999999944,225524.796,226041.598,,47,are
screen,html.Screen,0_4_1_0_1_48,2021-11-26T10:40:52.466Z,,,,,,,,,,,,,,,,51,,,,,,,,,,,,,,414.40200000000186,,response,,,13,D,,,,,Space,keypress(Space),,,,silence,-------- -------- --- --- ---- --- --- ------ -- --------<br>---- --------- --- ------- ------------ ---------- ---------<br>--- ---------- ------- ---------- ------- -- -------- ----<br>---- --- ------ ----- ------ -- ---- --- ----- -- - -------<br>-------- -- --- --- -- ----- ----------- ----- -----------<br>---- --- strangling --- ---- --- -- ----------,226456.7999999998,226456,226024.927,226025.2000000002,226041.598,226458.339,,48,strangling
screen,html.Screen,0_4_1_0_1_49,2021-11-26T10:40:52.954Z,,,,,,,,,,,,,,,,51,,,,,,,,,,,,,,485.560999999434,,response,,,13,D,,,,,Space,keypress(Space),,,,silence,-------- -------- --- --- ---- --- --- ------ -- --------<br>---- --------- --- ------- ------------ ---------- ---------<br>--- ---------- ------- ---------- ------- -- -------- ----<br>---- --- ------ ----- ------ -- ---- --- ----- -- - -------<br>-------- -- --- --- -- ----- ----------- ----- -----------<br>---- --- ---------- the ---- --- -- ----------,226944.7000000002,226943.89999999944,226441.669,226457,226458.339,226958.354,,49,the
screen,html.Screen,0_4_1_0_1_50,2021-11-26T10:40:53.538Z,,,,,,,,,,,,,,,,51,,,,,,,,,,,,,,569.5459999994491,,response,,,13,D,,,,,Space,keypress(Space),,,,silence,-------- -------- --- --- ---- --- --- ------ -- --------<br>---- --------- --- ------- ------------ ---------- ---------<br>--- ---------- ------- ---------- ------- -- -------- ----<br>---- --- ------ ----- ------ -- ---- --- ----- -- - -------<br>-------- -- --- --- -- ----- ----------- ----- -----------<br>---- --- ---------- --- life --- -- ----------,227528.59999999963,227527.89999999944,226941.685,226945,226958.354,227541.992,,50,life
