sender,sender_type,sender_id,timestamp,meta,,Blues,Classical,Country,Dance,Electronic,Folk,Gospel,Hip-Hop,Jazz,Latin,Musical/Film,New-age,Pop,Provo_ID,R&B,Rap,Reggae,Religious,Rock,Soul,Swing,Traditional,age,artist_name,correct,correctResponse,distraction,duration,education,ended_on,familiarity,gender,item,list,music_frequency,offensiveness,pleasantness,preference,response,response_action,snippet_file,song_name,song_rating,sound,text,time_commit,time_end,time_render,time_run,time_show,time_switch,url,word,word_ID
Instructions,html.Page,0_0,2022-05-13T10:55:28.308Z,"{""labjs_version"":""20.2.3"",""labjs_build"":{""flavor"":""production"",""commit"":""7ea907d66ca8aeef8054924ca5d82ffbe11e34e5""},""location"":""https://run.pavlovia.org/mvasilev/lab_music_d/"",""userAgent"":""Mozilla/5.0 (Windows NT 6.1; Win64; x64) AppleWebKit/537.36 (KHTML, like Gecko) Chrome/100.0.4896.127 Safari/537.36"",""platform"":""Win32"",""language"":""en-US"",""locale"":""en-US"",""timeZone"":""Europe/London"",""timezoneOffset"":-60,""screen_width"":1920,""screen_height"":1080,""scroll_width"":1920,""scroll_height"":959,""window_innerWidth"":1920,""window_innerHeight"":1007,""devicePixelRatio"":1}",,,,,,,,,,,,,,,,,,,,,,,,,,,,,7901.126,,form submission,,,,,,,,,,,,,,,,21681.200000000186,21680,13745.534,13760.400000000373,13778.874,21683.114,{},,
Headphones,html.Page,0_1,2022-05-13T10:55:28.648Z,,,,,,,,,,,,,,,,,,,,,,,,,,,,,,338.4860000005574,,form submission,,,,,,,,,,,,,,,,22022.200000000186,22021.60000000056,21666.415,21682.10000000056,21683.114,22030.933,,,
Holding screen,html.Screen,0_2_0_0,2022-05-13T10:55:38.651Z,,,,,,,,,,,,,,,,,,,,,,,,,,,,,,10052.694,,timeout,,,,,,,,,,,,,,,,32024.800000000745,32016.943,22014.263,22022.700000000186,22030.933,32083.627,,,
screen,html.Screen,0_2_0_1_0,2022-05-13T10:55:41.711Z,,,,,,,,,,,,,,,,53,,,,,,,,,,,,,,2999.773000000372,,response,,,99,,,,,,Space,keypress(Space),,,,,When -- ----- -- ------ - ------- --- ----------<br>------------- ------ ------ ---- ---- ------- ----- -- ----<br>-------- ------- -- ---------- --- - --- ----- ----- ----<br>---- --- --- ----- --- ---- ---- ------- ----- ---- -------<br>--- --- -- ----- -- --- ---- -- --- ---- -- ------ ------<br>--- ----- -- ----,35085.200000000186,35083.40000000037,32016.943,32025.200000000186,32083.627,35100.86,,0,When
screen,html.Screen,0_2_0_1_1,2022-05-13T10:55:42.510Z,,,,,,,,,,,,,,,,53,,,,,,,,,,,,,,782.3400000001857,,response,,,99,,,,,,Space,keypress(Space),,,,,---- it ----- -- ------ - ------- --- ----------<br>------------- ------ ------ ---- ---- ------- ----- -- ----<br>-------- ------- -- ---------- --- - --- ----- ----- ----<br>---- --- --- ----- --- ---- ---- ------- ----- ---- -------<br>--- --- -- ----- -- --- ---- -- --- ---- -- ------ ------<br>--- ----- -- ----,35884.200000000186,35883.200000000186,35084.19,35085.5,35100.86,35901.264,,1,it
screen,html.Screen,0_2_0_1_2,2022-05-13T10:55:43.023Z,,,,,,,,,,,,,,,,53,,,,,,,,,,,,,,494.5360000007422,,response,,,99,,,,,,Space,keypress(Space),,,,,---- -- comes -- ------ - ------- --- ----------<br>------------- ------ ------ ---- ---- ------- ----- -- ----<br>-------- ------- -- ---------- --- - --- ----- ----- ----<br>---- --- --- ----- --- ---- ---- ------- ----- ---- -------<br>--- --- -- ----- -- --- ---- -- --- ---- -- ------ ------<br>--- ----- -- ----,36396.800000000745,36395.800000000745,35884.593,35884.40000000037,35901.264,36401.335,,2,comes
screen,html.Screen,0_2_0_1_3,2022-05-13T10:55:43.535Z,,,,,,,,,,,,,,,,53,,,,,,,,,,,,,,505.96500000074593,,response,,,99,,,,,,Space,keypress(Space),,,,,---- -- ----- to ------ - ------- --- ----------<br>------------- ------ ------ ---- ---- ------- ----- -- ----<br>-------- ------- -- ---------- --- - --- ----- ----- ----<br>---- --- --- ----- --- ---- ---- ------- ----- ---- -------<br>--- --- -- ----- -- --- ---- -- --- ---- -- ------ ------<br>--- ----- -- ----,36908.200000000186,36907.300000000745,36384.665,36397.10000000056,36401.335,36918.297,,3,to
screen,html.Screen,0_2_0_1_4,2022-05-13T10:55:45.118Z,,,,,,,,,,,,,,,,53,,,,,,,,,,,,,,1573.0030000007464,,response,,,99,,,,,,Space,keypress(Space),,,,,---- -- ----- -- having - ------- --- ----------<br>------------- ------ ------ ---- ---- ------- ----- -- ----<br>-------- ------- -- ---------- --- - --- ----- ----- ----<br>---- --- --- ----- --- ---- ---- ------- ----- ---- -------<br>--- --- -- ----- -- --- ---- -- --- ---- -- ------ ------<br>--- ----- -- ----,38492.200000000186,38491.300000000745,36901.625,36908.5,36918.297,38501.854,,4,having
screen,html.Screen,0_2_0_1_5,2022-05-13T10:55:45.542Z,,,,,,,,,,,,,,,,53,,,,,,,,,,,,,,413.3460000001869,,response,,,99,,,,,,Space,keypress(Space),,,,,---- -- ----- -- ------ a ------- --- ----------<br>------------- ------ ------ ---- ---- ------- ----- -- ----<br>-------- ------- -- ---------- --- - --- ----- ----- ----<br>---- --- --- ----- --- ---- ---- ------- ----- ---- -------<br>--- --- -- ----- -- --- ---- -- --- ---- -- ------ ------<br>--- ----- -- ----,38916.200000000186,38915.200000000186,38485.184,38492.5,38501.854,38918.757,,5,a
screen,html.Screen,0_2_0_1_6,2022-05-13T10:55:46.150Z,,,,,,,,,,,,,,,,53,,,,,,,,,,,,,,604.343000000561,,response,,,99,,,,,,Space,keypress(Space),,,,,---- -- ----- -- ------ - lasting --- ----------<br>------------- ------ ------ ---- ---- ------- ----- -- ----<br>-------- ------- -- ---------- --- - --- ----- ----- ----<br>---- --- --- ----- --- ---- ---- ------- ----- ---- -------<br>--- --- -- ----- -- --- ---- -- --- ---- -- ------ ------<br>--- ----- -- ----,39524.10000000056,39523.10000000056,38902.086,38916.5,38918.757,39535.535,,6,lasting
screen,html.Screen,0_2_0_1_7,2022-05-13T10:55:47.110Z,,,,,,,,,,,,,,,,53,,,,,,,,,,,,,,947.4649999999965,,response,,,99,,,,,,Space,keypress(Space),,,,,---- -- ----- -- ------ - ------- and ----------<br>------------- ------ ------ ---- ---- ------- ----- -- ----<br>-------- ------- -- ---------- --- - --- ----- ----- ----<br>---- --- --- ----- --- ---- ---- ------- ----- ---- -------<br>--- --- -- ----- -- --- ---- -- --- ---- -- ------ ------<br>--- ----- -- ----,40484,40483,39518.865,39524.700000000186,39535.535,40485.833,,7,and
screen,html.Screen,0_2_0_1_8,2022-05-13T10:55:47.886Z,,,,,,,,,,,,,,,,53,,,,,,,,,,,,,,773.2670000005601,,response,,,99,,,,,,Space,keypress(Space),,,,,---- -- ----- -- ------ - ------- --- fulfilling<br>------------- ------ ------ ---- ---- ------- ----- -- ----<br>-------- ------- -- ---------- --- - --- ----- ----- ----<br>---- --- --- ----- --- ---- ---- ------- ----- ---- -------<br>--- --- -- ----- -- --- ---- -- --- ---- -- ------ ------<br>--- ----- -- ----,41260,41259.10000000056,40469.162,40484.40000000037,40485.833,41269.132,,8,fulfilling
screen,html.Screen,0_2_0_1_9,2022-05-13T10:55:49.190Z,,,,,,,,,,,,,,,,53,,,,,,,,,,,,,,1293.7680000003747,,response,,,99,,,,,,Space,keypress(Space),,,,,"---- -- ----- -- ------ - ------- --- ----------<br>relationship, ------ ------ ---- ---- ------- ----- -- ----<br>-------- ------- -- ---------- --- - --- ----- ----- ----<br>---- --- --- ----- --- ---- ---- ------- ----- ---- -------<br>--- --- -- ----- -- --- ---- -- --- ---- -- ------ ------<br>--- ----- -- ----",42564,42562.90000000037,41252.463,41260.40000000037,41269.132,42569.684,,9,"relationship,"
screen,html.Screen,0_2_0_1_10,2022-05-13T10:55:49.999Z,,,,,,,,,,,,,,,,53,,,,,,,,,,,,,,801.3159999999989,,response,,,99,,,,,,Space,keypress(Space),,,,,---- -- ----- -- ------ - ------- --- ----------<br>------------- common ------ ---- ---- ------- ----- -- ----<br>-------- ------- -- ---------- --- - --- ----- ----- ----<br>---- --- --- ----- --- ---- ---- ------- ----- ---- -------<br>--- --- -- ----- -- --- ---- -- --- ---- -- ------ ------<br>--- ----- -- ----,43372.300000000745,43371,42553.013,42564.300000000745,42569.684,43386.353,,10,common
screen,html.Screen,0_2_0_1_11,2022-05-13T10:55:50.550Z,,,,,,,,,,,,,,,,53,,,,,,,,,,,,,,536.4470000007423,,response,,,99,,,,,,Space,keypress(Space),,,,,---- -- ----- -- ------ - ------- --- ----------<br>------------- ------ wisdom ---- ---- ------- ----- -- ----<br>-------- ------- -- ---------- --- - --- ----- ----- ----<br>---- --- --- ----- --- ---- ---- ------- ----- ---- -------<br>--- --- -- ----- -- --- ---- -- --- ---- -- ------ ------<br>--- ----- -- ----,43923.700000000186,43922.800000000745,43369.684,43372.60000000056,43386.353,43936.627,,11,wisdom
screen,html.Screen,0_2_0_1_12,2022-05-13T10:55:51.150Z,,,,,,,,,,,,,,,,53,,,,,,,,,,,,,,586.3729999999996,,response,,,99,,,,,,Space,keypress(Space),,,,,---- -- ----- -- ------ - ------- --- ----------<br>------------- ------ ------ says ---- ------- ----- -- ----<br>-------- ------- -- ---------- --- - --- ----- ----- ----<br>---- --- --- ----- --- ---- ---- ------- ----- ---- -------<br>--- --- -- ----- -- --- ---- -- --- ---- -- ------ ------<br>--- ----- -- ----,44523.800000000745,44523,43919.957,43924,43936.627,44536.781,,12,says
screen,html.Screen,0_2_0_1_13,2022-05-13T10:55:51.790Z,,,,,,,,,,,,,,,,53,,,,,,,,,,,,,,626.0190000007424,,response,,,99,,,,,,Space,keypress(Space),,,,,---- -- ----- -- ------ - ------- --- ----------<br>------------- ------ ------ ---- that ------- ----- -- ----<br>-------- ------- -- ---------- --- - --- ----- ----- ----<br>---- --- --- ----- --- ---- ---- ------- ----- ---- -------<br>--- --- -- ----- -- --- ---- -- --- ---- -- ------ ------<br>--- ----- -- ----,45163.60000000056,45162.800000000745,44520.111,44524.10000000056,44536.781,45170.274,,13,that
screen,html.Screen,0_2_0_1_14,2022-05-13T10:55:53.254Z,,,,,,,,,,,,,,,,53,,,,,,,,,,,,,,1456.9260000001887,,response,,,99,,,,,,Space,keypress(Space),,,,,---- -- ----- -- ------ - ------- --- ----------<br>------------- ------ ------ ---- ---- feeling ----- -- ----<br>-------- ------- -- ---------- --- - --- ----- ----- ----<br>---- --- --- ----- --- ---- ---- ------- ----- ---- -------<br>--- --- -- ----- -- --- ---- -- --- ---- -- ------ ------<br>--- ----- -- ----,46628.10000000056,46627.200000000186,45153.604,45163.90000000037,45170.274,46637.271,,14,feeling
screen,html.Screen,0_2_0_1_15,2022-05-13T10:55:54.054Z,,,,,,,,,,,,,,,,53,,,,,,,,,,,,,,789.4290000001856,,response,,,99,,,,,,Space,keypress(Space),,,,,---- -- ----- -- ------ - ------- --- ----------<br>------------- ------ ------ ---- ---- ------- close -- ----<br>-------- ------- -- ---------- --- - --- ----- ----- ----<br>---- --- --- ----- --- ---- ---- ------- ----- ---- -------<br>--- --- -- ----- -- --- ---- -- --- ---- -- ------ ------<br>--- ----- -- ----,47427.60000000056,47426.700000000186,46620.601,46628.300000000745,46637.271,47437.626,,15,close
screen,html.Screen,0_2_0_1_16,2022-05-13T10:55:54.534Z,,,,,,,,,,,,,,,,53,,,,,,,,,,,,,,469.0740000001897,,response,,,99,,,,,,Space,keypress(Space),,,,,---- -- ----- -- ------ - ------- --- ----------<br>------------- ------ ------ ---- ---- ------- ----- to ----<br>-------- ------- -- ---------- --- - --- ----- ----- ----<br>---- --- --- ----- --- ---- ---- ------- ----- ---- -------<br>--- --- -- ----- -- --- ---- -- --- ---- -- ------ ------<br>--- ----- -- ----,47907.60000000056,47906.700000000186,47420.954,47427.800000000745,47437.626,47920.955,,16,to
screen,html.Screen,0_2_0_1_17,2022-05-13T10:55:55.006Z,,,,,,,,,,,,,,,,53,,,,,,,,,,,,,,457.7450000001845,,response,,,99,,,,,,Space,keypress(Space),,,,,---- -- ----- -- ------ - ------- --- ----------<br>------------- ------ ------ ---- ---- ------- ----- -- your<br>-------- ------- -- ---------- --- - --- ----- ----- ----<br>---- --- --- ----- --- ---- ---- ------- ----- ---- -------<br>--- --- -- ----- -- --- ---- -- --- ---- -- ------ ------<br>--- ----- -- ----,48379.60000000056,48378.700000000186,47904.285,47907.90000000037,47920.955,48387.912,,17,your
screen,html.Screen,0_2_0_1_18,2022-05-13T10:55:55.558Z,,,,,,,,,,,,,,,,53,,,,,,,,,,,,,,542.6880000005622,,response,,,99,,,,,,Space,keypress(Space),,,,,---- -- ----- -- ------ - ------- --- ----------<br>------------- ------ ------ ---- ---- ------- ----- -- ----<br>romantic ------- -- ---------- --- - --- ----- ----- ----<br>---- --- --- ----- --- ---- ---- ------- ----- ---- -------<br>--- --- -- ----- -- --- ---- -- --- ---- -- ------ ------<br>--- ----- -- ----,48931.40000000037,48930.60000000056,48371.24,48379.800000000745,48387.912,48937.926,,18,romantic
screen,html.Screen,0_2_0_1_19,2022-05-13T10:55:56.038Z,,,,,,,,,,,,,,,,53,,,,,,,,,,,,,,472.6740000005593,,response,,,99,,,,,,Space,keypress(Space),,,,,---- -- ----- -- ------ - ------- --- ----------<br>------------- ------ ------ ---- ---- ------- ----- -- ----<br>-------- partner -- ---------- --- - --- ----- ----- ----<br>---- --- --- ----- --- ---- ---- ------- ----- ---- -------<br>--- --- -- ----- -- --- ---- -- --- ---- -- ------ ------<br>--- ----- -- ----,49411.5,49410.60000000056,48921.256,48931.700000000186,48937.926,49421.46,,19,partner
screen,html.Screen,0_2_0_1_20,2022-05-13T10:55:56.630Z,,,,,,,,,,,,,,,,53,,,,,,,,,,,,,,581.1400000005597,,response,,,99,,,,,,Space,keypress(Space),,,,,---- -- ----- -- ------ - ------- --- ----------<br>------------- ------ ------ ---- ---- ------- ----- -- ----<br>-------- ------- is ---------- --- - --- ----- ----- ----<br>---- --- --- ----- --- ---- ---- ------- ----- ---- -------<br>--- --- -- ----- -- --- ---- -- --- ---- -- ------ ------<br>--- ----- -- ----,50003.300000000745,50002.60000000056,49404.789,49411.800000000745,49421.46,50004.873,,20,is
screen,html.Screen,0_2_0_1_21,2022-05-13T10:56:04.973Z,,,,,,,,,,,,,,,,53,,,,,,,,,,,,,,8341.22700000056,,response,,,99,,,,,,Space,keypress(Space),,,,,---- -- ----- -- ------ - ------- --- ----------<br>------------- ------ ------ ---- ---- ------- ----- -- ----<br>-------- ------- -- paramount. --- - --- ----- ----- ----<br>---- --- --- ----- --- ---- ---- ------- ----- ---- -------<br>--- --- -- ----- -- --- ---- -- --- ---- -- ------ ------<br>--- ----- -- ----,58347.10000000056,58346.10000000056,49988.203,50003.60000000056,50004.873,58357.121,,21,paramount.
screen,html.Screen,0_2_0_1_22,2022-05-13T10:56:05.629Z,,,,,,,,,,,,,,,,53,,,,,,,,,,,,,,644.9790000005596,,response,,,99,,,,,,Space,keypress(Space),,,,,---- -- ----- -- ------ - ------- --- ----------<br>------------- ------ ------ ---- ---- ------- ----- -- ----<br>-------- ------- -- ---------- But - --- ----- ----- ----<br>---- --- --- ----- --- ---- ---- ------- ----- ---- -------<br>--- --- -- ----- -- --- ---- -- --- ---- -- ------ ------<br>--- ----- -- ----,59003,59002.10000000056,58340.45,58347.40000000037,58357.121,59007.024,,22,But
screen,html.Screen,0_2_0_1_23,2022-05-13T10:56:06.133Z,,,,,,,,,,,,,,,,53,,,,,,,,,,,,,,499.0760000005612,,response,,,99,,,,,,Space,keypress(Space),,,,,---- -- ----- -- ------ - ------- --- ----------<br>------------- ------ ------ ---- ---- ------- ----- -- ----<br>-------- ------- -- ---------- --- a --- ----- ----- ----<br>---- --- --- ----- --- ---- ---- ------- ----- ---- -------<br>--- --- -- ----- -- --- ---- -- --- ---- -- ------ ------<br>--- ----- -- ----,59507,59506.10000000056,58990.354,59003.300000000745,59007.024,59523.922,,23,a
screen,html.Screen,0_2_0_1_24,2022-05-13T10:56:06.501Z,,,,,,,,,,,,,,,,53,,,,,,,,,,,,,,350.17800000056013,,response,,,99,,,,,,Space,keypress(Space),,,,,---- -- ----- -- ------ - ------- --- ----------<br>------------- ------ ------ ---- ---- ------- ----- -- ----<br>-------- ------- -- ---------- --- - new ----- ----- ----<br>---- --- --- ----- --- ---- ---- ------- ----- ---- -------<br>--- --- -- ----- -- --- ---- -- --- ---- -- ------ ------<br>--- ----- -- ----,59874.90000000037,59874.10000000056,59507.252,59507.300000000745,59523.922,59890.878,,24,new
screen,html.Screen,0_2_0_1_25,2022-05-13T10:56:06.857Z,,,,,,,,,,,,,,,,53,,,,,,,,,,,,,,335.122000000003,,response,,,99,,,,,,Space,keypress(Space),,,,,---- -- ----- -- ------ - ------- --- ----------<br>------------- ------ ------ ---- ---- ------- ----- -- ----<br>-------- ------- -- ---------- --- - --- study ----- ----<br>---- --- --- ----- --- ---- ---- ------- ----- ---- -------<br>--- --- -- ----- -- --- ---- -- --- ---- -- ------ ------<br>--- ----- -- ----,60227,60226,59874.206,59875.10000000056,59890.878,60240.881,,25,study
screen,html.Screen,0_2_0_1_26,2022-05-13T10:56:07.385Z,,,,,,,,,,,,,,,,53,,,,,,,,,,,,,,513.1189999999988,,response,,,99,,,,,,Space,keypress(Space),,,,,---- -- ----- -- ------ - ------- --- ----------<br>------------- ------ ------ ---- ---- ------- ----- -- ----<br>-------- ------- -- ---------- --- - --- ----- finds ----<br>---- --- --- ----- --- ---- ---- ------- ----- ---- -------<br>--- --- -- ----- -- --- ---- -- --- ---- -- ------ ------<br>--- ----- -- ----,60754.90000000037,60754,60224.211,60227.200000000186,60240.881,60757.67,,26,finds
screen,html.Screen,0_2_0_1_27,2022-05-13T10:56:08.217Z,,,,,,,,,,,,,,,,53,,,,,,,,,,,,,,828.3300000000017,,response,,,99,,,,,,Space,keypress(Space),,,,,---- -- ----- -- ------ - ------- --- ----------<br>------------- ------ ------ ---- ---- ------- ----- -- ----<br>-------- ------- -- ---------- --- - --- ----- ----- that<br>---- --- --- ----- --- ---- ---- ------- ----- ---- -------<br>--- --- -- ----- -- --- ---- -- --- ---- -- ------ ------<br>--- ----- -- ----,61586.700000000186,61586,60741,60755.200000000186,60757.67,61591.202,,27,that
screen,html.Screen,0_2_0_1_28,2022-05-13T10:56:08.673Z,,,,,,,,,,,,,,,,53,,,,,,,,,,,,,,450.7980000000025,,response,,,99,,,,,,Space,keypress(Space),,,,,---- -- ----- -- ------ - ------- --- ----------<br>------------- ------ ------ ---- ---- ------- ----- -- ----<br>-------- ------- -- ---------- --- - --- ----- ----- ----<br>it's --- --- ----- --- ---- ---- ------- ----- ---- -------<br>--- --- -- ----- -- --- ---- -- --- ---- -- ------ ------<br>--- ----- -- ----,62042.700000000186,62042,61574.532,61587,61591.202,62057.989,,28,it's
screen,html.Screen,0_2_0_1_29,2022-05-13T10:56:09.081Z,,,,,,,,,,,,,,,,53,,,,,,,,,,,,,,391.81100000074366,,response,,,99,,,,,,Space,keypress(Space),,,,,---- -- ----- -- ------ - ------- --- ----------<br>------------- ------ ------ ---- ---- ------- ----- -- ----<br>-------- ------- -- ---------- --- - --- ----- ----- ----<br>---- not --- ----- --- ---- ---- ------- ----- ---- -------<br>--- --- -- ----- -- --- ---- -- --- ---- -- ------ ------<br>--- ----- -- ----,62450.700000000186,62449.800000000745,62041.319,62043,62057.989,62458.111,,29,not
screen,html.Screen,0_2_0_1_30,2022-05-13T10:56:09.497Z,,,,,,,,,,,,,,,,53,,,,,,,,,,,,,,407.7890000003754,,response,,,99,,,,,,Space,keypress(Space),,,,,---- -- ----- -- ------ - ------- --- ----------<br>------------- ------ ------ ---- ---- ------- ----- -- ----<br>-------- ------- -- ---------- --- - --- ----- ----- ----<br>---- --- how ----- --- ---- ---- ------- ----- ---- -------<br>--- --- -- ----- -- --- ---- -- --- ---- -- ------ ------<br>--- ----- -- ----,62866.700000000186,62865.90000000037,62441.441,62450.90000000037,62458.111,62874.924,,30,how
screen,html.Screen,0_2_0_1_31,2022-05-13T10:56:09.921Z,,,,,,,,,,,,,,,,53,,,,,,,,,,,,,,414.97600000037346,,response,,,99,,,,,,Space,keypress(Space),,,,,---- -- ----- -- ------ - ------- --- ----------<br>------------- ------ ------ ---- ---- ------- ----- -- ----<br>-------- ------- -- ---------- --- - --- ----- ----- ----<br>---- --- --- close --- ---- ---- ------- ----- ---- -------<br>--- --- -- ----- -- --- ---- -- --- ---- -- ------ ------<br>--- ----- -- ----,63290.800000000745,63289.90000000037,62858.253,62866.90000000037,62874.924,63308.306,,31,close
screen,html.Screen,0_2_0_1_32,2022-05-13T10:56:10.337Z,,,,,,,,,,,,,,,,53,,,,,,,,,,,,,,397.4940000007482,,response,,,99,,,,,,Space,keypress(Space),,,,,---- -- ----- -- ------ - ------- --- ----------<br>------------- ------ ------ ---- ---- ------- ----- -- ----<br>-------- ------- -- ---------- --- - --- ----- ----- ----<br>---- --- --- ----- you ---- ---- ------- ----- ---- -------<br>--- --- -- ----- -- --- ---- -- --- ---- -- ------ ------<br>--- ----- -- ----,63706.60000000056,63705.800000000745,63291.636,63291.10000000056,63308.306,63708.472,,32,you
screen,html.Screen,0_2_0_1_33,2022-05-13T10:56:10.745Z,,,,,,,,,,,,,,,,53,,,,,,,,,,,,,,405.42800000037096,,response,,,99,,,,,,Space,keypress(Space),,,,,---- -- ----- -- ------ - ------- --- ----------<br>------------- ------ ------ ---- ---- ------- ----- -- ----<br>-------- ------- -- ---------- --- - --- ----- ----- ----<br>---- --- --- ----- --- feel ---- ------- ----- ---- -------<br>--- --- -- ----- -- --- ---- -- --- ---- -- ------ ------<br>--- ----- -- ----,64114.60000000056,64113.90000000037,63691.801,63706.800000000745,63708.472,64125.198,,33,feel
screen,html.Screen,0_2_0_1_34,2022-05-13T10:56:11.217Z,,,,,,,,,,,,,,,,53,,,,,,,,,,,,,,460.6020000007484,,response,,,99,,,,,,Space,keypress(Space),,,,,---- -- ----- -- ------ - ------- --- ----------<br>------------- ------ ------ ---- ---- ------- ----- -- ----<br>-------- ------- -- ---------- --- - --- ----- ----- ----<br>---- --- --- ----- --- ---- that ------- ----- ---- -------<br>--- --- -- ----- -- --- ---- -- --- ---- -- ------ ------<br>--- ----- -- ----,64586.700000000186,64585.800000000745,64108.528,64114.90000000037,64125.198,64592.058,,34,that
screen,html.Screen,0_2_0_1_35,2022-05-13T10:56:11.865Z,,,,,,,,,,,,,,,,53,,,,,,,,,,,,,,641.7420000007478,,response,,,99,,,,,,Space,keypress(Space),,,,,---- -- ----- -- ------ - ------- --- ----------<br>------------- ------ ------ ---- ---- ------- ----- -- ----<br>-------- ------- -- ---------- --- - --- ----- ----- ----<br>---- --- --- ----- --- ---- ---- matters ----- ---- -------<br>--- --- -- ----- -- --- ---- -- --- ---- -- ------ ------<br>--- ----- -- ----,65234.60000000056,65233.800000000745,64575.387,64586.90000000037,64592.058,65241.957,,35,matters
screen,html.Screen,0_2_0_1_36,2022-05-13T10:56:12.441Z,,,,,,,,,,,,,,,,53,,,,,,,,,,,,,,567.7430000001841,,response,,,99,,,,,,Space,keypress(Space),,,,,"---- -- ----- -- ------ - ------- --- ----------<br>------------- ------ ------ ---- ---- ------- ----- -- ----<br>-------- ------- -- ---------- --- - --- ----- ----- ----<br>---- --- --- ----- --- ---- ---- ------- most, ---- -------<br>--- --- -- ----- -- --- ---- -- --- ---- -- ------ ------<br>--- ----- -- ----",65811,65809.70000000019,65225.289,65234.800000000745,65241.957,65825.713,,36,"most,"
screen,html.Screen,0_2_0_1_37,2022-05-13T10:56:12.929Z,,,,,,,,,,,,,,,,53,,,,,,,,,,,,,,472.0870000007417,,response,,,99,,,,,,Space,keypress(Space),,,,,---- -- ----- -- ------ - ------- --- ----------<br>------------- ------ ------ ---- ---- ------- ----- -- ----<br>-------- ------- -- ---------- --- - --- ----- ----- ----<br>---- --- --- ----- --- ---- ---- ------- ----- it's -------<br>--- --- -- ----- -- --- ---- -- --- ---- -- ------ ------<br>--- ----- -- ----,66298.90000000037,66297.80000000075,65809.041,65811.10000000056,65825.713,66308.952,,37,it's
screen,html.Screen,0_2_0_1_38,2022-05-13T10:56:13.393Z,,,,,,,,,,,,,,,,53,,,,,,,,,,,,,,452.7480000001815,,response,,,99,,,,,,Space,keypress(Space),,,,,---- -- ----- -- ------ - ------- --- ----------<br>------------- ------ ------ ---- ---- ------- ----- -- ----<br>-------- ------- -- ---------- --- - --- ----- ----- ----<br>---- --- --- ----- --- ---- ---- ------- ----- ---- whether<br>--- --- -- ----- -- --- ---- -- --- ---- -- ------ ------<br>--- ----- -- ----,66762.5,66761.70000000019,66292.283,66299.10000000056,66308.952,66775.872,,38,whether
screen,html.Screen,0_2_0_1_39,2022-05-13T10:56:13.801Z,,,,,,,,,,,,,,,,53,,,,,,,,,,,,,,394.127999999997,,response,,,99,,,,,,Space,keypress(Space),,,,,---- -- ----- -- ------ - ------- --- ----------<br>------------- ------ ------ ---- ---- ------- ----- -- ----<br>-------- ------- -- ---------- --- - --- ----- ----- ----<br>---- --- --- ----- --- ---- ---- ------- ----- ---- -------<br>you --- -- ----- -- --- ---- -- --- ---- -- ------ ------<br>--- ----- -- ----,67170.90000000037,67170,66759.201,66762.70000000019,66775.872,67176.09,,39,you
screen,html.Screen,0_2_0_1_40,2022-05-13T10:56:14.201Z,,,,,,,,,,,,,,,,53,,,,,,,,,,,,,,393.5100000005623,,response,,,99,,,,,,Space,keypress(Space),,,,,---- -- ----- -- ------ - ------- --- ----------<br>------------- ------ ------ ---- ---- ------- ----- -- ----<br>-------- ------- -- ---------- --- - --- ----- ----- ----<br>---- --- --- ----- --- ---- ---- ------- ----- ---- -------<br>--- are -- ----- -- --- ---- -- --- ---- -- ------ ------<br>--- ----- -- ----,67570.5,67569.60000000056,67159.418,67171.10000000056,67176.09,67576.09,,40,are
screen,html.Screen,0_2_0_1_41,2022-05-13T10:56:14.617Z,,,,,,,,,,,,,,,,53,,,,,,,,,,,,,,409.4100000000035,,response,,,99,,,,,,Space,keypress(Space),,,,,---- -- ----- -- ------ - ------- --- ----------<br>------------- ------ ------ ---- ---- ------- ----- -- ----<br>-------- ------- -- ---------- --- - --- ----- ----- ----<br>---- --- --- ----- --- ---- ---- ------- ----- ---- -------<br>--- --- as ----- -- --- ---- -- --- ---- -- ------ ------<br>--- ----- -- ----,67986.40000000037,67985.5,67559.42,67570.80000000075,67576.09,67992.848,,41,as
screen,html.Screen,0_2_0_1_42,2022-05-13T10:56:15.721Z,,,,,,,,,,,,,,,,53,,,,,,,,,,,,,,1096.6520000000019,,response,,,99,,,,,,Space,keypress(Space),,,,,---- -- ----- -- ------ - ------- --- ----------<br>------------- ------ ------ ---- ---- ------- ----- -- ----<br>-------- ------- -- ---------- --- - --- ----- ----- ----<br>---- --- --- ----- --- ---- ---- ------- ----- ---- -------<br>--- --- -- close -- --- ---- -- --- ---- -- ------ ------<br>--- ----- -- ----,69090.40000000037,69089.5,67976.178,67986.5,67992.848,69093.189,,42,close
screen,html.Screen,0_2_0_1_43,2022-05-13T10:56:16.177Z,,,,,,,,,,,,,,,,53,,,,,,,,,,,,,,452.3110000000015,,response,,,99,,,,,,Space,keypress(Space),,,,,---- -- ----- -- ------ - ------- --- ----------<br>------------- ------ ------ ---- ---- ------- ----- -- ----<br>-------- ------- -- ---------- --- - --- ----- ----- ----<br>---- --- --- ----- --- ---- ---- ------- ----- ---- -------<br>--- --- -- ----- as --- ---- -- --- ---- -- ------ ------<br>--- ----- -- ----,69546.30000000075,69545.5,69076.518,69090.60000000056,69093.189,69559.934,,43,as
screen,html.Screen,0_2_0_1_44,2022-05-13T10:56:16.536Z,,,,,,,,,,,,,,,,53,,,,,,,,,,,,,,345.56600000000617,,response,,,99,,,,,,Space,keypress(Space),,,,,---- -- ----- -- ------ - ------- --- ----------<br>------------- ------ ------ ---- ---- ------- ----- -- ----<br>-------- ------- -- ---------- --- - --- ----- ----- ----<br>---- --- --- ----- --- ---- ---- ------- ----- ---- -------<br>--- --- -- ----- -- you ---- -- --- ---- -- ------ ------<br>--- ----- -- ----,69906.30000000075,69905.5,69543.264,69546.60000000056,69559.934,69910.037,,44,you
screen,html.Screen,0_2_0_1_45,2022-05-13T10:56:16.969Z,,,,,,,,,,,,,,,,53,,,,,,,,,,,,,,427.4630000000034,,response,,,99,,,,,,Space,keypress(Space),,,,,---- -- ----- -- ------ - ------- --- ----------<br>------------- ------ ------ ---- ---- ------- ----- -- ----<br>-------- ------- -- ---------- --- - --- ----- ----- ----<br>---- --- --- ----- --- ---- ---- ------- ----- ---- -------<br>--- --- -- ----- -- --- want -- --- ---- -- ------ ------<br>--- ----- -- ----,70338.30000000075,70337.5,69893.367,69906.5,69910.037,70343.516,,45,want
screen,html.Screen,0_2_0_1_46,2022-05-13T10:56:17.416Z,,,,,,,,,,,,,,,,53,,,,,,,,,,,,,,441.98399999999674,,response,,,99,,,,,,Space,keypress(Space),,,,,---- -- ----- -- ------ - ------- --- ----------<br>------------- ------ ------ ---- ---- ------- ----- -- ----<br>-------- ------- -- ---------- --- - --- ----- ----- ----<br>---- --- --- ----- --- ---- ---- ------- ----- ---- -------<br>--- --- -- ----- -- --- ---- to --- ---- -- ------ ------<br>--- ----- -- ----,70786.20000000019,70785.5,70326.845,70338.60000000056,70343.516,70793.572,,46,to
screen,html.Screen,0_2_0_1_47,2022-05-13T10:56:17.816Z,,,,,,,,,,,,,,,,53,,,,,,,,,,,,,,391.9279999999999,,response,,,99,,,,,,Space,keypress(Space),,,,,"---- -- ----- -- ------ - ------- --- ----------<br>------------- ------ ------ ---- ---- ------- ----- -- ----<br>-------- ------- -- ---------- --- - --- ----- ----- ----<br>---- --- --- ----- --- ---- ---- ------- ----- ---- -------<br>--- --- -- ----- -- --- ---- -- be, ---- -- ------ ------<br>--- ----- -- ----",71186.30000000075,71185.5,70776.902,70786.5,70793.572,71193.681,,47,"be,"
screen,html.Screen,0_2_0_1_48,2022-05-13T10:56:18.257Z,,,,,,,,,,,,,,,,53,,,,,,,,,,,,,,431.7190000003757,,response,,,99,,,,,,Space,keypress(Space),,,,,---- -- ----- -- ------ - ------- --- ----------<br>------------- ------ ------ ---- ---- ------- ----- -- ----<br>-------- ------- -- ---------- --- - --- ----- ----- ----<br>---- --- --- ----- --- ---- ---- ------- ----- ---- -------<br>--- --- -- ----- -- --- ---- -- --- even -- ------ ------<br>--- ----- -- ----,71626.40000000037,71625.40000000037,71177.011,71186.5,71193.681,71643.8,,48,even
screen,html.Screen,0_2_0_1_49,2022-05-13T10:56:18.680Z,,,,,,,,,,,,,,,,53,,,,,,,,,,,,,,405.6000000003696,,response,,,99,,,,,,Space,keypress(Space),,,,,---- -- ----- -- ------ - ------- --- ----------<br>------------- ------ ------ ---- ---- ------- ----- -- ----<br>-------- ------- -- ---------- --- - --- ----- ----- ----<br>---- --- --- ----- --- ---- ---- ------- ----- ---- -------<br>--- --- -- ----- -- --- ---- -- --- ---- if ------ ------<br>--- ----- -- ----,72050.20000000019,72049.40000000037,71627.13,71626.60000000056,71643.8,72060.615,,49,if
screen,html.Screen,0_2_0_1_50,2022-05-13T10:56:19.048Z,,,,,,,,,,,,,,,,53,,,,,,,,,,,,,,356.38499999999476,,response,,,99,,,,,,Space,keypress(Space),,,,,---- -- ----- -- ------ - ------- --- ----------<br>------------- ------ ------ ---- ---- ------- ----- -- ----<br>-------- ------- -- ---------- --- - --- ----- ----- ----<br>---- --- --- ----- --- ---- ---- ------- ----- ---- -------<br>--- --- -- ----- -- --- ---- -- --- ---- -- that's ------<br>--- ----- -- ----,72417.40000000037,72417,72043.944,72050.40000000037,72060.615,72427.352,,50,that's
screen,html.Screen,0_2_0_1_51,2022-05-13T10:56:19.520Z,,,,,,,,,,,,,,,,53,,,,,,,,,,,,,,461.9480000007461,,response,,,99,,,,,,Space,keypress(Space),,,,,---- -- ----- -- ------ - ------- --- ----------<br>------------- ------ ------ ---- ---- ------- ----- -- ----<br>-------- ------- -- ---------- --- - --- ----- ----- ----<br>---- --- --- ----- --- ---- ---- ------- ----- ---- -------<br>--- --- -- ----- -- --- ---- -- --- ---- -- ------ really<br>--- ----- -- ----,72890.10000000056,72889.30000000075,72410.682,72417.40000000037,72427.352,72894.107,,51,really
screen,html.Screen,0_2_0_1_52,2022-05-13T10:56:19.896Z,,,,,,,,,,,,,,,,53,,,,,,,,,,,,,,371.19300000074145,,response,,,99,,,,,,Space,keypress(Space),,,,,---- -- ----- -- ------ - ------- --- ----------<br>------------- ------ ------ ---- ---- ------- ----- -- ----<br>-------- ------- -- ---------- --- - --- ----- ----- ----<br>---- --- --- ----- --- ---- ---- ------- ----- ---- -------<br>--- --- -- ----- -- --- ---- -- --- ---- -- ------ ------<br>not ----- -- ----,73266.20000000019,73265.30000000075,72877.437,72890.40000000037,72894.107,73277.352,,52,not
screen,html.Screen,0_2_0_1_53,2022-05-13T10:56:20.272Z,,,,,,,,,,,,,,,,53,,,,,,,,,,,,,,363.9480000007461,,response,,,99,,,,,,Space,keypress(Space),,,,,---- -- ----- -- ------ - ------- --- ----------<br>------------- ------ ------ ---- ---- ------- ----- -- ----<br>-------- ------- -- ---------- --- - --- ----- ----- ----<br>---- --- --- ----- --- ---- ---- ------- ----- ---- -------<br>--- --- -- ----- -- --- ---- -- --- ---- -- ------ ------<br>--- close -- ----,73642.10000000056,73641.30000000075,73260.685,73266.5,73277.352,73644.449,,53,close
screen,html.Screen,0_2_0_1_54,2022-05-13T10:56:20.656Z,,,,,,,,,,,,,,,,53,,,,,,,,,,,,,,380.8510000007518,,response,,,99,,,,,,Space,keypress(Space),,,,,---- -- ----- -- ------ - ------- --- ----------<br>------------- ------ ------ ---- ---- ------- ----- -- ----<br>-------- ------- -- ---------- --- - --- ----- ----- ----<br>---- --- --- ----- --- ---- ---- ------- ----- ---- -------<br>--- --- -- ----- -- --- ---- -- --- ---- -- ------ ------<br>--- ----- at ----,74026.10000000056,74025.30000000075,73627.776,73642.30000000075,73644.449,74027.743,,54,at
screen,html.Screen,0_2_0_1_55,2022-05-13T10:56:20.992Z,,,,,,,,,,,,,,,,53,,,,,,,,,,,,,,333.45700000018405,,response,,,99,,,,,,Space,keypress(Space),,,,,---- -- ----- -- ------ - ------- --- ----------<br>------------- ------ ------ ---- ---- ------- ----- -- ----<br>-------- ------- -- ---------- --- - --- ----- ----- ----<br>---- --- --- ----- --- ---- ---- ------- ----- ---- -------<br>--- --- -- ----- -- --- ---- -- --- ---- -- ------ ------<br>--- ----- -- all.,74362.10000000056,74361.20000000019,74011.073,74026.30000000075,74027.743,74377.85,,55,all.
Item 99,flow.Loop,0_2_0_1,2022-05-13T10:56:20.998Z,,,,,,,,,,,,,,,,,,,,,,,,,,,,,,42277.573000000186,,completion,,,,D,,,,,,,,,,silence,,74367.70000000019,74361.20000000019,32016.943,32025.10000000056,32083.627,74377.85,,,
Question 1,html.Screen,0_2_0_2,2022-05-13T10:56:31.818Z,,,,,,,,,,,,,,,,,,,,,,,,,,,true,FALSE,,10808.35000000018,,response,,,99,D,,,,,FALSE,click #choice-2,,,,silence,,85187.70000000019,85186.20000000019,74361.18,74367.90000000037,74377.85,85197.045,,,
Question 2,html.Screen,0_2_0_3,2022-05-13T10:56:40.399Z,,,,,,,,,,,,,,,,,,,,,,,,,,,false,TRUE,,8570.355000000374,,response,,,99,D,,,,,FALSE,click #choice-2,,,,silence,,93768.60000000056,93767.40000000037,85180.38,85187.90000000037,85197.045,93782.964,,,
Item 99,flow.Sequence,0_2_0,2022-05-13T10:56:40.399Z,,,,,,,,,,,,,,,,,,,,,,,,,,,,,,71736.46700000037,,completion,,,,,,,,,,,,,,,,93769,93767.40000000037,22014.263,22022.60000000056,22030.933,93782.964,,,
Holding screen,html.Screen,0_2_1_0,2022-05-13T10:56:50.400Z,,,,,,,,,,,,,,,,,,,,,,,,,,,,,,10002.478999999992,,timeout,,,,,,,,,,,,,,,,103769.80000000075,103768.772,93766.292,93769.5,93782.964,103785.443,,,
screen,html.Screen,0_2_1_1_0,2022-05-13T10:57:06.006Z,,,,,,,,,,,,,,,,54,,,,,,,,,,,,,,15589.857000000746,,response,,,100,,,,,,Space,keypress(Space),,,,,At --- ---- --- ------ ----- ------- ---- -- --- ------- --<br>------- ---------- ------ -- ----- -- ----- -- ---- ------<br>--- ----- --- --- ------ -------- ----- --- ------ ----- --<br>----- ----- ---------- --- --- ------ ------ ---- -- ------<br>------- --- ------ ----- --- ---- ------- -- ---- --- --<br>------- ------,119376.30000000075,119375.30000000075,103768.772,103773,103785.443,119388.556,,0,At
screen,html.Screen,0_2_1_1_1,2022-05-13T10:57:06.606Z,,,,,,,,,,,,,,,,54,,,,,,,,,,,,,,586.0440000005619,,response,,,100,,,,,,Space,keypress(Space),,,,,-- the ---- --- ------ ----- ------- ---- -- --- ------- --<br>------- ---------- ------ -- ----- -- ----- -- ---- ------<br>--- ----- --- --- ------ -------- ----- --- ------ ----- --<br>----- ----- ---------- --- --- ------ ------ ---- -- ------<br>------- --- ------ ----- --- ---- ------- -- ---- --- --<br>------- ------,119975.60000000056,119974.60000000056,119371.886,119376.5,119388.556,119989.484,,1,the
screen,html.Screen,0_2_1_1_2,2022-05-13T10:57:07.018Z,,,,,,,,,,,,,,,,54,,,,,,,,,,,,,,393.51600000000326,,response,,,100,,,,,,Space,keypress(Space),,,,,-- --- time --- ------ ----- ------- ---- -- --- ------- --<br>------- ---------- ------ -- ----- -- ----- -- ---- ------<br>--- ----- --- --- ------ -------- ----- --- ------ ----- --<br>----- ----- ---------- --- --- ------ ------ ---- -- ------<br>------- --- ------ ----- --- ---- ------- -- ---- --- --<br>------- ------,120384,120383,119972.814,119975.90000000037,119989.484,120389.635,,2,time
screen,html.Screen,0_2_1_1_3,2022-05-13T10:57:07.441Z,,,,,,,,,,,,,,,,54,,,,,,,,,,,,,,417.0650000001915,,response,,,100,,,,,,Space,keypress(Space),,,,,-- --- ---- the ------ ----- ------- ---- -- --- ------- --<br>------- ---------- ------ -- ----- -- ----- -- ---- ------<br>--- ----- --- --- ------ -------- ----- --- ------ ----- --<br>----- ----- ---------- --- --- ------ ------ ---- -- ------<br>------- --- ------ ----- --- ---- ------- -- ---- --- --<br>------- ------,120807.5,120806.70000000019,120372.965,120384.30000000075,120389.635,120823.224,,3,the
screen,html.Screen,0_2_1_1_4,2022-05-13T10:57:07.945Z,,,,,,,,,,,,,,,,54,,,,,,,,,,,,,,487.3760000005568,,response,,,100,,,,,,Space,keypress(Space),,,,,-- --- ---- --- French ----- ------- ---- -- --- ------- --<br>------- ---------- ------ -- ----- -- ----- -- ---- ------<br>--- ----- --- --- ------ -------- ----- --- ------ ----- --<br>----- ----- ---------- --- --- ------ ------ ---- -- ------<br>------- --- ------ ----- --- ---- ------- -- ---- --- --<br>------- ------,121311.5,121310.60000000056,120806.552,120807.80000000075,120823.224,121323.243,,4,French
screen,html.Screen,0_2_1_1_5,2022-05-13T10:57:08.433Z,,,,,,,,,,,,,,,,54,,,,,,,,,,,,,,475.3570000005566,,response,,,100,,,,,,Space,keypress(Space),,,,,-- --- ---- --- ------ crown ------- ---- -- --- ------- --<br>------- ---------- ------ -- ----- -- ----- -- ---- ------<br>--- ----- --- --- ------ -------- ----- --- ------ ----- --<br>----- ----- ---------- --- --- ------ ------ ---- -- ------<br>------- --- ------ ----- --- ---- ------- -- ---- --- --<br>------- ------,121799.60000000056,121798.60000000056,121306.573,121311.80000000075,121323.243,121806.756,,5,crown
screen,html.Screen,0_2_1_1_6,2022-05-13T10:57:08.857Z,,,,,,,,,,,,,,,,54,,,,,,,,,,,,,,415.74400000000605,,response,,,100,,,,,,Space,keypress(Space),,,,,-- --- ---- --- ------ ----- secured ---- -- --- ------- --<br>------- ---------- ------ -- ----- -- ----- -- ---- ------<br>--- ----- --- --- ------ -------- ----- --- ------ ----- --<br>----- ----- ---------- --- --- ------ ------ ---- -- ------<br>------- --- ------ ----- --- ---- ------- -- ---- --- --<br>------- ------,122223.40000000037,122222.5,121790.085,121799.80000000075,121806.756,122239.999,,6,secured
screen,html.Screen,0_2_1_1_7,2022-05-13T10:57:09.369Z,,,,,,,,,,,,,,,,54,,,,,,,,,,,,,,494.60100000056264,,response,,,100,,,,,,Space,keypress(Space),,,,,-- --- ---- --- ------ ----- ------- much -- --- ------- --<br>------- ---------- ------ -- ----- -- ----- -- ---- ------<br>--- ----- --- --- ------ -------- ----- --- ------ ----- --<br>----- ----- ---------- --- --- ------ ------ ---- -- ------<br>------- --- ------ ----- --- ---- ------- -- ---- --- --<br>------- ------,122735.40000000037,122734.60000000056,122223.331,122223.60000000056,122239.999,122740.402,,7,much
screen,html.Screen,0_2_1_1_8,2022-05-13T10:57:09.825Z,,,,,,,,,,,,,,,,54,,,,,,,,,,,,,,450.09799999999814,,response,,,100,,,,,,Space,keypress(Space),,,,,-- --- ---- --- ------ ----- ------- ---- of --- ------- --<br>------- ---------- ------ -- ----- -- ----- -- ---- ------<br>--- ----- --- --- ------ -------- ----- --- ------ ----- --<br>----- ----- ---------- --- --- ------ ------ ---- -- ------<br>------- --- ------ ----- --- ---- ------- -- ---- --- --<br>------- ------,123191.40000000037,123190.5,122723.73,122735.70000000019,122740.402,123207.081,,8,of
screen,html.Screen,0_2_1_1_9,2022-05-13T10:57:10.353Z,,,,,,,,,,,,,,,,54,,,,,,,,,,,,,,511.4189999999944,,response,,,100,,,,,,Space,keypress(Space),,,,,-- --- ---- --- ------ ----- ------- ---- -- its ------- --<br>------- ---------- ------ -- ----- -- ----- -- ---- ------<br>--- ----- --- --- ------ -------- ----- --- ------ ----- --<br>----- ----- ---------- --- --- ------ ------ ---- -- ------<br>------- --- ------ ----- --- ---- ------- -- ---- --- --<br>------- ------,123719.40000000037,123718.5,123190.411,123191.70000000019,123207.081,123723.877,,9,its
screen,html.Screen,0_2_1_1_10,2022-05-13T10:57:11.209Z,,,,,,,,,,,,,,,,54,,,,,,,,,,,,,,850.6230000000069,,response,,,100,,,,,,Space,keypress(Space),,,,,-- --- ---- --- ------ ----- ------- ---- -- --- revenue --<br>------- ---------- ------ -- ----- -- ----- -- ---- ------<br>--- ----- --- --- ------ -------- ----- --- ------ ----- --<br>----- ----- ---------- --- --- ------ ------ ---- -- ------<br>------- --- ------ ----- --- ---- ------- -- ---- --- --<br>------- ------,124575.30000000075,124574.5,123707.207,123719.60000000056,123723.877,124590.745,,10,revenue
screen,html.Screen,0_2_1_1_11,2022-05-13T10:57:11.937Z,,,,,,,,,,,,,,,,54,,,,,,,,,,,,,,711.7550000000047,,response,,,100,,,,,,Space,keypress(Space),,,,,-- --- ---- --- ------ ----- ------- ---- -- --- ------- by<br>------- ---------- ------ -- ----- -- ----- -- ---- ------<br>--- ----- --- --- ------ -------- ----- --- ------ ----- --<br>----- ----- ---------- --- --- ------ ------ ---- -- ------<br>------- --- ------ ----- --- ---- ------- -- ---- --- --<br>------- ------,125303.40000000037,125302.5,124574.075,124575.60000000056,124590.745,125307.58,,11,by
screen,html.Screen,0_2_1_1_12,2022-05-13T10:57:12.889Z,,,,,,,,,,,,,,,,54,,,,,,,,,,,,,,946.8200000003708,,response,,,100,,,,,,Space,keypress(Space),,,,,-- --- ---- --- ------ ----- ------- ---- -- --- ------- --<br>issuing ---------- ------ -- ----- -- ----- -- ---- ------<br>--- ----- --- --- ------ -------- ----- --- ------ ----- --<br>----- ----- ---------- --- --- ------ ------ ---- -- ------<br>------- --- ------ ----- --- ---- ------- -- ---- --- --<br>------- ------,126255.20000000019,126254.40000000037,125290.91,125303.70000000019,125307.58,126257.907,,12,issuing
screen,html.Screen,0_2_1_1_13,2022-05-13T10:57:13.417Z,,,,,,,,,,,,,,,,54,,,,,,,,,,,,,,524.3930000007385,,response,,,100,,,,,,Space,keypress(Space),,,,,-- --- ---- --- ------ ----- ------- ---- -- --- ------- --<br>------- government ------ -- ----- -- ----- -- ---- ------<br>--- ----- --- --- ------ -------- ----- --- ------ ----- --<br>----- ----- ---------- --- --- ------ ------ ---- -- ------<br>------- --- ------ ----- --- ---- ------- -- ---- --- --<br>------- ------,126783.20000000019,126782.30000000075,126241.236,126255.40000000037,126257.907,126791.213,,13,government
screen,html.Screen,0_2_1_1_14,2022-05-13T10:57:13.889Z,,,,,,,,,,,,,,,,54,,,,,,,,,,,,,,463.18700000036915,,response,,,100,,,,,,Space,keypress(Space),,,,,-- --- ---- --- ------ ----- ------- ---- -- --- ------- --<br>------- ---------- bonds. -- ----- -- ----- -- ---- ------<br>--- ----- --- --- ------ -------- ----- --- ------ ----- --<br>----- ----- ---------- --- --- ------ ------ ---- -- ------<br>------- --- ------ ----- --- ---- ------- -- ---- --- --<br>------- ------,127255.20000000019,127254.40000000037,126774.544,126783.5,126791.213,127258.169,,14,bonds.
screen,html.Screen,0_2_1_1_15,2022-05-13T10:57:16.313Z,,,,,,,,,,,,,,,,54,,,,,,,,,,,,,,2420.531000000192,,response,,,100,,,,,,Space,keypress(Space),,,,,-- --- ---- --- ------ ----- ------- ---- -- --- ------- --<br>------- ---------- ------ In ----- -- ----- -- ---- ------<br>--- ----- --- --- ------ -------- ----- --- ------ ----- --<br>----- ----- ---------- --- --- ------ ------ ---- -- ------<br>------- --- ------ ----- --- ---- ------- -- ---- --- --<br>------- ------,129679.5,129678.70000000019,127241.498,127255.40000000037,127258.169,129691.955,,15,In
screen,html.Screen,0_2_1_1_16,2022-05-13T10:57:17.809Z,,,,,,,,,,,,,,,,54,,,,,,,,,,,,,,1482.2450000001845,,response,,,100,,,,,,Space,keypress(Space),,,,,"-- --- ---- --- ------ ----- ------- ---- -- --- ------- --<br>------- ---------- ------ -- 1727, -- ----- -- ---- ------<br>--- ----- --- --- ------ -------- ----- --- ------ ----- --<br>----- ----- ---------- --- --- ------ ------ ---- -- ------<br>------- --- ------ ----- --- ---- ------- -- ---- --- --<br>------- ------",131175,131174.2000000002,129675.285,129679.70000000019,129691.955,131192.387,,16,"1727,"
screen,html.Screen,0_2_1_1_17,2022-05-13T10:57:18.585Z,,,,,,,,,,,,,,,,54,,,,,,,,,,,,,,757.7130000005709,,response,,,100,,,,,,Space,keypress(Space),,,,,-- --- ---- --- ------ ----- ------- ---- -- --- ------- --<br>------- ---------- ------ -- ----- in ----- -- ---- ------<br>--- ----- --- --- ------ -------- ----- --- ------ ----- --<br>----- ----- ---------- --- --- ------ ------ ---- -- ------<br>------- --- ------ ----- --- ---- ------- -- ---- --- --<br>------- ------,131951,131950.10000000056,131175.717,131175.30000000075,131192.387,131959.186,,17,in
screen,html.Screen,0_2_1_1_18,2022-05-13T10:57:19.088Z,,,,,,,,,,,,,,,,54,,,,,,,,,,,,,,494.81400000001304,,response,,,100,,,,,,Space,keypress(Space),,,,,-- --- ---- --- ------ ----- ------- ---- -- --- ------- --<br>------- ---------- ------ -- ----- -- order -- ---- ------<br>--- ----- --- --- ------ -------- ----- --- ------ ----- --<br>----- ----- ---------- --- --- ------ ------ ---- -- ------<br>------- --- ------ ----- --- ---- ------- -- ---- --- --<br>------- ------,132454.90000000037,132454,131942.516,131951.30000000075,131959.186,132459.488,,18,order
screen,html.Screen,0_2_1_1_19,2022-05-13T10:57:19.505Z,,,,,,,,,,,,,,,,54,,,,,,,,,,,,,,410.5119999999879,,response,,,100,,,,,,Space,keypress(Space),,,,,-- --- ---- --- ------ ----- ------- ---- -- --- ------- --<br>------- ---------- ------ -- ----- -- ----- to ---- ------<br>--- ----- --- --- ------ -------- ----- --- ------ ----- --<br>----- ----- ---------- --- --- ------ ------ ---- -- ------<br>------- --- ------ ----- --- ---- ------- -- ---- --- --<br>------- ------,132871,132870,132442.817,132455.2000000002,132459.488,132876.232,,19,to
screen,html.Screen,0_2_1_1_20,2022-05-13T10:57:19.968Z,,,,,,,,,,,,,,,,54,,,,,,,,,,,,,,457.76800000001094,,response,,,100,,,,,,Space,keypress(Space),,,,,-- --- ---- --- ------ ----- ------- ---- -- --- ------- --<br>------- ---------- ------ -- ----- -- ----- -- save ------<br>--- ----- --- --- ------ -------- ----- --- ------ ----- --<br>----- ----- ---------- --- --- ------ ------ ---- -- ------<br>------- --- ------ ----- --- ---- ------- -- ---- --- --<br>------- ------,133334.90000000037,133334,132859.562,132871.30000000075,132876.232,133343.006,,20,save
screen,html.Screen,0_2_1_1_21,2022-05-13T10:57:20.440Z,,,,,,,,,,,,,,,,54,,,,,,,,,,,,,,462.99400000000605,,response,,,100,,,,,,Space,keypress(Space),,,,,"-- --- ---- --- ------ ----- ------- ---- -- --- ------- --<br>------- ---------- ------ -- ----- -- ----- -- ---- money,<br>--- ----- --- --- ------ -------- ----- --- ------ ----- --<br>----- ----- ---------- --- --- ------ ------ ---- -- ------<br>------- --- ------ ----- --- ---- ------- -- ---- --- --<br>------- ------",133806.90000000037,133806,133326.336,133335.10000000056,133343.006,133809.842,,21,"money,"
screen,html.Screen,0_2_1_1_22,2022-05-13T10:57:21.057Z,,,,,,,,,,,,,,,,54,,,,,,,,,,,,,,612.1579999999958,,response,,,100,,,,,,Space,keypress(Space),,,,,-- --- ---- --- ------ ----- ------- ---- -- --- ------- --<br>------- ---------- ------ -- ----- -- ----- -- ---- ------<br>the ----- --- --- ------ -------- ----- --- ------ ----- --<br>----- ----- ---------- --- --- ------ ------ ---- -- ------<br>------- --- ------ ----- --- ---- ------- -- ---- --- --<br>------- ------,134423,134422,133793.171,133807.10000000056,133809.842,134426.617,,22,the
screen,html.Screen,0_2_1_1_23,2022-05-13T10:57:21.552Z,,,,,,,,,,,,,,,,54,,,,,,,,,,,,,,491.28300000037416,,response,,,100,,,,,,Space,keypress(Space),,,,,-- --- ---- --- ------ ----- ------- ---- -- --- ------- --<br>------- ---------- ------ -- ----- -- ----- -- ---- ------<br>--- state --- --- ------ -------- ----- --- ------ ----- --<br>----- ----- ---------- --- --- ------ ------ ---- -- ------<br>------- --- ------ ----- --- ---- ------- -- ---- --- --<br>------- ------,134918.7000000002,134917.90000000037,134409.947,134423.30000000075,134426.617,134926.759,,23,state
screen,html.Screen,0_2_1_1_24,2022-05-13T10:57:22.032Z,,,,,,,,,,,,,,,,54,,,,,,,,,,,,,,471.1410000003816,,response,,,100,,,,,,Space,keypress(Space),,,,,-- --- ---- --- ------ ----- ------- ---- -- --- ------- --<br>------- ---------- ------ -- ----- -- ----- -- ---- ------<br>--- ----- cut --- ------ -------- ----- --- ------ ----- --<br>----- ----- ---------- --- --- ------ ------ ---- -- ------<br>------- --- ------ ----- --- ---- ------- -- ---- --- --<br>------- ------,135398.90000000037,135397.90000000037,134910.089,134919,134926.759,135410.12,,24,cut
screen,html.Screen,0_2_1_1_25,2022-05-13T10:57:22.504Z,,,,,,,,,,,,,,,,54,,,,,,,,,,,,,,459.7800000003772,,response,,,100,,,,,,Space,keypress(Space),,,,,-- --- ---- --- ------ ----- ------- ---- -- --- ------- --<br>------- ---------- ------ -- ----- -- ----- -- ---- ------<br>--- ----- --- the ------ -------- ----- --- ------ ----- --<br>----- ----- ---------- --- --- ------ ------ ---- -- ------<br>------- --- ------ ----- --- ---- ------- -- ---- --- --<br>------- ------,135870.7000000002,135869.90000000037,135393.451,135399.30000000075,135410.12,135877.049,,25,the
screen,html.Screen,0_2_1_1_26,2022-05-13T10:57:22.936Z,,,,,,,,,,,,,,,,54,,,,,,,,,,,,,,424.751000000746,,response,,,100,,,,,,Space,keypress(Space),,,,,-- --- ---- --- ------ ----- ------- ---- -- --- ------- --<br>------- ---------- ------ -- ----- -- ----- -- ---- ------<br>--- ----- --- --- bonds' -------- ----- --- ------ ----- --<br>----- ----- ---------- --- --- ------ ------ ---- -- ------<br>------- --- ------ ----- --- ---- ------- -- ---- --- --<br>------- ------,136302.7000000002,136301.80000000075,135860.378,135871.10000000056,135877.049,136310.484,,26,bonds'
screen,html.Screen,0_2_1_1_27,2022-05-13T10:57:23.640Z,,,,,,,,,,,,,,,,54,,,,,,,,,,,,,,695.3160000007483,,response,,,100,,,,,,Space,keypress(Space),,,,,-- --- ---- --- ------ ----- ------- ---- -- --- ------- --<br>------- ---------- ------ -- ----- -- ----- -- ---- ------<br>--- ----- --- --- ------ interest ----- --- ------ ----- --<br>----- ----- ---------- --- --- ------ ------ ---- -- ------<br>------- --- ------ ----- --- ---- ------- -- ---- --- --<br>------- ------,137006.7000000002,137005.80000000075,136293.813,136303.10000000056,136310.484,137010.484,,27,interest
screen,html.Screen,0_2_1_1_28,2022-05-13T10:57:25.048Z,,,,,,,,,,,,,,,,54,,,,,,,,,,,,,,1403.2160000001895,,response,,,100,,,,,,Space,keypress(Space),,,,,-- --- ---- --- ------ ----- ------- ---- -- --- ------- --<br>------- ---------- ------ -- ----- -- ----- -- ---- ------<br>--- ----- --- --- ------ -------- rate. --- ------ ----- --<br>----- ----- ---------- --- --- ------ ------ ---- -- ------<br>------- --- ------ ----- --- ---- ------- -- ---- --- --<br>------- ------,138414.60000000056,138413.7000000002,136993.815,137007,137010.484,138427.842,,28,rate.
screen,html.Screen,0_2_1_1_29,2022-05-13T10:57:25.576Z,,,,,,,,,,,,,,,,54,,,,,,,,,,,,,,513.8580000001821,,response,,,100,,,,,,Space,keypress(Space),,,,,-- --- ---- --- ------ ----- ------- ---- -- --- ------- --<br>------- ---------- ------ -- ----- -- ----- -- ---- ------<br>--- ----- --- --- ------ -------- ----- The ------ ----- --<br>----- ----- ---------- --- --- ------ ------ ---- -- ------<br>------- --- ------ ----- --- ---- ------- -- ---- --- --<br>------- ------,138942.60000000056,138941.7000000002,138411.17,138414.90000000037,138427.842,138944.277,,29,The
screen,html.Screen,0_2_1_1_30,2022-05-13T10:57:26.361Z,,,,,,,,,,,,,,,,54,,,,,,,,,,,,,,781.8230000005569,,response,,,100,,,,,,Space,keypress(Space),,,,,-- --- ---- --- ------ ----- ------- ---- -- --- ------- --<br>------- ---------- ------ -- ----- -- ----- -- ---- ------<br>--- ----- --- --- ------ -------- ----- --- market ----- --<br>----- ----- ---------- --- --- ------ ------ ---- -- ------<br>------- --- ------ ----- --- ---- ------- -- ---- --- --<br>------- ------,139727.2000000002,139726.10000000056,138927.608,138942.90000000037,138944.277,139744.715,,30,market
screen,html.Screen,0_2_1_1_31,2022-05-13T10:57:26.896Z,,,,,,,,,,,,,,,,54,,,,,,,,,,,,,,516.8850000005623,,response,,,100,,,,,,Space,keypress(Space),,,,,-- --- ---- --- ------ ----- ------- ---- -- --- ------- --<br>------- ---------- ------ -- ----- -- ----- -- ---- ------<br>--- ----- --- --- ------ -------- ----- --- ------ value --<br>----- ----- ---------- --- --- ------ ------ ---- -- ------<br>------- --- ------ ----- --- ---- ------- -- ---- --- --<br>------- ------,140262.60000000056,140261.60000000056,139728.044,139727.40000000037,139744.715,140278.19,,31,value
screen,html.Screen,0_2_1_1_32,2022-05-13T10:57:27.488Z,,,,,,,,,,,,,,,,54,,,,,,,,,,,,,,575.4100000005565,,response,,,100,,,,,,Space,keypress(Space),,,,,-- --- ---- --- ------ ----- ------- ---- -- --- ------- --<br>------- ---------- ------ -- ----- -- ----- -- ---- ------<br>--- ----- --- --- ------ -------- ----- --- ------ ----- of<br>----- ----- ---------- --- --- ------ ------ ---- -- ------<br>------- --- ------ ----- --- ---- ------- -- ---- --- --<br>------- ------,140854.40000000037,140853.60000000056,140261.519,140262.80000000075,140278.19,140861.6,,32,of
screen,html.Screen,0_2_1_1_33,2022-05-13T10:57:27.968Z,,,,,,,,,,,,,,,,54,,,,,,,,,,,,,,472.000000000553,,response,,,100,,,,,,Space,keypress(Space),,,,,-- --- ---- --- ------ ----- ------- ---- -- --- ------- --<br>------- ---------- ------ -- ----- -- ----- -- ---- ------<br>--- ----- --- --- ------ -------- ----- --- ------ ----- --<br>these ----- ---------- --- --- ------ ------ ---- -- ------<br>------- --- ------ ----- --- ---- ------- -- ---- --- --<br>------- ------,141334.5,141333.60000000056,140844.93,140854.60000000056,140861.6,141345.12,,33,these
screen,html.Screen,0_2_1_1_34,2022-05-13T10:57:28.424Z,,,,,,,,,,,,,,,,54,,,,,,,,,,,,,,444.48000000056345,,response,,,100,,,,,,Space,keypress(Space),,,,,-- --- ---- --- ------ ----- ------- ---- -- --- ------- --<br>------- ---------- ------ -- ----- -- ----- -- ---- ------<br>--- ----- --- --- ------ -------- ----- --- ------ ----- --<br>----- bonds ---------- --- --- ------ ------ ---- -- ------<br>------- --- ------ ----- --- ---- ------- -- ---- --- --<br>------- ------,141790.40000000037,141789.60000000056,141328.449,141334.7000000002,141345.12,141795.081,,34,bonds
screen,html.Screen,0_2_1_1_35,2022-05-13T10:57:28.992Z,,,,,,,,,,,,,,,,54,,,,,,,,,,,,,,562.4189999999944,,response,,,100,,,,,,Space,keypress(Space),,,,,"-- --- ---- --- ------ ----- ------- ---- -- --- ------- --<br>------- ---------- ------ -- ----- -- ----- -- ---- ------<br>--- ----- --- --- ------ -------- ----- --- ------ ----- --<br>----- ----- plummeted, --- --- ------ ------ ---- -- ------<br>------- --- ------ ----- --- ---- ------- -- ---- --- --<br>------- ------",142358.5,142357.5,141778.412,141790.80000000075,141795.081,142362.116,,35,"plummeted,"
screen,html.Screen,0_2_1_1_36,2022-05-13T10:57:29.576Z,,,,,,,,,,,,,,,,54,,,,,,,,,,,,,,579.3839999999909,,response,,,100,,,,,,Space,keypress(Space),,,,,-- --- ---- --- ------ ----- ------- ---- -- --- ------- --<br>------- ---------- ------ -- ----- -- ----- -- ---- ------<br>--- ----- --- --- ------ -------- ----- --- ------ ----- --<br>----- ----- ---------- and --- ------ ------ ---- -- ------<br>------- --- ------ ----- --- ---- ------- -- ---- --- --<br>------- ------,142942.30000000075,142941.5,142345.444,142360.90000000037,142362.116,142945.456,,36,and
screen,html.Screen,0_2_1_1_37,2022-05-13T10:57:29.992Z,,,,,,,,,,,,,,,,54,,,,,,,,,,,,,,412.0439999999944,,response,,,100,,,,,,Space,keypress(Space),,,,,-- --- ---- --- ------ ----- ------- ---- -- --- ------- --<br>------- ---------- ------ -- ----- -- ----- -- ---- ------<br>--- ----- --- --- ------ -------- ----- --- ------ ----- --<br>----- ----- ---------- --- the ------ ------ ---- -- ------<br>------- --- ------ ----- --- ---- ------- -- ---- --- --<br>------- ------,143358.30000000075,143357.5,142928.786,142942.60000000056,142945.456,143362.251,,37,the
screen,html.Screen,0_2_1_1_38,2022-05-13T10:57:30.424Z,,,,,,,,,,,,,,,,54,,,,,,,,,,,,,,427.2490000000107,,response,,,100,,,,,,Space,keypress(Space),,,,,-- --- ---- --- ------ ----- ------- ---- -- --- ------- --<br>------- ---------- ------ -- ----- -- ----- -- ---- ------<br>--- ----- --- --- ------ -------- ----- --- ------ ----- --<br>----- ----- ---------- --- --- market ------ ---- -- ------<br>------- --- ------ ----- --- ---- ------- -- ---- --- --<br>------- ------,143790.30000000075,143789.5,143345.581,143358.60000000056,143362.251,143795.765,,38,market
screen,html.Screen,0_2_1_1_39,2022-05-13T10:57:30.936Z,,,,,,,,,,,,,,,,54,,,,,,,,,,,,,,505.63500000035856,,response,,,100,,,,,,Space,keypress(Space),,,,,-- --- ---- --- ------ ----- ------- ---- -- --- ------- --<br>------- ---------- ------ -- ----- -- ----- -- ---- ------<br>--- ----- --- --- ------ -------- ----- --- ------ ----- --<br>----- ----- ---------- --- --- ------ became ---- -- ------<br>------- --- ------ ----- --- ---- ------- -- ---- --- --<br>------- ------,144302.2000000002,144301.40000000037,143779.094,143790.5,143795.765,144312.504,,39,became
screen,html.Screen,0_2_1_1_40,2022-05-13T10:57:31.544Z,,,,,,,,,,,,,,,,54,,,,,,,,,,,,,,596.8960000003863,,response,,,100,,,,,,Space,keypress(Space),,,,,-- --- ---- --- ------ ----- ------- ---- -- --- ------- --<br>------- ---------- ------ -- ----- -- ----- -- ---- ------<br>--- ----- --- --- ------ -------- ----- --- ------ ----- --<br>----- ----- ---------- --- --- ------ ------ wary -- ------<br>------- --- ------ ----- --- ---- ------- -- ---- --- --<br>------- ------,144910.2000000002,144909.40000000037,144295.834,144302.5,144312.504,144912.709,,40,wary
screen,html.Screen,0_2_1_1_41,2022-05-13T10:57:32.000Z,,,,,,,,,,,,,,,,54,,,,,,,,,,,,,,452.5910000007425,,response,,,100,,,,,,Space,keypress(Space),,,,,-- --- ---- --- ------ ----- ------- ---- -- --- ------- --<br>------- ---------- ------ -- ----- -- ----- -- ---- ------<br>--- ----- --- --- ------ -------- ----- --- ------ ----- --<br>----- ----- ---------- --- --- ------ ------ ---- of ------<br>------- --- ------ ----- --- ---- ------- -- ---- --- --<br>------- ------,145366.2000000002,145365.30000000075,144896.038,144910.5,144912.709,145379.275,,41,of
screen,html.Screen,0_2_1_1_42,2022-05-13T10:57:32.488Z,,,,,,,,,,,,,,,,54,,,,,,,,,,,,,,474.0250000007509,,response,,,100,,,,,,Space,keypress(Space),,,,,-- --- ---- --- ------ ----- ------- ---- -- --- ------- --<br>------- ---------- ------ -- ----- -- ----- -- ---- ------<br>--- ----- --- --- ------ -------- ----- --- ------ ----- --<br>----- ----- ---------- --- --- ------ ------ ---- -- French<br>------- --- ------ ----- --- ---- ------- -- ---- --- --<br>------- ------,145854.10000000056,145853.30000000075,145362.607,145366.40000000037,145379.275,145862.994,,42,French
screen,html.Screen,0_2_1_1_43,2022-05-13T10:57:32.928Z,,,,,,,,,,,,,,,,54,,,,,,,,,,,,,,430.306000000739,,response,,,100,,,,,,Space,keypress(Space),,,,,-- --- ---- --- ------ ----- ------- ---- -- --- ------- --<br>------- ---------- ------ -- ----- -- ----- -- ---- ------<br>--- ----- --- --- ------ -------- ----- --- ------ ----- --<br>----- ----- ---------- --- --- ------ ------ ---- -- ------<br>credit. --- ------ ----- --- ---- ------- -- ---- --- --<br>------- ------,146294.30000000075,146293.30000000075,145846.322,145854.30000000075,145862.994,146296.251,,43,credit.
screen,html.Screen,0_2_1_1_44,2022-05-13T10:57:33.816Z,,,,,,,,,,,,,,,,54,,,,,,,,,,,,,,884.949000000197,,response,,,100,,,,,,Space,keypress(Space),,,,,-- --- ---- --- ------ ----- ------- ---- -- --- ------- --<br>------- ---------- ------ -- ----- -- ----- -- ---- ------<br>--- ----- --- --- ------ -------- ----- --- ------ ----- --<br>----- ----- ---------- --- --- ------ ------ ---- -- ------<br>------- The ------ ----- --- ---- ------- -- ---- --- --<br>------- ------,147182.10000000056,147181.2000000002,146279.582,146294.5,146296.251,147196.6,,44,The
screen,html.Screen,0_2_1_1_45,2022-05-13T10:57:34.232Z,,,,,,,,,,,,,,,,54,,,,,,,,,,,,,,400.60000000018044,,response,,,100,,,,,,Space,keypress(Space),,,,,-- --- ---- --- ------ ----- ------- ---- -- --- ------- --<br>------- ---------- ------ -- ----- -- ----- -- ---- ------<br>--- ----- --- --- ------ -------- ----- --- ------ ----- --<br>----- ----- ---------- --- --- ------ ------ ---- -- ------<br>------- --- French ----- --- ---- ------- -- ---- --- --<br>------- ------,147598,147597.2000000002,147179.929,147182.40000000037,147196.6,147613.394,,45,French
screen,html.Screen,0_2_1_1_46,2022-05-13T10:57:34.672Z,,,,,,,,,,,,,,,,54,,,,,,,,,,,,,,423.80600000018603,,response,,,100,,,,,,Space,keypress(Space),,,,,-- --- ---- --- ------ ----- ------- ---- -- --- ------- --<br>------- ---------- ------ -- ----- -- ----- -- ---- ------<br>--- ----- --- --- ------ -------- ----- --- ------ ----- --<br>----- ----- ---------- --- --- ------ ------ ---- -- ------<br>------- --- ------ state --- ---- ------- -- ---- --- --<br>------- ------,148038,148037.2000000002,147596.723,147598.30000000075,147613.394,148046.786,,46,state
screen,html.Screen,0_2_1_1_47,2022-05-13T10:57:35.056Z,,,,,,,,,,,,,,,,54,,,,,,,,,,,,,,374.4140000001935,,response,,,100,,,,,,Space,keypress(Space),,,,,-- --- ---- --- ------ ----- ------- ---- -- --- ------- --<br>------- ---------- ------ -- ----- -- ----- -- ---- ------<br>--- ----- --- --- ------ -------- ----- --- ------ ----- --<br>----- ----- ---------- --- --- ------ ------ ---- -- ------<br>------- --- ------ ----- was ---- ------- -- ---- --- --<br>------- ------,148422,148421.2000000002,148030.116,148038.30000000075,148046.786,148430.272,,47,was
screen,html.Screen,0_2_1_1_48,2022-05-13T10:57:35.479Z,,,,,,,,,,,,,,,,54,,,,,,,,,,,,,,414.8280000005616,,response,,,100,,,,,,Space,keypress(Space),,,,,-- --- ---- --- ------ ----- ------- ---- -- --- ------- --<br>------- ---------- ------ -- ----- -- ----- -- ---- ------<br>--- ----- --- --- ------ -------- ----- --- ------ ----- --<br>----- ----- ---------- --- --- ------ ------ ---- -- ------<br>------- --- ------ ----- --- left ------- -- ---- --- --<br>------- ------,148845.90000000037,148845.10000000056,148413.601,148422.30000000075,148430.272,148863.578,,48,left
screen,html.Screen,0_2_1_1_49,2022-05-13T10:57:35.952Z,,,,,,,,,,,,,,,,54,,,,,,,,,,,,,,453.62200000017765,,response,,,100,,,,,,Space,keypress(Space),,,,,-- --- ---- --- ------ ----- ------- ---- -- --- ------- --<br>------- ---------- ------ -- ----- -- ----- -- ---- ------<br>--- ----- --- --- ------ -------- ----- --- ------ ----- --<br>----- ----- ---------- --- --- ------ ------ ---- -- ------<br>------- --- ------ ----- --- ---- without -- ---- --- --<br>------- ------,149318,149317.2000000002,148846.909,148846.10000000056,148863.578,149330.568,,49,without
screen,html.Screen,0_2_1_1_50,2022-05-13T10:57:36.343Z,,,,,,,,,,,,,,,,54,,,,,,,,,,,,,,378.5320000005595,,response,,,100,,,,,,Space,keypress(Space),,,,,-- --- ---- --- ------ ----- ------- ---- -- --- ------- --<br>------- ---------- ------ -- ----- -- ----- -- ---- ------<br>--- ----- --- --- ------ -------- ----- --- ------ ----- --<br>----- ----- ---------- --- --- ------ ------ ---- -- ------<br>------- --- ------ ----- --- ---- ------- an ---- --- --<br>------- ------,149709.90000000037,149709.10000000056,149313.896,149318.30000000075,149330.568,149713.894,,50,an
screen,html.Screen,0_2_1_1_51,2022-05-13T10:57:36.808Z,,,,,,,,,,,,,,,,54,,,,,,,,,,,,,,459.5060000003723,,response,,,100,,,,,,Space,keypress(Space),,,,,-- --- ---- --- ------ ----- ------- ---- -- --- ------- --<br>------- ---------- ------ -- ----- -- ----- -- ---- ------<br>--- ----- --- --- ------ -------- ----- --- ------ ----- --<br>----- ----- ---------- --- --- ------ ------ ---- -- ------<br>------- --- ------ ----- --- ---- ------- -- easy --- --<br>------- ------,150174.30000000075,150173.40000000037,149697.224,149710.2000000002,149713.894,150180.571,,51,easy
screen,html.Screen,0_2_1_1_52,2022-05-13T10:57:37.255Z,,,,,,,,,,,,,,,,54,,,,,,,,,,,,,,440.4290000000037,,response,,,100,,,,,,Space,keypress(Space),,,,,-- --- ---- --- ------ ----- ------- ---- -- --- ------- --<br>------- ---------- ------ -- ----- -- ----- -- ---- ------<br>--- ----- --- --- ------ -------- ----- --- ------ ----- --<br>----- ----- ---------- --- --- ------ ------ ---- -- ------<br>------- --- ------ ----- --- ---- ------- -- ---- way --<br>------- ------,150621.80000000075,150621,150163.902,150174.60000000056,150180.571,150630.866,,52,way
screen,html.Screen,0_2_1_1_53,2022-05-13T10:57:37.623Z,,,,,,,,,,,,,,,,54,,,,,,,,,,,,,,358.1339999999909,,response,,,100,,,,,,Space,keypress(Space),,,,,-- --- ---- --- ------ ----- ------- ---- -- --- ------- --<br>------- ---------- ------ -- ----- -- ----- -- ---- ------<br>--- ----- --- --- ------ -------- ----- --- ------ ----- --<br>----- ----- ---------- --- --- ------ ------ ---- -- ------<br>------- --- ------ ----- --- ---- ------- -- ---- --- of<br>------- ------,150989.80000000075,150989,150614.194,150622.2000000002,150630.866,150997.594,,53,of
screen,html.Screen,0_2_1_1_54,2022-05-13T10:57:38.711Z,,,,,,,,,,,,,,,,54,,,,,,,,,,,,,,1079.4059999999881,,response,,,100,,,,,,Space,keypress(Space),,,,,-- --- ---- --- ------ ----- ------- ---- -- --- ------- --<br>------- ---------- ------ -- ----- -- ----- -- ---- ------<br>--- ----- --- --- ------ -------- ----- --- ------ ----- --<br>----- ----- ---------- --- --- ------ ------ ---- -- ------<br>------- --- ------ ----- --- ---- ------- -- ---- --- --<br>raising ------,152077.80000000075,152077,150980.923,150990,150997.594,152081.018,,54,raising
screen,html.Screen,0_2_1_1_55,2022-05-13T10:57:39.495Z,,,,,,,,,,,,,,,,54,,,,,,,,,,,,,,779.8820000003616,,response,,,100,,,,,,Space,keypress(Space),,,,,-- --- ---- --- ------ ----- ------- ---- -- --- ------- --<br>------- ---------- ------ -- ----- -- ----- -- ---- ------<br>--- ----- --- --- ------ -------- ----- --- ------ ----- --<br>----- ----- ---------- --- --- ------ ------ ---- -- ------<br>------- --- ------ ----- --- ---- ------- -- ---- --- --<br>------- money.,152861.80000000075,152860.90000000037,152064.349,152078,152081.018,152864.877,,55,money.
Item 100,flow.Loop,0_2_1_1,2022-05-13T10:57:39.496Z,,,,,,,,,,,,,,,,,,,,,,,,,,,,,,49075.45700000037,,completion,,,,D,,,,,,,,,,silence,,152862.2000000002,152860.90000000037,103768.772,103772.70000000019,103785.443,152864.877,,,
Question 1,html.Screen,0_2_1_2,2022-05-13T10:58:03.227Z,,,,,,,,,,,,,,,,,,,,,,,,,,,false,TRUE,,23726.923000000737,,response,,,100,D,,,,,FALSE,click #choice-2,,,,silence,,176593.10000000056,176591.80000000075,152848.205,152862.5,152864.877,176604.14,,,
Question 2,html.Screen,0_2_1_3,2022-05-13T10:58:06.566Z,,,,,,,,,,,,,,,,,,,,,,,,,,,true,FALSE,,3326.460000000545,,response,,,100,D,,,,,FALSE,click #choice-2,,,,silence,,179932,179930.60000000056,176587.47,176593.40000000037,176604.14,179938.262,,,
Item 100,flow.Sequence,0_2_1,2022-05-13T10:58:06.566Z,,,,,,,,,,,,,,,,,,,,,,,,,,,,,,86147.63600000055,,completion,,,,,,,,,,,,,,,,179932.40000000037,179930.60000000056,93766.292,93769.40000000037,93782.964,179938.262,,,
End of Practice,html.Page,0_2_2,2022-05-13T10:58:12.706Z,,,,,,,,,,,,,,,,,,,,,,,,,,,,,,6129.338000000571,,form submission,,,,,,,,,,,,,,,,186068.7000000002,186067.60000000056,179921.595,179932.60000000056,179938.262,186073.221,,,
Practice,flow.Sequence,0_2,2022-05-13T10:58:12.706Z,,,,,,,,,,,,,,,,,,,,,,,,,,,,,,164036.66700000057,,completion,,,,,,,,,,,,,,,,186069.10000000056,186067.60000000056,22014.263,22022.5,22030.933,186073.221,,,
Trap_instruction,html.Page,0_3_0,2022-05-13T10:58:26.276Z,,,,,,,,,,,,,,,,,,,,,,,,,,,,,,13565.679000000382,,form submission,,,,,,,,,,,,,,,,199639.30000000075,199638.90000000037,186056.551,186069.5,186073.221,199676.816,,,
trap_trial,html.Screen,0_3_1,2022-05-13T10:58:32.261Z,,,,,,,,,,,,,,,,,,,,,,,,,,,true,1,,5945.784000000567,,response,,,,,,,,,1,click #choice-1,,,,,,205624,205622.60000000056,199626.794,199639.60000000056,199676.816,205633.944,,,
end of trap trial,html.Page,0_3_2,2022-05-13T10:58:35.236Z,,,,,,,,,,,,,,,,,,,,,,,,,,,,,,2964.2560000001977,,form submission,,,,,,,,,,,,,,,,208598.60000000056,208598.2000000002,205617.257,205624.30000000075,205633.944,208612.335,,,
Trap 1,flow.Sequence,0_3,2022-05-13T10:58:35.236Z,,,,,,,,,,,,,,,,,,,,,,,,,,,,,,22524.979000000196,,completion,,,,,,,,,,,,,,,,208599.10000000056,208598.2000000002,186056.551,186069.40000000037,186073.221,208612.335,,,
Standby,html.Page,0_4_0,2022-05-13T10:58:43.233Z,,,,,,,,,,,,,,,,,,,,,,,,,,,,,,7999.597000000009,,timeout,,,,,,,,,,,,,,,,216596.40000000037,216595.266,208595.666,208599.5,208612.335,216611.932,,,
Holding screen,html.Screen,0_4_1_0_0,2022-05-13T10:58:50.237Z,,,,,,,,,,,,,,,,,,,,,,,,,,,,,,7004.065999999992,,timeout,,,,,,,,,,,,,,,,223600.30000000075,223599.329,216595.266,216596.80000000075,216611.932,223615.998,,,
screen,html.Screen,0_4_1_0_1_0,2022-05-13T10:58:57.239Z,,,,,,,,,,,,,,,,15,,,,,,,,,,,,,,7002.065000000002,,timeout,,,7,D,,,,,,,,,,silence,Greg --------- ---------- - --- ------- -- --- ------------<br>----- -- -------- ------- ---- ------ - -------- ---- -----<br>--- ------- ---- -- --- -------- --- - ----- ------ ---- --<br>-------- --- -------- -------- --- -------- ---- -- ----- -<br>-------- ---- --- ---------- --------- -- ------- ------ -<br>--------- ----- -----,230602.40000000037,230601.392,223599.329,223600.60000000056,223615.998,230618.063,,0,Greg
screen,html.Screen,0_4_1_0_1_1,2022-05-13T10:59:04.240Z,,,,,,,,,,,,,,,,15,,,,,,,,,,,,,,7000.122999999992,,timeout,,,7,D,,,,,,,,,,silence,"---- Anderson, ---------- - --- ------- -- --- ------------<br>----- -- -------- ------- ---- ------ - -------- ---- -----<br>--- ------- ---- -- --- -------- --- - ----- ------ ---- --<br>-------- --- -------- -------- --- -------- ---- -- ----- -<br>-------- ---- --- ---------- --------- -- ------- ------ -<br>--------- ----- -----",237603.40000000037,237601.517,230601.392,230602.7000000002,230618.063,237618.186,,1,"Anderson,"
screen,html.Screen,0_4_1_0_1_2,2022-05-13T10:59:04.325Z,,,,,,,,,,,,,,,,15,,,,,,,,,,,,,,69.91400000057183,,response,,,7,D,,,,,Space,keypress(Space),,,,silence,---- --------- considered - --- ------- -- --- ------------<br>----- -- -------- ------- ---- ------ - -------- ---- -----<br>--- ------- ---- -- --- -------- --- - ----- ------ ---- --<br>-------- --- -------- -------- --- -------- ---- -- ----- -<br>-------- ---- --- ---------- --------- -- ------- ------ -<br>--------- ----- -----,237688.60000000056,237688.10000000056,237601.517,237603.7000000002,237618.186,237701.531,,2,considered
screen,html.Screen,0_4_1_0_1_3,2022-05-13T10:59:05.894Z,,,,,,,,,,,,,,,,15,,,,,,,,,,,,,,1554.6690000001981,,response,,,7,D,,,,,Space,keypress(Space),,,,silence,---- --------- ---------- a --- ------- -- --- ------------<br>----- -- -------- ------- ---- ------ - -------- ---- -----<br>--- ------- ---- -- --- -------- --- - ----- ------ ---- --<br>-------- --- -------- -------- --- -------- ---- -- ----- -<br>-------- ---- --- ---------- --------- -- ------- ------ -<br>--------- ----- -----,239256.90000000037,239256.2000000002,237684.862,237688.7000000002,237701.531,239270.115,,3,a
screen,html.Screen,0_4_1_0_1_4,2022-05-13T10:59:06.854Z,,,,,,,,,,,,,,,,15,,,,,,,,,,,,,,945.9850000005681,,response,,,7,D,,,,,Space,keypress(Space),,,,silence,---- --------- ---------- - key ------- -- --- ------------<br>----- -- -------- ------- ---- ------ - -------- ---- -----<br>--- ------- ---- -- --- -------- --- - ----- ------ ---- --<br>-------- --- -------- -------- --- -------- ---- -- ----- -<br>-------- ---- --- ---------- --------- -- ------- ------ -<br>--------- ----- -----,240217,240216.10000000056,239253.445,239257.2000000002,239270.115,240234.454,,4,key
screen,html.Screen,0_4_1_0_1_5,2022-05-13T10:59:07.689Z,,,,,,,,,,,,,,,,15,,,,,,,,,,,,,,813.6460000005609,,response,,,7,D,,,,,Space,keypress(Space),,,,silence,---- --------- ---------- - --- witness -- --- ------------<br>----- -- -------- ------- ---- ------ - -------- ---- -----<br>--- ------- ---- -- --- -------- --- - ----- ------ ---- --<br>-------- --- -------- -------- --- -------- ---- -- ----- -<br>-------- ---- --- ---------- --------- -- ------- ------ -<br>--------- ----- -----,241049.10000000056,241048.10000000056,240217.801,240217.30000000075,240234.454,241054.122,,5,witness
screen,html.Screen,0_4_1_0_1_6,2022-05-13T10:59:08.121Z,,,,,,,,,,,,,,,,15,,,,,,,,,,,,,,425.97800000055577,,response,,,7,D,,,,,Space,keypress(Space),,,,silence,---- --------- ---------- - --- ------- by --- ------------<br>----- -- -------- ------- ---- ------ - -------- ---- -----<br>--- ------- ---- -- --- -------- --- - ----- ------ ---- --<br>-------- --- -------- -------- --- -------- ---- -- ----- -<br>-------- ---- --- ---------- --------- -- ------- ------ -<br>--------- ----- -----,241481,241480.10000000056,241037.451,241049.40000000037,241054.122,241487.508,,6,by
screen,html.Screen,0_4_1_0_1_7,2022-05-13T10:59:09.489Z,,,,,,,,,,,,,,,,15,,,,,,,,,,,,,,1360.4919999999984,,response,,,7,D,,,,,Space,keypress(Space),,,,silence,---- --------- ---------- - --- ------- -- the ------------<br>----- -- -------- ------- ---- ------ - -------- ---- -----<br>--- ------- ---- -- --- -------- --- - ----- ------ ---- --<br>-------- --- -------- -------- --- -------- ---- -- ----- -<br>-------- ---- --- ---------- --------- -- ------- ------ -<br>--------- ----- -----,242848.80000000075,242848,241470.838,241481.30000000075,241487.508,242854.472,,7,the
screen,html.Screen,0_4_1_0_1_8,2022-05-13T10:59:12.273Z,,,,,,,,,,,,,,,,15,,,,,,,,,,,,,,2777.4280000003637,,response,,,7,D,,,,,Space,keypress(Space),,,,silence,"---- --------- ---------- - --- ------- -- --- prosecution,<br>----- -- -------- ------- ---- ------ - -------- ---- -----<br>--- ------- ---- -- --- -------- --- - ----- ------ ---- --<br>-------- --- -------- -------- --- -------- ---- -- ----- -<br>-------- ---- --- ---------- --------- -- ------- ------ -<br>--------- ----- -----",245632.80000000075,245631.90000000037,242837.802,242849,242854.472,245638.637,,8,"prosecution,"
screen,html.Screen,0_4_1_0_1_9,2022-05-13T10:59:13.585Z,,,,,,,,,,,,,,,,15,,,,,,,,,,,,,,1305.1630000007572,,response,,,7,D,,,,,Space,keypress(Space),,,,silence,---- --------- ---------- - --- ------- -- --- ------------<br>vowed -- -------- ------- ---- ------ - -------- ---- -----<br>--- ------- ---- -- --- -------- --- - ----- ------ ---- --<br>-------- --- -------- -------- --- -------- ---- -- ----- -<br>-------- ---- --- ---------- --------- -- ------- ------ -<br>--------- ----- -----,246944.5,246943.80000000075,245621.966,245633.10000000056,245638.637,246955.517,,9,vowed
screen,html.Screen,0_4_1_0_1_10,2022-05-13T10:59:14.554Z,,,,,,,,,,,,,,,,15,,,,,,,,,,,,,,956.6830000001937,,response,,,7,D,,,,,Space,keypress(Space),,,,silence,---- --------- ---------- - --- ------- -- --- ------------<br>----- he -------- ------- ---- ------ - -------- ---- -----<br>--- ------- ---- -- --- -------- --- - ----- ------ ---- --<br>-------- --- -------- -------- --- -------- ---- -- ----- -<br>-------- ---- --- ---------- --------- -- ------- ------ -<br>--------- ----- -----,247913.2000000002,247912.2000000002,246938.847,246944.7000000002,246955.517,247922.356,,10,he
screen,html.Screen,0_4_1_0_1_11,2022-05-13T10:59:15.377Z,,,,,,,,,,,,,,,,15,,,,,,,,,,,,,,813.3440000001865,,response,,,7,D,,,,,Space,keypress(Space),,,,silence,---- --------- ---------- - --- ------- -- --- ------------<br>----- -- wouldn't ------- ---- ------ - -------- ---- -----<br>--- ------- ---- -- --- -------- --- - ----- ------ ---- --<br>-------- --- -------- -------- --- -------- ---- -- ----- -<br>-------- ---- --- ---------- --------- -- ------- ------ -<br>--------- ----- -----,248736.60000000056,248735.7000000002,247905.686,247913.5,247922.356,248739.254,,11,wouldn't
screen,html.Screen,0_4_1_0_1_12,2022-05-13T10:59:16.121Z,,,,,,,,,,,,,,,,15,,,,,,,,,,,,,,740.3460000005725,,response,,,7,D,,,,,Space,keypress(Space),,,,silence,---- --------- ---------- - --- ------- -- --- ------------<br>----- -- -------- testify ---- ------ - -------- ---- -----<br>--- ------- ---- -- --- -------- --- - ----- ------ ---- --<br>-------- --- -------- -------- --- -------- ---- -- ----- -<br>-------- ---- --- ---------- --------- -- ------- ------ -<br>--------- ----- -----,249480.5,249479.60000000056,248722.584,248736.90000000037,248739.254,249489.636,,12,testify
screen,html.Screen,0_4_1_0_1_13,2022-05-13T10:59:17.153Z,,,,,,,,,,,,,,,,15,,,,,,,,,,,,,,1021.8640000000014,,response,,,7,D,,,,,Space,keypress(Space),,,,silence,---- --------- ---------- - --- ------- -- --- ------------<br>----- -- -------- ------- when ------ - -------- ---- -----<br>--- ------- ---- -- --- -------- --- - ----- ------ ---- --<br>-------- --- -------- -------- --- -------- ---- -- ----- -<br>-------- ---- --- ---------- --------- -- ------- ------ -<br>--------- ----- -----,250512.40000000037,250511.5,249472.965,249480.80000000075,249489.636,250523.097,,13,when
screen,html.Screen,0_4_1_0_1_14,2022-05-13T10:59:18.936Z,,,,,,,,,,,,,,,,15,,,,,,,,,,,,,,1772.00300000055,,response,,,7,D,,,,,Space,keypress(Space),,,,silence,---- --------- ---------- - --- ------- -- --- ------------<br>----- -- -------- ------- ---- served - -------- ---- -----<br>--- ------- ---- -- --- -------- --- - ----- ------ ---- --<br>-------- --- -------- -------- --- -------- ---- -- ----- -<br>-------- ---- --- ---------- --------- -- ------- ------ -<br>--------- ----- -----,252295.80000000075,252295.10000000056,250506.427,250512.7000000002,250523.097,252306.882,,14,served
screen,html.Screen,0_4_1_0_1_15,2022-05-13T10:59:19.361Z,,,,,,,,,,,,,,,,15,,,,,,,,,,,,,,412.5180000003602,,response,,,7,D,,,,,Space,keypress(Space),,,,silence,---- --------- ---------- - --- ------- -- --- ------------<br>----- -- -------- ------- ---- ------ a -------- ---- -----<br>--- ------- ---- -- --- -------- --- - ----- ------ ---- --<br>-------- --- -------- -------- --- -------- ---- -- ----- -<br>-------- ---- --- ---------- --------- -- ------- ------ -<br>--------- ----- -----,252720.2000000002,252719.40000000037,252290.212,252295.90000000037,252306.882,252723.733,,15,a
screen,html.Screen,0_4_1_0_1_16,2022-05-13T10:59:21.305Z,,,,,,,,,,,,,,,,15,,,,,,,,,,,,,,1939.667000000365,,response,,,7,D,,,,,Space,keypress(Space),,,,silence,---- --------- ---------- - --- ------- -- --- ------------<br>----- -- -------- ------- ---- ------ - subpoena ---- -----<br>--- ------- ---- -- --- -------- --- - ----- ------ ---- --<br>-------- --- -------- -------- --- -------- ---- -- ----- -<br>-------- ---- --- ---------- --------- -- ------- ------ -<br>--------- ----- -----,254664.2000000002,254663.40000000037,252707.063,252720.5,252723.733,254674.078,,16,subpoena
screen,html.Screen,0_4_1_0_1_17,2022-05-13T10:59:22.169Z,,,,,,,,,,,,,,,,15,,,,,,,,,,,,,,853.2220000007364,,response,,,7,D,,,,,Space,keypress(Space),,,,silence,---- --------- ---------- - --- ------- -- --- ------------<br>----- -- -------- ------- ---- ------ - -------- last -----<br>--- ------- ---- -- --- -------- --- - ----- ------ ---- --<br>-------- --- -------- -------- --- -------- ---- -- ----- -<br>-------- ---- --- ---------- --------- -- ------- ------ -<br>--------- ----- -----,255528.2000000002,255527.30000000075,254657.408,254664.40000000037,254674.078,255541.132,,17,last
screen,html.Screen,0_4_1_0_1_18,2022-05-13T10:59:22.824Z,,,,,,,,,,,,,,,,15,,,,,,,,,,,,,,642.0680000001739,,response,,,7,D,,,,,Space,keypress(Space),,,,silence,---- --------- ---------- - --- ------- -- --- ------------<br>----- -- -------- ------- ---- ------ - -------- ---- week.<br>--- ------- ---- -- --- -------- --- - ----- ------ ---- --<br>-------- --- -------- -------- --- -------- ---- -- ----- -<br>-------- ---- --- ---------- --------- -- ------- ------ -<br>--------- ----- -----,256184,256183.2000000002,255524.461,255528.30000000075,255541.132,256191.197,,18,week.
screen,html.Screen,0_4_1_0_1_19,2022-05-13T10:59:24.440Z,,,,,,,,,,,,,,,,15,,,,,,,,,,,,,,1608.0030000002007,,response,,,7,D,,,,,Space,keypress(Space),,,,silence,---- --------- ---------- - --- ------- -- --- ------------<br>----- -- -------- ------- ---- ------ - -------- ---- -----<br>His ------- ---- -- --- -------- --- - ----- ------ ---- --<br>-------- --- -------- -------- --- -------- ---- -- ----- -<br>-------- ---- --- ---------- --------- -- ------- ------ -<br>--------- ----- -----,257800,257799.2000000002,256174.527,256184.30000000075,256191.197,257808.573,,19,His
screen,html.Screen,0_4_1_0_1_20,2022-05-13T10:59:25.017Z,,,,,,,,,,,,,,,,15,,,,,,,,,,,,,,566.926999999996,,response,,,7,D,,,,,Space,keypress(Space),,,,silence,---- --------- ---------- - --- ------- -- --- ------------<br>----- -- -------- ------- ---- ------ - -------- ---- -----<br>--- lawyers ---- -- --- -------- --- - ----- ------ ---- --<br>-------- --- -------- -------- --- -------- ---- -- ----- -<br>-------- ---- --- ---------- --------- -- ------- ------ -<br>--------- ----- -----,258376.40000000037,258375.5,257791.901,257800.2000000002,257808.573,258391.821,,20,lawyers
screen,html.Screen,0_4_1_0_1_21,2022-05-13T10:59:25.544Z,,,,,,,,,,,,,,,,15,,,,,,,,,,,,,,511.2790000005625,,response,,,7,D,,,,,Space,keypress(Space),,,,silence,---- --------- ---------- - --- ------- -- --- ------------<br>----- -- -------- ------- ---- ------ - -------- ---- -----<br>--- ------- said -- --- -------- --- - ----- ------ ---- --<br>-------- --- -------- -------- --- -------- ---- -- ----- -<br>-------- ---- --- ---------- --------- -- ------- ------ -<br>--------- ----- -----,258903.90000000037,258903.10000000056,258375.151,258376.60000000056,258391.821,258908.571,,21,said
screen,html.Screen,0_4_1_0_1_22,2022-05-13T10:59:26.016Z,,,,,,,,,,,,,,,,15,,,,,,,,,,,,,,466.4290000000037,,response,,,7,D,,,,,Space,keypress(Space),,,,silence,---- --------- ---------- - --- ------- -- --- ------------<br>----- -- -------- ------- ---- ------ - -------- ---- -----<br>--- ------- ---- he --- -------- --- - ----- ------ ---- --<br>-------- --- -------- -------- --- -------- ---- -- ----- -<br>-------- ---- --- ---------- --------- -- ------- ------ -<br>--------- ----- -----,259376,259375,258891.901,258904.10000000056,258908.571,259392.271,,22,he
screen,html.Screen,0_4_1_0_1_23,2022-05-13T10:59:26.528Z,,,,,,,,,,,,,,,,15,,,,,,,,,,,,,,494.7289999999921,,response,,,7,D,,,,,Space,keypress(Space),,,,silence,---- --------- ---------- - --- ------- -- --- ------------<br>----- -- -------- ------- ---- ------ - -------- ---- -----<br>--- ------- ---- -- was -------- --- - ----- ------ ---- --<br>-------- --- -------- -------- --- -------- ---- -- ----- -<br>-------- ---- --- ---------- --------- -- ------- ------ -<br>--------- ----- -----,259887.80000000075,259887,259375.598,259376.2000000002,259392.271,259892.29,,23,was
screen,html.Screen,0_4_1_0_1_24,2022-05-13T10:59:28.448Z,,,,,,,,,,,,,,,,15,,,,,,,,,,,,,,1914.510000000737,,response,,,7,D,,,,,Space,keypress(Space),,,,silence,---- --------- ---------- - --- ------- -- --- ------------<br>----- -- -------- ------- ---- ------ - -------- ---- -----<br>--- ------- ---- -- --- prepared --- - ----- ------ ---- --<br>-------- --- -------- -------- --- -------- ---- -- ----- -<br>-------- ---- --- ---------- --------- -- ------- ------ -<br>--------- ----- -----,261807.7000000002,261806.80000000075,259875.619,259888.10000000056,259892.29,261809.312,,24,prepared
screen,html.Screen,0_4_1_0_1_25,2022-05-13T10:59:28.984Z,,,,,,,,,,,,,,,,15,,,,,,,,,,,,,,533.5880000003672,,response,,,7,D,,,,,Space,keypress(Space),,,,silence,---- --------- ---------- - --- ------- -- --- ------------<br>----- -- -------- ------- ---- ------ - -------- ---- -----<br>--- ------- ---- -- --- -------- for - ----- ------ ---- --<br>-------- --- -------- -------- --- -------- ---- -- ----- -<br>-------- ---- --- ---------- --------- -- ------- ------ -<br>--------- ----- -----,262343.80000000075,262342.9000000004,261792.642,261808,261809.312,262359.525,,25,for
screen,html.Screen,0_4_1_0_1_26,2022-05-13T10:59:29.360Z,,,,,,,,,,,,,,,,15,,,,,,,,,,,,,,359.175000000163,,response,,,7,D,,,,,Space,keypress(Space),,,,silence,---- --------- ---------- - --- ------- -- --- ------------<br>----- -- -------- ------- ---- ------ - -------- ---- -----<br>--- ------- ---- -- --- -------- --- a ----- ------ ---- --<br>-------- --- -------- -------- --- -------- ---- -- ----- -<br>-------- ---- --- ---------- --------- -- ------- ------ -<br>--------- ----- -----,262719.60000000056,262718.7000000002,262342.855,262344.10000000056,262359.525,262726.229,,26,a
screen,html.Screen,0_4_1_0_1_27,2022-05-13T10:59:29.832Z,,,,,,,,,,,,,,,,15,,,,,,,,,,,,,,464.571000000753,,response,,,7,D,,,,,Space,keypress(Space),,,,silence,---- --------- ---------- - --- ------- -- --- ------------<br>----- -- -------- ------- ---- ------ - -------- ---- -----<br>--- ------- ---- -- --- -------- --- - third ------ ---- --<br>-------- --- -------- -------- --- -------- ---- -- ----- -<br>-------- ---- --- ---------- --------- -- ------- ------ -<br>--------- ----- -----,263191.7000000002,263190.80000000075,262709.559,262719.80000000075,262726.229,263193.223,,27,third
screen,html.Screen,0_4_1_0_1_28,2022-05-13T10:59:30.304Z,,,,,,,,,,,,,,,,15,,,,,,,,,,,,,,469.5770000007469,,response,,,7,D,,,,,Space,keypress(Space),,,,silence,---- --------- ---------- - --- ------- -- --- ------------<br>----- -- -------- ------- ---- ------ - -------- ---- -----<br>--- ------- ---- -- --- -------- --- - ----- prison ---- --<br>-------- --- -------- -------- --- -------- ---- -- ----- -<br>-------- ---- --- ---------- --------- -- ------- ------ -<br>--------- ----- -----,263663.60000000056,263662.80000000075,263176.55,263191.9000000004,263193.223,263676.605,,28,prison
screen,html.Screen,0_4_1_0_1_29,2022-05-13T10:59:31.033Z,,,,,,,,,,,,,,,,15,,,,,,,,,,,,,,714.0950000002049,,response,,,7,D,,,,,Space,keypress(Space),,,,silence,---- --------- ---------- - --- ------- -- --- ------------<br>----- -- -------- ------- ---- ------ - -------- ---- -----<br>--- ------- ---- -- --- -------- --- - ----- ------ stay --<br>-------- --- -------- -------- --- -------- ---- -- ----- -<br>-------- ---- --- ---------- --------- -- ------- ------ -<br>--------- ----- -----,264392.9000000004,264390.7000000002,263659.934,263663.80000000075,263676.605,264410.056,,29,stay
screen,html.Screen,0_4_1_0_1_30,2022-05-13T10:59:31.632Z,,,,,,,,,,,,,,,,15,,,,,,,,,,,,,,580.644000000204,,response,,,7,D,,,,,Space,keypress(Space),,,,silence,---- --------- ---------- - --- ------- -- --- ------------<br>----- -- -------- ------- ---- ------ - -------- ---- -----<br>--- ------- ---- -- --- -------- --- - ----- ------ ---- to<br>-------- --- -------- -------- --- -------- ---- -- ----- -<br>-------- ---- --- ---------- --------- -- ------- ------ -<br>--------- ----- -----,264991.60000000056,264990.7000000002,264393.386,264393.2000000002,264410.056,264993.502,,30,to
screen,html.Screen,0_4_1_0_1_31,2022-05-13T10:59:32.280Z,,,,,,,,,,,,,,,,15,,,,,,,,,,,,,,645.1980000002077,,response,,,7,D,,,,,Space,keypress(Space),,,,silence,---- --------- ---------- - --- ------- -- --- ------------<br>----- -- -------- ------- ---- ------ - -------- ---- -----<br>--- ------- ---- -- --- -------- --- - ----- ------ ---- --<br>maintain --- -------- -------- --- -------- ---- -- ----- -<br>-------- ---- --- ---------- --------- -- ------- ------ -<br>--------- ----- -----,265639.60000000056,265638.7000000002,264976.832,264991.80000000075,264993.502,265643.711,,31,maintain
screen,html.Screen,0_4_1_0_1_32,2022-05-13T10:59:32.792Z,,,,,,,,,,,,,,,,15,,,,,,,,,,,,,,506.989000000176,,response,,,7,D,,,,,Space,keypress(Space),,,,silence,---- --------- ---------- - --- ------- -- --- ------------<br>----- -- -------- ------- ---- ------ - -------- ---- -----<br>--- ------- ---- -- --- -------- --- - ----- ------ ---- --<br>-------- his -------- -------- --- -------- ---- -- ----- -<br>-------- ---- --- ---------- --------- -- ------- ------ -<br>--------- ----- -----,266151.60000000056,266150.7000000002,265627.041,265639.80000000075,265643.711,266160.519,,32,his
screen,html.Screen,0_4_1_0_1_33,2022-05-13T10:59:33.264Z,,,,,,,,,,,,,,,,15,,,,,,,,,,,,,,462.18100000021514,,response,,,7,D,,,,,Space,keypress(Space),,,,silence,---- --------- ---------- - --- ------- -- --- ------------<br>----- -- -------- ------- ---- ------ - -------- ---- -----<br>--- ------- ---- -- --- -------- --- - ----- ------ ---- --<br>-------- --- silence. -------- --- -------- ---- -- ----- -<br>-------- ---- --- ---------- --------- -- ------- ------ -<br>--------- ----- -----,266623.5,266622.7000000002,266143.849,266151.9000000004,266160.519,266627.27,,33,silence.
screen,html.Screen,0_4_1_0_1_34,2022-05-13T10:59:34.400Z,,,,,,,,,,,,,,,,15,,,,,,,,,,,,,,1131.3300000005402,,response,,,7,D,,,,,Space,keypress(Space),,,,silence,---- --------- ---------- - --- ------- -- --- ------------<br>----- -- -------- ------- ---- ------ - -------- ---- -----<br>--- ------- ---- -- --- -------- --- - ----- ------ ---- --<br>-------- --- -------- Anderson --- -------- ---- -- ----- -<br>-------- ---- --- ---------- --------- -- ------- ------ -<br>--------- ----- -----,267759.5,267758.60000000056,266610.6,266623.7000000002,266627.27,267760.986,,34,Anderson
screen,html.Screen,0_4_1_0_1_35,2022-05-13T10:59:34.912Z,,,,,,,,,,,,,,,,15,,,,,,,,,,,,,,509.6140000005835,,response,,,7,D,,,,,Space,keypress(Space),,,,silence,---- --------- ---------- - --- ------- -- --- ------------<br>----- -- -------- ------- ---- ------ - -------- ---- -----<br>--- ------- ---- -- --- -------- --- - ----- ------ ---- --<br>-------- --- -------- -------- was -------- ---- -- ----- -<br>-------- ---- --- ---------- --------- -- ------- ------ -<br>--------- ----- -----,268271.5,268270.60000000056,267744.315,267759.80000000075,267760.986,268277.734,,35,was
screen,html.Screen,0_4_1_0_1_36,2022-05-13T10:59:35.456Z,,,,,,,,,,,,,,,,15,,,,,,,,,,,,,,537.2660000000033,,response,,,7,D,,,,,Space,keypress(Space),,,,silence,---- --------- ---------- - --- ------- -- --- ------------<br>----- -- -------- ------- ---- ------ - -------- ---- -----<br>--- ------- ---- -- --- -------- --- - ----- ------ ---- --<br>-------- --- -------- -------- --- released ---- -- ----- -<br>-------- ---- --- ---------- --------- -- ------- ------ -<br>--------- ----- -----,268815.80000000075,268815,268261.064,268271.7000000002,268277.734,268827.829,,36,released
screen,html.Screen,0_4_1_0_1_37,2022-05-13T10:59:35.952Z,,,,,,,,,,,,,,,,15,,,,,,,,,,,,,,482.670999999973,,response,,,7,D,,,,,Space,keypress(Space),,,,silence,---- --------- ---------- - --- ------- -- --- ------------<br>----- -- -------- ------- ---- ------ - -------- ---- -----<br>--- ------- ---- -- --- -------- --- - ----- ------ ---- --<br>-------- --- -------- -------- --- -------- July -- ----- -<br>-------- ---- --- ---------- --------- -- ------- ------ -<br>--------- ----- -----,269311.30000000075,269310.5,268811.159,268816,268827.829,269327.975,,37,July
screen,html.Screen,0_4_1_0_1_38,2022-05-13T10:59:36.576Z,,,,,,,,,,,,,,,,15,,,,,,,,,,,,,,606.4250000003958,,response,,,7,D,,,,,Space,keypress(Space),,,,silence,---- --------- ---------- - --- ------- -- --- ------------<br>----- -- -------- ------- ---- ------ - -------- ---- -----<br>--- ------- ---- -- --- -------- --- - ----- ------ ---- --<br>-------- --- -------- -------- --- -------- ---- 20 ----- -<br>-------- ---- --- ---------- --------- -- ------- ------ -<br>--------- ----- -----,269935.30000000075,269934.4000000004,269311.305,269311.60000000056,269327.975,269944.886,,38,20
screen,html.Screen,0_4_1_0_1_39,2022-05-13T10:59:37.624Z,,,,,,,,,,,,,,,,15,,,,,,,,,,,,,,1037.514000000374,,response,,,7,D,,,,,Space,keypress(Space),,,,silence,---- --------- ---------- - --- ------- -- --- ------------<br>----- -- -------- ------- ---- ------ - -------- ---- -----<br>--- ------- ---- -- --- -------- --- - ----- ------ ---- --<br>-------- --- -------- -------- --- -------- ---- -- after -<br>-------- ---- --- ---------- --------- -- ------- ------ -<br>--------- ----- -----,270983.30000000075,270982.4000000004,269928.215,269935.60000000056,269944.886,270995.042,,39,after
screen,html.Screen,0_4_1_0_1_40,2022-05-13T10:59:38.088Z,,,,,,,,,,,,,,,,15,,,,,,,,,,,,,,451.3580000003567,,response,,,7,D,,,,,Space,keypress(Space),,,,silence,---- --------- ---------- - --- ------- -- --- ------------<br>----- -- -------- ------- ---- ------ - -------- ---- -----<br>--- ------- ---- -- --- -------- --- - ----- ------ ---- --<br>-------- --- -------- -------- --- -------- ---- -- ----- a<br>-------- ---- --- ---------- --------- -- ------- ------ -<br>--------- ----- -----,271447.30000000075,271446.4000000004,270978.372,270983.60000000056,270995.042,271461.816,,40,a
screen,html.Screen,0_4_1_0_1_41,2022-05-13T10:59:38.656Z,,,,,,,,,,,,,,,,15,,,,,,,,,,,,,,552.4840000007534,,response,,,7,D,,,,,Space,keypress(Space),,,,silence,---- --------- ---------- - --- ------- -- --- ------------<br>----- -- -------- ------- ---- ------ - -------- ---- -----<br>--- ------- ---- -- --- -------- --- - ----- ------ ---- --<br>-------- --- -------- -------- --- -------- ---- -- ----- -<br>two-week ---- --- ---------- --------- -- ------- ------ -<br>--------- ----- -----,272015.10000000056,272014.30000000075,271445.146,271447.4000000004,271461.816,272028.74,,41,two-week
screen,html.Screen,0_4_1_0_1_42,2022-05-13T10:59:39.128Z,,,,,,,,,,,,,,,,15,,,,,,,,,,,,,,457.56000000075437,,response,,,7,D,,,,,Space,keypress(Space),,,,silence,---- --------- ---------- - --- ------- -- --- ------------<br>----- -- -------- ------- ---- ------ - -------- ---- -----<br>--- ------- ---- -- --- -------- --- - ----- ------ ---- --<br>-------- --- -------- -------- --- -------- ---- -- ----- -<br>-------- stay --- ---------- --------- -- ------- ------ -<br>--------- ----- -----,272487.2000000002,272486.30000000075,272012.069,272015.4000000004,272028.74,272495.475,,42,stay
screen,html.Screen,0_4_1_0_1_43,2022-05-13T10:59:39.848Z,,,,,,,,,,,,,,,,15,,,,,,,,,,,,,,710.8250000007683,,response,,,7,D,,,,,Space,keypress(Space),,,,silence,---- --------- ---------- - --- ------- -- --- ------------<br>----- -- -------- ------- ---- ------ - -------- ---- -----<br>--- ------- ---- -- --- -------- --- - ----- ------ ---- --<br>-------- --- -------- -------- --- -------- ---- -- ----- -<br>-------- ---- for ---------- --------- -- ------- ------ -<br>--------- ----- -----,273207.2000000002,273206.30000000075,272478.805,272487.4000000004,272495.475,273212.297,,43,for
screen,html.Screen,0_4_1_0_1_44,2022-05-13T10:59:40.464Z,,,,,,,,,,,,,,,,15,,,,,,,,,,,,,,610.0030000007246,,response,,,7,D,,,,,Space,keypress(Space),,,,silence,---- --------- ---------- - --- ------- -- --- ------------<br>----- -- -------- ------- ---- ------ - -------- ---- -----<br>--- ------- ---- -- --- -------- --- - ----- ------ ---- --<br>-------- --- -------- -------- --- -------- ---- -- ----- -<br>-------- ---- --- previously --------- -- ------- ------ -<br>--------- ----- -----,273823.2000000002,273822.30000000075,273195.627,273207.4000000004,273212.297,273829.204,,44,previously
screen,html.Screen,0_4_1_0_1_45,2022-05-13T10:59:41.144Z,,,,,,,,,,,,,,,,15,,,,,,,,,,,,,,672.9960000001593,,response,,,7,D,,,,,Space,keypress(Space),,,,silence,---- --------- ---------- - --- ------- -- --- ------------<br>----- -- -------- ------- ---- ------ - -------- ---- -----<br>--- ------- ---- -- --- -------- --- - ----- ------ ---- --<br>-------- --- -------- -------- --- -------- ---- -- ----- -<br>-------- ---- --- ---------- declining -- ------- ------ -<br>--------- ----- -----,274503.2000000002,274502.2000000002,273812.533,273823.4000000004,273829.204,274512.668,,45,declining
screen,html.Screen,0_4_1_0_1_46,2022-05-13T10:59:42.575Z,,,,,,,,,,,,,,,,15,,,,,,,,,,,,,,1421.5320000001811,,response,,,7,D,,,,,Space,keypress(Space),,,,silence,---- --------- ---------- - --- ------- -- --- ------------<br>----- -- -------- ------- ---- ------ - -------- ---- -----<br>--- ------- ---- -- --- -------- --- - ----- ------ ---- --<br>-------- --- -------- -------- --- -------- ---- -- ----- -<br>-------- ---- --- ---------- --------- to ------- ------ -<br>--------- ----- -----,275935.10000000056,275934.2000000002,274495.998,274503.5,274512.668,275946.291,,46,to
screen,html.Screen,0_4_1_0_1_47,2022-05-13T10:59:43.199Z,,,,,,,,,,,,,,,,15,,,,,,,,,,,,,,611.9090000001597,,response,,,7,D,,,,,Space,keypress(Space),,,,silence,---- --------- ---------- - --- ------- -- --- ------------<br>----- -- -------- ------- ---- ------ - -------- ---- -----<br>--- ------- ---- -- --- -------- --- - ----- ------ ---- --<br>-------- --- -------- -------- --- -------- ---- -- ----- -<br>-------- ---- --- ---------- --------- -- testify ------ -<br>--------- ----- -----,276559,276558.2000000002,275929.621,275935.30000000075,275946.291,276563.19,,47,testify
screen,html.Screen,0_4_1_0_1_48,2022-05-13T10:59:43.751Z,,,,,,,,,,,,,,,,15,,,,,,,,,,,,,,546.9100000005565,,response,,,7,D,,,,,Space,keypress(Space),,,,silence,---- --------- ---------- - --- ------- -- --- ------------<br>----- -- -------- ------- ---- ------ - -------- ---- -----<br>--- ------- ---- -- --- -------- --- - ----- ------ ---- --<br>-------- --- -------- -------- --- -------- ---- -- ----- -<br>-------- ---- --- ---------- --------- -- ------- before -<br>--------- ----- -----,277110.9000000004,277110.10000000056,276546.52,276559.2000000002,276563.19,277113.348,,48,before
screen,html.Screen,0_4_1_0_1_49,2022-05-13T10:59:44.615Z,,,,,,,,,,,,,,,,15,,,,,,,,,,,,,,860.7520000005607,,response,,,7,D,,,,,Space,keypress(Space),,,,silence,---- --------- ---------- - --- ------- -- --- ------------<br>----- -- -------- ------- ---- ------ - -------- ---- -----<br>--- ------- ---- -- --- -------- --- - ----- ------ ---- --<br>-------- --- -------- -------- --- -------- ---- -- ----- -<br>-------- ---- --- ---------- --------- -- ------- ------ a<br>--------- ----- -----,277974.9000000004,277974.10000000056,277096.678,277111.10000000056,277113.348,277980.197,,49,a
screen,html.Screen,0_4_1_0_1_50,2022-05-13T10:59:45.071Z,,,,,,,,,,,,,,,,15,,,,,,,,,,,,,,449.80300000001444,,response,,,7,D,,,,,Space,keypress(Space),,,,silence,---- --------- ---------- - --- ------- -- --- ------------<br>----- -- -------- ------- ---- ------ - -------- ---- -----<br>--- ------- ---- -- --- -------- --- - ----- ------ ---- --<br>-------- --- -------- -------- --- -------- ---- -- ----- -<br>-------- ---- --- ---------- --------- -- ------- ------ -<br>different ----- -----,278430.9000000004,278430,277963.527,277975.10000000056,277980.197,278447.018,,50,different
screen,html.Screen,0_4_1_0_1_51,2022-05-13T10:59:45.584Z,,,,,,,,,,,,,,,,15,,,,,,,,,,,,,,495.2820000007632,,response,,,7,D,,,,,Space,keypress(Space),,,,silence,---- --------- ---------- - --- ------- -- --- ------------<br>----- -- -------- ------- ---- ------ - -------- ---- -----<br>--- ------- ---- -- --- -------- --- - ----- ------ ---- --<br>-------- --- -------- -------- --- -------- ---- -- ----- -<br>-------- ---- --- ---------- --------- -- ------- ------ -<br>--------- grand -----,278943.2000000002,278942.30000000075,278430.348,278431.10000000056,278447.018,278947.148,,51,grand
screen,html.Screen,0_4_1_0_1_52,2022-05-13T10:59:46.263Z,,,,,,,,,,,,,,,,15,,,,,,,,,,,,,,674.9520000005723,,response,,,7,D,,,,,Space,keypress(Space),,,,silence,---- --------- ---------- - --- ------- -- --- ------------<br>----- -- -------- ------- ---- ------ - -------- ---- -----<br>--- ------- ---- -- --- -------- --- - ----- ------ ---- --<br>-------- --- -------- -------- --- -------- ---- -- ----- -<br>-------- ---- --- ---------- --------- -- ------- ------ -<br>--------- ----- jury.,279623,279622.10000000056,278930.478,278943.4000000004,278947.148,279630.647,,52,jury.
Item 7,flow.Loop,0_4_1_0_1,2022-05-13T10:59:46.264Z,,,,,,,,,,,,,,,,,,,,,,,,,,,,,,56006.10200000057,,completion,,,,,,,,,,,,,,,,279623.30000000075,279622.10000000056,223599.329,223600.5,223615.998,279630.647,,,
Question 1,html.Screen,0_4_1_0_2,2022-05-13T11:00:17.902Z,,,,,,,,,,,,,,,,,,,,,,,,,,,true,FALSE,,31626.45300000056,,response,,,7,D,,,,,FALSE,click #choice-2,,,,silence,,311258.4000000004,311257.10000000056,279613.977,279623.5,279630.647,311272.129,,,
