sender,sender_type,sender_id,timestamp,meta,,Blues,Classical,Country,Dance,Electronic,Folk,Gospel,Hip-Hop,Jazz,Latin,Musical/Film,New-age,Pop,Provo_ID,R&B,Rap,Reggae,Religious,Rock,Soul,Swing,Traditional,age,artist_name,correct,correctResponse,distraction,duration,education,ended_on,familiarity,gender,item,list,music_frequency,offensiveness,pleasantness,preference,response,response_action,snippet_file,song_name,song_rating,sound,text,time_commit,time_end,time_render,time_run,time_show,time_switch,url,word,word_ID
Instructions,html.Page,0_0,2021-11-26T12:38:41.200Z,"{""labjs_version"":""20.2.3"",""labjs_build"":{""flavor"":""production"",""commit"":""7ea907d66ca8aeef8054924ca5d82ffbe11e34e5""},""location"":""https://run.pavlovia.org/mvasilev/lab_music_b/"",""userAgent"":""Mozilla/5.0 (Windows NT 6.1; Win64; x64) AppleWebKit/537.36 (KHTML, like Gecko) Chrome/96.0.4664.45 Safari/537.36"",""platform"":""Win32"",""language"":""en-GB"",""locale"":""en-GB"",""timeZone"":""Europe/London"",""timezoneOffset"":0,""screen_width"":1920,""screen_height"":1080,""scroll_width"":1920,""scroll_height"":921,""window_innerWidth"":1920,""window_innerHeight"":969,""devicePixelRatio"":1}",,,,,,,,,,,,,,,,,,,,,,,,,,,,,23427.01599997616,,form submission,,,,,,,,,,,,,,,,32473.5,32472.399999976158,9028.718,9020,9045.384,32477.78,{},,
Headphones,html.Page,0_1,2021-11-26T12:38:44.160Z,,,,,,,,,,,,,,,,,,,,,,,,,,,,,,2955.1199999761593,,form submission,,,,,,,,,,,,,,,,35433,35432.89999997616,32461.114,32474.199999928474,32477.78,35444.328,,,
Holding screen,html.Screen,0_2_0_0,2021-11-26T12:38:54.160Z,,,,,,,,,,,,,,,,,,,,,,,,,,,,,,9999.599999999999,,timeout,,,,,,,,,,,,,,,,45433.10000002384,45427.262,35427.662,35433.10000002384,35444.328,45443.928,,,
screen,html.Screen,0_2_0_1_0,2021-11-26T12:38:55.796Z,,,,,,,,,,,,,,,,53,,,,,,,,,,,,,,1624.4719999761583,,response,,,99,,,,,,Space,keypress(Space),,,,,When -- ----- -- ------ - ------- --- ----------<br>------------- ------ ------ ---- ---- ------- ----- -- ----<br>-------- ------- -- ---------- --- - --- ----- ----- ----<br>---- --- --- ----- --- ---- ---- ------- ----- ---- -------<br>--- --- -- ----- -- --- ---- -- --- ---- -- ------ ------<br>--- ----- -- ----,47069.699999928474,47068.39999997616,45427.262,45433.5,45443.928,47077.196,,0,When
screen,html.Screen,0_2_0_1_1,2021-11-26T12:38:56.675Z,,,,,,,,,,,,,,,,53,,,,,,,,,,,,,,870.7039999761546,,response,,,99,,,,,,Space,keypress(Space),,,,,---- it ----- -- ------ - ------- --- ----------<br>------------- ------ ------ ---- ---- ------- ----- -- ----<br>-------- ------- -- ---------- --- - --- ----- ----- ----<br>---- --- --- ----- --- ---- ---- ------- ----- ---- -------<br>--- --- -- ----- -- --- ---- -- --- ---- -- ------ ------<br>--- ----- -- ----,47948.799999952316,47947.89999997616,47060.53,47070.10000002384,47077.196,47960.494,,1,it
screen,html.Screen,0_2_0_1_2,2021-11-26T12:38:57.611Z,,,,,,,,,,,,,,,,53,,,,,,,,,,,,,,923.3059999523175,,response,,,99,,,,,,Space,keypress(Space),,,,,---- -- comes -- ------ - ------- --- ----------<br>------------- ------ ------ ---- ---- ------- ----- -- ----<br>-------- ------- -- ---------- --- - --- ----- ----- ----<br>---- --- --- ----- --- ---- ---- ------- ----- ---- -------<br>--- --- -- ----- -- --- ---- -- --- ---- -- ------ ------<br>--- ----- -- ----,48884.799999952316,48883.799999952316,47943.828,47949.199999928474,47960.494,48893.79,,2,comes
screen,html.Screen,0_2_0_1_3,2021-11-26T12:38:58.483Z,,,,,,,,,,,,,,,,53,,,,,,,,,,,,,,862.0099999523154,,response,,,99,,,,,,Space,keypress(Space),,,,,---- -- ----- to ------ - ------- --- ----------<br>------------- ------ ------ ---- ---- ------- ----- -- ----<br>-------- ------- -- ---------- --- - --- ----- ----- ----<br>---- --- --- ----- --- ---- ---- ------- ----- ---- -------<br>--- --- -- ----- -- --- ---- -- --- ---- -- ------ ------<br>--- ----- -- ----,49756.799999952316,49755.799999952316,48877.124,48885.10000002384,48893.79,49760.422,,3,to
screen,html.Screen,0_2_0_1_4,2021-11-26T12:38:59.300Z,,,,,,,,,,,,,,,,53,,,,,,,,,,,,,,811.3779999523176,,response,,,99,,,,,,Space,keypress(Space),,,,,---- -- ----- -- having - ------- --- ----------<br>------------- ------ ------ ---- ---- ------- ----- -- ----<br>-------- ------- -- ---------- --- - --- ----- ----- ----<br>---- --- --- ----- --- ---- ---- ------- ----- ---- -------<br>--- --- -- ----- -- --- ---- -- --- ---- -- ------ ------<br>--- ----- -- ----,50573,50571.799999952316,49743.756,49757.39999997616,49760.422,50577.056,,4,having
screen,html.Screen,0_2_0_1_5,2021-11-26T12:38:59.931Z,,,,,,,,,,,,,,,,53,,,,,,,,,,,,,,626.6439999284776,,response,,,99,,,,,,Space,keypress(Space),,,,,---- -- ----- -- ------ a ------- --- ----------<br>------------- ------ ------ ---- ---- ------- ----- -- ----<br>-------- ------- -- ---------- --- - --- ----- ----- ----<br>---- --- --- ----- --- ---- ---- ------- ----- ---- -------<br>--- --- -- ----- -- --- ---- -- --- ---- -- ------ ------<br>--- ----- -- ----,51204.699999928474,51203.699999928474,50560.39,50573.299999952316,50577.056,51210.364,,5,a
screen,html.Screen,0_2_0_1_6,2021-11-26T12:39:00.467Z,,,,,,,,,,,,,,,,53,,,,,,,,,,,,,,529.335999928473,,response,,,99,,,,,,Space,keypress(Space),,,,,---- -- ----- -- ------ - lasting --- ----------<br>------------- ------ ------ ---- ---- ------- ----- -- ----<br>-------- ------- -- ---------- --- - --- ----- ----- ----<br>---- --- --- ----- --- ---- ---- ------- ----- ---- -------<br>--- --- -- ----- -- --- ---- -- --- ---- -- ------ ------<br>--- ----- -- ----,51740.699999928474,51739.699999928474,51193.698,51205.199999928474,51210.364,51743.676,,6,lasting
screen,html.Screen,0_2_0_1_7,2021-11-26T12:39:00.995Z,,,,,,,,,,,,,,,,53,,,,,,,,,,,,,,524.023999928475,,response,,,99,,,,,,Space,keypress(Space),,,,,---- -- ----- -- ------ - ------- and ----------<br>------------- ------ ------ ---- ---- ------- ----- -- ----<br>-------- ------- -- ---------- --- - --- ----- ----- ----<br>---- --- --- ----- --- ---- ---- ------- ----- ---- -------<br>--- --- -- ----- -- --- ---- -- --- ---- -- ------ ------<br>--- ----- -- ----,52268.60000002384,52267.699999928474,51727.01,51741,51743.676,52276.988,,7,and
screen,html.Screen,0_2_0_1_8,2021-11-26T12:39:01.475Z,,,,,,,,,,,,,,,,53,,,,,,,,,,,,,,470.6120000238443,,response,,,99,,,,,,Space,keypress(Space),,,,,---- -- ----- -- ------ - ------- --- fulfilling<br>------------- ------ ------ ---- ---- ------- ----- -- ----<br>-------- ------- -- ---------- --- - --- ----- ----- ----<br>---- --- --- ----- --- ---- ---- ------- ----- ---- -------<br>--- --- -- ----- -- --- ---- -- --- ---- -- ------ ------<br>--- ----- -- ----,52748.799999952316,52747.60000002384,52260.322,52268.89999997616,52276.988,52760.302,,8,fulfilling
screen,html.Screen,0_2_0_1_9,2021-11-26T12:39:01.995Z,,,,,,,,,,,,,,,,53,,,,,,,,,,,,,,507.29800002383854,,response,,,99,,,,,,Space,keypress(Space),,,,,"---- -- ----- -- ------ - ------- --- ----------<br>relationship, ------ ------ ---- ---- ------- ----- -- ----<br>-------- ------- -- ---------- --- - --- ----- ----- ----<br>---- --- --- ----- --- ---- ---- ------- ----- ---- -------<br>--- --- -- ----- -- --- ---- -- --- ---- -- ------ ------<br>--- ----- -- ----",53268.5,53267.60000002384,52743.636,52749.10000002384,52760.302,53276.948,,9,"relationship,"
screen,html.Screen,0_2_0_1_10,2021-11-26T12:39:02.491Z,,,,,,,,,,,,,,,,53,,,,,,,,,,,,,,486.6520000238452,,response,,,99,,,,,,Space,keypress(Space),,,,,---- -- ----- -- ------ - ------- --- ----------<br>------------- common ------ ---- ---- ------- ----- -- ----<br>-------- ------- -- ---------- --- - --- ----- ----- ----<br>---- --- --- ----- --- ---- ---- ------- ----- ---- -------<br>--- --- -- ----- -- --- ---- -- --- ---- -- ------ ------<br>--- ----- -- ----,53764.5,53763.60000002384,53260.282,53268.699999928474,53276.948,53776.928,,10,common
screen,html.Screen,0_2_0_1_11,2021-11-26T12:39:03.043Z,,,,,,,,,,,,,,,,53,,,,,,,,,,,,,,538.672000023842,,response,,,99,,,,,,Space,keypress(Space),,,,,---- -- ----- -- ------ - ------- --- ----------<br>------------- ------ wisdom ---- ---- ------- ----- -- ----<br>-------- ------- -- ---------- --- - --- ----- ----- ----<br>---- --- --- ----- --- ---- ---- ------- ----- ---- -------<br>--- --- -- ----- -- --- ---- -- --- ---- -- ------ ------<br>--- ----- -- ----,54316.39999997616,54315.60000002384,53760.262,53764.799999952316,53776.928,54326.906,,11,wisdom
screen,html.Screen,0_2_0_1_12,2021-11-26T12:39:03.555Z,,,,,,,,,,,,,,,,53,,,,,,,,,,,,,,500.6940000238392,,response,,,99,,,,,,Space,keypress(Space),,,,,---- -- ----- -- ------ - ------- --- ----------<br>------------- ------ ------ says ---- ------- ----- -- ----<br>-------- ------- -- ---------- --- - --- ----- ----- ----<br>---- --- --- ----- --- ---- ---- ------- ----- ---- -------<br>--- --- -- ----- -- --- ---- -- --- ---- -- ------ ------<br>--- ----- -- ----,54828.299999952316,54827.60000002384,54310.24,54316.699999928474,54326.906,54843.552,,12,says
screen,html.Screen,0_2_0_1_13,2021-11-26T12:39:04.035Z,,,,,,,,,,,,,,,,53,,,,,,,,,,,,,,463.9479999999967,,response,,,99,,,,,,Space,keypress(Space),,,,,---- -- ----- -- ------ - ------- --- ----------<br>------------- ------ ------ ---- that ------- ----- -- ----<br>-------- ------- -- ---------- --- - --- ----- ----- ----<br>---- --- --- ----- --- ---- ---- ------- ----- ---- -------<br>--- --- -- ----- -- --- ---- -- --- ---- -- ------ ------<br>--- ----- -- ----,55308.299999952316,55307.5,54826.886,54828.60000002384,54843.552,55310.2,,13,that
screen,html.Screen,0_2_0_1_14,2021-11-26T12:39:04.539Z,,,,,,,,,,,,,,,,53,,,,,,,,,,,,,,501.19999997616105,,response,,,99,,,,,,Space,keypress(Space),,,,,---- -- ----- -- ------ - ------- --- ----------<br>------------- ------ ------ ---- ---- feeling ----- -- ----<br>-------- ------- -- ---------- --- - --- ----- ----- ----<br>---- --- --- ----- --- ---- ---- ------- ----- ---- -------<br>--- --- -- ----- -- --- ---- -- --- ---- -- ------ ------<br>--- ----- -- ----,55812.299999952316,55811.39999997616,55293.534,55308.60000002384,55310.2,55826.846,,14,feeling
screen,html.Screen,0_2_0_1_15,2021-11-26T12:39:05.067Z,,,,,,,,,,,,,,,,53,,,,,,,,,,,,,,512.6540000000023,,response,,,99,,,,,,Space,keypress(Space),,,,,---- -- ----- -- ------ - ------- --- ----------<br>------------- ------ ------ ---- ---- ------- close -- ----<br>-------- ------- -- ---------- --- - --- ----- ----- ----<br>---- --- --- ----- --- ---- ---- ------- ----- ---- -------<br>--- --- -- ----- -- --- ---- -- --- ---- -- ------ ------<br>--- ----- -- ----,56340.199999928474,56339.5,55810.18,55812.5,55826.846,56343.492,,15,close
screen,html.Screen,0_2_0_1_16,2021-11-26T12:39:05.547Z,,,,,,,,,,,,,,,,53,,,,,,,,,,,,,,475.9079999761598,,response,,,99,,,,,,Space,keypress(Space),,,,,---- -- ----- -- ------ - ------- --- ----------<br>------------- ------ ------ ---- ---- ------- ----- to ----<br>-------- ------- -- ---------- --- - --- ----- ----- ----<br>---- --- --- ----- --- ---- ---- ------- ----- ---- -------<br>--- --- -- ----- -- --- ---- -- --- ---- -- ------ ------<br>--- ----- -- ----,56820.199999928474,56819.39999997616,56326.826,56340.5,56343.492,56826.806,,16,to
screen,html.Screen,0_2_0_1_17,2021-11-26T12:39:06.019Z,,,,,,,,,,,,,,,,53,,,,,,,,,,,,,,464.89399992847757,,response,,,99,,,,,,Space,keypress(Space),,,,,---- -- ----- -- ------ - ------- --- ----------<br>------------- ------ ------ ---- ---- ------- ----- -- your<br>-------- ------- -- ---------- --- - --- ----- ----- ----<br>---- --- --- ----- --- ---- ---- ------- ----- ---- -------<br>--- --- -- ----- -- --- ---- -- --- ---- -- ------ ------<br>--- ----- -- ----,57292.5,57291.699999928474,56810.14,56820.39999997616,56826.806,57293.454,,17,your
screen,html.Screen,0_2_0_1_18,2021-11-26T12:39:06.475Z,,,,,,,,,,,,,,,,53,,,,,,,,,,,,,,453.8459999523184,,response,,,99,,,,,,Space,keypress(Space),,,,,---- -- ----- -- ------ - ------- --- ----------<br>------------- ------ ------ ---- ---- ------- ----- -- ----<br>romantic ------- -- ---------- --- - --- ----- ----- ----<br>---- --- --- ----- --- ---- ---- ------- ----- ---- -------<br>--- --- -- ----- -- --- ---- -- --- ---- -- ------ ------<br>--- ----- -- ----,57748.199999928474,57747.299999952316,57276.788,57292.699999928474,57293.454,57760.102,,18,romantic
screen,html.Screen,0_2_0_1_19,2021-11-26T12:39:06.963Z,,,,,,,,,,,,,,,,53,,,,,,,,,,,,,,475.19799995231733,,response,,,99,,,,,,Space,keypress(Space),,,,,---- -- ----- -- ------ - ------- --- ----------<br>------------- ------ ------ ---- ---- ------- ----- -- ----<br>-------- partner -- ---------- --- - --- ----- ----- ----<br>---- --- --- ----- --- ---- ---- ------- ----- ---- -------<br>--- --- -- ----- -- --- ---- -- --- ---- -- ------ ------<br>--- ----- -- ----,58236.10000002384,58235.299999952316,57743.436,57748.39999997616,57760.102,58243.416,,19,partner
screen,html.Screen,0_2_0_1_20,2021-11-26T12:39:07.459Z,,,,,,,,,,,,,,,,53,,,,,,,,,,,,,,487.783999928477,,response,,,99,,,,,,Space,keypress(Space),,,,,---- -- ----- -- ------ - ------- --- ----------<br>------------- ------ ------ ---- ---- ------- ----- -- ----<br>-------- ------- is ---------- --- - --- ----- ----- ----<br>---- --- --- ----- --- ---- ---- ------- ----- ---- -------<br>--- --- -- ----- -- --- ---- -- --- ---- -- ------ ------<br>--- ----- -- ----,58732.10000002384,58731.199999928474,58226.75,58236.39999997616,58243.416,58743.396,,20,is
screen,html.Screen,0_2_0_1_21,2021-11-26T12:39:07.971Z,,,,,,,,,,,,,,,,53,,,,,,,,,,,,,,499.90399995231564,,response,,,99,,,,,,Space,keypress(Space),,,,,---- -- ----- -- ------ - ------- --- ----------<br>------------- ------ ------ ---- ---- ------- ----- -- ----<br>-------- ------- -- paramount. --- - --- ----- ----- ----<br>---- --- --- ----- --- ---- ---- ------- ----- ---- -------<br>--- --- -- ----- -- --- ---- -- --- ---- -- ------ ------<br>--- ----- -- ----,59244,59243.299999952316,58726.73,58732.39999997616,58743.396,59260.042,,21,paramount.
screen,html.Screen,0_2_0_1_22,2021-11-26T12:39:08.507Z,,,,,,,,,,,,,,,,53,,,,,,,,,,,,,,519.1579999284731,,response,,,99,,,,,,Space,keypress(Space),,,,,---- -- ----- -- ------ - ------- --- ----------<br>------------- ------ ------ ---- ---- ------- ----- -- ----<br>-------- ------- -- ---------- But - --- ----- ----- ----<br>---- --- --- ----- --- ---- ---- ------- ----- ---- -------<br>--- --- -- ----- -- --- ---- -- --- ---- -- ------ ------<br>--- ----- -- ----,59780,59779.199999928474,59243.376,59244.5,59260.042,59793.354,,22,But
screen,html.Screen,0_2_0_1_23,2021-11-26T12:39:09.022Z,,,,,,,,,,,,,,,,53,,,,,,,,,,,,,,497.7460000238425,,response,,,99,,,,,,Space,keypress(Space),,,,,---- -- ----- -- ------ - ------- --- ----------<br>------------- ------ ------ ---- ---- ------- ----- -- ----<br>-------- ------- -- ---------- --- a --- ----- ----- ----<br>---- --- --- ----- --- ---- ---- ------- ----- ---- -------<br>--- --- -- ----- -- --- ---- -- --- ---- -- ------ ------<br>--- ----- -- ----,60291.89999997616,60291.10000002384,59776.688,59780.199999928474,59793.354,60293.334,,23,a
screen,html.Screen,0_2_0_1_24,2021-11-26T12:39:09.542Z,,,,,,,,,,,,,,,,53,,,,,,,,,,,,,,517.7660000238393,,response,,,99,,,,,,Space,keypress(Space),,,,,---- -- ----- -- ------ - ------- --- ----------<br>------------- ------ ------ ---- ---- ------- ----- -- ----<br>-------- ------- -- ---------- --- - new ----- ----- ----<br>---- --- --- ----- --- ---- ---- ------- ----- ---- -------<br>--- --- -- ----- -- --- ---- -- --- ---- -- ------ ------<br>--- ----- -- ----,60811.89999997616,60811.10000002384,60276.668,60292.10000002384,60293.334,60826.646,,24,new
screen,html.Screen,0_2_0_1_25,2021-11-26T12:39:10.014Z,,,,,,,,,,,,,,,,53,,,,,,,,,,,,,,456.35399999999936,,response,,,99,,,,,,Space,keypress(Space),,,,,---- -- ----- -- ------ - ------- --- ----------<br>------------- ------ ------ ---- ---- ------- ----- -- ----<br>-------- ------- -- ---------- --- - --- study ----- ----<br>---- --- --- ----- --- ---- ---- ------- ----- ---- -------<br>--- --- -- ----- -- --- ---- -- --- ---- -- ------ ------<br>--- ----- -- ----,61284,61283,60809.98,60812.10000002384,60826.646,61293.294,,25,study
screen,html.Screen,0_2_0_1_26,2021-11-26T12:39:10.470Z,,,,,,,,,,,,,,,,53,,,,,,,,,,,,,,445.80600002384017,,response,,,99,,,,,,Space,keypress(Space),,,,,---- -- ----- -- ------ - ------- --- ----------<br>------------- ------ ------ ---- ---- ------- ----- -- ----<br>-------- ------- -- ---------- --- - --- ----- finds ----<br>---- --- --- ----- --- ---- ---- ------- ----- ---- -------<br>--- --- -- ----- -- --- ---- -- --- ---- -- ------ ------<br>--- ----- -- ----,61739.89999997616,61739.10000002384,61276.628,61284.199999928474,61293.294,61743.276,,26,finds
screen,html.Screen,0_2_0_1_27,2021-11-26T12:39:10.910Z,,,,,,,,,,,,,,,,53,,,,,,,,,,,,,,435.82400002384384,,response,,,99,,,,,,Space,keypress(Space),,,,,---- -- ----- -- ------ - ------- --- ----------<br>------------- ------ ------ ---- ---- ------- ----- -- ----<br>-------- ------- -- ---------- --- - --- ----- ----- that<br>---- --- --- ----- --- ---- ---- ------- ----- ---- -------<br>--- --- -- ----- -- --- ---- -- --- ---- -- ------ ------<br>--- ----- -- ----,62179.89999997616,62179.10000002384,61726.61,61740.10000002384,61743.276,62193.258,,27,that
screen,html.Screen,0_2_0_1_28,2021-11-26T12:39:11.382Z,,,,,,,,,,,,,,,,53,,,,,,,,,,,,,,457.74199999999837,,response,,,99,,,,,,Space,keypress(Space),,,,,---- -- ----- -- ------ - ------- --- ----------<br>------------- ------ ------ ---- ---- ------- ----- -- ----<br>-------- ------- -- ---------- --- - --- ----- ----- ----<br>it's --- --- ----- --- ---- ---- ------- ----- ---- -------<br>--- --- -- ----- -- --- ---- -- --- ---- -- ------ ------<br>--- ----- -- ----,62651.799999952316,62651,62176.592,62180.10000002384,62193.258,62659.906,,28,it's
screen,html.Screen,0_2_0_1_29,2021-11-26T12:39:11.830Z,,,,,,,,,,,,,,,,53,,,,,,,,,,,,,,439.0939999999973,,response,,,99,,,,,,Space,keypress(Space),,,,,---- -- ----- -- ------ - ------- --- ----------<br>------------- ------ ------ ---- ---- ------- ----- -- ----<br>-------- ------- -- ---------- --- - --- ----- ----- ----<br>---- not --- ----- --- ---- ---- ------- ----- ---- -------<br>--- --- -- ----- -- --- ---- -- --- ---- -- ------ ------<br>--- ----- -- ----,63100,63099,62643.24,62652.10000002384,62659.906,63109.888,,29,not
screen,html.Screen,0_2_0_1_30,2021-11-26T12:39:12.310Z,,,,,,,,,,,,,,,,53,,,,,,,,,,,,,,469.112000000001,,response,,,99,,,,,,Space,keypress(Space),,,,,---- -- ----- -- ------ - ------- --- ----------<br>------------- ------ ------ ---- ---- ------- ----- -- ----<br>-------- ------- -- ---------- --- - --- ----- ----- ----<br>---- --- how ----- --- ---- ---- ------- ----- ---- -------<br>--- --- -- ----- -- --- ---- -- --- ---- -- ------ ------<br>--- ----- -- ----,63579.699999928474,63579,63093.222,63100.199999928474,63109.888,63593.202,,30,how
screen,html.Screen,0_2_0_1_31,2021-11-26T12:39:12.750Z,,,,,,,,,,,,,,,,53,,,,,,,,,,,,,,425.69799997616065,,response,,,99,,,,,,Space,keypress(Space),,,,,---- -- ----- -- ------ - ------- --- ----------<br>------------- ------ ------ ---- ---- ------- ----- -- ----<br>-------- ------- -- ---------- --- - --- ----- ----- ----<br>---- --- --- close --- ---- ---- ------- ----- ---- -------<br>--- --- -- ----- -- --- ---- -- --- ---- -- ------ ------<br>--- ----- -- ----,64019.699999928474,64018.89999997616,63576.536,63580,63593.202,64026.518,,31,close
screen,html.Screen,0_2_0_1_32,2021-11-26T12:39:13.246Z,,,,,,,,,,,,,,,,53,,,,,,,,,,,,,,488.2819999523199,,response,,,99,,,,,,Space,keypress(Space),,,,,---- -- ----- -- ------ - ------- --- ----------<br>------------- ------ ------ ---- ---- ------- ----- -- ----<br>-------- ------- -- ---------- --- - --- ----- ----- ----<br>---- --- --- ----- you ---- ---- ------- ----- ---- -------<br>--- --- -- ----- -- --- ---- -- --- ---- -- ------ ------<br>--- ----- -- ----,64515.60000002384,64514.799999952316,64009.852,64019.89999997616,64026.518,64526.498,,32,you
screen,html.Screen,0_2_0_1_33,2021-11-26T12:39:13.702Z,,,,,,,,,,,,,,,,53,,,,,,,,,,,,,,444.40199997615855,,response,,,99,,,,,,Space,keypress(Space),,,,,---- -- ----- -- ------ - ------- --- ----------<br>------------- ------ ------ ---- ---- ------- ----- -- ----<br>-------- ------- -- ---------- --- - --- ----- ----- ----<br>---- --- --- ----- --- feel ---- ------- ----- ---- -------<br>--- --- -- ----- -- --- ---- -- --- ---- -- ------ ------<br>--- ----- -- ----,64971.60000002384,64970.89999997616,64509.832,64515.89999997616,64526.498,64976.48,,33,feel
screen,html.Screen,0_2_0_1_34,2021-11-26T12:39:14.270Z,,,,,,,,,,,,,,,,53,,,,,,,,,,,,,,562.3199999523131,,response,,,99,,,,,,Space,keypress(Space),,,,,---- -- ----- -- ------ - ------- --- ----------<br>------------- ------ ------ ---- ---- ------- ----- -- ----<br>-------- ------- -- ---------- --- - --- ----- ----- ----<br>---- --- --- ----- --- ---- that ------- ----- ---- -------<br>--- --- -- ----- -- --- ---- -- --- ---- -- ------ ------<br>--- ----- -- ----,65539.60000002384,65538.79999995232,64959.814,64971.89999997616,64976.48,65543.124,,34,that
screen,html.Screen,0_2_0_1_35,2021-11-26T12:39:14.782Z,,,,,,,,,,,,,,,,53,,,,,,,,,,,,,,507.6759999523201,,response,,,99,,,,,,Space,keypress(Space),,,,,---- -- ----- -- ------ - ------- --- ----------<br>------------- ------ ------ ---- ---- ------- ----- -- ----<br>-------- ------- -- ---------- --- - --- ----- ----- ----<br>---- --- --- ----- --- ---- ---- matters ----- ---- -------<br>--- --- -- ----- -- --- ---- -- --- ---- -- ------ ------<br>--- ----- -- ----,66051.60000002384,66050.79999995232,65526.458,65539.89999997616,65543.124,66059.77,,35,matters
screen,html.Screen,0_2_0_1_36,2021-11-26T12:39:15.390Z,,,,,,,,,,,,,,,,53,,,,,,,,,,,,,,598.9299999284704,,response,,,99,,,,,,Space,keypress(Space),,,,,"---- -- ----- -- ------ - ------- --- ----------<br>------------- ------ ------ ---- ---- ------- ----- -- ----<br>-------- ------- -- ---------- --- - --- ----- ----- ----<br>---- --- --- ----- --- ---- ---- ------- most, ---- -------<br>--- --- -- ----- -- --- ---- -- --- ---- -- ------ ------<br>--- ----- -- ----",66659.89999997616,66658.69999992847,66043.104,66051.89999997616,66059.77,66676.412,,36,"most,"
screen,html.Screen,0_2_0_1_37,2021-11-26T12:39:15.918Z,,,,,,,,,,,,,,,,53,,,,,,,,,,,,,,510.38799995231966,,response,,,99,,,,,,Space,keypress(Space),,,,,---- -- ----- -- ------ - ------- --- ----------<br>------------- ------ ------ ---- ---- ------- ----- -- ----<br>-------- ------- -- ---------- --- - --- ----- ----- ----<br>---- --- --- ----- --- ---- ---- ------- ----- it's -------<br>--- --- -- ----- -- --- ---- -- --- ---- -- ------ ------<br>--- ----- -- ----,67187.5,67186.79999995232,66659.746,66660.10000002384,66676.412,67193.058,,37,it's
screen,html.Screen,0_2_0_1_38,2021-11-26T12:39:16.446Z,,,,,,,,,,,,,,,,53,,,,,,,,,,,,,,521.9419999999955,,response,,,99,,,,,,Space,keypress(Space),,,,,---- -- ----- -- ------ - ------- --- ----------<br>------------- ------ ------ ---- ---- ------- ----- -- ----<br>-------- ------- -- ---------- --- - --- ----- ----- ----<br>---- --- --- ----- --- ---- ---- ------- ----- ---- whether<br>--- --- -- ----- -- --- ---- -- --- ---- -- ------ ------<br>--- ----- -- ----,67715.79999995232,67715,67176.392,67187.79999995232,67193.058,67726.37,,38,whether
screen,html.Screen,0_2_0_1_39,2021-11-26T12:39:16.910Z,,,,,,,,,,,,,,,,53,,,,,,,,,,,,,,452.2300000238465,,response,,,99,,,,,,Space,keypress(Space),,,,,---- -- ----- -- ------ - ------- --- ----------<br>------------- ------ ------ ---- ---- ------- ----- -- ----<br>-------- ------- -- ---------- --- - --- ----- ----- ----<br>---- --- --- ----- --- ---- ---- ------- ----- ---- -------<br>you --- -- ----- -- --- ---- -- --- ---- -- ------ ------<br>--- ----- -- ----,68179.5,68178.60000002384,67709.704,67716.10000002384,67726.37,68193.018,,39,you
screen,html.Screen,0_2_0_1_40,2021-11-26T12:39:17.398Z,,,,,,,,,,,,,,,,53,,,,,,,,,,,,,,473.58200002384547,,response,,,99,,,,,,Space,keypress(Space),,,,,---- -- ----- -- ------ - ------- --- ----------<br>------------- ------ ------ ---- ---- ------- ----- -- ----<br>-------- ------- -- ---------- --- - --- ----- ----- ----<br>---- --- --- ----- --- ---- ---- ------- ----- ---- -------<br>--- are -- ----- -- --- ---- -- --- ---- -- ------ ------<br>--- ----- -- ----,68667.39999997616,68666.60000002384,68176.352,68179.69999992847,68193.018,68676.332,,40,are
screen,html.Screen,0_2_0_1_41,2021-11-26T12:39:17.870Z,,,,,,,,,,,,,,,,53,,,,,,,,,,,,,,462.268000023847,,response,,,99,,,,,,Space,keypress(Space),,,,,---- -- ----- -- ------ - ------- --- ----------<br>------------- ------ ------ ---- ---- ------- ----- -- ----<br>-------- ------- -- ---------- --- - --- ----- ----- ----<br>---- --- --- ----- --- ---- ---- ------- ----- ---- -------<br>--- --- as ----- -- --- ---- -- --- ---- -- ------ ------<br>--- ----- -- ----,69139.39999997616,69138.60000002384,68659.666,68667.69999992847,68676.332,69142.98,,41,as
screen,html.Screen,0_2_0_1_42,2021-11-26T12:39:18.318Z,,,,,,,,,,,,,,,,53,,,,,,,,,,,,,,443.62000002384593,,response,,,99,,,,,,Space,keypress(Space),,,,,---- -- ----- -- ------ - ------- --- ----------<br>------------- ------ ------ ---- ---- ------- ----- -- ----<br>-------- ------- -- ---------- --- - --- ----- ----- ----<br>---- --- --- ----- --- ---- ---- ------- ----- ---- -------<br>--- --- -- close -- --- ---- -- --- ---- -- ------ ------<br>--- ----- -- ----,69587.39999997616,69586.60000002384,69126.314,69139.60000002384,69142.98,69592.962,,42,close
screen,html.Screen,0_2_0_1_43,2021-11-26T12:39:18.806Z,,,,,,,,,,,,,,,,53,,,,,,,,,,,,,,481.53800000000047,,response,,,99,,,,,,Space,keypress(Space),,,,,---- -- ----- -- ------ - ------- --- ----------<br>------------- ------ ------ ---- ---- ------- ----- -- ----<br>-------- ------- -- ---------- --- - --- ----- ----- ----<br>---- --- --- ----- --- ---- ---- ------- ----- ---- -------<br>--- --- -- ----- as --- ---- -- --- ---- -- ------ ------<br>--- ----- -- ----,70075.39999997616,70074.5,69576.296,69587.60000002384,69592.962,70076.276,,43,as
screen,html.Screen,0_2_0_1_44,2021-11-26T12:39:19.326Z,,,,,,,,,,,,,,,,53,,,,,,,,,,,,,,518.224000000002,,response,,,99,,,,,,Space,keypress(Space),,,,,---- -- ----- -- ------ - ------- --- ----------<br>------------- ------ ------ ---- ---- ------- ----- -- ----<br>-------- ------- -- ---------- --- - --- ----- ----- ----<br>---- --- --- ----- --- ---- ---- ------- ----- ---- -------<br>--- --- -- ----- -- you ---- -- --- ---- -- ------ ------<br>--- ----- -- ----,70595.29999995232,70594.5,70059.61,70075.5,70076.276,70609.588,,44,you
screen,html.Screen,0_2_0_1_45,2021-11-26T12:39:19.806Z,,,,,,,,,,,,,,,,53,,,,,,,,,,,,,,464.9119999999966,,response,,,99,,,,,,Space,keypress(Space),,,,,---- -- ----- -- ------ - ------- --- ----------<br>------------- ------ ------ ---- ---- ------- ----- -- ----<br>-------- ------- -- ---------- --- - --- ----- ----- ----<br>---- --- --- ----- --- ---- ---- ------- ----- ---- -------<br>--- --- -- ----- -- --- want -- --- ---- -- ------ ------<br>--- ----- -- ----,71075.29999995232,71074.5,70592.922,70595.5,70609.588,71076.236,,45,want
screen,html.Screen,0_2_0_1_46,2021-11-26T12:39:20.374Z,,,,,,,,,,,,,,,,53,,,,,,,,,,,,,,566.1639999761537,,response,,,99,,,,,,Space,keypress(Space),,,,,---- -- ----- -- ------ - ------- --- ----------<br>------------- ------ ------ ---- ---- ------- ----- -- ----<br>-------- ------- -- ---------- --- - --- ----- ----- ----<br>---- --- --- ----- --- ---- ---- ------- ----- ---- -------<br>--- --- -- ----- -- --- ---- to --- ---- -- ------ ------<br>--- ----- -- ----,71643.19999992847,71642.39999997616,71059.57,71075.5,71076.236,71659.546,,46,to
screen,html.Screen,0_2_0_1_47,2021-11-26T12:39:20.822Z,,,,,,,,,,,,,,,,53,,,,,,,,,,,,,,430.85399997615605,,response,,,99,,,,,,Space,keypress(Space),,,,,"---- -- ----- -- ------ - ------- --- ----------<br>------------- ------ ------ ---- ---- ------- ----- -- ----<br>-------- ------- -- ---------- --- - --- ----- ----- ----<br>---- --- --- ----- --- ---- ---- ------- ----- ---- -------<br>--- --- -- ----- -- --- ---- -- be, ---- -- ------ ------<br>--- ----- -- ----",72091.19999992847,72090.39999997616,71642.88,71643.5,71659.546,72092.862,,47,"be,"
screen,html.Screen,0_2_0_1_48,2021-11-26T12:39:21.342Z,,,,,,,,,,,,,,,,53,,,,,,,,,,,,,,517.5379999761644,,response,,,99,,,,,,Space,keypress(Space),,,,,---- -- ----- -- ------ - ------- --- ----------<br>------------- ------ ------ ---- ---- ------- ----- -- ----<br>-------- ------- -- ---------- --- - --- ----- ----- ----<br>---- --- --- ----- --- ---- ---- ------- ----- ---- -------<br>--- --- -- ----- -- --- ---- -- --- even -- ------ ------<br>--- ----- -- ----,72611.19999992847,72610.39999997616,72076.196,72091.39999997616,72092.862,72626.174,,48,even
screen,html.Screen,0_2_0_1_49,2021-11-26T12:39:21.798Z,,,,,,,,,,,,,,,,53,,,,,,,,,,,,,,440.1259999523172,,response,,,99,,,,,,Space,keypress(Space),,,,,---- -- ----- -- ------ - ------- --- ----------<br>------------- ------ ------ ---- ---- ------- ----- -- ----<br>-------- ------- -- ---------- --- - --- ----- ----- ----<br>---- --- --- ----- --- ---- ---- ------- ----- ---- -------<br>--- --- -- ----- -- --- ---- -- --- ---- if ------ ------<br>--- ----- -- ----,73067.10000002384,73066.29999995232,72609.508,72611.39999997616,72626.174,73076.156,,49,if
screen,html.Screen,0_2_0_1_50,2021-11-26T12:39:22.214Z,,,,,,,,,,,,,,,,53,,,,,,,,,,,,,,406.1439999523136,,response,,,99,,,,,,Space,keypress(Space),,,,,---- -- ----- -- ------ - ------- --- ----------<br>------------- ------ ------ ---- ---- ------- ----- -- ----<br>-------- ------- -- ---------- --- - --- ----- ----- ----<br>---- --- --- ----- --- ---- ---- ------- ----- ---- -------<br>--- --- -- ----- -- --- ---- -- --- ---- -- that's ------<br>--- ----- -- ----,73483.10000002384,73482.29999995232,73059.49,73067.39999997616,73076.156,73492.806,,50,that's
screen,html.Screen,0_2_0_1_51,2021-11-26T12:39:22.653Z,,,,,,,,,,,,,,,,53,,,,,,,,,,,,,,429.39399992847757,,response,,,99,,,,,,Space,keypress(Space),,,,,---- -- ----- -- ------ - ------- --- ----------<br>------------- ------ ------ ---- ---- ------- ----- -- ----<br>-------- ------- -- ---------- --- - --- ----- ----- ----<br>---- --- --- ----- --- ---- ---- ------- ----- ---- -------<br>--- --- -- ----- -- --- ---- -- --- ---- -- ------ really<br>--- ----- -- ----,73923,73922.19999992847,73476.14,73483.29999995232,73492.806,73926.122,,51,really
screen,html.Screen,0_2_0_1_52,2021-11-26T12:39:23.109Z,,,,,,,,,,,,,,,,53,,,,,,,,,,,,,,452.17799995231326,,response,,,99,,,,,,Space,keypress(Space),,,,,---- -- ----- -- ------ - ------- --- ----------<br>------------- ------ ------ ---- ---- ------- ----- -- ----<br>-------- ------- -- ---------- --- - --- ----- ----- ----<br>---- --- --- ----- --- ---- ---- ------- ----- ---- -------<br>--- --- -- ----- -- --- ---- -- --- ---- -- ------ ------<br>not ----- -- ----,74379,74378.29999995232,73909.456,73923.19999992847,73926.122,74392.77,,52,not
screen,html.Screen,0_2_0_1_53,2021-11-26T12:39:23.613Z,,,,,,,,,,,,,,,,53,,,,,,,,,,,,,,489.42999992847035,,response,,,99,,,,,,Space,keypress(Space),,,,,---- -- ----- -- ------ - ------- --- ----------<br>------------- ------ ------ ---- ---- ------- ----- -- ----<br>-------- ------- -- ---------- --- - --- ----- ----- ----<br>---- --- --- ----- --- ---- ---- ------- ----- ---- -------<br>--- --- -- ----- -- --- ---- -- --- ---- -- ------ ------<br>--- close -- ----,74883.10000002384,74882.19999992847,74376.104,74379.29999995232,74392.77,74892.75,,53,close
screen,html.Screen,0_2_0_1_54,2021-11-26T12:39:24.101Z,,,,,,,,,,,,,,,,53,,,,,,,,,,,,,,477.4499999284744,,response,,,99,,,,,,Space,keypress(Space),,,,,---- -- ----- -- ------ - ------- --- ----------<br>------------- ------ ------ ---- ---- ------- ----- -- ----<br>-------- ------- -- ---------- --- - --- ----- ----- ----<br>---- --- --- ----- --- ---- ---- ------- ----- ---- -------<br>--- --- -- ----- -- --- ---- -- --- ---- -- ------ ------<br>--- ----- at ----,75371.10000002384,75370.19999992847,74876.084,74883.19999992847,74892.75,75376.064,,54,at
screen,html.Screen,0_2_0_1_55,2021-11-26T12:39:24.533Z,,,,,,,,,,,,,,,,53,,,,,,,,,,,,,,426.03600002384337,,response,,,99,,,,,,Space,keypress(Space),,,,,---- -- ----- -- ------ - ------- --- ----------<br>------------- ------ ------ ---- ---- ------- ----- -- ----<br>-------- ------- -- ---------- --- - --- ----- ----- ----<br>---- --- --- ----- --- ---- ---- ------- ----- ---- -------<br>--- --- -- ----- -- --- ---- -- --- ---- -- ------ ------<br>--- ----- -- all.,75803,75802.10000002384,75359.398,75371.19999992847,75376.064,75809.38,,55,all.
Item 99,flow.Loop,0_2_0_1,2021-11-26T12:39:24.538Z,,,,,,,,,,,,,,,,,,,,,,,,,,,,,,30358.172000023842,,completion,,,,B,,,,,,,,,,silence,,75807.5,75802.10000002384,45427.262,45433.39999997616,45443.928,75809.38,,,
Question 1,html.Screen,0_2_0_2,2021-11-26T12:39:29.186Z,,,,,,,,,,,,,,,,,,,,,,,,,,,true,FALSE,,4644.5199999761535,,response,,,99,B,,,,,FALSE,click #choice-2,,,,silence,,80455.39999997616,80453.89999997616,75792.714,75807.79999995232,75809.38,80459.194,,,
Question 2,html.Screen,0_2_0_3,2021-11-26T12:39:34.145Z,,,,,,,,,,,,,,,,,,,,,,,,,,,true,TRUE,,4954.406000023839,,response,,,99,B,,,,,TRUE,click #choice-1,,,,silence,,85414.79999995232,85413.60000002384,80442.528,80455.60000002384,80459.194,85425.662,,,
Item 99,flow.Sequence,0_2_0,2021-11-26T12:39:34.146Z,,,,,,,,,,,,,,,,,,,,,,,,,,,,,,49969.27200002384,,completion,,,,,,,,,,,,,,,,85415.19999992847,85413.60000002384,35427.662,35433.10000002384,35444.328,85425.662,,,
Holding screen,html.Screen,0_2_1_0,2021-11-26T12:39:44.140Z,,,,,,,,,,,,,,,,,,,,,,,,,,,,,,9999.600000000006,,timeout,,,,,,,,,,,,,,,,95410,95408.596,85408.996,85415.60000002384,85425.662,95425.262,,,
screen,html.Screen,0_2_1_1_0,2021-11-26T12:39:44.733Z,,,,,,,,,,,,,,,,54,,,,,,,,,,,,,,576.0379999523138,,response,,,100,,,,,,Space,keypress(Space),,,,,At --- ---- --- ------ ----- ------- ---- -- --- ------- --<br>------- ---------- ------ -- ----- -- ----- -- ---- ------<br>--- ----- --- --- ------ -------- ----- --- ------ ----- --<br>----- ----- ---------- --- --- ------ ------ ---- -- ------<br>------- --- ------ ----- --- ---- ------- -- ---- --- --<br>------- ------,96002.29999995232,96001.29999995232,95408.596,95410.5,95425.262,96008.572,,0,At
screen,html.Screen,0_2_1_1_1,2021-11-26T12:39:45.204Z,,,,,,,,,,,,,,,,54,,,,,,,,,,,,,,464.22799995231617,,response,,,100,,,,,,Space,keypress(Space),,,,,-- the ---- --- ------ ----- ------- ---- -- --- ------- --<br>------- ---------- ------ -- ----- -- ----- -- ---- ------<br>--- ----- --- --- ------ -------- ----- --- ------ ----- --<br>----- ----- ---------- --- --- ------ ------ ---- -- ------<br>------- --- ------ ----- --- ---- ------- -- ---- --- --<br>------- ------,96473.69999992847,96472.79999995232,95991.906,96002.5,96008.572,96475.22,,1,the
screen,html.Screen,0_2_1_1_2,2021-11-26T12:39:45.604Z,,,,,,,,,,,,,,,,54,,,,,,,,,,,,,,397.5799999523151,,response,,,100,,,,,,Space,keypress(Space),,,,,-- --- time --- ------ ----- ------- ---- -- --- ------- --<br>------- ---------- ------ -- ----- -- ----- -- ---- ------<br>--- ----- --- --- ------ -------- ----- --- ------ ----- --<br>----- ----- ---------- --- --- ------ ------ ---- -- ------<br>------- --- ------ ----- --- ---- ------- -- ---- --- --<br>------- ------,96873.60000002384,96872.79999995232,96458.554,96474,96475.22,96875.204,,2,time
screen,html.Screen,0_2_1_1_3,2021-11-26T12:39:46.036Z,,,,,,,,,,,,,,,,54,,,,,,,,,,,,,,429.5959999523184,,response,,,100,,,,,,Space,keypress(Space),,,,,-- --- ---- the ------ ----- ------- ---- -- --- ------- --<br>------- ---------- ------ -- ----- -- ----- -- ---- ------<br>--- ----- --- --- ------ -------- ----- --- ------ ----- --<br>----- ----- ---------- --- --- ------ ------ ---- -- ------<br>------- --- ------ ----- --- ---- ------- -- ---- --- --<br>------- ------,97305.60000002384,97304.79999995232,96858.538,96873.89999997616,96875.204,97308.52,,3,the
screen,html.Screen,0_2_1_1_4,2021-11-26T12:39:46.460Z,,,,,,,,,,,,,,,,54,,,,,,,,,,,,,,420.17999992847035,,response,,,100,,,,,,Space,keypress(Space),,,,,-- --- ---- --- French ----- ------- ---- -- --- ------- --<br>------- ---------- ------ -- ----- -- ----- -- ---- ------<br>--- ----- --- --- ------ -------- ----- --- ------ ----- --<br>----- ----- ---------- --- --- ------ ------ ---- -- ------<br>------- --- ------ ----- --- ---- ------- -- ---- --- --<br>------- ------,97729.60000002384,97728.69999992847,97291.854,97305.79999995232,97308.52,97741.836,,4,French
screen,html.Screen,0_2_1_1_5,2021-11-26T12:39:46.892Z,,,,,,,,,,,,,,,,54,,,,,,,,,,,,,,418.86399992847873,,response,,,100,,,,,,Space,keypress(Space),,,,,-- --- ---- --- ------ crown ------- ---- -- --- ------- --<br>------- ---------- ------ -- ----- -- ----- -- ---- ------<br>--- ----- --- --- ------ -------- ----- --- ------ ----- --<br>----- ----- ---------- --- --- ------ ------ ---- -- ------<br>------- --- ------ ----- --- ---- ------- -- ---- --- --<br>------- ------,98161.5,98160.69999992847,97725.17,97729.89999997616,97741.836,98175.152,,5,crown
screen,html.Screen,0_2_1_1_6,2021-11-26T12:39:47.308Z,,,,,,,,,,,,,,,,54,,,,,,,,,,,,,,401.54799992847256,,response,,,100,,,,,,Space,keypress(Space),,,,,-- --- ---- --- ------ ----- secured ---- -- --- ------- --<br>------- ---------- ------ -- ----- -- ----- -- ---- ------<br>--- ----- --- --- ------ -------- ----- --- ------ ----- --<br>----- ----- ---------- --- --- ------ ------ ---- -- ------<br>------- --- ------ ----- --- ---- ------- -- ---- --- --<br>------- ------,98577.5,98576.69999992847,98158.486,98161.79999995232,98175.152,98591.802,,6,secured
screen,html.Screen,0_2_1_1_7,2021-11-26T12:39:47.716Z,,,,,,,,,,,,,,,,54,,,,,,,,,,,,,,392.7980000238458,,response,,,100,,,,,,Space,keypress(Space),,,,,-- --- ---- --- ------ ----- ------- much -- --- ------- --<br>------- ---------- ------ -- ----- -- ----- -- ---- ------<br>--- ----- --- --- ------ -------- ----- --- ------ ----- --<br>----- ----- ---------- --- --- ------ ------ ---- -- ------<br>------- --- ------ ----- --- ---- ------- -- ---- --- --<br>------- ------,98985.39999997616,98984.60000002384,98575.136,98577.69999992847,98591.802,98991.786,,7,much
screen,html.Screen,0_2_1_1_8,2021-11-26T12:39:48.084Z,,,,,,,,,,,,,,,,54,,,,,,,,,,,,,,360.91399992848164,,response,,,100,,,,,,Space,keypress(Space),,,,,-- --- ---- --- ------ ----- ------- ---- of --- ------- --<br>------- ---------- ------ -- ----- -- ----- -- ---- ------<br>--- ----- --- --- ------ -------- ----- --- ------ ----- --<br>----- ----- ---------- --- --- ------ ------ ---- -- ------<br>------- --- ------ ----- --- ---- ------- -- ---- --- --<br>------- ------,99353.39999997616,99352.69999992847,98975.12,98985.60000002384,98991.786,99358.438,,8,of
screen,html.Screen,0_2_1_1_9,2021-11-26T12:39:48.508Z,,,,,,,,,,,,,,,,54,,,,,,,,,,,,,,418.1620000238472,,response,,,100,,,,,,Space,keypress(Space),,,,,-- --- ---- --- ------ ----- ------- ---- -- its ------- --<br>------- ---------- ------ -- ----- -- ----- -- ---- ------<br>--- ----- --- --- ------ -------- ----- --- ------ ----- --<br>----- ----- ---------- --- --- ------ ------ ---- -- ------<br>------- --- ------ ----- --- ---- ------- -- ---- --- --<br>------- ------,99777.39999997616,99776.60000002384,99341.772,99353.60000002384,99358.438,99791.754,,9,its
screen,html.Screen,0_2_1_1_10,2021-11-26T12:39:48.900Z,,,,,,,,,,,,,,,,54,,,,,,,,,,,,,,376.84600002384104,,response,,,100,,,,,,Space,keypress(Space),,,,,-- --- ---- --- ------ ----- ------- ---- -- --- revenue --<br>------- ---------- ------ -- ----- -- ----- -- ---- ------<br>--- ----- --- --- ------ -------- ----- --- ------ ----- --<br>----- ----- ---------- --- --- ------ ------ ---- -- ------<br>------- --- ------ ----- --- ---- ------- -- ---- --- --<br>------- ------,100169.39999997616,100168.60000002384,99775.088,99777.60000002384,99791.754,100175.072,,10,revenue
screen,html.Screen,0_2_1_1_11,2021-11-26T12:39:49.284Z,,,,,,,,,,,,,,,,54,,,,,,,,,,,,,,377.52800002384174,,response,,,100,,,,,,Space,keypress(Space),,,,,-- --- ---- --- ------ ----- ------- ---- -- --- ------- by<br>------- ---------- ------ -- ----- -- ----- -- ---- ------<br>--- ----- --- --- ------ -------- ----- --- ------ ----- --<br>----- ----- ---------- --- --- ------ ------ ---- -- ------<br>------- --- ------ ----- --- ---- ------- -- ---- --- --<br>------- ------,100553.39999997616,100552.60000002384,100158.406,100169.60000002384,100175.072,100558.39,,11,by
screen,html.Screen,0_2_1_1_12,2021-11-26T12:39:49.700Z,,,,,,,,,,,,,,,,54,,,,,,,,,,,,,,410.21000002384244,,response,,,100,,,,,,Space,keypress(Space),,,,,-- --- ---- --- ------ ----- ------- ---- -- --- ------- --<br>issuing ---------- ------ -- ----- -- ----- -- ---- ------<br>--- ----- --- --- ------ -------- ----- --- ------ ----- --<br>----- ----- ---------- --- --- ------ ------ ---- -- ------<br>------- --- ------ ----- --- ---- ------- -- ---- --- --<br>------- ------,100969.39999997616,100968.60000002384,100541.724,100553.69999992847,100558.39,100975.04,,12,issuing
screen,html.Screen,0_2_1_1_13,2021-11-26T12:39:50.076Z,,,,,,,,,,,,,,,,54,,,,,,,,,,,,,,369.56000002384826,,response,,,100,,,,,,Space,keypress(Space),,,,,-- --- ---- --- ------ ----- ------- ---- -- --- ------- --<br>------- government ------ -- ----- -- ----- -- ---- ------<br>--- ----- --- --- ------ -------- ----- --- ------ ----- --<br>----- ----- ---------- --- --- ------ ------ ---- -- ------<br>------- --- ------ ----- --- ---- ------- -- ---- --- --<br>------- ------,101345.29999995232,101344.60000002384,100958.374,100969.60000002384,100975.04,101358.358,,13,government
screen,html.Screen,0_2_1_1_14,2021-11-26T12:39:50.716Z,,,,,,,,,,,,,,,,54,,,,,,,,,,,,,,626.1420000000071,,response,,,100,,,,,,Space,keypress(Space),,,,,-- --- ---- --- ------ ----- ------- ---- -- --- ------- --<br>------- ---------- bonds. -- ----- -- ----- -- ---- ------<br>--- ----- --- --- ------ -------- ----- --- ------ ----- --<br>----- ----- ---------- --- --- ------ ------ ---- -- ------<br>------- --- ------ ----- --- ---- ------- -- ---- --- --<br>------- ------,101985.29999995232,101984.5,101341.692,101345.60000002384,101358.358,101991.666,,14,bonds.
screen,html.Screen,0_2_1_1_15,2021-11-26T12:39:51.340Z,,,,,,,,,,,,,,,,54,,,,,,,,,,,,,,616.8340000000026,,response,,,100,,,,,,Space,keypress(Space),,,,,-- --- ---- --- ------ ----- ------- ---- -- --- ------- --<br>------- ---------- ------ In ----- -- ----- -- ---- ------<br>--- ----- --- --- ------ -------- ----- --- ------ ----- --<br>----- ----- ---------- --- --- ------ ------ ---- -- ------<br>------- --- ------ ----- --- ---- ------- -- ---- --- --<br>------- ------,102609.29999995232,102608.5,101975,101985.60000002384,101991.666,102624.974,,15,In
screen,html.Screen,0_2_1_1_16,2021-11-26T12:39:51.884Z,,,,,,,,,,,,,,,,54,,,,,,,,,,,,,,527.4259999761562,,response,,,100,,,,,,Space,keypress(Space),,,,,"-- --- ---- --- ------ ----- ------- ---- -- --- ------- --<br>------- ---------- ------ -- 1727, -- ----- -- ---- ------<br>--- ----- --- --- ------ -------- ----- --- ------ ----- --<br>----- ----- ---------- --- --- ------ ------ ---- -- ------<br>------- --- ------ ----- --- ---- ------- -- ---- --- --<br>------- ------",103153.29999995232,103152.39999997616,102608.308,102609.60000002384,102624.974,103158.286,,16,"1727,"
screen,html.Screen,0_2_1_1_17,2021-11-26T12:39:52.420Z,,,,,,,,,,,,,,,,54,,,,,,,,,,,,,,530.1139999761654,,response,,,100,,,,,,Space,keypress(Space),,,,,-- --- ---- --- ------ ----- ------- ---- -- --- ------- --<br>------- ---------- ------ -- ----- in ----- -- ---- ------<br>--- ----- --- --- ------ -------- ----- --- ------ ----- --<br>----- ----- ---------- --- --- ------ ------ ---- -- ------<br>------- --- ------ ----- --- ---- ------- -- ---- --- --<br>------- ------,103689.19999992847,103688.39999997616,103141.62,103153.5,103158.286,103691.598,,17,in
screen,html.Screen,0_2_1_1_18,2021-11-26T12:39:52.884Z,,,,,,,,,,,,,,,,54,,,,,,,,,,,,,,460.80199997616,,response,,,100,,,,,,Space,keypress(Space),,,,,-- --- ---- --- ------ ----- ------- ---- -- --- ------- --<br>------- ---------- ------ -- ----- -- order -- ---- ------<br>--- ----- --- --- ------ -------- ----- --- ------ ----- --<br>----- ----- ---------- --- --- ------ ------ ---- -- ------<br>------- --- ------ ----- --- ---- ------- -- ---- --- --<br>------- ------,104153.10000002384,104152.39999997616,103674.932,103689.39999997616,103691.598,104158.246,,18,order
screen,html.Screen,0_2_1_1_19,2021-11-26T12:39:53.868Z,,,,,,,,,,,,,,,,54,,,,,,,,,,,,,,978.153999976159,,response,,,100,,,,,,Space,keypress(Space),,,,,-- --- ---- --- ------ ----- ------- ---- -- --- ------- --<br>------- ---------- ------ -- ----- -- ----- to ---- ------<br>--- ----- --- --- ------ -------- ----- --- ------ ----- --<br>----- ----- ---------- --- --- ------ ------ ---- -- ------<br>------- --- ------ ----- --- ---- ------- -- ---- --- --<br>------- ------,105137.10000002384,105136.39999997616,104141.58,104153.39999997616,104158.246,105141.54,,19,to
screen,html.Screen,0_2_1_1_20,2021-11-26T12:39:54.435Z,,,,,,,,,,,,,,,,54,,,,,,,,,,,,,,562.6599999284808,,response,,,100,,,,,,Space,keypress(Space),,,,,-- --- ---- --- ------ ----- ------- ---- -- --- ------- --<br>------- ---------- ------ -- ----- -- ----- -- save ------<br>--- ----- --- --- ------ -------- ----- --- ------ ----- --<br>----- ----- ---------- --- --- ------ ------ ---- -- ------<br>------- --- ------ ----- --- ---- ------- -- ---- --- --<br>------- ------,105705.10000002384,105704.19999992847,105124.874,105137.39999997616,105141.54,105708.184,,20,save
screen,html.Screen,0_2_1_1_21,2021-11-26T12:39:54.860Z,,,,,,,,,,,,,,,,54,,,,,,,,,,,,,,420.416000023848,,response,,,100,,,,,,Space,keypress(Space),,,,,"-- --- ---- --- ------ ----- ------- ---- -- --- ------- --<br>------- ---------- ------ -- ----- -- ----- -- ---- money,<br>--- ----- --- --- ------ -------- ----- --- ------ ----- --<br>----- ----- ---------- --- --- ------ ------ ---- -- ------<br>------- --- ------ ----- --- ---- ------- -- ---- --- --<br>------- ------",106129.29999995232,106128.60000002384,105691.518,105705.29999995232,105708.184,106141.5,,21,"money,"
screen,html.Screen,0_2_1_1_22,2021-11-26T12:39:55.315Z,,,,,,,,,,,,,,,,54,,,,,,,,,,,,,,442.6999999284744,,response,,,100,,,,,,Space,keypress(Space),,,,,-- --- ---- --- ------ ----- ------- ---- -- --- ------- --<br>------- ---------- ------ -- ----- -- ----- -- ---- ------<br>the ----- --- --- ------ -------- ----- --- ------ ----- --<br>----- ----- ---------- --- --- ------ ------ ---- -- ------<br>------- --- ------ ----- --- ---- ------- -- ---- --- --<br>------- ------,106585.10000002384,106584.19999992847,106124.834,106129.60000002384,106141.5,106591.482,,22,the
screen,html.Screen,0_2_1_1_23,2021-11-26T12:39:56.491Z,,,,,,,,,,,,,,,,54,,,,,,,,,,,,,,1168.6180000238382,,response,,,100,,,,,,Space,keypress(Space),,,,,-- --- ---- --- ------ ----- ------- ---- -- --- ------- --<br>------- ---------- ------ -- ----- -- ----- -- ---- ------<br>--- state --- --- ------ -------- ----- --- ------ ----- --<br>----- ----- ---------- --- --- ------ ------ ---- -- ------<br>------- --- ------ ----- --- ---- ------- -- ---- --- --<br>------- ------,107761,107760.10000002384,106574.816,106585.29999995232,106591.482,107774.768,,23,state
screen,html.Screen,0_2_1_1_24,2021-11-26T12:39:56.947Z,,,,,,,,,,,,,,,,54,,,,,,,,,,,,,,441.33200002384547,,response,,,100,,,,,,Space,keypress(Space),,,,,-- --- ---- --- ------ ----- ------- ---- -- --- ------- --<br>------- ---------- ------ -- ----- -- ----- -- ---- ------<br>--- ----- cut --- ------ -------- ----- --- ------ ----- --<br>----- ----- ---------- --- --- ------ ------ ---- -- ------<br>------- --- ------ ----- --- ---- ------- -- ---- --- --<br>------- ------,108216.79999995232,108216.10000002384,107758.102,107761.19999992847,107774.768,108224.75,,24,cut
screen,html.Screen,0_2_1_1_25,2021-11-26T12:39:57.411Z,,,,,,,,,,,,,,,,54,,,,,,,,,,,,,,455.35000002384186,,response,,,100,,,,,,Space,keypress(Space),,,,,-- --- ---- --- ------ ----- ------- ---- -- --- ------- --<br>------- ---------- ------ -- ----- -- ----- -- ---- ------<br>--- ----- --- the ------ -------- ----- --- ------ ----- --<br>----- ----- ---------- --- --- ------ ------ ---- -- ------<br>------- --- ------ ----- --- ---- ------- -- ---- --- --<br>------- ------,108680.89999997616,108680.10000002384,108208.084,108217.19999992847,108224.75,108691.398,,25,the
screen,html.Screen,0_2_1_1_26,2021-11-26T12:39:57.859Z,,,,,,,,,,,,,,,,54,,,,,,,,,,,,,,436.60199999999895,,response,,,100,,,,,,Space,keypress(Space),,,,,-- --- ---- --- ------ ----- ------- ---- -- --- ------- --<br>------- ---------- ------ -- ----- -- ----- -- ---- ------<br>--- ----- --- --- bonds' -------- ----- --- ------ ----- --<br>----- ----- ---------- --- --- ------ ------ ---- -- ------<br>------- --- ------ ----- --- ---- ------- -- ---- --- --<br>------- ------,109128.79999995232,109128,108674.732,108681.10000002384,108691.398,109141.38,,26,bonds'
screen,html.Screen,0_2_1_1_27,2021-11-26T12:39:58.283Z,,,,,,,,,,,,,,,,54,,,,,,,,,,,,,,410.7200000238372,,response,,,100,,,,,,Space,keypress(Space),,,,,-- --- ---- --- ------ ----- ------- ---- -- --- ------- --<br>------- ---------- ------ -- ----- -- ----- -- ---- ------<br>--- ----- --- --- ------ interest ----- --- ------ ----- --<br>----- ----- ---------- --- --- ------ ------ ---- -- ------<br>------- --- ------ ----- --- ---- ------- -- ---- --- --<br>------- ------,109552.89999997616,109552.10000002384,109124.714,109129.10000002384,109141.38,109558.03,,27,interest
screen,html.Screen,0_2_1_1_28,2021-11-26T12:39:58.771Z,,,,,,,,,,,,,,,,54,,,,,,,,,,,,,,481.97000000000116,,response,,,100,,,,,,Space,keypress(Space),,,,,-- --- ---- --- ------ ----- ------- ---- -- --- ------- --<br>------- ---------- ------ -- ----- -- ----- -- ---- ------<br>--- ----- --- --- ------ -------- rate. --- ------ ----- --<br>----- ----- ---------- --- --- ------ ------ ---- -- ------<br>------- --- ------ ----- --- ---- ------- -- ---- --- --<br>------- ------,110040.79999995232,110040,109541.364,109553.10000002384,109558.03,110058.01,,28,rate.
screen,html.Screen,0_2_1_1_29,2021-11-26T12:39:59.467Z,,,,,,,,,,,,,,,,54,,,,,,,,,,,,,,677.8899999761634,,response,,,100,,,,,,Space,keypress(Space),,,,,-- --- ---- --- ------ ----- ------- ---- -- --- ------- --<br>------- ---------- ------ -- ----- -- ----- -- ---- ------<br>--- ----- --- --- ------ -------- ----- The ------ ----- --<br>----- ----- ---------- --- --- ------ ------ ---- -- ------<br>------- --- ------ ----- --- ---- ------- -- ---- --- --<br>------- ------,110736.79999995232,110735.89999997616,110041.344,110041.10000002384,110058.01,110741.316,,29,The
screen,html.Screen,0_2_1_1_30,2021-11-26T12:39:59.883Z,,,,,,,,,,,,,,,,54,,,,,,,,,,,,,,410.583999976152,,response,,,100,,,,,,Space,keypress(Space),,,,,-- --- ---- --- ------ ----- ------- ---- -- --- ------- --<br>------- ---------- ------ -- ----- -- ----- -- ---- ------<br>--- ----- --- --- ------ -------- ----- --- market ----- --<br>----- ----- ---------- --- --- ------ ------ ---- -- ------<br>------- --- ------ ----- --- ---- ------- -- ---- --- --<br>------- ------,111152.79999995232,111151.89999997616,110724.65,110737.10000002384,110741.316,111157.966,,30,market
screen,html.Screen,0_2_1_1_31,2021-11-26T12:40:00.331Z,,,,,,,,,,,,,,,,54,,,,,,,,,,,,,,441.9339999761578,,response,,,100,,,,,,Space,keypress(Space),,,,,-- --- ---- --- ------ ----- ------- ---- -- --- ------- --<br>------- ---------- ------ -- ----- -- ----- -- ---- ------<br>--- ----- --- --- ------ -------- ----- --- ------ value --<br>----- ----- ---------- --- --- ------ ------ ---- -- ------<br>------- --- ------ ----- --- ---- ------- -- ---- --- --<br>------- ------,111600.60000002384,111599.89999997616,111141.3,111153,111157.966,111607.948,,31,value
screen,html.Screen,0_2_1_1_32,2021-11-26T12:40:00.755Z,,,,,,,,,,,,,,,,54,,,,,,,,,,,,,,415.9519999761542,,response,,,100,,,,,,Space,keypress(Space),,,,,-- --- ---- --- ------ ----- ------- ---- -- --- ------- --<br>------- ---------- ------ -- ----- -- ----- -- ---- ------<br>--- ----- --- --- ------ -------- ----- --- ------ ----- of<br>----- ----- ---------- --- --- ------ ------ ---- -- ------<br>------- --- ------ ----- --- ---- ------- -- ---- --- --<br>------- ------,112024.69999992847,112023.89999997616,111591.282,111600.89999997616,111607.948,112041.264,,32,of
screen,html.Screen,0_2_1_1_33,2021-11-26T12:40:01.171Z,,,,,,,,,,,,,,,,54,,,,,,,,,,,,,,398.5359999523207,,response,,,100,,,,,,Space,keypress(Space),,,,,-- --- ---- --- ------ ----- ------- ---- -- --- ------- --<br>------- ---------- ------ -- ----- -- ----- -- ---- ------<br>--- ----- --- --- ------ -------- ----- --- ------ ----- --<br>these ----- ---------- --- --- ------ ------ ---- -- ------<br>------- --- ------ ----- --- ---- ------- -- ---- --- --<br>------- ------,112440.69999992847,112439.79999995232,112024.598,112024.89999997616,112041.264,112457.914,,33,these
screen,html.Screen,0_2_1_1_34,2021-11-26T12:40:01.619Z,,,,,,,,,,,,,,,,54,,,,,,,,,,,,,,429.885999952312,,response,,,100,,,,,,Space,keypress(Space),,,,,-- --- ---- --- ------ ----- ------- ---- -- --- ------- --<br>------- ---------- ------ -- ----- -- ----- -- ---- ------<br>--- ----- --- --- ------ -------- ----- --- ------ ----- --<br>----- bonds ---------- --- --- ------ ------ ---- -- ------<br>------- --- ------ ----- --- ---- ------- -- ---- --- --<br>------- ------,112888.60000002384,112887.79999995232,112441.248,112440.79999995232,112457.914,112891.23,,34,bonds
screen,html.Screen,0_2_1_1_35,2021-11-26T12:40:02.099Z,,,,,,,,,,,,,,,,54,,,,,,,,,,,,,,476.4699999284785,,response,,,100,,,,,,Space,keypress(Space),,,,,"-- --- ---- --- ------ ----- ------- ---- -- --- ------- --<br>------- ---------- ------ -- ----- -- ----- -- ---- ------<br>--- ----- --- --- ------ -------- ----- --- ------ ----- --<br>----- ----- plummeted, --- --- ------ ------ ---- -- ------<br>------- --- ------ ----- --- ---- ------- -- ---- --- --<br>------- ------",113368.5,113367.69999992847,112874.564,112888.89999997616,112891.23,113374.544,,35,"plummeted,"
screen,html.Screen,0_2_1_1_36,2021-11-26T12:40:02.675Z,,,,,,,,,,,,,,,,54,,,,,,,,,,,,,,569.15599992848,,response,,,100,,,,,,Space,keypress(Space),,,,,-- --- ---- --- ------ ----- ------- ---- -- --- ------- --<br>------- ---------- ------ -- ----- -- ----- -- ---- ------<br>--- ----- --- --- ------ -------- ----- --- ------ ----- --<br>----- ----- ---------- and --- ------ ------ ---- -- ------<br>------- --- ------ ----- --- ---- ------- -- ---- --- --<br>------- ------,113944.5,113943.69999992847,113357.878,113368.79999995232,113374.544,113957.854,,36,and
screen,html.Screen,0_2_1_1_37,2021-11-26T12:40:03.131Z,,,,,,,,,,,,,,,,54,,,,,,,,,,,,,,441.94599995230965,,response,,,100,,,,,,Space,keypress(Space),,,,,-- --- ---- --- ------ ----- ------- ---- -- --- ------- --<br>------- ---------- ------ -- ----- -- ----- -- ---- ------<br>--- ----- --- --- ------ -------- ----- --- ------ ----- --<br>----- ----- ---------- --- the ------ ------ ---- -- ------<br>------- --- ------ ----- --- ---- ------- -- ---- --- --<br>------- ------,114400.5,114399.79999995232,113941.188,113944.79999995232,113957.854,114407.836,,37,the
screen,html.Screen,0_2_1_1_38,2021-11-26T12:40:03.523Z,,,,,,,,,,,,,,,,54,,,,,,,,,,,,,,383.86399992847873,,response,,,100,,,,,,Space,keypress(Space),,,,,-- --- ---- --- ------ ----- ------- ---- -- --- ------- --<br>------- ---------- ------ -- ----- -- ----- -- ---- ------<br>--- ----- --- --- ------ -------- ----- --- ------ ----- --<br>----- ----- ---------- --- --- market ------ ---- -- ------<br>------- --- ------ ----- --- ---- ------- -- ---- --- --<br>------- ------,114792.5,114791.69999992847,114391.17,114400.79999995232,114407.836,114807.82,,38,market
screen,html.Screen,0_2_1_1_39,2021-11-26T12:40:03.971Z,,,,,,,,,,,,,,,,54,,,,,,,,,,,,,,431.7800000238349,,response,,,100,,,,,,Space,keypress(Space),,,,,-- --- ---- --- ------ ----- ------- ---- -- --- ------- --<br>------- ---------- ------ -- ----- -- ----- -- ---- ------<br>--- ----- --- --- ------ -------- ----- --- ------ ----- --<br>----- ----- ---------- --- --- ------ became ---- -- ------<br>------- --- ------ ----- --- ---- ------- -- ---- --- --<br>------- ------,115240.39999997616,115239.60000002384,114791.154,114792.79999995232,114807.82,115257.802,,39,became
screen,html.Screen,0_2_1_1_40,2021-11-26T12:40:04.363Z,,,,,,,,,,,,,,,,54,,,,,,,,,,,,,,373.7980000238458,,response,,,100,,,,,,Space,keypress(Space),,,,,-- --- ---- --- ------ ----- ------- ---- -- --- ------- --<br>------- ---------- ------ -- ----- -- ----- -- ---- ------<br>--- ----- --- --- ------ -------- ----- --- ------ ----- --<br>----- ----- ---------- --- --- ------ ------ wary -- ------<br>------- --- ------ ----- --- ---- ------- -- ---- --- --<br>------- ------,115632.5,115631.60000002384,115241.136,115240.60000002384,115257.802,115641.12,,40,wary
screen,html.Screen,0_2_1_1_41,2021-11-26T12:40:04.779Z,,,,,,,,,,,,,,,,54,,,,,,,,,,,,,,406.38000000000466,,response,,,100,,,,,,Space,keypress(Space),,,,,-- --- ---- --- ------ ----- ------- ---- -- --- ------- --<br>------- ---------- ------ -- ----- -- ----- -- ---- ------<br>--- ----- --- --- ------ -------- ----- --- ------ ----- --<br>----- ----- ---------- --- --- ------ ------ ---- of ------<br>------- --- ------ ----- --- ---- ------- -- ---- --- --<br>------- ------,116048.29999995232,116047.5,115624.454,115632.69999992847,115641.12,116057.77,,41,of
screen,html.Screen,0_2_1_1_42,2021-11-26T12:40:05.243Z,,,,,,,,,,,,,,,,54,,,,,,,,,,,,,,454.12999997615407,,response,,,100,,,,,,Space,keypress(Space),,,,,-- --- ---- --- ------ ----- ------- ---- -- --- ------- --<br>------- ---------- ------ -- ----- -- ----- -- ---- ------<br>--- ----- --- --- ------ -------- ----- --- ------ ----- --<br>----- ----- ---------- --- --- ------ ------ ---- -- French<br>------- --- ------ ----- --- ---- ------- -- ---- --- --<br>------- ------,116512.69999992847,116511.89999997616,116041.104,116048.60000002384,116057.77,116524.418,,42,French
screen,html.Screen,0_2_1_1_43,2021-11-26T12:40:05.699Z,,,,,,,,,,,,,,,,54,,,,,,,,,,,,,,443.0819999999949,,response,,,100,,,,,,Space,keypress(Space),,,,,-- --- ---- --- ------ ----- ------- ---- -- --- ------- --<br>------- ---------- ------ -- ----- -- ----- -- ---- ------<br>--- ----- --- --- ------ -------- ----- --- ------ ----- --<br>----- ----- ---------- --- --- ------ ------ ---- -- ------<br>credit. --- ------ ----- --- ---- ------- -- ---- --- --<br>------- ------,116968.19999992847,116967.5,116507.752,116512.89999997616,116524.418,116974.4,,43,credit.
screen,html.Screen,0_2_1_1_44,2021-11-26T12:40:06.107Z,,,,,,,,,,,,,,,,54,,,,,,,,,,,,,,401.1000000000058,,response,,,100,,,,,,Space,keypress(Space),,,,,-- --- ---- --- ------ ----- ------- ---- -- --- ------- --<br>------- ---------- ------ -- ----- -- ----- -- ---- ------<br>--- ----- --- --- ------ -------- ----- --- ------ ----- --<br>----- ----- ---------- --- --- ------ ------ ---- -- ------<br>------- The ------ ----- --- ---- ------- -- ---- --- --<br>------- ------,117376.29999995232,117375.5,116957.734,116968.5,116974.4,117391.05,,44,The
screen,html.Screen,0_2_1_1_45,2021-11-26T12:40:06.491Z,,,,,,,,,,,,,,,,54,,,,,,,,,,,,,,368.4499999999971,,response,,,100,,,,,,Space,keypress(Space),,,,,-- --- ---- --- ------ ----- ------- ---- -- --- ------- --<br>------- ---------- ------ -- ----- -- ----- -- ---- ------<br>--- ----- --- --- ------ -------- ----- --- ------ ----- --<br>----- ----- ---------- --- --- ------ ------ ---- -- ------<br>------- --- French ----- --- ---- ------- -- ---- --- --<br>------- ------,117760.29999995232,117759.5,117374.384,117376.5,117391.05,117774.368,,45,French
screen,html.Screen,0_2_1_1_46,2021-11-26T12:40:06.915Z,,,,,,,,,,,,,,,,54,,,,,,,,,,,,,,409.03199997615593,,response,,,100,,,,,,Space,keypress(Space),,,,,-- --- ---- --- ------ ----- ------- ---- -- --- ------- --<br>------- ---------- ------ -- ----- -- ----- -- ---- ------<br>--- ----- --- --- ------ -------- ----- --- ------ ----- --<br>----- ----- ---------- --- --- ------ ------ ---- -- ------<br>------- --- ------ state --- ---- ------- -- ---- --- --<br>------- ------,118184.29999995232,118183.39999997616,117757.702,117760.60000002384,117774.368,118191.018,,46,state
screen,html.Screen,0_2_1_1_47,2021-11-26T12:40:07.323Z,,,,,,,,,,,,,,,,54,,,,,,,,,,,,,,400.38199997616175,,response,,,100,,,,,,Space,keypress(Space),,,,,-- --- ---- --- ------ ----- ------- ---- -- --- ------- --<br>------- ---------- ------ -- ----- -- ----- -- ---- ------<br>--- ----- --- --- ------ -------- ----- --- ------ ----- --<br>----- ----- ---------- --- --- ------ ------ ---- -- ------<br>------- --- ------ ----- was ---- ------- -- ---- --- --<br>------- ------,118592.29999995232,118591.39999997616,118174.352,118184.5,118191.018,118607.668,,47,was
screen,html.Screen,0_2_1_1_48,2021-11-26T12:40:07.731Z,,,,,,,,,,,,,,,,54,,,,,,,,,,,,,,391.731999976153,,response,,,100,,,,,,Space,keypress(Space),,,,,-- --- ---- --- ------ ----- ------- ---- -- --- ------- --<br>------- ---------- ------ -- ----- -- ----- -- ---- ------<br>--- ----- --- --- ------ -------- ----- --- ------ ----- --<br>----- ----- ---------- --- --- ------ ------ ---- -- ------<br>------- --- ------ ----- --- left ------- -- ---- --- --<br>------- ------,119000.19999992847,118999.39999997616,118591.002,118592.5,118607.668,119007.652,,48,left
screen,html.Screen,0_2_1_1_49,2021-11-26T12:40:08.123Z,,,,,,,,,,,,,,,,54,,,,,,,,,,,,,,383.7479999761563,,response,,,100,,,,,,Space,keypress(Space),,,,,-- --- ---- --- ------ ----- ------- ---- -- --- ------- --<br>------- ---------- ------ -- ----- -- ----- -- ---- ------<br>--- ----- --- --- ------ -------- ----- --- ------ ----- --<br>----- ----- ---------- --- --- ------ ------ ---- -- ------<br>------- --- ------ ----- --- ---- without -- ---- --- --<br>------- ------,119392.29999995232,119391.39999997616,118990.986,119000.5,119007.652,119407.636,,49,without
screen,html.Screen,0_2_1_1_50,2021-11-26T12:40:08.523Z,,,,,,,,,,,,,,,,54,,,,,,,,,,,,,,383.76399997615954,,response,,,100,,,,,,Space,keypress(Space),,,,,-- --- ---- --- ------ ----- ------- ---- -- --- ------- --<br>------- ---------- ------ -- ----- -- ----- -- ---- ------<br>--- ----- --- --- ------ -------- ----- --- ------ ----- --<br>----- ----- ---------- --- --- ------ ------ ---- -- ------<br>------- --- ------ ----- --- ---- ------- an ---- --- --<br>------- ------,119792.10000002384,119791.39999997616,119390.97,119392.39999997616,119407.636,119807.62,,50,an
screen,html.Screen,0_2_1_1_51,2021-11-26T12:40:08.923Z,,,,,,,,,,,,,,,,54,,,,,,,,,,,,,,383.67999995232094,,response,,,100,,,,,,Space,keypress(Space),,,,,-- --- ---- --- ------ ----- ------- ---- -- --- ------- --<br>------- ---------- ------ -- ----- -- ----- -- ---- ------<br>--- ----- --- --- ------ -------- ----- --- ------ ----- --<br>----- ----- ---------- --- --- ------ ------ ---- -- ------<br>------- --- ------ ----- --- ---- ------- -- easy --- --<br>------- ------,120192.19999992847,120191.29999995232,119790.954,119792.39999997616,119807.62,120207.604,,51,easy
screen,html.Screen,0_2_1_1_52,2021-11-26T12:40:09.319Z,,,,,,,,,,,,,,,,54,,,,,,,,,,,,,,375.69599995230965,,response,,,100,,,,,,Space,keypress(Space),,,,,-- --- ---- --- ------ ----- ------- ---- -- --- ------- --<br>------- ---------- ------ -- ----- -- ----- -- ---- ------<br>--- ----- --- --- ------ -------- ----- --- ------ ----- --<br>----- ----- ---------- --- --- ------ ------ ---- -- ------<br>------- --- ------ ----- --- ---- ------- -- ---- way --<br>------- ------,120584.10000002384,120583.29999995232,120190.938,120192.39999997616,120207.604,120590.922,,52,way
screen,html.Screen,0_2_1_1_53,2021-11-26T12:40:09.807Z,,,,,,,,,,,,,,,,54,,,,,,,,,,,,,,480.37799995231035,,response,,,100,,,,,,Space,keypress(Space),,,,,-- --- ---- --- ------ ----- ------- ---- -- --- ------- --<br>------- ---------- ------ -- ----- -- ----- -- ---- ------<br>--- ----- --- --- ------ -------- ----- --- ------ ----- --<br>----- ----- ---------- --- --- ------ ------ ---- -- ------<br>------- --- ------ ----- --- ---- ------- -- ---- --- of<br>------- ------,121072.10000002384,121071.29999995232,120574.256,120584.39999997616,120590.922,121074.236,,53,of
screen,html.Screen,0_2_1_1_54,2021-11-26T12:40:10.279Z,,,,,,,,,,,,,,,,54,,,,,,,,,,,,,,468.96399992847,,response,,,100,,,,,,Space,keypress(Space),,,,,-- --- ---- --- ------ ----- ------- ---- -- --- ------- --<br>------- ---------- ------ -- ----- -- ----- -- ---- ------<br>--- ----- --- --- ------ -------- ----- --- ------ ----- --<br>----- ----- ---------- --- --- ------ ------ ---- -- ------<br>------- --- ------ ----- --- ---- ------- -- ---- --- --<br>raising ------,121544.10000002384,121543.19999992847,121057.57,121072.29999995232,121074.236,121557.55,,54,raising
screen,html.Screen,0_2_1_1_55,2021-11-26T12:40:11.151Z,,,,,,,,,,,,,,,,54,,,,,,,,,,,,,,857.6499999284715,,response,,,100,,,,,,Space,keypress(Space),,,,,-- --- ---- --- ------ ----- ------- ---- -- --- ------- --<br>------- ---------- ------ -- ----- -- ----- -- ---- ------<br>--- ----- --- --- ------ -------- ----- --- ------ ----- --<br>----- ----- ---------- --- --- ------ ------ ---- -- ------<br>------- --- ------ ----- --- ---- ------- -- ---- --- --<br>------- money.,122416.19999992847,122415.19999992847,121540.884,121544.29999995232,121557.55,122424.182,,55,money.
Item 100,flow.Loop,0_2_1_1,2021-11-26T12:40:11.151Z,,,,,,,,,,,,,,,,,,,,,,,,,,,,,,26989.937999928472,,completion,,,,B,,,,,,,,,,silence,,122416.60000002384,122415.19999992847,95408.596,95410.39999997616,95425.262,122424.182,,,
Question 1,html.Screen,0_2_1_2,2021-11-26T12:40:13.859Z,,,,,,,,,,,,,,,,,,,,,,,,,,,true,TRUE,,2698.8179999999993,,response,,,100,B,,,,,TRUE,click #choice-1,,,,silence,,125124.10000002384,125123,122407.516,122416.79999995232,122424.182,125124.074,,,
Question 2,html.Screen,0_2_1_3,2021-11-26T12:40:16.043Z,,,,,,,,,,,,,,,,,,,,,,,,,,,true,FALSE,,2182.825999976165,,response,,,100,B,,,,,FALSE,click #choice-2,,,,silence,,127308,127306.89999997616,125107.408,125124.39999997616,125124.074,127323.986,,,
Item 100,flow.Sequence,0_2_1,2021-11-26T12:40:16.043Z,,,,,,,,,,,,,,,,,,,,,,,,,,,,,,41881.23799997616,,completion,,,,,,,,,,,,,,,,127308.39999997616,127306.89999997616,85408.996,85415.5,85425.662,127323.986,,,
End of Practice,html.Page,0_2_2,2021-11-26T12:40:19.988Z,,,,,,,,,,,,,,,,,,,,,,,,,,,,,,3928.5139999999956,,form submission,,,,,,,,,,,,,,,,131253.10000002384,131252.5,127307.32,127308.69999992847,127323.986,131257.162,,,
Practice,flow.Sequence,0_2,2021-11-26T12:40:19.988Z,,,,,,,,,,,,,,,,,,,,,,,,,,,,,,95808.17199999999,,completion,,,,,,,,,,,,,,,,131253.5,131252.5,35427.662,35433.10000002384,35444.328,131257.162,,,
Trap_instruction,html.Page,0_3_0,2021-11-26T12:40:20.323Z,,,,,,,,,,,,,,,,,,,,,,,,,,,,,,330.9380000238307,,form submission,,,,,,,,,,,,,,,,131588.5,131588.10000002384,131240.496,131253.89999997616,131257.162,131607.148,,,
trap_trial,html.Screen,0_3_1,2021-11-26T12:40:25.410Z,,,,,,,,,,,,,,,,,,,,,,,,,,,true,1,,5067.15199995233,,response,,,,,,,,,1,click #choice-1,,,,,,136675.60000002384,136674.29999995232,131573.816,131588.79999995232,131607.148,136690.278,,,
end of trap trial,html.Page,0_3_2,2021-11-26T12:40:27.219Z,,,,,,,,,,,,,,,,,,,,,,,,,,,,,,1793.3220000238507,,form submission,,,,,,,,,,,,,,,,138484.10000002384,138483.60000002384,136673.612,136676,136690.278,138490.206,,,
Trap 1,flow.Sequence,0_3,2021-11-26T12:40:27.219Z,,,,,,,,,,,,,,,,,,,,,,,,,,,,,,7226.438000023831,,completion,,,,,,,,,,,,,,,,138484.60000002384,138483.60000002384,131240.496,131253.79999995232,131257.162,138490.206,,,
Standby,html.Page,0_4_0,2021-11-26T12:40:35.209Z,,,,,,,,,,,,,,,,,,,,,,,,,,,,,,7999.679999999993,,timeout,,,,,,,,,,,,,,,,146474.69999992847,146473.22,138473.54,138484.89999997616,138490.206,146489.886,,,
Holding screen,html.Screen,0_4_1_0_0,2021-11-26T12:40:42.209Z,,,,,,,,,,,,,,,,,,,,,,,,,,,,,,6999.720000000001,,timeout,,,,,,,,,,,,,,,,153474.19999992847,153472.94,146473.22,146475.10000002384,146489.886,153489.606,,,
screen,html.Screen,0_4_1_0_1_0,2021-11-26T12:40:43.477Z,,,,,,,,,,,,,,,,11,,,,,,,,,,,,,,1251.994000023842,,response,,,4,B,,,,,Space,keypress(Space),,,,lyrical,Known -- ---- --- -- --- -------- ------------ ---------- --<br>- ------- ------ --------- -- ------------ -- --- ---- -----<br>------ ---- ---- ------ ------ ------- --- ----- ---------<br>---- --- -------- -------- --- --- -- ------- --- --- -----<br>-- --- ------ ------- --- --- -------- ---- --------- --<br>---------- -- -------- ----------------,154742.5,154741.60000002384,153472.94,153474.60000002384,153489.606,154756.222,,0,Known
screen,html.Screen,0_4_1_0_1_1,2021-11-26T12:40:43.957Z,,,,,,,,,,,,,,,,11,,,,,,,,,,,,,,464.9779999284656,,response,,,4,B,,,,,Space,keypress(Space),,,,lyrical,----- as ---- --- -- --- -------- ------------ ---------- --<br>- ------- ------ --------- -- ------------ -- --- ---- -----<br>------ ---- ---- ------ ------ ------- --- ----- ---------<br>---- --- -------- -------- --- --- -- ------- --- --- -----<br>-- --- ------ ------- --- --- -------- ---- --------- --<br>---------- -- -------- ----------------,155222,155221.19999992847,154739.556,154742.79999995232,154756.222,155222.87,,1,as
screen,html.Screen,0_4_1_0_1_2,2021-11-26T12:40:44.677Z,,,,,,,,,,,,,,,,11,,,,,,,,,,,,,,718.2300000238465,,response,,,4,B,,,,,Space,keypress(Space),,,,lyrical,----- -- Rapa --- -- --- -------- ------------ ---------- --<br>- ------- ------ --------- -- ------------ -- --- ---- -----<br>------ ---- ---- ------ ------ ------- --- ----- ---------<br>---- --- -------- -------- --- --- -- ------- --- --- -----<br>-- --- ------ ------- --- --- -------- ---- --------- --<br>---------- -- -------- ----------------,155941.89999997616,155941.10000002384,155206.204,155222.19999992847,155222.87,155956.174,,2,Rapa
screen,html.Screen,0_4_1_0_1_3,2021-11-26T12:40:45.261Z,,,,,,,,,,,,,,,,11,,,,,,,,,,,,,,568.8260000000009,,response,,,4,B,,,,,Space,keypress(Space),,,,lyrical,----- -- ---- Nui -- --- -------- ------------ ---------- --<br>- ------- ------ --------- -- ------------ -- --- ---- -----<br>------ ---- ---- ------ ------ ------- --- ----- ---------<br>---- --- -------- -------- --- --- -- ------- --- --- -----<br>-- --- ------ ------- --- --- -------- ---- --------- --<br>---------- -- -------- ----------------,156526,156525,155939.508,155942.19999992847,155956.174,156539.484,,3,Nui
screen,html.Screen,0_4_1_0_1_4,2021-11-26T12:40:45.836Z,,,,,,,,,,,,,,,,11,,,,,,,,,,,,,,561.5160000000033,,response,,,4,B,,,,,Space,keypress(Space),,,,lyrical,----- -- ---- --- to --- -------- ------------ ---------- --<br>- ------- ------ --------- -- ------------ -- --- ---- -----<br>------ ---- ---- ------ ------ ------- --- ----- ---------<br>---- --- -------- -------- --- --- -- ------- --- --- -----<br>-- --- ------ ------- --- --- -------- ---- --------- --<br>---------- -- -------- ----------------,157101.79999995232,157101,156522.818,156526.29999995232,156539.484,157106.128,,4,to
screen,html.Screen,0_4_1_0_1_5,2021-11-26T12:40:46.276Z,,,,,,,,,,,,,,,,11,,,,,,,,,,,,,,434.872000000003,,response,,,4,B,,,,,Space,keypress(Space),,,,lyrical,----- -- ---- --- -- the -------- ------------ ---------- --<br>- ------- ------ --------- -- ------------ -- --- ---- -----<br>------ ---- ---- ------ ------ ------- --- ----- ---------<br>---- --- -------- -------- --- --- -- ------- --- --- -----<br>-- --- ------ ------- --- --- -------- ---- --------- --<br>---------- -- -------- ----------------,157541.79999995232,157541,157089.462,157102.10000002384,157106.128,157556.11,,5,the
screen,html.Screen,0_4_1_0_1_6,2021-11-26T12:40:47.292Z,,,,,,,,,,,,,,,,11,,,,,,,,,,,,,,1000.7899999761721,,response,,,4,B,,,,,Space,keypress(Space),,,,lyrical,----- -- ---- --- -- --- island's ------------ ---------- --<br>- ------- ------ --------- -- ------------ -- --- ---- -----<br>------ ---- ---- ------ ------ ------- --- ----- ---------<br>---- --- -------- -------- --- --- -- ------- --- --- -----<br>-- --- ------ ------- --- --- -------- ---- --------- --<br>---------- -- -------- ----------------,158557.69999992847,158556.89999997616,157539.444,157542.19999992847,157556.11,158572.736,,6,island's
screen,html.Screen,0_4_1_0_1_7,2021-11-26T12:40:48.020Z,,,,,,,,,,,,,,,,11,,,,,,,,,,,,,,712.1639999761537,,response,,,4,B,,,,,Space,keypress(Space),,,,lyrical,"----- -- ---- --- -- --- -------- inhabitants, ---------- --<br>- ------- ------ --------- -- ------------ -- --- ---- -----<br>------ ---- ---- ------ ------ ------- --- ----- ---------<br>---- --- -------- -------- --- --- -- ------- --- --- -----<br>-- --- ------ ------- --- --- -------- ---- --------- --<br>---------- -- -------- ----------------",159285.60000002384,159284.89999997616,158556.07,158557.89999997616,158572.736,159289.374,,7,"inhabitants,"
screen,html.Screen,0_4_1_0_1_8,2021-11-26T12:40:48.660Z,,,,,,,,,,,,,,,,11,,,,,,,,,,,,,,635.4259999523056,,response,,,4,B,,,,,Space,keypress(Space),,,,lyrical,----- -- ---- --- -- --- -------- ------------ Rongorongo --<br>- ------- ------ --------- -- ------------ -- --- ---- -----<br>------ ---- ---- ------ ------ ------- --- ----- ---------<br>---- --- -------- -------- --- --- -- ------- --- --- -----<br>-- --- ------ ------- --- --- -------- ---- --------- --<br>---------- -- -------- ----------------,159925.60000002384,159924.79999995232,159272.708,159285.89999997616,159289.374,159939.348,,8,Rongorongo
screen,html.Screen,0_4_1_0_1_9,2021-11-26T12:40:49.188Z,,,,,,,,,,,,,,,,11,,,,,,,,,,,,,,513.4519999523181,,response,,,4,B,,,,,Space,keypress(Space),,,,lyrical,----- -- ---- --- -- --- -------- ------------ ---------- is<br>- ------- ------ --------- -- ------------ -- --- ---- -----<br>------ ---- ---- ------ ------ ------- --- ----- ---------<br>---- --- -------- -------- --- --- -- ------- --- --- -----<br>-- --- ------ ------- --- --- -------- ---- --------- --<br>---------- -- -------- ----------------,160453.60000002384,160452.79999995232,159922.682,159925.89999997616,159939.348,160455.994,,9,is
screen,html.Screen,0_4_1_0_1_10,2021-11-26T12:40:49.676Z,,,,,,,,,,,,,,,,11,,,,,,,,,,,,,,484.7059999284684,,response,,,4,B,,,,,Space,keypress(Space),,,,lyrical,----- -- ---- --- -- --- -------- ------------ ---------- --<br>a ------- ------ --------- -- ------------ -- --- ---- -----<br>------ ---- ---- ------ ------ ------- --- ----- ---------<br>---- --- -------- -------- --- --- -- ------- --- --- -----<br>-- --- ------ ------- --- --- -------- ---- --------- --<br>---------- -- -------- ----------------,160941.60000002384,160940.69999992847,160439.328,160453.79999995232,160455.994,160955.974,,10,a
screen,html.Screen,0_4_1_0_1_11,2021-11-26T12:40:50.516Z,,,,,,,,,,,,,,,,11,,,,,,,,,,,,,,824.725999928487,,response,,,4,B,,,,,Space,keypress(Space),,,,lyrical,----- -- ---- --- -- --- -------- ------------ ---------- --<br>- writing ------ --------- -- ------------ -- --- ---- -----<br>------ ---- ---- ------ ------ ------- --- ----- ---------<br>---- --- -------- -------- --- --- -- ------- --- --- -----<br>-- --- ------ ------- --- --- -------- ---- --------- --<br>---------- -- -------- ----------------,161781.5,161780.69999992847,160939.308,160941.89999997616,160955.974,161789.274,,11,writing
screen,html.Screen,0_4_1_0_1_12,2021-11-26T12:40:51.060Z,,,,,,,,,,,,,,,,11,,,,,,,,,,,,,,535.4259999284695,,response,,,4,B,,,,,Space,keypress(Space),,,,lyrical,----- -- ---- --- -- --- -------- ------------ ---------- --<br>- ------- system --------- -- ------------ -- --- ---- -----<br>------ ---- ---- ------ ------ ------- --- ----- ---------<br>---- --- -------- -------- --- --- -- ------- --- --- -----<br>-- --- ------ ------- --- --- -------- ---- --------- --<br>---------- -- -------- ----------------,162325.5,162324.69999992847,161772.608,161781.79999995232,161789.274,162339.252,,12,system
screen,html.Screen,0_4_1_0_1_13,2021-11-26T12:40:51.772Z,,,,,,,,,,,,,,,,11,,,,,,,,,,,,,,697.4479999284667,,response,,,4,B,,,,,Space,keypress(Space),,,,lyrical,----- -- ---- --- -- --- -------- ------------ ---------- --<br>- ------- ------ comprised -- ------------ -- --- ---- -----<br>------ ---- ---- ------ ------ ------- --- ----- ---------<br>---- --- -------- -------- --- --- -- ------- --- --- -----<br>-- --- ------ ------- --- --- -------- ---- --------- --<br>---------- -- -------- ----------------,163037.39999997616,163036.69999992847,162322.586,162325.69999992847,162339.252,163039.224,,13,comprised
screen,html.Screen,0_4_1_0_1_14,2021-11-26T12:40:52.356Z,,,,,,,,,,,,,,,,11,,,,,,,,,,,,,,581.2760000000126,,response,,,4,B,,,,,Space,keypress(Space),,,,lyrical,----- -- ---- --- -- --- -------- ------------ ---------- --<br>- ------- ------ --------- of ------------ -- --- ---- -----<br>------ ---- ---- ------ ------ ------- --- ----- ---------<br>---- --- -------- -------- --- --- -- ------- --- --- -----<br>-- --- ------ ------- --- --- -------- ---- --------- --<br>---------- -- -------- ----------------,163621.39999997616,163620.5,163022.558,163037.69999992847,163039.224,163622.534,,14,of
screen,html.Screen,0_4_1_0_1_15,2021-11-26T12:40:53.356Z,,,,,,,,,,,,,,,,11,,,,,,,,,,,,,,997.9659999999858,,response,,,4,B,,,,,Space,keypress(Space),,,,lyrical,----- -- ---- --- -- --- -------- ------------ ---------- --<br>- ------- ------ --------- -- pictographs. -- --- ---- -----<br>------ ---- ---- ------ ------ ------- --- ----- ---------<br>---- --- -------- -------- --- --- -- ------- --- --- -----<br>-- --- ------ ------- --- --- -------- ---- --------- --<br>---------- -- -------- ----------------,164621.39999997616,164620.5,163605.868,163621.60000002384,163622.534,164622.494,,15,pictographs.
screen,html.Screen,0_4_1_0_1_16,2021-11-26T12:40:53.788Z,,,,,,,,,,,,,,,,11,,,,,,,,,,,,,,430.30599995231023,,response,,,4,B,,,,,Space,keypress(Space),,,,lyrical,----- -- ---- --- -- --- -------- ------------ ---------- --<br>- ------- ------ --------- -- ------------ It --- ---- -----<br>------ ---- ---- ------ ------ ------- --- ----- ---------<br>---- --- -------- -------- --- --- -- ------- --- --- -----<br>-- --- ------ ------- --- --- -------- ---- --------- --<br>---------- -- -------- ----------------,165053.69999992847,165052.79999995232,164605.828,164621.60000002384,164622.494,165055.81,,16,It
screen,html.Screen,0_4_1_0_1_17,2021-11-26T12:40:54.292Z,,,,,,,,,,,,,,,,11,,,,,,,,,,,,,,500.6900000000023,,response,,,4,B,,,,,Space,keypress(Space),,,,lyrical,----- -- ---- --- -- --- -------- ------------ ---------- --<br>- ------- ------ --------- -- ------------ -- has ---- -----<br>------ ---- ---- ------ ------ ------- --- ----- ---------<br>---- --- -------- -------- --- --- -- ------- --- --- -----<br>-- --- ------ ------- --- --- -------- ---- --------- --<br>---------- -- -------- ----------------,165557.29999995232,165556.5,165039.144,165054,165055.81,165572.456,,17,has
screen,html.Screen,0_4_1_0_1_18,2021-11-26T12:40:54.852Z,,,,,,,,,,,,,,,,11,,,,,,,,,,,,,,543.9439999761526,,response,,,4,B,,,,,Space,keypress(Space),,,,lyrical,----- -- ---- --- -- --- -------- ------------ ---------- --<br>- ------- ------ --------- -- ------------ -- --- been -----<br>------ ---- ---- ------ ------ ------- --- ----- ---------<br>---- --- -------- -------- --- --- -- ------- --- --- -----<br>-- --- ------ ------- --- --- -------- ---- --------- --<br>---------- -- -------- ----------------,166117.19999992847,166116.39999997616,165555.79,165557.60000002384,165572.456,166122.434,,18,been
screen,html.Screen,0_4_1_0_1_19,2021-11-26T12:40:55.292Z,,,,,,,,,,,,,,,,11,,,,,,,,,,,,,,433.96599997614976,,response,,,4,B,,,,,Space,keypress(Space),,,,lyrical,----- -- ---- --- -- --- -------- ------------ ---------- --<br>- ------- ------ --------- -- ------------ -- --- ---- found<br>------ ---- ---- ------ ------ ------- --- ----- ---------<br>---- --- -------- -------- --- --- -- ------- --- --- -----<br>-- --- ------ ------- --- --- -------- ---- --------- --<br>---------- -- -------- ----------------,166557.29999995232,166556.39999997616,166105.768,166117.5,166122.434,166572.416,,19,found
screen,html.Screen,0_4_1_0_1_20,2021-11-26T12:40:55.796Z,,,,,,,,,,,,,,,,11,,,,,,,,,,,,,,487.9839999761607,,response,,,4,B,,,,,Space,keypress(Space),,,,lyrical,----- -- ---- --- -- --- -------- ------------ ---------- --<br>- ------- ------ --------- -- ------------ -- --- ---- -----<br>carved ---- ---- ------ ------ ------- --- ----- ---------<br>---- --- -------- -------- --- --- -- ------- --- --- -----<br>-- --- ------ ------- --- --- -------- ---- --------- --<br>---------- -- -------- ----------------,167061.29999995232,167060.39999997616,166555.75,166557.39999997616,166572.416,167072.396,,20,carved
screen,html.Screen,0_4_1_0_1_21,2021-11-26T12:40:56.604Z,,,,,,,,,,,,,,,,11,,,,,,,,,,,,,,795.9039999523084,,response,,,4,B,,,,,Space,keypress(Space),,,,lyrical,----- -- ---- --- -- --- -------- ------------ ---------- --<br>- ------- ------ --------- -- ------------ -- --- ---- -----<br>------ into ---- ------ ------ ------- --- ----- ---------<br>---- --- -------- -------- --- --- -- ------- --- --- -----<br>-- --- ------ ------- --- --- -------- ---- --------- --<br>---------- -- -------- ----------------,167869.19999992847,167868.29999995232,167055.73,167061.69999992847,167072.396,167872.364,,21,into
screen,html.Screen,0_4_1_0_1_22,2021-11-26T12:40:57.252Z,,,,,,,,,,,,,,,,11,,,,,,,,,,,,,,643.9359999523149,,response,,,4,B,,,,,Space,keypress(Space),,,,lyrical,----- -- ---- --- -- --- -------- ------------ ---------- --<br>- ------- ------ --------- -- ------------ -- --- ---- -----<br>------ ---- many ------ ------ ------- --- ----- ---------<br>---- --- -------- -------- --- --- -- ------- --- --- -----<br>-- --- ------ ------- --- --- -------- ---- --------- --<br>---------- -- -------- ----------------,168517.10000002384,168516.29999995232,167855.698,167869.39999997616,167872.364,168522.338,,22,many
screen,html.Screen,0_4_1_0_1_23,2021-11-26T12:40:57.740Z,,,,,,,,,,,,,,,,11,,,,,,,,,,,,,,481.8619999284856,,response,,,4,B,,,,,Space,keypress(Space),,,,lyrical,----- -- ---- --- -- --- -------- ------------ ---------- --<br>- ------- ------ --------- -- ------------ -- --- ---- -----<br>------ ---- ---- oblong ------ ------- --- ----- ---------<br>---- --- -------- -------- --- --- -- ------- --- --- -----<br>-- --- ------ ------- --- --- -------- ---- --------- --<br>---------- -- -------- ----------------,169005,169004.19999992847,168505.672,168517.29999995232,168522.338,169022.318,,23,oblong
screen,html.Screen,0_4_1_0_1_24,2021-11-26T12:40:58.252Z,,,,,,,,,,,,,,,,11,,,,,,,,,,,,,,493.8819999284751,,response,,,4,B,,,,,Space,keypress(Space),,,,lyrical,----- -- ---- --- -- --- -------- ------------ ---------- --<br>- ------- ------ --------- -- ------------ -- --- ---- -----<br>------ ---- ---- ------ wooden ------- --- ----- ---------<br>---- --- -------- -------- --- --- -- ------- --- --- -----<br>-- --- ------ ------- --- --- -------- ---- --------- --<br>---------- -- -------- ----------------,169517.10000002384,169516.19999992847,169005.652,169005.29999995232,169022.318,169522.298,,24,wooden
screen,html.Screen,0_4_1_0_1_25,2021-11-26T12:40:58.772Z,,,,,,,,,,,,,,,,11,,,,,,,,,,,,,,513.8020000238321,,response,,,4,B,,,,,Space,keypress(Space),,,,lyrical,----- -- ---- --- -- --- -------- ------------ ---------- --<br>- ------- ------ --------- -- ------------ -- --- ---- -----<br>------ ---- ---- ------ ------ tablets --- ----- ---------<br>---- --- -------- -------- --- --- -- ------- --- --- -----<br>-- --- ------ ------- --- --- -------- ---- --------- --<br>---------- -- -------- ----------------,170037,170036.10000002384,169505.632,169517.19999992847,169522.298,170038.944,,25,tablets
screen,html.Screen,0_4_1_0_1_26,2021-11-26T12:40:59.276Z,,,,,,,,,,,,,,,,11,,,,,,,,,,,,,,501.25599992848583,,response,,,4,B,,,,,Space,keypress(Space),,,,lyrical,----- -- ---- --- -- --- -------- ------------ ---------- --<br>- ------- ------ --------- -- ------------ -- --- ---- -----<br>------ ---- ---- ------ ------ ------- and ----- ---------<br>---- --- -------- -------- --- --- -- ------- --- --- -----<br>-- --- ------ ------- --- --- -------- ---- --------- --<br>---------- -- -------- ----------------,170540.89999997616,170540.19999992847,170022.278,170037.29999995232,170038.944,170555.59,,26,and
screen,html.Screen,0_4_1_0_1_27,2021-11-26T12:40:59.748Z,,,,,,,,,,,,,,,,11,,,,,,,,,,,,,,456.51000002384535,,response,,,4,B,,,,,Space,keypress(Space),,,,lyrical,----- -- ---- --- -- --- -------- ------------ ---------- --<br>- ------- ------ --------- -- ------------ -- --- ---- -----<br>------ ---- ---- ------ ------ ------- --- other ---------<br>---- --- -------- -------- --- --- -- ------- --- --- -----<br>-- --- ------ ------- --- --- -------- ---- --------- --<br>---------- -- -------- ----------------,171012.89999997616,171012.10000002384,170538.924,170541.19999992847,170555.59,171022.238,,27,other
screen,html.Screen,0_4_1_0_1_28,2021-11-26T12:41:00.291Z,,,,,,,,,,,,,,,,11,,,,,,,,,,,,,,533.8620000238298,,response,,,4,B,,,,,Space,keypress(Space),,,,lyrical,----- -- ---- --- -- --- -------- ------------ ---------- --<br>- ------- ------ --------- -- ------------ -- --- ---- -----<br>------ ---- ---- ------ ------ ------- --- ----- artifacts<br>---- --- -------- -------- --- --- -- ------- --- --- -----<br>-- --- ------ ------- --- --- -------- ---- --------- --<br>---------- -- -------- ----------------,171556.89999997616,171556.10000002384,171005.572,171013.19999992847,171022.238,171572.216,,28,artifacts
screen,html.Screen,0_4_1_0_1_29,2021-11-26T12:41:01.035Z,,,,,,,,,,,,,,,,11,,,,,,,,,,,,,,727.7840000000142,,response,,,4,B,,,,,Space,keypress(Space),,,,lyrical,----- -- ---- --- -- --- -------- ------------ ---------- --<br>- ------- ------ --------- -- ------------ -- --- ---- -----<br>------ ---- ---- ------ ------ ------- --- ----- ---------<br>from --- -------- -------- --- --- -- ------- --- --- -----<br>-- --- ------ ------- --- --- -------- ---- --------- --<br>---------- -- -------- ----------------,172300.79999995232,172300,171555.55,171557.10000002384,171572.216,172305.52,,29,from
screen,html.Screen,0_4_1_0_1_30,2021-11-26T12:41:01.627Z,,,,,,,,,,,,,,,,11,,,,,,,,,,,,,,586.4800000000105,,response,,,4,B,,,,,Space,keypress(Space),,,,lyrical,----- -- ---- --- -- --- -------- ------------ ---------- --<br>- ------- ------ --------- -- ------------ -- --- ---- -----<br>------ ---- ---- ------ ------ ------- --- ----- ---------<br>---- the -------- -------- --- --- -- ------- --- --- -----<br>-- --- ------ ------- --- --- -------- ---- --------- --<br>---------- -- -------- ----------------,172892.79999995232,172892,172288.854,172301.10000002384,172305.52,172905.496,,30,the
screen,html.Screen,0_4_1_0_1_31,2021-11-26T12:41:02.251Z,,,,,,,,,,,,,,,,11,,,,,,,,,,,,,,610.5039999999863,,response,,,4,B,,,,,Space,keypress(Space),,,,lyrical,----- -- ---- --- -- --- -------- ------------ ---------- --<br>- ------- ------ --------- -- ------------ -- --- ---- -----<br>------ ---- ---- ------ ------ ------- --- ----- ---------<br>---- --- island's -------- --- --- -- ------- --- --- -----<br>-- --- ------ ------- --- --- -------- ---- --------- --<br>---------- -- -------- ----------------,173516.79999995232,173516,172888.83,172893.10000002384,172905.496,173522.138,,31,island's
screen,html.Screen,0_4_1_0_1_32,2021-11-26T12:41:02.859Z,,,,,,,,,,,,,,,,11,,,,,,,,,,,,,,601.7619999761519,,response,,,4,B,,,,,Space,keypress(Space),,,,lyrical,----- -- ---- --- -- --- -------- ------------ ---------- --<br>- ------- ------ --------- -- ------------ -- --- ---- -----<br>------ ---- ---- ------ ------ ------- --- ----- ---------<br>---- --- -------- history. --- --- -- ------- --- --- -----<br>-- --- ------ ------- --- --- -------- ---- --------- --<br>---------- -- -------- ----------------,174124.69999992847,174123.89999997616,173505.472,173517,173522.138,174138.78,,32,history.
screen,html.Screen,0_4_1_0_1_33,2021-11-26T12:41:03.483Z,,,,,,,,,,,,,,,,11,,,,,,,,,,,,,,609.1199999761593,,response,,,4,B,,,,,Space,keypress(Space),,,,lyrical,----- -- ---- --- -- --- -------- ------------ ---------- --<br>- ------- ------ --------- -- ------------ -- --- ---- -----<br>------ ---- ---- ------ ------ ------- --- ----- ---------<br>---- --- -------- -------- The --- -- ------- --- --- -----<br>-- --- ------ ------- --- --- -------- ---- --------- --<br>---------- -- -------- ----------------,174748.69999992847,174747.89999997616,174122.114,174125,174138.78,174755.422,,33,The
screen,html.Screen,0_4_1_0_1_34,2021-11-26T12:41:04.004Z,,,,,,,,,,,,,,,,11,,,,,,,,,,,,,,512.777999928483,,response,,,4,B,,,,,Space,keypress(Space),,,,lyrical,----- -- ---- --- -- --- -------- ------------ ---------- --<br>- ------- ------ --------- -- ------------ -- --- ---- -----<br>------ ---- ---- ------ ------ ------- --- ----- ---------<br>---- --- -------- -------- --- art -- ------- --- --- -----<br>-- --- ------ ------- --- --- -------- ---- --------- --<br>---------- -- -------- ----------------,175269.10000002384,175268.19999992847,174738.756,174748.89999997616,174755.422,175272.068,,34,art
screen,html.Screen,0_4_1_0_1_35,2021-11-26T12:41:04.539Z,,,,,,,,,,,,,,,,11,,,,,,,,,,,,,,531.731999952317,,response,,,4,B,,,,,Space,keypress(Space),,,,lyrical,----- -- ---- --- -- --- -------- ------------ ---------- --<br>- ------- ------ --------- -- ------------ -- --- ---- -----<br>------ ---- ---- ------ ------ ------- --- ----- ---------<br>---- --- -------- -------- --- --- of ------- --- --- -----<br>-- --- ------ ------- --- --- -------- ---- --------- --<br>---------- -- -------- ----------------,175804.60000002384,175803.79999995232,175255.402,175269.29999995232,175272.068,175822.046,,35,of
screen,html.Screen,0_4_1_0_1_36,2021-11-26T12:41:05.027Z,,,,,,,,,,,,,,,,11,,,,,,,,,,,,,,469.7539999523142,,response,,,4,B,,,,,Space,keypress(Space),,,,lyrical,----- -- ---- --- -- --- -------- ------------ ---------- --<br>- ------- ------ --------- -- ------------ -- --- ---- -----<br>------ ---- ---- ------ ------ ------- --- ----- ---------<br>---- --- -------- -------- --- --- -- writing --- --- -----<br>-- --- ------ ------- --- --- -------- ---- --------- --<br>---------- -- -------- ----------------,176292.60000002384,176291.79999995232,175805.38,175804.89999997616,175822.046,176305.36,,36,writing
screen,html.Screen,0_4_1_0_1_37,2021-11-26T12:41:05.619Z,,,,,,,,,,,,,,,,11,,,,,,,,,,,,,,578.3399999284884,,response,,,4,B,,,,,Space,keypress(Space),,,,lyrical,----- -- ---- --- -- --- -------- ------------ ---------- --<br>- ------- ------ --------- -- ------------ -- --- ---- -----<br>------ ---- ---- ------ ------ ------- --- ----- ---------<br>---- --- -------- -------- --- --- -- ------- was --- -----<br>-- --- ------ ------- --- --- -------- ---- --------- --<br>---------- -- -------- ----------------,176884.60000002384,176883.69999992847,176288.694,176292.89999997616,176305.36,176888.67,,37,was
screen,html.Screen,0_4_1_0_1_38,2021-11-26T12:41:06.155Z,,,,,,,,,,,,,,,,11,,,,,,,,,,,,,,531.1299999523035,,response,,,4,B,,,,,Space,keypress(Space),,,,lyrical,----- -- ---- --- -- --- -------- ------------ ---------- --<br>- ------- ------ --------- -- ------------ -- --- ---- -----<br>------ ---- ---- ------ ------ ------- --- ----- ---------<br>---- --- -------- -------- --- --- -- ------- --- not -----<br>-- --- ------ ------- --- --- -------- ---- --------- --<br>---------- -- -------- ----------------,177420.5,177419.79999995232,176872.004,176884.79999995232,176888.67,177421.982,,38,not
screen,html.Screen,0_4_1_0_1_39,2021-11-26T12:41:06.723Z,,,,,,,,,,,,,,,,11,,,,,,,,,,,,,,565.7179999284854,,response,,,4,B,,,,,Space,keypress(Space),,,,lyrical,----- -- ---- --- -- --- -------- ------------ ---------- --<br>- ------- ------ --------- -- ------------ -- --- ---- -----<br>------ ---- ---- ------ ------ ------- --- ----- ---------<br>---- --- -------- -------- --- --- -- ------- --- --- known<br>-- --- ------ ------- --- --- -------- ---- --------- --<br>---------- -- -------- ----------------,177988.39999997616,177987.69999992847,177405.316,177420.79999995232,177421.982,178005.292,,39,known
screen,html.Screen,0_4_1_0_1_40,2021-11-26T12:41:07.227Z,,,,,,,,,,,,,,,,11,,,,,,,,,,,,,,486.4079999284877,,response,,,4,B,,,,,Space,keypress(Space),,,,lyrical,----- -- ---- --- -- --- -------- ------------ ---------- --<br>- ------- ------ --------- -- ------------ -- --- ---- -----<br>------ ---- ---- ------ ------ ------- --- ----- ---------<br>---- --- -------- -------- --- --- -- ------- --- --- -----<br>in --- ------ ------- --- --- -------- ---- --------- --<br>---------- -- -------- ----------------,178492.39999997616,178491.69999992847,177988.626,177988.69999992847,178005.292,178505.272,,40,in
screen,html.Screen,0_4_1_0_1_41,2021-11-26T12:41:07.763Z,,,,,,,,,,,,,,,,11,,,,,,,,,,,,,,522.2280000000028,,response,,,4,B,,,,,Space,keypress(Space),,,,lyrical,----- -- ---- --- -- --- -------- ------------ ---------- --<br>- ------- ------ --------- -- ------------ -- --- ---- -----<br>------ ---- ---- ------ ------ ------- --- ----- ---------<br>---- --- -------- -------- --- --- -- ------- --- --- -----<br>-- any ------ ------- --- --- -------- ---- --------- --<br>---------- -- -------- ----------------,179028.29999995232,179027.5,178488.606,178492.69999992847,178505.272,179038.584,,41,any
screen,html.Screen,0_4_1_0_1_42,2021-11-26T12:41:08.275Z,,,,,,,,,,,,,,,,11,,,,,,,,,,,,,,501.0160000238393,,response,,,4,B,,,,,Space,keypress(Space),,,,lyrical,----- -- ---- --- -- --- -------- ------------ ---------- --<br>- ------- ------ --------- -- ------------ -- --- ---- -----<br>------ ---- ---- ------ ------ ------- --- ----- ---------<br>---- --- -------- -------- --- --- -- ------- --- --- -----<br>-- --- nearby ------- --- --- -------- ---- --------- --<br>---------- -- -------- ----------------,179540.39999997616,179539.60000002384,179021.918,179028.60000002384,179038.584,179555.23,,42,nearby
screen,html.Screen,0_4_1_0_1_43,2021-11-26T12:41:08.907Z,,,,,,,,,,,,,,,,11,,,,,,,,,,,,,,616.2699999999895,,response,,,4,B,,,,,Space,keypress(Space),,,,lyrical,----- -- ---- --- -- --- -------- ------------ ---------- --<br>- ------- ------ --------- -- ------------ -- --- ---- -----<br>------ ---- ---- ------ ------ ------- --- ----- ---------<br>---- --- -------- -------- --- --- -- ------- --- --- -----<br>-- --- ------ islands --- --- -------- ---- --------- --<br>---------- -- -------- ----------------,180172.29999995232,180171.5,179538.564,179540.60000002384,179555.23,180188.538,,43,islands
screen,html.Screen,0_4_1_0_1_44,2021-11-26T12:41:09.549Z,,,,,,,,,,,,,,,,11,,,,,,,,,,,,,,622.9619999999995,,response,,,4,B,,,,,Space,keypress(Space),,,,lyrical,----- -- ---- --- -- --- -------- ------------ ---------- --<br>- ------- ------ --------- -- ------------ -- --- ---- -----<br>------ ---- ---- ------ ------ ------- --- ----- ---------<br>---- --- -------- -------- --- --- -- ------- --- --- -----<br>-- --- ------ ------- and --- -------- ---- --------- --<br>---------- -- -------- ----------------,180812.29999995232,180811.5,180171.872,180172.5,180188.538,180821.846,,44,and
screen,html.Screen,0_4_1_0_1_45,2021-11-26T12:41:10.117Z,,,,,,,,,,,,,,,,11,,,,,,,,,,,,,,557.6540000000095,,response,,,4,B,,,,,Space,keypress(Space),,,,lyrical,----- -- ---- --- -- --- -------- ------------ ---------- --<br>- ------- ------ --------- -- ------------ -- --- ---- -----<br>------ ---- ---- ------ ------ ------- --- ----- ---------<br>---- --- -------- -------- --- --- -- ------- --- --- -----<br>-- --- ------ ------- --- the -------- ---- --------- --<br>---------- -- -------- ----------------,181380.19999992847,181379.5,180805.18,180812.5,180821.846,181388.49,,45,the
screen,html.Screen,0_4_1_0_1_46,2021-11-26T12:41:10.565Z,,,,,,,,,,,,,,,,11,,,,,,,,,,,,,,438.90999997616746,,response,,,4,B,,,,,Space,keypress(Space),,,,lyrical,----- -- ---- --- -- --- -------- ------------ ---------- --<br>- ------- ------ --------- -- ------------ -- --- ---- -----<br>------ ---- ---- ------ ------ ------- --- ----- ---------<br>---- --- -------- -------- --- --- -- ------- --- --- -----<br>-- --- ------ ------- --- --- script's ---- --------- --<br>---------- -- -------- ----------------,181828.29999995232,181827.39999997616,181371.824,181380.5,181388.49,181838.472,,46,script's
screen,html.Screen,0_4_1_0_1_47,2021-11-26T12:41:10.989Z,,,,,,,,,,,,,,,,11,,,,,,,,,,,,,,412.9279999761493,,response,,,4,B,,,,,Space,keypress(Space),,,,lyrical,----- -- ---- --- -- --- -------- ------------ ---------- --<br>- ------- ------ --------- -- ------------ -- --- ---- -----<br>------ ---- ---- ------ ------ ------- --- ----- ---------<br>---- --- -------- -------- --- --- -- ------- --- --- -----<br>-- --- ------ ------- --- --- -------- mere --------- --<br>---------- -- -------- ----------------,182252.19999992847,182251.39999997616,181821.806,181828.60000002384,181838.472,182255.122,,47,mere
screen,html.Screen,0_4_1_0_1_48,2021-11-26T12:41:11.477Z,,,,,,,,,,,,,,,,11,,,,,,,,,,,,,,484.2779999761551,,response,,,4,B,,,,,Space,keypress(Space),,,,lyrical,----- -- ---- --- -- --- -------- ------------ ---------- --<br>- ------- ------ --------- -- ------------ -- --- ---- -----<br>------ ---- ---- ------ ------ ------- --- ----- ---------<br>---- --- -------- -------- --- --- -- ------- --- --- -----<br>-- --- ------ ------- --- --- -------- ---- existence --<br>---------- -- -------- ----------------,182740.10000002384,182739.39999997616,182238.456,182252.5,182255.122,182755.102,,48,existence
screen,html.Screen,0_4_1_0_1_49,2021-11-26T12:41:12.021Z,,,,,,,,,,,,,,,,11,,,,,,,,,,,,,,528.2979999761446,,response,,,4,B,,,,,Space,keypress(Space),,,,lyrical,----- -- ---- --- -- --- -------- ------------ ---------- --<br>- ------- ------ --------- -- ------------ -- --- ---- -----<br>------ ---- ---- ------ ------ ------- --- ----- ---------<br>---- --- -------- -------- --- --- -- ------- --- --- -----<br>-- --- ------ ------- --- --- -------- ---- --------- is<br>---------- -- -------- ----------------,183284.19999992847,183283.39999997616,182738.436,182740.39999997616,182755.102,183288.414,,49,is
screen,html.Screen,0_4_1_0_1_50,2021-11-26T12:41:12.533Z,,,,,,,,,,,,,,,,11,,,,,,,,,,,,,,506.88599995232653,,response,,,4,B,,,,,Space,keypress(Space),,,,lyrical,----- -- ---- --- -- --- -------- ------------ ---------- --<br>- ------- ------ --------- -- ------------ -- --- ---- -----<br>------ ---- ---- ------ ------ ------- --- ----- ---------<br>---- --- -------- -------- --- --- -- ------- --- --- -----<br>-- --- ------ ------- --- --- -------- ---- --------- --<br>sufficient -- -------- ----------------,183796.10000002384,183795.29999995232,183271.748,183284.39999997616,183288.414,183805.06,,50,sufficient
screen,html.Screen,0_4_1_0_1_51,2021-11-26T12:41:12.973Z,,,,,,,,,,,,,,,,11,,,,,,,,,,,,,,430.2399999523186,,response,,,4,B,,,,,Space,keypress(Space),,,,lyrical,----- -- ---- --- -- --- -------- ------------ ---------- --<br>- ------- ------ --------- -- ------------ -- --- ---- -----<br>------ ---- ---- ------ ------ ------- --- ----- ---------<br>---- --- -------- -------- --- --- -- ------- --- --- -----<br>-- --- ------ ------- --- --- -------- ---- --------- --<br>---------- to -------- ----------------,184236.10000002384,184235.29999995232,183788.394,183796.29999995232,183805.06,184238.376,,51,to
