sender,sender_type,sender_id,timestamp,meta,,Blues,Classical,Country,Dance,Electronic,Folk,Gospel,Hip-Hop,Jazz,Latin,Musical/Film,New-age,Pop,Provo_ID,R&B,Rap,Reggae,Religious,Rock,Soul,Swing,Traditional,age,artist_name,correct,correctResponse,distraction,duration,education,ended_on,familiarity,gender,item,list,music_frequency,offensiveness,pleasantness,preference,response,response_action,snippet_file,song_name,song_rating,sound,text,time_commit,time_end,time_render,time_run,time_show,time_switch,url,word,word_ID
Instructions,html.Page,0_0,2021-11-26T13:27:29.771Z,"{""labjs_version"":""20.2.3"",""labjs_build"":{""flavor"":""production"",""commit"":""7ea907d66ca8aeef8054924ca5d82ffbe11e34e5""},""location"":""https://run.pavlovia.org/mvasilev/lab_music_b/"",""userAgent"":""Mozilla/5.0 (Windows NT 6.1; Win64; x64) AppleWebKit/537.36 (KHTML, like Gecko) Chrome/96.0.4664.45 Safari/537.36"",""platform"":""Win32"",""language"":""en-US"",""locale"":""en-US"",""timeZone"":""Europe/London"",""timezoneOffset"":0,""screen_width"":1920,""screen_height"":1080,""scroll_width"":1920,""scroll_height"":921,""window_innerWidth"":1920,""window_innerHeight"":969,""devicePixelRatio"":1}",,,,,,,,,,,,,,,,,,,,,,,,,,,,,26400.090000000375,,form submission,,,,,,,,,,,,,,,,37203.59999999963,37202.40000000037,10768.882,10780.699999999255,10802.31,37218.254,{},,
Headphones,html.Page,0_1,2021-11-26T13:27:31.684Z,,,,,,,,,,,,,,,,,,,,,,,,,,,,,,1898.0459999988816,,form submission,,,,,,,,,,,,,,,,39116.79999999888,39116.29999999888,37201.615,37204.40000000037,37218.254,39130.093,,,
Holding screen,html.Screen,0_2_0_0,2021-11-26T13:27:41.693Z,,,,,,,,,,,,,,,,,,,,,,,,,,,,,,10005.493999999999,,timeout,,,,,,,,,,,,,,,,49125.59999999963,49118.918,39113.448,39117.29999999888,39130.093,49135.587,,,
screen,html.Screen,0_2_0_1_0,2021-11-26T13:27:42.772Z,,,,,,,,,,,,,,,,53,,,,,,,,,,,,,,1067.4130000000005,,response,,,99,,,,,,Space,keypress(Space),,,,,When -- ----- -- ------ - ------- --- ----------<br>------------- ------ ------ ---- ---- ------- ----- -- ----<br>-------- ------- -- ---------- --- - --- ----- ----- ----<br>---- --- --- ----- --- ---- ---- ------- ----- ---- -------<br>--- --- -- ----- -- --- ---- -- --- ---- -- ------ ------<br>--- ----- -- ----,50204.29999999888,50203,49118.918,49126.09999999963,49135.587,50219.532,,0,When
screen,html.Screen,0_2_0_1_1,2021-11-26T13:27:43.299Z,,,,,,,,,,,,,,,,53,,,,,,,,,,,,,,510.96800000000076,,response,,,99,,,,,,Space,keypress(Space),,,,,---- it ----- -- ------ - ------- --- ----------<br>------------- ------ ------ ---- ---- ------- ----- -- ----<br>-------- ------- -- ---------- --- - --- ----- ----- ----<br>---- --- --- ----- --- ---- ---- ------- ----- ---- -------<br>--- --- -- ----- -- --- ---- -- --- ---- -- ------ ------<br>--- ----- -- ----,50731.29999999888,50730.5,50202.861,50204.699999999255,50219.532,50736.236,,1,it
screen,html.Screen,0_2_0_1_2,2021-11-26T13:27:43.779Z,,,,,,,,,,,,,,,,53,,,,,,,,,,,,,,474.06399999888527,,response,,,99,,,,,,Space,keypress(Space),,,,,---- -- comes -- ------ - ------- --- ----------<br>------------- ------ ------ ---- ---- ------- ----- -- ----<br>-------- ------- -- ---------- --- - --- ----- ----- ----<br>---- --- --- ----- --- ---- ---- ------- ----- ---- -------<br>--- --- -- ----- -- --- ---- -- --- ---- -- ------ ------<br>--- ----- -- ----,51211.29999999888,51210.29999999888,50719.566,50731.59999999963,50736.236,51219.678,,2,comes
screen,html.Screen,0_2_0_1_3,2021-11-26T13:27:44.299Z,,,,,,,,,,,,,,,,53,,,,,,,,,,,,,,510.72200000037265,,response,,,99,,,,,,Space,keypress(Space),,,,,---- -- ----- to ------ - ------- --- ----------<br>------------- ------ ------ ---- ---- ------- ----- -- ----<br>-------- ------- -- ---------- --- - --- ----- ----- ----<br>---- --- --- ----- --- ---- ---- ------- ----- ---- -------<br>--- --- -- ----- -- --- ---- -- --- ---- -- ------ ------<br>--- ----- -- ----,51731.29999999888,51730.40000000037,51203.008,51211.5,51219.678,51736.533,,3,to
screen,html.Screen,0_2_0_1_4,2021-11-26T13:27:44.787Z,,,,,,,,,,,,,,,,53,,,,,,,,,,,,,,481.7669999988793,,response,,,99,,,,,,Space,keypress(Space),,,,,---- -- ----- -- having - ------- --- ----------<br>------------- ------ ------ ---- ---- ------- ----- -- ----<br>-------- ------- -- ---------- --- - --- ----- ----- ----<br>---- --- --- ----- --- ---- ---- ------- ----- ---- -------<br>--- --- -- ----- -- --- ---- -- --- ---- -- ------ ------<br>--- ----- -- ----,52219.5,52218.29999999888,51719.862,51731.79999999888,51736.533,52236.54,,4,having
screen,html.Screen,0_2_0_1_5,2021-11-26T13:27:45.195Z,,,,,,,,,,,,,,,,53,,,,,,,,,,,,,,389.86000000037166,,response,,,99,,,,,,Space,keypress(Space),,,,,---- -- ----- -- ------ a ------- --- ----------<br>------------- ------ ------ ---- ---- ------- ----- -- ----<br>-------- ------- -- ---------- --- - --- ----- ----- ----<br>---- --- --- ----- --- ---- ---- ------- ----- ---- -------<br>--- --- -- ----- -- --- ---- -- --- ---- -- ------ ------<br>--- ----- -- ----,52627.40000000037,52626.40000000037,52219.871,52219.79999999888,52236.54,52636.679,,5,a
screen,html.Screen,0_2_0_1_6,2021-11-26T13:27:45.659Z,,,,,,,,,,,,,,,,53,,,,,,,,,,,,,,453.62099999888596,,response,,,99,,,,,,Space,keypress(Space),,,,,---- -- ----- -- ------ - lasting --- ----------<br>------------- ------ ------ ---- ---- ------- ----- -- ----<br>-------- ------- -- ---------- --- - --- ----- ----- ----<br>---- --- --- ----- --- ---- ---- ------- ----- ---- -------<br>--- --- -- ----- -- --- ---- -- --- ---- -- ------ ------<br>--- ----- -- ----,53091.199999999255,53090.29999999888,52620.009,52627.90000000037,52636.679,53103.524,,6,lasting
screen,html.Screen,0_2_0_1_7,2021-11-26T13:27:46.099Z,,,,,,,,,,,,,,,,53,,,,,,,,,,,,,,426.7759999988848,,response,,,99,,,,,,Space,keypress(Space),,,,,---- -- ----- -- ------ - ------- and ----------<br>------------- ------ ------ ---- ---- ------- ----- -- ----<br>-------- ------- -- ---------- --- - --- ----- ----- ----<br>---- --- --- ----- --- ---- ---- ------- ----- ---- -------<br>--- --- -- ----- -- --- ---- -- --- ---- -- ------ ------<br>--- ----- -- ----,53531.199999999255,53530.29999999888,53086.853,53091.59999999963,53103.524,53536.933,,7,and
screen,html.Screen,0_2_0_1_8,2021-11-26T13:27:46.587Z,,,,,,,,,,,,,,,,53,,,,,,,,,,,,,,481.36699999888515,,response,,,99,,,,,,Space,keypress(Space),,,,,---- -- ----- -- ------ - ------- --- fulfilling<br>------------- ------ ------ ---- ---- ------- ----- -- ----<br>-------- ------- -- ---------- --- - --- ----- ----- ----<br>---- --- --- ----- --- ---- ---- ------- ----- ---- -------<br>--- --- -- ----- -- --- ---- -- --- ---- -- ------ ------<br>--- ----- -- ----,54019.40000000037,54018.29999999888,53520.263,53531.5,53536.933,54036.94,,8,fulfilling
screen,html.Screen,0_2_0_1_9,2021-11-26T13:27:47.067Z,,,,,,,,,,,,,,,,53,,,,,,,,,,,,,,461.3599999988801,,response,,,99,,,,,,Space,keypress(Space),,,,,"---- -- ----- -- ------ - ------- --- ----------<br>relationship, ------ ------ ---- ---- ------- ----- -- ----<br>-------- ------- -- ---------- --- - --- ----- ----- ----<br>---- --- --- ----- --- ---- ---- ------- ----- ---- -------<br>--- --- -- ----- -- --- ---- -- --- ---- -- ------ ------<br>--- ----- -- ----",54499.199999999255,54498.29999999888,54020.271,54019.699999999255,54036.94,54503.937,,9,"relationship,"
screen,html.Screen,0_2_0_1_10,2021-11-26T13:27:47.770Z,,,,,,,,,,,,,,,,53,,,,,,,,,,,,,,698.2629999992569,,response,,,99,,,,,,Space,keypress(Space),,,,,---- -- ----- -- ------ - ------- --- ----------<br>------------- common ------ ---- ---- ------- ----- -- ----<br>-------- ------- -- ---------- --- - --- ----- ----- ----<br>---- --- --- ----- --- ---- ---- ------- ----- ---- -------<br>--- --- -- ----- -- --- ---- -- --- ---- -- ------ ------<br>--- ----- -- ----,55202.90000000037,55202.199999999255,54487.265,54499.40000000037,54503.937,55203.896,,10,common
screen,html.Screen,0_2_0_1_11,2021-11-26T13:27:48.163Z,,,,,,,,,,,,,,,,53,,,,,,,,,,,,,,390.3039999992543,,response,,,99,,,,,,Space,keypress(Space),,,,,---- -- ----- -- ------ - ------- --- ----------<br>------------- ------ wisdom ---- ---- ------- ----- -- ----<br>-------- ------- -- ---------- --- - --- ----- ----- ----<br>---- --- --- ----- --- ---- ---- ------- ----- ---- -------<br>--- --- -- ----- -- --- ---- -- --- ---- -- ------ ------<br>--- ----- -- ----,55595,55594.199999999255,55187.227,55203.199999999255,55203.896,55604.193,,11,wisdom
screen,html.Screen,0_2_0_1_12,2021-11-26T13:27:48.610Z,,,,,,,,,,,,,,,,53,,,,,,,,,,,,,,438.00699999925564,,response,,,99,,,,,,Space,keypress(Space),,,,,---- -- ----- -- ------ - ------- --- ----------<br>------------- ------ ------ says ---- ------- ----- -- ----<br>-------- ------- -- ---------- --- - --- ----- ----- ----<br>---- --- --- ----- --- ---- ---- ------- ----- ---- -------<br>--- --- -- ----- -- --- ---- -- --- ---- -- ------ ------<br>--- ----- -- ----,56042.90000000037,56042.199999999255,55587.522,55595.40000000037,55604.193,56054.224,,12,says
screen,html.Screen,0_2_0_1_13,2021-11-26T13:27:49.002Z,,,,,,,,,,,,,,,,53,,,,,,,,,,,,,,379.775999999998,,response,,,99,,,,,,Space,keypress(Space),,,,,---- -- ----- -- ------ - ------- --- ----------<br>------------- ------ ------ ---- that ------- ----- -- ----<br>-------- ------- -- ---------- --- - --- ----- ----- ----<br>---- --- --- ----- --- ---- ---- ------- ----- ---- -------<br>--- --- -- ----- -- --- ---- -- --- ---- -- ------ ------<br>--- ----- -- ----,56434.90000000037,56434,56037.554,56043.199999999255,56054.224,56437.655,,13,that
screen,html.Screen,0_2_0_1_14,2021-11-26T13:27:49.474Z,,,,,,,,,,,,,,,,53,,,,,,,,,,,,,,468.34500000000116,,response,,,99,,,,,,Space,keypress(Space),,,,,---- -- ----- -- ------ - ------- --- ----------<br>------------- ------ ------ ---- ---- feeling ----- -- ----<br>-------- ------- -- ---------- --- - --- ----- ----- ----<br>---- --- --- ----- --- ---- ---- ------- ----- ---- -------<br>--- --- -- ----- -- --- ---- -- --- ---- -- ------ ------<br>--- ----- -- ----,56906.90000000037,56906,56420.985,56435.199999999255,56437.655,56921.111,,14,feeling
screen,html.Screen,0_2_0_1_15,2021-11-26T13:27:49.954Z,,,,,,,,,,,,,,,,53,,,,,,,,,,,,,,464.88900000000285,,response,,,99,,,,,,Space,keypress(Space),,,,,---- -- ----- -- ------ - ------- --- ----------<br>------------- ------ ------ ---- ---- ------- close -- ----<br>-------- ------- -- ---------- --- - --- ----- ----- ----<br>---- --- --- ----- --- ---- ---- ------- ----- ---- -------<br>--- --- -- ----- -- --- ---- -- --- ---- -- ------ ------<br>--- ----- -- ----,57386.79999999888,57386,56904.441,56907.199999999255,56921.111,57387.881,,15,close
screen,html.Screen,0_2_0_1_16,2021-11-26T13:27:50.402Z,,,,,,,,,,,,,,,,53,,,,,,,,,,,,,,446.21899999962625,,response,,,99,,,,,,Space,keypress(Space),,,,,---- -- ----- -- ------ - ------- --- ----------<br>------------- ------ ------ ---- ---- ------- ----- to ----<br>-------- ------- -- ---------- --- - --- ----- ----- ----<br>---- --- --- ----- --- ---- ---- ------- ----- ---- -------<br>--- --- -- ----- -- --- ---- -- --- ---- -- ------ ------<br>--- ----- -- ----,57834.79999999888,57834.09999999963,57371.211,57387.09999999963,57387.881,57837.896,,16,to
screen,html.Screen,0_2_0_1_17,2021-11-26T13:27:50.850Z,,,,,,,,,,,,,,,,53,,,,,,,,,,,,,,444.10399999999936,,response,,,99,,,,,,Space,keypress(Space),,,,,---- -- ----- -- ------ - ------- --- ----------<br>------------- ------ ------ ---- ---- ------- ----- -- your<br>-------- ------- -- ---------- --- - --- ----- ----- ----<br>---- --- --- ----- --- ---- ---- ------- ----- ---- -------<br>--- --- -- ----- -- --- ---- -- --- ---- -- ------ ------<br>--- ----- -- ----,58282.79999999888,58282,57821.227,57835.09999999963,57837.896,58288.205,,17,your
screen,html.Screen,0_2_0_1_18,2021-11-26T13:27:51.306Z,,,,,,,,,,,,,,,,53,,,,,,,,,,,,,,449.79499999999825,,response,,,99,,,,,,Space,keypress(Space),,,,,---- -- ----- -- ------ - ------- --- ----------<br>------------- ------ ------ ---- ---- ------- ----- -- ----<br>romantic ------- -- ---------- --- - --- ----- ----- ----<br>---- --- --- ----- --- ---- ---- ------- ----- ---- -------<br>--- --- -- ----- -- --- ---- -- --- ---- -- ------ ------<br>--- ----- -- ----,58738.79999999888,58738,58271.533,58283.09999999963,58288.205,58754.936,,18,romantic
screen,html.Screen,0_2_0_1_19,2021-11-26T13:27:51.690Z,,,,,,,,,,,,,,,,53,,,,,,,,,,,,,,366.964000000371,,response,,,99,,,,,,Space,keypress(Space),,,,,---- -- ----- -- ------ - ------- --- ----------<br>------------- ------ ------ ---- ---- ------- ----- -- ----<br>-------- partner -- ---------- --- - --- ----- ----- ----<br>---- --- --- ----- --- ---- ---- ------- ----- ---- -------<br>--- --- -- ----- -- --- ---- -- --- ---- -- ------ ------<br>--- ----- -- ----,59122.699999999255,59121.90000000037,58738.265,58739,58754.936,59138.335,,19,partner
screen,html.Screen,0_2_0_1_20,2021-11-26T13:27:52.130Z,,,,,,,,,,,,,,,,53,,,,,,,,,,,,,,423.5650000003734,,response,,,99,,,,,,Space,keypress(Space),,,,,---- -- ----- -- ------ - ------- --- ----------<br>------------- ------ ------ ---- ---- ------- ----- -- ----<br>-------- ------- is ---------- --- - --- ----- ----- ----<br>---- --- --- ----- --- ---- ---- ------- ----- ---- -------<br>--- --- -- ----- -- --- ---- -- --- ---- -- ------ ------<br>--- ----- -- ----,59562.699999999255,59561.90000000037,59121.665,59122.90000000037,59138.335,59571.778,,20,is
screen,html.Screen,0_2_0_1_21,2021-11-26T13:27:52.839Z,,,,,,,,,,,,,,,,53,,,,,,,,,,,,,,694.6220000003741,,response,,,99,,,,,,Space,keypress(Space),,,,,---- -- ----- -- ------ - ------- --- ----------<br>------------- ------ ------ ---- ---- ------- ----- -- ----<br>-------- ------- -- paramount. --- - --- ----- ----- ----<br>---- --- --- ----- --- ---- ---- ------- ----- ---- -------<br>--- --- -- ----- -- --- ---- -- --- ---- -- ------ ------<br>--- ----- -- ----,60267.09999999963,60266.40000000037,59555.108,59563,59571.778,60271.913,,21,paramount.
screen,html.Screen,0_2_0_1_22,2021-11-26T13:27:53.502Z,,,,,,,,,,,,,,,,53,,,,,,,,,,,,,,657.9870000003721,,response,,,99,,,,,,Space,keypress(Space),,,,,---- -- ----- -- ------ - ------- --- ----------<br>------------- ------ ------ ---- ---- ------- ----- -- ----<br>-------- ------- -- ---------- But - --- ----- ----- ----<br>---- --- --- ----- --- ---- ---- ------- ----- ---- -------<br>--- --- -- ----- -- --- ---- -- --- ---- -- ------ ------<br>--- ----- -- ----,60930.59999999963,60929.90000000037,60255.243,60267.5,60271.913,60938.822,,22,But
screen,html.Screen,0_2_0_1_23,2021-11-26T13:27:53.990Z,,,,,,,,,,,,,,,,53,,,,,,,,,,,,,,478.8779999992548,,response,,,99,,,,,,Space,keypress(Space),,,,,---- -- ----- -- ------ - ------- --- ----------<br>------------- ------ ------ ---- ---- ------- ----- -- ----<br>-------- ------- -- ---------- --- a --- ----- ----- ----<br>---- --- --- ----- --- ---- ---- ------- ----- ---- -------<br>--- --- -- ----- -- --- ---- -- --- ---- -- ------ ------<br>--- ----- -- ----,61418.5,61417.699999999255,60922.151,60930.79999999888,60938.822,61422.201,,23,a
screen,html.Screen,0_2_0_1_24,2021-11-26T13:27:54.462Z,,,,,,,,,,,,,,,,53,,,,,,,,,,,,,,467.5989999988815,,response,,,99,,,,,,Space,keypress(Space),,,,,---- -- ----- -- ------ - ------- --- ----------<br>------------- ------ ------ ---- ---- ------- ----- -- ----<br>-------- ------- -- ---------- --- - new ----- ----- ----<br>---- --- --- ----- --- ---- ---- ------- ----- ---- -------<br>--- --- -- ----- -- --- ---- -- --- ---- -- ------ ------<br>--- ----- -- ----,61890.59999999963,61889.79999999888,61405.531,61418.79999999888,61422.201,61905.681,,24,new
screen,html.Screen,0_2_0_1_25,2021-11-26T13:27:54.846Z,,,,,,,,,,,,,,,,53,,,,,,,,,,,,,,368.0189999992581,,response,,,99,,,,,,Space,keypress(Space),,,,,---- -- ----- -- ------ - ------- --- ----------<br>------------- ------ ------ ---- ---- ------- ----- -- ----<br>-------- ------- -- ---------- --- - --- study ----- ----<br>---- --- --- ----- --- ---- ---- ------- ----- ---- -------<br>--- --- -- ----- -- --- ---- -- --- ---- -- ------ ------<br>--- ----- -- ----,62274.5,62273.699999999255,61889.011,61890.79999999888,61905.681,62289.159,,25,study
screen,html.Screen,0_2_0_1_26,2021-11-26T13:27:55.230Z,,,,,,,,,,,,,,,,53,,,,,,,,,,,,,,368.5409999992553,,response,,,99,,,,,,Space,keypress(Space),,,,,---- -- ----- -- ------ - ------- --- ----------<br>------------- ------ ------ ---- ---- ------- ----- -- ----<br>-------- ------- -- ---------- --- - --- ----- finds ----<br>---- --- --- ----- --- ---- ---- ------- ----- ---- -------<br>--- --- -- ----- -- --- ---- -- --- ---- -- ------ ------<br>--- ----- -- ----,62658.5,62657.699999999255,62272.488,62274.79999999888,62289.159,62672.531,,26,finds
screen,html.Screen,0_2_0_1_27,2021-11-26T13:27:55.606Z,,,,,,,,,,,,,,,,53,,,,,,,,,,,,,,361.0689999996248,,response,,,99,,,,,,Space,keypress(Space),,,,,---- -- ----- -- ------ - ------- --- ----------<br>------------- ------ ------ ---- ---- ------- ----- -- ----<br>-------- ------- -- ---------- --- - --- ----- ----- that<br>---- --- --- ----- --- ---- ---- ------- ----- ---- -------<br>--- --- -- ----- -- --- ---- -- --- ---- -- ------ ------<br>--- ----- -- ----,63034.40000000037,63033.59999999963,62655.861,62658.699999999255,62672.531,63039.379,,27,that
screen,html.Screen,0_2_0_1_28,2021-11-26T13:27:56.038Z,,,,,,,,,,,,,,,,53,,,,,,,,,,,,,,426.3209999992541,,response,,,99,,,,,,Space,keypress(Space),,,,,---- -- ----- -- ------ - ------- --- ----------<br>------------- ------ ------ ---- ---- ------- ----- -- ----<br>-------- ------- -- ---------- --- - --- ----- ----- ----<br>it's --- --- ----- --- ---- ---- ------- ----- ---- -------<br>--- --- -- ----- -- --- ---- -- --- ---- -- ------ ------<br>--- ----- -- ----,63466.40000000037,63465.699999999255,63022.708,63034.59999999963,63039.379,63472.704,,28,it's
screen,html.Screen,0_2_0_1_29,2021-11-26T13:27:56.470Z,,,,,,,,,,,,,,,,53,,,,,,,,,,,,,,424.89599999962957,,response,,,99,,,,,,Space,keypress(Space),,,,,---- -- ----- -- ------ - ------- --- ----------<br>------------- ------ ------ ---- ---- ------- ----- -- ----<br>-------- ------- -- ---------- --- - --- ----- ----- ----<br>---- not --- ----- --- ---- ---- ------- ----- ---- -------<br>--- --- -- ----- -- --- ---- -- --- ---- -- ------ ------<br>--- ----- -- ----,63898.40000000037,63897.59999999963,63456.035,63466.699999999255,63472.704,63906.189,,29,not
screen,html.Screen,0_2_0_1_30,2021-11-26T13:27:56.846Z,,,,,,,,,,,,,,,,53,,,,,,,,,,,,,,367.410999999629,,response,,,99,,,,,,Space,keypress(Space),,,,,---- -- ----- -- ------ - ------- --- ----------<br>------------- ------ ------ ---- ---- ------- ----- -- ----<br>-------- ------- -- ---------- --- - --- ----- ----- ----<br>---- --- how ----- --- ---- ---- ------- ----- ---- -------<br>--- --- -- ----- -- --- ---- -- --- ---- -- ------ ------<br>--- ----- -- ----,64274.29999999888,64273.59999999963,63889.519,63898.59999999963,63906.189,64289.593,,30,how
screen,html.Screen,0_2_0_1_31,2021-11-26T13:27:57.230Z,,,,,,,,,,,,,,,,53,,,,,,,,,,,,,,367.90699999999924,,response,,,99,,,,,,Space,keypress(Space),,,,,---- -- ----- -- ------ - ------- --- ----------<br>------------- ------ ------ ---- ---- ------- ----- -- ----<br>-------- ------- -- ---------- --- - --- ----- ----- ----<br>---- --- --- close --- ---- ---- ------- ----- ---- -------<br>--- --- -- ----- -- --- ---- -- --- ---- -- ------ ------<br>--- ----- -- ----,64658.40000000037,64657.5,64272.923,64274.59999999963,64289.593,64673.041,,31,close
screen,html.Screen,0_2_0_1_32,2021-11-26T13:27:58.686Z,,,,,,,,,,,,,,,,53,,,,,,,,,,,,,,1440.359000000375,,response,,,99,,,,,,Space,keypress(Space),,,,,---- -- ----- -- ------ - ------- --- ----------<br>------------- ------ ------ ---- ---- ------- ----- -- ----<br>-------- ------- -- ---------- --- - --- ----- ----- ----<br>---- --- --- ----- you ---- ---- ------- ----- ---- -------<br>--- --- -- ----- -- --- ---- -- --- ---- -- ------ ------<br>--- ----- -- ----,66114.19999999925,66113.40000000037,64656.371,64658.59999999963,64673.041,66123.351,,32,you
screen,html.Screen,0_2_0_1_33,2021-11-26T13:27:59.622Z,,,,,,,,,,,,,,,,53,,,,,,,,,,,,,,926.0490000003774,,response,,,99,,,,,,Space,keypress(Space),,,,,---- -- ----- -- ------ - ------- --- ----------<br>------------- ------ ------ ---- ---- ------- ----- -- ----<br>-------- ------- -- ---------- --- - --- ----- ----- ----<br>---- --- --- ----- --- feel ---- ------- ----- ---- -------<br>--- --- -- ----- -- --- ---- -- --- ---- -- ------ ------<br>--- ----- -- ----,67050.29999999888,67049.40000000037,66106.681,66114.5,66123.351,67056.916,,33,feel
screen,html.Screen,0_2_0_1_34,2021-11-26T13:28:00.350Z,,,,,,,,,,,,,,,,53,,,,,,,,,,,,,,720.4840000003751,,response,,,99,,,,,,Space,keypress(Space),,,,,---- -- ----- -- ------ - ------- --- ----------<br>------------- ------ ------ ---- ---- ------- ----- -- ----<br>-------- ------- -- ---------- --- - --- ----- ----- ----<br>---- --- --- ----- --- ---- that ------- ----- ---- -------<br>--- --- -- ----- -- --- ---- -- --- ---- -- ------ ------<br>--- ----- -- ----,67778.5,67777.40000000037,67040.246,67050.59999999963,67056.916,67790.309,,34,that
screen,html.Screen,0_2_0_1_35,2021-11-26T13:28:00.790Z,,,,,,,,,,,,,,,,53,,,,,,,,,,,,,,427.0910000003787,,response,,,99,,,,,,Space,keypress(Space),,,,,---- -- ----- -- ------ - ------- --- ----------<br>------------- ------ ------ ---- ---- ------- ----- -- ----<br>-------- ------- -- ---------- --- - --- ----- ----- ----<br>---- --- --- ----- --- ---- ---- matters ----- ---- -------<br>--- --- -- ----- -- --- ---- -- --- ---- -- ------ ------<br>--- ----- -- ----,68218.19999999925,68217.40000000037,67773.64,67778.90000000037,67790.309,68223.997,,35,matters
screen,html.Screen,0_2_0_1_36,2021-11-26T13:28:01.190Z,,,,,,,,,,,,,,,,53,,,,,,,,,,,,,,393.3029999988794,,response,,,99,,,,,,Space,keypress(Space),,,,,"---- -- ----- -- ------ - ------- --- ----------<br>------------- ------ ------ ---- ---- ------- ----- -- ----<br>-------- ------- -- ---------- --- - --- ----- ----- ----<br>---- --- --- ----- --- ---- ---- ------- most, ---- -------<br>--- --- -- ----- -- --- ---- -- --- ---- -- ------ ------<br>--- ----- -- ----",68618.29999999888,68617.29999999888,68207.326,68218.5,68223.997,68624.021,,36,"most,"
screen,html.Screen,0_2_0_1_37,2021-11-26T13:28:01.982Z,,,,,,,,,,,,,,,,53,,,,,,,,,,,,,,785.278999998889,,response,,,99,,,,,,Space,keypress(Space),,,,,---- -- ----- -- ------ - ------- --- ----------<br>------------- ------ ------ ---- ---- ------- ----- -- ----<br>-------- ------- -- ---------- --- - --- ----- ----- ----<br>---- --- --- ----- --- ---- ---- ------- ----- it's -------<br>--- --- -- ----- -- --- ---- -- --- ---- -- ------ ------<br>--- ----- -- ----,69410,69409.29999999888,68607.351,68618.59999999963,68624.021,69424.263,,37,it's
screen,html.Screen,0_2_0_1_38,2021-11-26T13:28:02.422Z,,,,,,,,,,,,,,,,53,,,,,,,,,,,,,,425.0369999988761,,response,,,99,,,,,,Space,keypress(Space),,,,,---- -- ----- -- ------ - ------- --- ----------<br>------------- ------ ------ ---- ---- ------- ----- -- ----<br>-------- ------- -- ---------- --- - --- ----- ----- ----<br>---- --- --- ----- --- ---- ---- ------- ----- ---- whether<br>--- --- -- ----- -- --- ---- -- --- ---- -- ------ ------<br>--- ----- -- ----,69850.19999999925,69849.29999999888,69407.592,69410.40000000037,69424.263,69857.705,,38,whether
screen,html.Screen,0_2_0_1_39,2021-11-26T13:28:02.830Z,,,,,,,,,,,,,,,,53,,,,,,,,,,,,,,399.59499999888067,,response,,,99,,,,,,Space,keypress(Space),,,,,---- -- ----- -- ------ - ------- --- ----------<br>------------- ------ ------ ---- ---- ------- ----- -- ----<br>-------- ------- -- ---------- --- - --- ----- ----- ----<br>---- --- --- ----- --- ---- ---- ------- ----- ---- -------<br>you --- -- ----- -- --- ---- -- --- ---- -- ------ ------<br>--- ----- -- ----,70258,70257.29999999888,69841.034,69850.5,69857.705,70274.333,,39,you
screen,html.Screen,0_2_0_1_40,2021-11-26T13:28:03.270Z,,,,,,,,,,,,,,,,53,,,,,,,,,,,,,,423.3669999992562,,response,,,99,,,,,,Space,keypress(Space),,,,,---- -- ----- -- ------ - ------- --- ----------<br>------------- ------ ------ ---- ---- ------- ----- -- ----<br>-------- ------- -- ---------- --- - --- ----- ----- ----<br>---- --- --- ----- --- ---- ---- ------- ----- ---- -------<br>--- are -- ----- -- --- ---- -- --- ---- -- ------ ------<br>--- ----- -- ----,70698.40000000037,70697.69999999925,70257.664,70258.19999999925,70274.333,70707.958,,40,are
screen,html.Screen,0_2_0_1_41,2021-11-26T13:28:03.686Z,,,,,,,,,,,,,,,,53,,,,,,,,,,,,,,405.2419999992562,,response,,,99,,,,,,Space,keypress(Space),,,,,---- -- ----- -- ------ - ------- --- ----------<br>------------- ------ ------ ---- ---- ------- ----- -- ----<br>-------- ------- -- ---------- --- - --- ----- ----- ----<br>---- --- --- ----- --- ---- ---- ------- ----- ---- -------<br>--- --- as ----- -- --- ---- -- --- ---- -- ------ ------<br>--- ----- -- ----,71113.90000000037,71113.19999999925,70691.286,70698.59999999963,70707.958,71124.643,,41,as
screen,html.Screen,0_2_0_1_42,2021-11-26T13:28:04.094Z,,,,,,,,,,,,,,,,53,,,,,,,,,,,,,,396.55699999925855,,response,,,99,,,,,,Space,keypress(Space),,,,,---- -- ----- -- ------ - ------- --- ----------<br>------------- ------ ------ ---- ---- ------- ----- -- ----<br>-------- ------- -- ---------- --- - --- ----- ----- ----<br>---- --- --- ----- --- ---- ---- ------- ----- ---- -------<br>--- --- -- close -- --- ---- -- --- ---- -- ------ ------<br>--- ----- -- ----,71521.90000000037,71521.19999999925,71107.973,71114.19999999925,71124.643,71524.747,,42,close
screen,html.Screen,0_2_0_1_43,2021-11-26T13:28:04.510Z,,,,,,,,,,,,,,,,53,,,,,,,,,,,,,,412.35299999962444,,response,,,99,,,,,,Space,keypress(Space),,,,,---- -- ----- -- ------ - ------- --- ----------<br>------------- ------ ------ ---- ---- ------- ----- -- ----<br>-------- ------- -- ---------- --- - --- ----- ----- ----<br>---- --- --- ----- --- ---- ---- ------- ----- ---- -------<br>--- --- -- ----- as --- ---- -- --- ---- -- ------ ------<br>--- ----- -- ----,71937.90000000037,71937.09999999963,71508.077,71522.19999999925,71524.747,71941.519,,43,as
screen,html.Screen,0_2_0_1_44,2021-11-26T13:28:04.950Z,,,,,,,,,,,,,,,,53,,,,,,,,,,,,,,435.58099999962724,,response,,,99,,,,,,Space,keypress(Space),,,,,---- -- ----- -- ------ - ------- --- ----------<br>------------- ------ ------ ---- ---- ------- ----- -- ----<br>-------- ------- -- ---------- --- - --- ----- ----- ----<br>---- --- --- ----- --- ---- ---- ------- ----- ---- -------<br>--- --- -- ----- -- you ---- -- --- ---- -- ------ ------<br>--- ----- -- ----,72377.79999999888,72377.09999999963,71924.849,71938.09999999963,71941.519,72391.632,,44,you
screen,html.Screen,0_2_0_1_45,2021-11-26T13:28:05.357Z,,,,,,,,,,,,,,,,53,,,,,,,,,,,,,,393.4679999996297,,response,,,99,,,,,,Space,keypress(Space),,,,,---- -- ----- -- ------ - ------- --- ----------<br>------------- ------ ------ ---- ---- ------- ----- -- ----<br>-------- ------- -- ---------- --- - --- ----- ----- ----<br>---- --- --- ----- --- ---- ---- ------- ----- ---- -------<br>--- --- -- ----- -- --- want -- --- ---- -- ------ ------<br>--- ----- -- ----,72785.90000000037,72785.09999999963,72374.962,72378.09999999963,72391.632,72791.586,,45,want
screen,html.Screen,0_2_0_1_46,2021-11-26T13:28:05.789Z,,,,,,,,,,,,,,,,53,,,,,,,,,,,,,,425.4140000000043,,response,,,99,,,,,,Space,keypress(Space),,,,,---- -- ----- -- ------ - ------- --- ----------<br>------------- ------ ------ ---- ---- ------- ----- -- ----<br>-------- ------- -- ---------- --- - --- ----- ----- ----<br>---- --- --- ----- --- ---- ---- ------- ----- ---- -------<br>--- --- -- ----- -- --- ---- to --- ---- -- ------ ------<br>--- ----- -- ----,73217.79999999888,73217,72774.918,72786,72791.586,73225.249,,46,to
screen,html.Screen,0_2_0_1_47,2021-11-26T13:28:06.165Z,,,,,,,,,,,,,,,,53,,,,,,,,,,,,,,367.8509999996313,,response,,,99,,,,,,Space,keypress(Space),,,,,"---- -- ----- -- ------ - ------- --- ----------<br>------------- ------ ------ ---- ---- ------- ----- -- ----<br>-------- ------- -- ---------- --- - --- ----- ----- ----<br>---- --- --- ----- --- ---- ---- ------- ----- ---- -------<br>--- --- -- ----- -- --- ---- -- be, ---- -- ------ ------<br>--- ----- -- ----",73593.69999999925,73593.09999999963,73208.577,73218.09999999963,73225.249,73608.636,,47,"be,"
screen,html.Screen,0_2_0_1_48,2021-11-26T13:28:06.725Z,,,,,,,,,,,,,,,,53,,,,,,,,,,,,,,544.3640000000014,,response,,,99,,,,,,Space,keypress(Space),,,,,---- -- ----- -- ------ - ------- --- ----------<br>------------- ------ ------ ---- ---- ------- ----- -- ----<br>-------- ------- -- ---------- --- - --- ----- ----- ----<br>---- --- --- ----- --- ---- ---- ------- ----- ---- -------<br>--- --- -- ----- -- --- ---- -- --- even -- ------ ------<br>--- ----- -- ----,74153.79999999888,74153,73591.965,73594,73608.636,74158.719,,48,even
screen,html.Screen,0_2_0_1_49,2021-11-26T13:28:07.157Z,,,,,,,,,,,,,,,,53,,,,,,,,,,,,,,426.2810000000027,,response,,,99,,,,,,Space,keypress(Space),,,,,---- -- ----- -- ------ - ------- --- ----------<br>------------- ------ ------ ---- ---- ------- ----- -- ----<br>-------- ------- -- ---------- --- - --- ----- ----- ----<br>---- --- --- ----- --- ---- ---- ------- ----- ---- -------<br>--- --- -- ----- -- --- ---- -- --- ---- if ------ ------<br>--- ----- -- ----,74585.69999999925,74585,74142.049,74154.09999999963,74158.719,74592.171,,49,if
screen,html.Screen,0_2_0_1_50,2021-11-26T13:28:07.573Z,,,,,,,,,,,,,,,,53,,,,,,,,,,,,,,408.72900000037043,,response,,,99,,,,,,Space,keypress(Space),,,,,---- -- ----- -- ------ - ------- --- ----------<br>------------- ------ ------ ---- ---- ------- ----- -- ----<br>-------- ------- -- ---------- --- - --- ----- ----- ----<br>---- --- --- ----- --- ---- ---- ------- ----- ---- -------<br>--- --- -- ----- -- --- ---- -- --- ---- -- that's ------<br>--- ----- -- ----,75001.69999999925,75000.90000000037,74575.501,74586,74592.171,75008.949,,50,that's
screen,html.Screen,0_2_0_1_51,2021-11-26T13:28:08.013Z,,,,,,,,,,,,,,,,53,,,,,,,,,,,,,,431.9510000003793,,response,,,99,,,,,,Space,keypress(Space),,,,,---- -- ----- -- ------ - ------- --- ----------<br>------------- ------ ------ ---- ---- ------- ----- -- ----<br>-------- ------- -- ---------- --- - --- ----- ----- ----<br>---- --- --- ----- --- ---- ---- ------- ----- ---- -------<br>--- --- -- ----- -- --- ---- -- --- ---- -- ------ really<br>--- ----- -- ----,75441.69999999925,75440.90000000037,74992.279,75001.90000000037,75008.949,75459.04,,51,really
screen,html.Screen,0_2_0_1_52,2021-11-26T13:28:08.413Z,,,,,,,,,,,,,,,,53,,,,,,,,,,,,,,381.7599999988888,,response,,,99,,,,,,Space,keypress(Space),,,,,---- -- ----- -- ------ - ------- --- ----------<br>------------- ------ ------ ---- ---- ------- ----- -- ----<br>-------- ------- -- ---------- --- - --- ----- ----- ----<br>---- --- --- ----- --- ---- ---- ------- ----- ---- -------<br>--- --- -- ----- -- --- ---- -- --- ---- -- ------ ------<br>not ----- -- ----,75841.59999999963,75840.79999999888,75442.37,75442,75459.04,75859.161,,52,not
screen,html.Screen,0_2_0_1_53,2021-11-26T13:28:08.781Z,,,,,,,,,,,,,,,,53,,,,,,,,,,,,,,349.73900000037975,,response,,,99,,,,,,Space,keypress(Space),,,,,---- -- ----- -- ------ - ------- --- ----------<br>------------- ------ ------ ---- ---- ------- ----- -- ----<br>-------- ------- -- ---------- --- - --- ----- ----- ----<br>---- --- --- ----- --- ---- ---- ------- ----- ---- -------<br>--- --- -- ----- -- --- ---- -- --- ---- -- ------ ------<br>--- close -- ----,76209.69999999925,76208.90000000037,75842.491,75841.90000000037,75859.161,76225.92,,53,close
screen,html.Screen,0_2_0_1_54,2021-11-26T13:28:09.181Z,,,,,,,,,,,,,,,,53,,,,,,,,,,,,,,382.87999999888416,,response,,,99,,,,,,Space,keypress(Space),,,,,---- -- ----- -- ------ - ------- --- ----------<br>------------- ------ ------ ---- ---- ------- ----- -- ----<br>-------- ------- -- ---------- --- - --- ----- ----- ----<br>---- --- --- ----- --- ---- ---- ------- ----- ---- -------<br>--- --- -- ----- -- --- ---- -- --- ---- -- ------ ------<br>--- ----- at ----,76609.5,76608.79999999888,76209.25,76209.90000000037,76225.92,76625.928,,54,at
screen,html.Screen,0_2_0_1_55,2021-11-26T13:28:09.981Z,,,,,,,,,,,,,,,,53,,,,,,,,,,,,,,782.8719999988825,,response,,,99,,,,,,Space,keypress(Space),,,,,---- -- ----- -- ------ - ------- --- ----------<br>------------- ------ ------ ---- ---- ------- ----- -- ----<br>-------- ------- -- ---------- --- - --- ----- ----- ----<br>---- --- --- ----- --- ---- ---- ------- ----- ---- -------<br>--- --- -- ----- -- --- ---- -- --- ---- -- ------ ------<br>--- ----- -- all.,77409.59999999963,77408.79999999888,76609.259,76609.90000000037,76625.928,77426.338,,55,all.
Item 99,flow.Loop,0_2_0_1,2021-11-26T13:28:09.987Z,,,,,,,,,,,,,,,,,,,,,,,,,,,,,,28273.212999998883,,completion,,,,B,,,,,,,,,,silence,,77415.40000000037,77408.79999999888,49118.918,49126,49135.587,77426.338,,,
Question 1,html.Screen,0_2_0_2,2021-11-26T13:28:26.373Z,,,,,,,,,,,,,,,,,,,,,,,,,,,false,FALSE,,16373.161999999997,,response,,,99,B,,,,,TRUE,click #choice-1,,,,silence,,93800.90000000037,93799.5,77409.666,77415.69999999925,77426.338,93813.584,,,
Question 2,html.Screen,0_2_0_3,2021-11-26T13:28:30.428Z,,,,,,,,,,,,,,,,,,,,,,,,,,,true,TRUE,,4041.6159999992524,,response,,,99,B,,,,,TRUE,click #choice-1,,,,silence,,97856.40000000037,97855.19999999925,93796.914,93801.19999999925,93813.584,97881.304,,,
Item 99,flow.Sequence,0_2_0,2021-11-26T13:28:30.429Z,,,,,,,,,,,,,,,,,,,,,,,,,,,,,,58725.106999999254,,completion,,,,,,,,,,,,,,,,97856.90000000037,97855.19999999925,39113.448,39117.199999999255,39130.093,97881.304,,,
Holding screen,html.Screen,0_2_1_0,2021-11-26T13:28:40.445Z,,,,,,,,,,,,,,,,,,,,,,,,,,,,,,10002.356,,timeout,,,,,,,,,,,,,,,,107873,107866.99,97864.634,97857.19999999925,97881.304,107883.66,,,
screen,html.Screen,0_2_1_1_0,2021-11-26T13:28:41.420Z,,,,,,,,,,,,,,,,54,,,,,,,,,,,,,,963.6399999988789,,response,,,100,,,,,,Space,keypress(Space),,,,,At --- ---- --- ------ ----- ------- ---- -- --- ------- --<br>------- ---------- ------ -- ----- -- ----- -- ---- ------<br>--- ----- --- --- ------ -------- ----- --- ------ ----- --<br>----- ----- ---------- --- --- ------ ------ ---- -- ------<br>------- --- ------ ----- --- ---- ------- -- ---- --- --<br>------- ------,108848.09999999963,108847.29999999888,107866.99,107873.40000000037,107883.66,108850.749,,0,At
screen,html.Screen,0_2_1_1_1,2021-11-26T13:28:41.795Z,,,,,,,,,,,,,,,,54,,,,,,,,,,,,,,371.9509999992588,,response,,,100,,,,,,Space,keypress(Space),,,,,-- the ---- --- ------ ----- ------- ---- -- --- ------- --<br>------- ---------- ------ -- ----- -- ----- -- ---- ------<br>--- ----- --- --- ------ -------- ----- --- ------ ----- --<br>----- ----- ---------- --- --- ------ ------ ---- -- ------<br>------- --- ------ ----- --- ---- ------- -- ---- --- --<br>------- ------,109223.5,109222.69999999925,108834.078,108848.5,108850.749,109234.128,,1,the
screen,html.Screen,0_2_1_1_2,2021-11-26T13:28:42.187Z,,,,,,,,,,,,,,,,54,,,,,,,,,,,,,,380.57199999925797,,response,,,100,,,,,,Space,keypress(Space),,,,,-- --- time --- ------ ----- ------- ---- -- --- ------- --<br>------- ---------- ------ -- ----- -- ----- -- ---- ------<br>--- ----- --- --- ------ -------- ----- --- ------ ----- --<br>----- ----- ---------- --- --- ------ ------ ---- -- ------<br>------- --- ------ ----- --- ---- ------- -- ---- --- --<br>------- ------,109615.40000000037,109614.69999999925,109217.458,109223.79999999888,109234.128,109617.559,,2,time
screen,html.Screen,0_2_1_1_3,2021-11-26T13:28:42.627Z,,,,,,,,,,,,,,,,54,,,,,,,,,,,,,,437.1409999992611,,response,,,100,,,,,,Space,keypress(Space),,,,,-- --- ---- the ------ ----- ------- ---- -- --- ------- --<br>------- ---------- ------ -- ----- -- ----- -- ---- ------<br>--- ----- --- --- ------ -------- ----- --- ------ ----- --<br>----- ----- ---------- --- --- ------ ------ ---- -- ------<br>------- --- ------ ----- --- ---- ------- -- ---- --- --<br>------- ------,110055.5,110054.69999999925,109600.889,109615.69999999925,109617.559,110067.667,,3,the
screen,html.Screen,0_2_1_1_4,2021-11-26T13:28:43.331Z,,,,,,,,,,,,,,,,54,,,,,,,,,,,,,,691.0329999992537,,response,,,100,,,,,,Space,keypress(Space),,,,,-- --- ---- --- French ----- ------- ---- -- --- ------- --<br>------- ---------- ------ -- ----- -- ----- -- ---- ------<br>--- ----- --- --- ------ -------- ----- --- ------ ----- --<br>----- ----- ---------- --- --- ------ ------ ---- -- ------<br>------- --- ------ ----- --- ---- ------- -- ---- --- --<br>------- ------,110759.5,110758.69999999925,110050.997,110055.69999999925,110067.667,110767.658,,4,French
screen,html.Screen,0_2_1_1_5,2021-11-26T13:28:44.027Z,,,,,,,,,,,,,,,,54,,,,,,,,,,,,,,686.9419999996317,,response,,,100,,,,,,Space,keypress(Space),,,,,-- --- ---- --- ------ crown ------- ---- -- --- ------- --<br>------- ---------- ------ -- ----- -- ----- -- ---- ------<br>--- ----- --- --- ------ -------- ----- --- ------ ----- --<br>----- ----- ---------- --- --- ------ ------ ---- -- ------<br>------- --- ------ ----- --- ---- ------- -- ---- --- --<br>------- ------,111455.29999999888,111454.59999999963,110750.99,110759.59999999963,110767.658,111468.142,,5,crown
screen,html.Screen,0_2_1_1_6,2021-11-26T13:28:44.563Z,,,,,,,,,,,,,,,,54,,,,,,,,,,,,,,522.4579999996204,,response,,,100,,,,,,Space,keypress(Space),,,,,-- --- ---- --- ------ ----- secured ---- -- --- ------- --<br>------- ---------- ------ -- ----- -- ----- -- ---- ------<br>--- ----- --- --- ------ -------- ----- --- ------ ----- --<br>----- ----- ---------- --- --- ------ ------ ---- -- ------<br>------- --- ------ ----- --- ---- ------- -- ---- --- --<br>------- ------,111991.29999999888,111990.59999999963,111451.47,111455.69999999925,111468.142,112001.476,,6,secured
screen,html.Screen,0_2_1_1_7,2021-11-26T13:28:44.955Z,,,,,,,,,,,,,,,,54,,,,,,,,,,,,,,381.0240000000049,,response,,,100,,,,,,Space,keypress(Space),,,,,-- --- ---- --- ------ ----- ------- much -- --- ------- --<br>------- ---------- ------ -- ----- -- ----- -- ---- ------<br>--- ----- --- --- ------ -------- ----- --- ------ ----- --<br>----- ----- ---------- --- --- ------ ------ ---- -- ------<br>------- --- ------ ----- --- ---- ------- -- ---- --- --<br>------- ------,112383.40000000037,112382.5,111984.806,111991.5,112001.476,112384.896,,7,much
screen,html.Screen,0_2_1_1_8,2021-11-26T13:28:45.323Z,,,,,,,,,,,,,,,,54,,,,,,,,,,,,,,365.60400000000664,,response,,,100,,,,,,Space,keypress(Space),,,,,-- --- ---- --- ------ ----- ------- ---- of --- ------- --<br>------- ---------- ------ -- ----- -- ----- -- ---- ------<br>--- ----- --- --- ------ -------- ----- --- ------ ----- --<br>----- ----- ---------- --- --- ------ ------ ---- -- ------<br>------- --- ------ ----- --- ---- ------- -- ---- --- --<br>------- ------,112751.29999999888,112750.5,112368.226,112383.69999999925,112384.896,112768.388,,8,of
screen,html.Screen,0_2_1_1_9,2021-11-26T13:28:45.691Z,,,,,,,,,,,,,,,,54,,,,,,,,,,,,,,350.1119999999937,,response,,,100,,,,,,Space,keypress(Space),,,,,-- --- ---- --- ------ ----- ------- ---- -- its ------- --<br>------- ---------- ------ -- ----- -- ----- -- ---- ------<br>--- ----- --- --- ------ -------- ----- --- ------ ----- --<br>----- ----- ---------- --- --- ------ ------ ---- -- ------<br>------- --- ------ ----- --- ---- ------- -- ---- --- --<br>------- ------,113119.29999999888,113118.5,112751.717,112751.5,112768.388,113135.088,,9,its
screen,html.Screen,0_2_1_1_10,2021-11-26T13:28:46.107Z,,,,,,,,,,,,,,,,54,,,,,,,,,,,,,,399.31200000036915,,response,,,100,,,,,,Space,keypress(Space),,,,,-- --- ---- --- ------ ----- ------- ---- -- --- revenue --<br>------- ---------- ------ -- ----- -- ----- -- ---- ------<br>--- ----- --- --- ------ -------- ----- --- ------ ----- --<br>----- ----- ---------- --- --- ------ ------ ---- -- ------<br>------- --- ------ ----- --- ---- ------- -- ---- --- --<br>------- ------,113535.09999999963,113534.40000000037,113118.418,113119.5,113135.088,113551.869,,10,revenue
screen,html.Screen,0_2_1_1_11,2021-11-26T13:28:46.523Z,,,,,,,,,,,,,,,,54,,,,,,,,,,,,,,398.63099999999395,,response,,,100,,,,,,Space,keypress(Space),,,,,-- --- ---- --- ------ ----- ------- ---- -- --- ------- by<br>------- ---------- ------ -- ----- -- ----- -- ---- ------<br>--- ----- --- --- ------ -------- ----- --- ------ ----- --<br>----- ----- ---------- --- --- ------ ------ ---- -- ------<br>------- --- ------ ----- --- ---- ------- -- ---- --- --<br>------- ------,113951.19999999925,113950.5,113535.199,113535.40000000037,113551.869,113968.637,,11,by
screen,html.Screen,0_2_1_1_12,2021-11-26T13:28:47.115Z,,,,,,,,,,,,,,,,54,,,,,,,,,,,,,,573.7630000003701,,response,,,100,,,,,,Space,keypress(Space),,,,,-- --- ---- --- ------ ----- ------- ---- -- --- ------- --<br>issuing ---------- ------ -- ----- -- ----- -- ---- ------<br>--- ----- --- --- ------ -------- ----- --- ------ ----- --<br>----- ----- ---------- --- --- ------ ------ ---- -- ------<br>------- --- ------ ----- --- ---- ------- -- ---- --- --<br>------- ------,114543.19999999925,114542.40000000037,113951.967,113951.40000000037,113968.637,114551.952,,12,issuing
screen,html.Screen,0_2_1_1_13,2021-11-26T13:28:47.707Z,,,,,,,,,,,,,,,,54,,,,,,,,,,,,,,582.3479999988776,,response,,,100,,,,,,Space,keypress(Space),,,,,-- --- ---- --- ------ ----- ------- ---- -- --- ------- --<br>------- government ------ -- ----- -- ----- -- ---- ------<br>--- ----- --- --- ------ -------- ----- --- ------ ----- --<br>----- ----- ---------- --- --- ------ ------ ---- -- ------<br>------- --- ------ ----- --- ---- ------- -- ---- --- --<br>------- ------,115135.09999999963,115134.29999999888,114535.284,114543.40000000037,114551.952,115152.372,,13,government
screen,html.Screen,0_2_1_1_14,2021-11-26T13:28:48.123Z,,,,,,,,,,,,,,,,54,,,,,,,,,,,,,,398.0280000003695,,response,,,100,,,,,,Space,keypress(Space),,,,,-- --- ---- --- ------ ----- ------- ---- -- --- ------- --<br>------- ---------- bonds. -- ----- -- ----- -- ---- ------<br>--- ----- --- --- ------ -------- ----- --- ------ ----- --<br>----- ----- ---------- --- --- ------ ------ ---- -- ------<br>------- --- ------ ----- --- ---- ------- -- ---- --- --<br>------- ------,115551.19999999925,115550.40000000037,115135.7,115135.29999999888,115152.372,115552.372,,14,bonds.
screen,html.Screen,0_2_1_1_15,2021-11-26T13:28:48.971Z,,,,,,,,,,,,,,,,54,,,,,,,,,,,,,,845.9279999988794,,response,,,100,,,,,,Space,keypress(Space),,,,,-- --- ---- --- ------ ----- ------- ---- -- --- ------- --<br>------- ---------- ------ In ----- -- ----- -- ---- ------<br>--- ----- --- --- ------ -------- ----- --- ------ ----- --<br>----- ----- ---------- --- --- ------ ------ ---- -- ------<br>------- --- ------ ----- --- ---- ------- -- ---- --- --<br>------- ------,116399.09999999963,116398.29999999888,115535.702,115551.40000000037,115552.372,116402.55,,15,In
screen,html.Screen,0_2_1_1_16,2021-11-26T13:28:49.387Z,,,,,,,,,,,,,,,,54,,,,,,,,,,,,,,411.64999999925203,,response,,,100,,,,,,Space,keypress(Space),,,,,"-- --- ---- --- ------ ----- ------- ---- -- --- ------- --<br>------- ---------- ------ -- 1727, -- ----- -- ---- ------<br>--- ----- --- --- ------ -------- ----- --- ------ ----- --<br>----- ----- ---------- --- --- ------ ------ ---- -- ------<br>------- --- ------ ----- --- ---- ------- -- ---- --- --<br>------- ------",116814.90000000037,116814.19999999925,116385.88,116399.40000000037,116402.55,116819.351,,16,"1727,"
screen,html.Screen,0_2_1_1_17,2021-11-26T13:28:50.475Z,,,,,,,,,,,,,,,,54,,,,,,,,,,,,,,1082.7489999996324,,response,,,100,,,,,,Space,keypress(Space),,,,,-- --- ---- --- ------ ----- ------- ---- -- --- ------- --<br>------- ---------- ------ -- ----- in ----- -- ---- ------<br>--- ----- --- --- ------ -------- ----- --- ------ ----- --<br>----- ----- ---------- --- --- ------ ------ ---- -- ------<br>------- --- ------ ----- --- ---- ------- -- ---- --- --<br>------- ------,117903,117902.09999999963,116802.681,116815.19999999925,116819.351,117919.58,,17,in
screen,html.Screen,0_2_1_1_18,2021-11-26T13:28:51.027Z,,,,,,,,,,,,,,,,54,,,,,,,,,,,,,,534.5199999996257,,response,,,100,,,,,,Space,keypress(Space),,,,,-- --- ---- --- ------ ----- ------- ---- -- --- ------- --<br>------- ---------- ------ -- ----- -- order -- ---- ------<br>--- ----- --- --- ------ -------- ----- --- ------ ----- --<br>----- ----- ---------- --- --- ------ ------ ---- -- ------<br>------- --- ------ ----- --- ---- ------- -- ---- --- --<br>------- ------,118454.79999999888,118454.09999999963,117902.91,117903.19999999925,117919.58,118469.748,,18,order
screen,html.Screen,0_2_1_1_19,2021-11-26T13:28:51.402Z,,,,,,,,,,,,,,,,54,,,,,,,,,,,,,,360.25199999999313,,response,,,100,,,,,,Space,keypress(Space),,,,,-- --- ---- --- ------ ----- ------- ---- -- --- ------- --<br>------- ---------- ------ -- ----- -- ----- to ---- ------<br>--- ----- --- --- ------ -------- ----- --- ------ ----- --<br>----- ----- ---------- --- --- ------ ------ ---- -- ------<br>------- --- ------ ----- --- ---- ------- -- ---- --- --<br>------- ------,118830.79999999888,118830,118453.078,118455,118469.748,118836.521,,19,to
screen,html.Screen,0_2_1_1_20,2021-11-26T13:28:51.867Z,,,,,,,,,,,,,,,,54,,,,,,,,,,,,,,457.97900000000664,,response,,,100,,,,,,Space,keypress(Space),,,,,-- --- ---- --- ------ ----- ------- ---- -- --- ------- --<br>------- ---------- ------ -- ----- -- ----- -- save ------<br>--- ----- --- --- ------ -------- ----- --- ------ ----- --<br>----- ----- ---------- --- --- ------ ------ ---- -- ------<br>------- --- ------ ----- --- ---- ------- -- ---- --- --<br>------- ------,119295.19999999925,119294.5,118819.851,118831.09999999963,118836.521,119303.305,,20,save
screen,html.Screen,0_2_1_1_21,2021-11-26T13:28:52.354Z,,,,,,,,,,,,,,,,54,,,,,,,,,,,,,,478.79499999963446,,response,,,100,,,,,,Space,keypress(Space),,,,,"-- --- ---- --- ------ ----- ------- ---- -- --- ------- --<br>------- ---------- ------ -- ----- -- ----- -- ---- money,<br>--- ----- --- --- ------ -------- ----- --- ------ ----- --<br>----- ----- ---------- --- --- ------ ------ ---- -- ------<br>------- --- ------ ----- --- ---- ------- -- ---- --- --<br>------- ------",119782.79999999888,119782.09999999963,119286.635,119295.40000000037,119303.305,119786.727,,21,"money,"
screen,html.Screen,0_2_1_1_22,2021-11-26T13:28:52.894Z,,,,,,,,,,,,,,,,54,,,,,,,,,,,,,,531.3729999996285,,response,,,100,,,,,,Space,keypress(Space),,,,,-- --- ---- --- ------ ----- ------- ---- -- --- ------- --<br>------- ---------- ------ -- ----- -- ----- -- ---- ------<br>the ----- --- --- ------ -------- ----- --- ------ ----- --<br>----- ----- ---------- --- --- ------ ------ ---- -- ------<br>------- --- ------ ----- --- ---- ------- -- ---- --- --<br>------- ------,120318.79999999888,120318.09999999963,119770.057,119783,119786.727,120320.214,,22,the
screen,html.Screen,0_2_1_1_23,2021-11-26T13:28:53.526Z,,,,,,,,,,,,,,,,54,,,,,,,,,,,,,,629.7859999999928,,response,,,100,,,,,,Space,keypress(Space),,,,,-- --- ---- --- ------ ----- ------- ---- -- --- ------- --<br>------- ---------- ------ -- ----- -- ----- -- ---- ------<br>--- state --- --- ------ -------- ----- --- ------ ----- --<br>----- ----- ---------- --- --- ------ ------ ---- -- ------<br>------- --- ------ ----- --- ---- ------- -- ---- --- --<br>------- ------,120950.69999999925,120950,120303.544,120319.09999999963,120320.214,120953.701,,23,state
screen,html.Screen,0_2_1_1_24,2021-11-26T13:28:54.086Z,,,,,,,,,,,,,,,,54,,,,,,,,,,,,,,556.2989999999991,,response,,,100,,,,,,Space,keypress(Space),,,,,-- --- ---- --- ------ ----- ------- ---- -- --- ------- --<br>------- ---------- ------ -- ----- -- ----- -- ---- ------<br>--- ----- cut --- ------ -------- ----- --- ------ ----- --<br>----- ----- ---------- --- --- ------ ------ ---- -- ------<br>------- --- ------ ----- --- ---- ------- -- ---- --- --<br>------- ------,121510.79999999888,121510,120937.031,120951,120953.701,121520.38,,24,cut
screen,html.Screen,0_2_1_1_25,2021-11-26T13:28:54.582Z,,,,,,,,,,,,,,,,54,,,,,,,,,,,,,,485.5200000003679,,response,,,100,,,,,,Space,keypress(Space),,,,,-- --- ---- --- ------ ----- ------- ---- -- --- ------- --<br>------- ---------- ------ -- ----- -- ----- -- ---- ------<br>--- ----- --- the ------ -------- ----- --- ------ ----- --<br>----- ----- ---------- --- --- ------ ------ ---- -- ------<br>------- --- ------ ----- --- ---- ------- -- ---- --- --<br>------- ------,122006.69999999925,122005.90000000037,121503.711,121511,121520.38,122020.703,,25,the
screen,html.Screen,0_2_1_1_26,2021-11-26T13:28:55.038Z,,,,,,,,,,,,,,,,54,,,,,,,,,,,,,,441.19700000037847,,response,,,100,,,,,,Space,keypress(Space),,,,,-- --- ---- --- ------ ----- ------- ---- -- --- ------- --<br>------- ---------- ------ -- ----- -- ----- -- ---- ------<br>--- ----- --- --- bonds' -------- ----- --- ------ ----- --<br>----- ----- ---------- --- --- ------ ------ ---- -- ------<br>------- --- ------ ----- --- ---- ------- -- ---- --- --<br>------- ------,122462.69999999925,122461.90000000037,122004.032,122006.90000000037,122020.703,122470.796,,26,bonds'
screen,html.Screen,0_2_1_1_27,2021-11-26T13:28:55.486Z,,,,,,,,,,,,,,,,54,,,,,,,,,,,,,,439.10400000037043,,response,,,100,,,,,,Space,keypress(Space),,,,,-- --- ---- --- ------ ----- ------- ---- -- --- ------- --<br>------- ---------- ------ -- ----- -- ----- -- ---- ------<br>--- ----- --- --- ------ interest ----- --- ------ ----- --<br>----- ----- ---------- --- --- ------ ------ ---- -- ------<br>------- --- ------ ----- --- ---- ------- -- ---- --- --<br>------- ------,122910.69999999925,122909.90000000037,122454.125,122462.90000000037,122470.796,122920.85,,27,interest
screen,html.Screen,0_2_1_1_28,2021-11-26T13:28:55.934Z,,,,,,,,,,,,,,,,54,,,,,,,,,,,,,,437.0500000003667,,response,,,100,,,,,,Space,keypress(Space),,,,,-- --- ---- --- ------ ----- ------- ---- -- --- ------- --<br>------- ---------- ------ -- ----- -- ----- -- ---- ------<br>--- ----- --- --- ------ -------- rate. --- ------ ----- --<br>----- ----- ---------- --- --- ------ ------ ---- -- ------<br>------- --- ------ ----- --- ---- ------- -- ---- --- --<br>------- ------,123358.59999999963,123357.90000000037,122904.18,122910.90000000037,122920.85,123370.983,,28,rate.
screen,html.Screen,0_2_1_1_29,2021-11-26T13:28:56.422Z,,,,,,,,,,,,,,,,54,,,,,,,,,,,,,,474.8169999988895,,response,,,100,,,,,,Space,keypress(Space),,,,,-- --- ---- --- ------ ----- ------- ---- -- --- ------- --<br>------- ---------- ------ -- ----- -- ----- -- ---- ------<br>--- ----- --- --- ------ -------- ----- The ------ ----- --<br>----- ----- ---------- --- --- ------ ------ ---- -- ------<br>------- --- ------ ----- --- ---- ------- -- ---- --- --<br>------- ------,123846.59999999963,123845.79999999888,123354.313,123358.79999999888,123370.983,123854.358,,29,The
screen,html.Screen,0_2_1_1_30,2021-11-26T13:28:56.830Z,,,,,,,,,,,,,,,,54,,,,,,,,,,,,,,399.34199999926204,,response,,,100,,,,,,Space,keypress(Space),,,,,-- --- ---- --- ------ ----- ------- ---- -- --- ------- --<br>------- ---------- ------ -- ----- -- ----- -- ---- ------<br>--- ----- --- --- ------ -------- ----- --- market ----- --<br>----- ----- ---------- --- --- ------ ------ ---- -- ------<br>------- --- ------ ----- --- ---- ------- -- ---- --- --<br>------- ------,124254.59999999963,124253.69999999925,123837.689,123846.79999999888,123854.358,124271.241,,30,market
screen,html.Screen,0_2_1_1_31,2021-11-26T13:28:57.430Z,,,,,,,,,,,,,,,,54,,,,,,,,,,,,,,582.5589999988879,,response,,,100,,,,,,Space,keypress(Space),,,,,-- --- ---- --- ------ ----- ------- ---- -- --- ------- --<br>------- ---------- ------ -- ----- -- ----- -- ---- ------<br>--- ----- --- --- ------ -------- ----- --- ------ value --<br>----- ----- ---------- --- --- ------ ------ ---- -- ------<br>------- --- ------ ----- --- ---- ------- -- ---- --- --<br>------- ------,124854.59999999963,124853.79999999888,124254.57,124254.79999999888,124271.241,124871.346,,31,value
screen,html.Screen,0_2_1_1_32,2021-11-26T13:28:57.942Z,,,,,,,,,,,,,,,,54,,,,,,,,,,,,,,494.35399999924994,,response,,,100,,,,,,Space,keypress(Space),,,,,-- --- ---- --- ------ ----- ------- ---- -- --- ------- --<br>------- ---------- ------ -- ----- -- ----- -- ---- ------<br>--- ----- --- --- ------ -------- ----- --- ------ ----- of<br>----- ----- ---------- --- --- ------ ------ ---- -- ------<br>------- --- ------ ----- --- ---- ------- -- ---- --- --<br>------- ------,125366.5,125365.69999999925,124854.676,124854.79999999888,124871.346,125371.46,,32,of
screen,html.Screen,0_2_1_1_33,2021-11-26T13:28:58.478Z,,,,,,,,,,,,,,,,54,,,,,,,,,,,,,,530.2399999992485,,response,,,100,,,,,,Space,keypress(Space),,,,,-- --- ---- --- ------ ----- ------- ---- -- --- ------- --<br>------- ---------- ------ -- ----- -- ----- -- ---- ------<br>--- ----- --- --- ------ -------- ----- --- ------ ----- --<br>these ----- ---------- --- --- ------ ------ ---- -- ------<br>------- --- ------ ----- --- ---- ------- -- ---- --- --<br>------- ------,125902.40000000037,125901.69999999925,125354.79,125366.69999999925,125371.46,125904.935,,33,these
screen,html.Screen,0_2_1_1_34,2021-11-26T13:28:58.910Z,,,,,,,,,,,,,,,,54,,,,,,,,,,,,,,428.76499999925727,,response,,,100,,,,,,Space,keypress(Space),,,,,-- --- ---- --- ------ ----- ------- ---- -- --- ------- --<br>------- ---------- ------ -- ----- -- ----- -- ---- ------<br>--- ----- --- --- ------ -------- ----- --- ------ ----- --<br>----- bonds ---------- --- --- ------ ------ ---- -- ------<br>------- --- ------ ----- --- ---- ------- -- ---- --- --<br>------- ------,126334.40000000037,126333.69999999925,125888.265,125902.69999999925,125904.935,126338.422,,34,bonds
screen,html.Screen,0_2_1_1_35,2021-11-26T13:28:59.318Z,,,,,,,,,,,,,,,,54,,,,,,,,,,,,,,403.277999999249,,response,,,100,,,,,,Space,keypress(Space),,,,,"-- --- ---- --- ------ ----- ------- ---- -- --- ------- --<br>------- ---------- ------ -- ----- -- ----- -- ---- ------<br>--- ----- --- --- ------ -------- ----- --- ------ ----- --<br>----- ----- plummeted, --- --- ------ ------ ---- -- ------<br>------- --- ------ ----- --- ---- ------- -- ---- --- --<br>------- ------",126742.40000000037,126741.69999999925,126321.751,126334.69999999925,126338.422,126755.164,,35,"plummeted,"
screen,html.Screen,0_2_1_1_36,2021-11-26T13:28:59.718Z,,,,,,,,,,,,,,,,54,,,,,,,,,,,,,,386.43599999962316,,response,,,100,,,,,,Space,keypress(Space),,,,,-- --- ---- --- ------ ----- ------- ---- -- --- ------- --<br>------- ---------- ------ -- ----- -- ----- -- ---- ------<br>--- ----- --- --- ------ -------- ----- --- ------ ----- --<br>----- ----- ---------- and --- ------ ------ ---- -- ------<br>------- --- ------ ----- --- ---- ------- -- ---- --- --<br>------- ------,127142.40000000037,127141.59999999963,126738.494,126742.59999999963,126755.164,127155.253,,36,and
screen,html.Screen,0_2_1_1_37,2021-11-26T13:29:00.054Z,,,,,,,,,,,,,,,,54,,,,,,,,,,,,,,322.3469999996305,,response,,,100,,,,,,Space,keypress(Space),,,,,-- --- ---- --- ------ ----- ------- ---- -- --- ------- --<br>------- ---------- ------ -- ----- -- ----- -- ---- ------<br>--- ----- --- --- ------ -------- ----- --- ------ ----- --<br>----- ----- ---------- --- the ------ ------ ---- -- ------<br>------- --- ------ ----- --- ---- ------- -- ---- --- --<br>------- ------,127478.5,127477.59999999963,127138.583,127142.69999999925,127155.253,127488.682,,37,the
screen,html.Screen,0_2_1_1_38,2021-11-26T13:29:00.382Z,,,,,,,,,,,,,,,,54,,,,,,,,,,,,,,316.9179999996268,,response,,,100,,,,,,Space,keypress(Space),,,,,-- --- ---- --- ------ ----- ------- ---- -- --- ------- --<br>------- ---------- ------ -- ----- -- ----- -- ---- ------<br>--- ----- --- --- ------ -------- ----- --- ------ ----- --<br>----- ----- ---------- --- --- market ------ ---- -- ------<br>------- --- ------ ----- --- ---- ------- -- ---- --- --<br>------- ------,127806.40000000037,127805.59999999963,127472.012,127478.79999999888,127488.682,127822.076,,38,market
screen,html.Screen,0_2_1_1_39,2021-11-26T13:29:00.734Z,,,,,,,,,,,,,,,,54,,,,,,,,,,,,,,335.42399999999907,,response,,,100,,,,,,Space,keypress(Space),,,,,-- --- ---- --- ------ ----- ------- ---- -- --- ------- --<br>------- ---------- ------ -- ----- -- ----- -- ---- ------<br>--- ----- --- --- ------ -------- ----- --- ------ ----- --<br>----- ----- ---------- --- --- ------ became ---- -- ------<br>------- --- ------ ----- --- ---- ------- -- ---- --- --<br>------- ------,128158.29999999888,128157.5,127805.406,127806.69999999925,127822.076,128172.216,,39,became
screen,html.Screen,0_2_1_1_40,2021-11-26T13:29:01.046Z,,,,,,,,,,,,,,,,54,,,,,,,,,,,,,,297.3839999996271,,response,,,100,,,,,,Space,keypress(Space),,,,,-- --- ---- --- ------ ----- ------- ---- -- --- ------- --<br>------- ---------- ------ -- ----- -- ----- -- ---- ------<br>--- ----- --- --- ------ -------- ----- --- ------ ----- --<br>----- ----- ---------- --- --- ------ ------ wary -- ------<br>------- --- ------ ----- --- ---- ------- -- ---- --- --<br>------- ------,128470.29999999888,128469.59999999963,128155.545,128158.5,128172.216,128472.239,,40,wary
screen,html.Screen,0_2_1_1_41,2021-11-26T13:29:01.358Z,,,,,,,,,,,,,,,,54,,,,,,,,,,,,,,309.2609999999986,,response,,,100,,,,,,Space,keypress(Space),,,,,-- --- ---- --- ------ ----- ------- ---- -- --- ------- --<br>------- ---------- ------ -- ----- -- ----- -- ---- ------<br>--- ----- --- --- ------ -------- ----- --- ------ ----- --<br>----- ----- ---------- --- --- ------ ------ ---- of ------<br>------- --- ------ ----- --- ---- ------- -- ---- --- --<br>------- ------,128782.29999999888,128781.5,128455.569,128470.5,128472.239,128789.028,,41,of
screen,html.Screen,0_2_1_1_42,2021-11-26T13:29:01.710Z,,,,,,,,,,,,,,,,54,,,,,,,,,,,,,,344.4719999999943,,response,,,100,,,,,,Space,keypress(Space),,,,,-- --- ---- --- ------ ----- ------- ---- -- --- ------- --<br>------- ---------- ------ -- ----- -- ----- -- ---- ------<br>--- ----- --- --- ------ -------- ----- --- ------ ----- --<br>----- ----- ---------- --- --- ------ ------ ---- -- French<br>------- --- ------ ----- --- ---- ------- -- ---- --- --<br>------- ------,129134.29999999888,129133.5,128772.357,128782.5,128789.028,129139.071,,42,French
screen,html.Screen,0_2_1_1_43,2021-11-26T13:29:02.046Z,,,,,,,,,,,,,,,,54,,,,,,,,,,,,,,330.72899999888614,,response,,,100,,,,,,Space,keypress(Space),,,,,-- --- ---- --- ------ ----- ------- ---- -- --- ------- --<br>------- ---------- ------ -- ----- -- ----- -- ---- ------<br>--- ----- --- --- ------ -------- ----- --- ------ ----- --<br>----- ----- ---------- --- --- ------ ------ ---- -- ------<br>credit. --- ------ ----- --- ---- ------- -- ---- --- --<br>------- ------,129470.69999999925,129469.79999999888,129122.401,129134.5,129139.071,129472.539,,43,credit.
screen,html.Screen,0_2_1_1_44,2021-11-26T13:29:02.470Z,,,,,,,,,,,,,,,,54,,,,,,,,,,,,,,420.8610000003682,,response,,,100,,,,,,Space,keypress(Space),,,,,-- --- ---- --- ------ ----- ------- ---- -- --- ------- --<br>------- ---------- ------ -- ----- -- ----- -- ---- ------<br>--- ----- --- --- ------ -------- ----- --- ------ ----- --<br>----- ----- ---------- --- --- ------ ------ ---- -- ------<br>------- The ------ ----- --- ---- ------- -- ---- --- --<br>------- ------,129894.19999999925,129893.40000000037,129455.868,129470.90000000037,129472.539,129905.801,,44,The
screen,html.Screen,0_2_1_1_45,2021-11-26T13:29:02.814Z,,,,,,,,,,,,,,,,54,,,,,,,,,,,,,,331.69899999999325,,response,,,100,,,,,,Space,keypress(Space),,,,,-- --- ---- --- ------ ----- ------- ---- -- --- ------- --<br>------- ---------- ------ -- ----- -- ----- -- ---- ------<br>--- ----- --- --- ------ -------- ----- --- ------ ----- --<br>----- ----- ---------- --- --- ------ ------ ---- -- ------<br>------- --- French ----- --- ---- ------- -- ---- --- --<br>------- ------,130238.29999999888,130237.5,129889.133,129894.40000000037,129905.801,130239.482,,45,French
screen,html.Screen,0_2_1_1_46,2021-11-26T13:29:03.086Z,,,,,,,,,,,,,,,,54,,,,,,,,,,,,,,269.9180000003689,,response,,,100,,,,,,Space,keypress(Space),,,,,-- --- ---- --- ------ ----- ------- ---- -- --- ------- --<br>------- ---------- ------ -- ----- -- ----- -- ---- ------<br>--- ----- --- --- ------ -------- ----- --- ------ ----- --<br>----- ----- ---------- --- --- ------ ------ ---- -- ------<br>------- --- ------ state --- ---- ------- -- ---- --- --<br>------- ------,130510.19999999925,130509.40000000037,130222.809,130238.5,130239.482,130522.76,,46,state
screen,html.Screen,0_2_1_1_47,2021-11-26T13:29:03.414Z,,,,,,,,,,,,,,,,54,,,,,,,,,,,,,,314.64000000037777,,response,,,100,,,,,,Space,keypress(Space),,,,,-- --- ---- --- ------ ----- ------- ---- -- --- ------- --<br>------- ---------- ------ -- ----- -- ----- -- ---- ------<br>--- ----- --- --- ------ -------- ----- --- ------ ----- --<br>----- ----- ---------- --- --- ------ ------ ---- -- ------<br>------- --- ------ ----- was ---- ------- -- ---- --- --<br>------- ------,130838.09999999963,130837.40000000037,130506.09,130510.40000000037,130522.76,130839.501,,47,was
screen,html.Screen,0_2_1_1_48,2021-11-26T13:29:03.782Z,,,,,,,,,,,,,,,,54,,,,,,,,,,,,,,365.79899999887857,,response,,,100,,,,,,Space,keypress(Space),,,,,-- --- ---- --- ------ ----- ------- ---- -- --- ------- --<br>------- ---------- ------ -- ----- -- ----- -- ---- ------<br>--- ----- --- --- ------ -------- ----- --- ------ ----- --<br>----- ----- ---------- --- --- ------ ------ ---- -- ------<br>------- --- ------ ----- --- left ------- -- ---- --- --<br>------- ------,131206.19999999925,131205.29999999888,130822.831,130838.40000000037,130839.501,131222.797,,48,left
screen,html.Screen,0_2_1_1_49,2021-11-26T13:29:04.134Z,,,,,,,,,,,,,,,,54,,,,,,,,,,,,,,334.60300000038114,,response,,,100,,,,,,Space,keypress(Space),,,,,-- --- ---- --- ------ ----- ------- ---- -- --- ------- --<br>------- ---------- ------ -- ----- -- ----- -- ---- ------<br>--- ----- --- --- ------ -------- ----- --- ------ ----- --<br>----- ----- ---------- --- --- ------ ------ ---- -- ------<br>------- --- ------ ----- --- ---- without -- ---- --- --<br>------- ------,131558.09999999963,131557.40000000037,131206.129,131206.5,131222.797,131573.104,,49,without
screen,html.Screen,0_2_1_1_50,2021-11-26T13:29:04.478Z,,,,,,,,,,,,,,,,54,,,,,,,,,,,,,,328.19599999889033,,response,,,100,,,,,,Space,keypress(Space),,,,,-- --- ---- --- ------ ----- ------- ---- -- --- ------- --<br>------- ---------- ------ -- ----- -- ----- -- ---- ------<br>--- ----- --- --- ------ -------- ----- --- ------ ----- --<br>----- ----- ---------- --- --- ------ ------ ---- -- ------<br>------- --- ------ ----- --- ---- ------- an ---- --- --<br>------- ------,131902.09999999963,131901.29999999888,131556.432,131558.40000000037,131573.104,131906.436,,50,an
screen,html.Screen,0_2_1_1_51,2021-11-26T13:29:04.806Z,,,,,,,,,,,,,,,,54,,,,,,,,,,,,,,322.86399999889545,,response,,,100,,,,,,Space,keypress(Space),,,,,-- --- ---- --- ------ ----- ------- ---- -- --- ------- --<br>------- ---------- ------ -- ----- -- ----- -- ---- ------<br>--- ----- --- --- ------ -------- ----- --- ------ ----- --<br>----- ----- ---------- --- --- ------ ------ ---- -- ------<br>------- --- ------ ----- --- ---- ------- -- easy --- --<br>------- ------,132230.19999999925,132229.29999999888,131889.766,131902.29999999888,131906.436,132239.884,,51,easy
screen,html.Screen,0_2_1_1_52,2021-11-26T13:29:05.110Z,,,,,,,,,,,,,,,,54,,,,,,,,,,,,,,293.315999999264,,response,,,100,,,,,,Space,keypress(Space),,,,,-- --- ---- --- ------ ----- ------- ---- -- --- ------- --<br>------- ---------- ------ -- ----- -- ----- -- ---- ------<br>--- ----- --- --- ------ -------- ----- --- ------ ----- --<br>----- ----- ---------- --- --- ------ ------ ---- -- ------<br>------- --- ------ ----- --- ---- ------- -- ---- way --<br>------- ------,132534,132533.19999999925,132223.213,132230.40000000037,132239.884,132539.938,,52,way
screen,html.Screen,0_2_1_1_53,2021-11-26T13:29:05.398Z,,,,,,,,,,,,,,,,54,,,,,,,,,,,,,,281.36199999888777,,response,,,100,,,,,,Space,keypress(Space),,,,,-- --- ---- --- ------ ----- ------- ---- -- --- ------- --<br>------- ---------- ------ -- ----- -- ----- -- ---- ------<br>--- ----- --- --- ------ -------- ----- --- ------ ----- --<br>----- ----- ---------- --- --- ------ ------ ---- -- ------<br>------- --- ------ ----- --- ---- ------- -- ---- --- of<br>------- ------,132822,132821.29999999888,132523.268,132534.29999999888,132539.938,132823.321,,53,of
screen,html.Screen,0_2_1_1_54,2021-11-26T13:29:05.726Z,,,,,,,,,,,,,,,,54,,,,,,,,,,,,,,325.87899999925867,,response,,,100,,,,,,Space,keypress(Space),,,,,-- --- ---- --- ------ ----- ------- ---- -- --- ------- --<br>------- ---------- ------ -- ----- -- ----- -- ---- ------<br>--- ----- --- --- ------ -------- ----- --- ------ ----- --<br>----- ----- ---------- --- --- ------ ------ ---- -- ------<br>------- --- ------ ----- --- ---- ------- -- ---- --- --<br>raising ------,133150.09999999963,133149.19999999925,132806.651,132822.19999999925,132823.321,133156.805,,54,raising
screen,html.Screen,0_2_1_1_55,2021-11-26T13:29:06.110Z,,,,,,,,,,,,,,,,54,,,,,,,,,,,,,,376.3949999992619,,response,,,100,,,,,,Space,keypress(Space),,,,,-- --- ---- --- ------ ----- ------- ---- -- --- ------- --<br>------- ---------- ------ -- ----- -- ----- -- ---- ------<br>--- ----- --- --- ------ -------- ----- --- ------ ----- --<br>----- ----- ---------- --- --- ------ ------ ---- -- ------<br>------- --- ------ ----- --- ---- ------- -- ---- --- --<br>------- money.,133534,133533.19999999925,133140.134,133150.29999999888,133156.805,133540.173,,55,money.
Item 100,flow.Loop,0_2_1_1,2021-11-26T13:29:06.110Z,,,,,,,,,,,,,,,,,,,,,,,,,,,,,,25649.53999999925,,completion,,,,B,,,,,,,,,,silence,,133534.5,133533.19999999925,107866.99,107873.29999999888,107883.66,133540.173,,,
Question 1,html.Screen,0_2_1_2,2021-11-26T13:29:08.406Z,,,,,,,,,,,,,,,,,,,,,,,,,,,true,TRUE,,2288.6269999988726,,response,,,100,B,,,,,TRUE,click #choice-1,,,,silence,,135830,135828.79999999888,133523.503,133534.69999999925,133540.173,135840.755,,,
Question 2,html.Screen,0_2_1_3,2021-11-26T13:29:10.718Z,,,,,,,,,,,,,,,,,,,,,,,,,,,true,FALSE,,2299.9449999992503,,response,,,100,B,,,,,FALSE,click #choice-2,,,,silence,,138142,138140.69999999925,135824.085,135830.19999999925,135840.755,138157.541,,,
Item 100,flow.Sequence,0_2_1,2021-11-26T13:29:10.718Z,,,,,,,,,,,,,,,,,,,,,,,,,,,,,,40259.39599999925,,completion,,,,,,,,,,,,,,,,138142.40000000037,138140.69999999925,97864.634,97857.09999999963,97881.304,138157.541,,,
End of Practice,html.Page,0_2_2,2021-11-26T13:29:13.943Z,,,,,,,,,,,,,,,,,,,,,,,,,,,,,,3208.6589999992575,,form submission,,,,,,,,,,,,,,,,141367,141366.19999999925,138140.879,138142.59999999963,138157.541,141374.911,,,
Practice,flow.Sequence,0_2,2021-11-26T13:29:13.943Z,,,,,,,,,,,,,,,,,,,,,,,,,,,,,,102236.10699999926,,completion,,,,,,,,,,,,,,,,141367.40000000037,141366.19999999925,39113.448,39117.09999999963,39130.093,141374.911,,,
Trap_instruction,html.Page,0_3_0,2021-11-26T13:29:18.446Z,,,,,,,,,,,,,,,,,,,,,,,,,,,,,,4494.589000000007,,form submission,,,,,,,,,,,,,,,,145870.19999999925,145869.5,141358.243,141367.79999999888,141374.911,145909.917,,,
trap_trial,html.Screen,0_3_1,2021-11-26T13:29:21.069Z,,,,,,,,,,,,,,,,,,,,,,,,,,,true,1,,2581.983000000386,,response,,,,,,,,,1,click #choice-1,,,,,,148493.19999999925,148491.90000000037,145859.904,145870.5,145909.917,148493.884,,,
end of trap trial,html.Page,0_3_2,2021-11-26T13:29:22.853Z,,,,,,,,,,,,,,,,,,,,,,,,,,,,,,1783.4159999988915,,form submission,,,,,,,,,,,,,,,,150277.69999999925,150277.29999999888,148477.213,148493.5,148493.884,150278.161,,,
Trap 1,flow.Sequence,0_3,2021-11-26T13:29:22.854Z,,,,,,,,,,,,,,,,,,,,,,,,,,,,,,8902.38899999889,,completion,,,,,,,,,,,,,,,,150278,150277.29999999888,141358.243,141367.69999999925,141374.911,150278.161,,,
Standby,html.Page,0_4_0,2021-11-26T13:29:30.838Z,,,,,,,,,,,,,,,,,,,,,,,,,,,,,,8000.084000000003,,timeout,,,,,,,,,,,,,,,,158262.69999999925,158261.577,150261.476,150278.29999999888,150278.161,158278.245,,,
Holding screen,html.Screen,0_4_1_0_0,2021-11-26T13:29:37.842Z,,,,,,,,,,,,,,,,,,,,,,,,,,,,,,7003.088000000018,,timeout,,,,,,,,,,,,,,,,165266.19999999925,165264.663,158261.577,158263.09999999963,158278.245,165281.333,,,
screen,html.Screen,0_4_1_0_1_0,2021-11-26T13:29:38.756Z,,,,,,,,,,,,,,,,51,,,,,,,,,,,,,,898.3669999992417,,response,,,13,B,,,,,Space,keypress(Space),,,,lyrical,American -------- --- --- ---- --- --- ------ -- --------<br>---- --------- --- ------- ------------ ---------- ---------<br>--- ---------- ------- ---------- ------- -- -------- ----<br>---- --- ------ ----- ------ -- ---- --- ----- -- - -------<br>-------- -- --- --- -- ----- ----------- ----- -----------<br>---- --- ---------- --- ---- --- -- ----------,166180.69999999925,166179.69999999925,165264.663,165266.69999999925,165281.333,166181.564,,0,American
screen,html.Screen,0_4_1_0_1_1,2021-11-26T13:29:39.131Z,,,,,,,,,,,,,,,,51,,,,,,,,,,,,,,373.53599999961443,,response,,,13,B,,,,,Space,keypress(Space),,,,lyrical,-------- industry --- --- ---- --- --- ------ -- --------<br>---- --------- --- ------- ------------ ---------- ---------<br>--- ---------- ------- ---------- ------- -- -------- ----<br>---- --- ------ ----- ------ -- ---- --- ----- -- - -------<br>-------- -- --- --- -- ----- ----------- ----- -----------<br>---- --- ---------- --- ---- --- -- ----------,166555.79999999888,166555.09999999963,166164.894,166181.09999999963,166181.564,166565.091,,1,industry
screen,html.Screen,0_4_1_0_1_2,2021-11-26T13:29:39.507Z,,,,,,,,,,,,,,,,51,,,,,,,,,,,,,,365.9090000000142,,response,,,13,B,,,,,Space,keypress(Space),,,,lyrical,-------- -------- may --- ---- --- --- ------ -- --------<br>---- --------- --- ------- ------------ ---------- ---------<br>--- ---------- ------- ---------- ------- -- -------- ----<br>---- --- ------ ----- ------ -- ---- --- ----- -- - -------<br>-------- -- --- --- -- ----- ----------- ----- -----------<br>---- --- ---------- --- ---- --- -- ----------,166931.79999999888,166931,166548.42,166556.09999999963,166565.091,166948.486,,2,may
screen,html.Screen,0_4_1_0_1_3,2021-11-26T13:29:39.883Z,,,,,,,,,,,,,,,,51,,,,,,,,,,,,,,358.61399999962305,,response,,,13,B,,,,,Space,keypress(Space),,,,lyrical,-------- -------- --- not ---- --- --- ------ -- --------<br>---- --------- --- ------- ------------ ---------- ---------<br>--- ---------- ------- ---------- ------- -- -------- ----<br>---- --- ------ ----- ------ -- ---- --- ----- -- - -------<br>-------- -- --- --- -- ----- ----------- ----- -----------<br>---- --- ---------- --- ---- --- -- ----------,167307.79999999888,167307.09999999963,166931.816,166932.09999999963,166948.486,167315.244,,3,not
screen,html.Screen,0_4_1_0_1_4,2021-11-26T13:29:40.243Z,,,,,,,,,,,,,,,,51,,,,,,,,,,,,,,351.75599999999395,,response,,,13,B,,,,,Space,keypress(Space),,,,lyrical,-------- -------- --- --- know --- --- ------ -- --------<br>---- --------- --- ------- ------------ ---------- ---------<br>--- ---------- ------- ---------- ------- -- -------- ----<br>---- --- ------ ----- ------ -- ---- --- ----- -- - -------<br>-------- -- --- --- -- ----- ----------- ----- -----------<br>---- --- ---------- --- ---- --- -- ----------,167667.79999999888,167667,167298.574,167308.09999999963,167315.244,167682.038,,4,know
screen,html.Screen,0_4_1_0_1_5,2021-11-26T13:29:40.627Z,,,,,,,,,,,,,,,,51,,,,,,,,,,,,,,368.86200000037206,,response,,,13,B,,,,,Space,keypress(Space),,,,lyrical,"-------- -------- --- --- ---- it, --- ------ -- --------<br>---- --------- --- ------- ------------ ---------- ---------<br>--- ---------- ------- ---------- ------- -- -------- ----<br>---- --- ------ ----- ------ -- ---- --- ----- -- - -------<br>-------- -- --- --- -- ----- ----------- ----- -----------<br>---- --- ---------- --- ---- --- -- ----------",168051.69999999925,168050.90000000037,167665.367,167668.09999999963,167682.038,168065.441,,5,"it,"
screen,html.Screen,0_4_1_0_1_6,2021-11-26T13:29:40.995Z,,,,,,,,,,,,,,,,51,,,,,,,,,,,,,,353.4590000003809,,response,,,13,B,,,,,Space,keypress(Space),,,,lyrical,-------- -------- --- --- ---- --- but ------ -- --------<br>---- --------- --- ------- ------------ ---------- ---------<br>--- ---------- ------- ---------- ------- -- -------- ----<br>---- --- ------ ----- ------ -- ---- --- ----- -- - -------<br>-------- -- --- --- -- ----- ----------- ----- -----------<br>---- --- ---------- --- ---- --- -- ----------,168419.69999999925,168418.90000000037,168048.771,168051.90000000037,168065.441,168432.191,,6,but
screen,html.Screen,0_4_1_0_1_7,2021-11-26T13:29:41.411Z,,,,,,,,,,,,,,,,51,,,,,,,,,,,,,,402.7090000003809,,response,,,13,B,,,,,Space,keypress(Space),,,,lyrical,-------- -------- --- --- ---- --- --- debate -- --------<br>---- --------- --- ------- ------------ ---------- ---------<br>--- ---------- ------- ---------- ------- -- -------- ----<br>---- --- ------ ----- ------ -- ---- --- ----- -- - -------<br>-------- -- --- --- -- ----- ----------- ----- -----------<br>---- --- ---------- --- ---- --- -- ----------,168835.59999999963,168834.90000000037,168415.521,168419.90000000037,168432.191,168848.953,,7,debate
screen,html.Screen,0_4_1_0_1_8,2021-11-26T13:29:41.771Z,,,,,,,,,,,,,,,,51,,,,,,,,,,,,,,345.9470000003639,,response,,,13,B,,,,,Space,keypress(Space),,,,lyrical,-------- -------- --- --- ---- --- --- ------ in --------<br>---- --------- --- ------- ------------ ---------- ---------<br>--- ---------- ------- ---------- ------- -- -------- ----<br>---- --- ------ ----- ------ -- ---- --- ----- -- - -------<br>-------- -- --- --- -- ----- ----------- ----- -----------<br>---- --- ---------- --- ---- --- -- ----------,169195.79999999888,169194.90000000037,168832.283,168835.79999999888,168848.953,169199.096,,8,in
screen,html.Screen,0_4_1_0_1_9,2021-11-26T13:29:42.227Z,,,,,,,,,,,,,,,,51,,,,,,,,,,,,,,451.8040000003821,,response,,,13,B,,,,,Space,keypress(Space),,,,lyrical,-------- -------- --- --- ---- --- --- ------ -- Congress<br>---- --------- --- ------- ------------ ---------- ---------<br>--- ---------- ------- ---------- ------- -- -------- ----<br>---- --- ------ ----- ------ -- ---- --- ----- -- - -------<br>-------- -- --- --- -- ----- ----------- ----- -----------<br>---- --- ---------- --- ---- --- -- ----------,169651.79999999888,169650.90000000037,169182.425,169196,169199.096,169665.814,,9,Congress
screen,html.Screen,0_4_1_0_1_10,2021-11-26T13:29:42.611Z,,,,,,,,,,,,,,,,51,,,,,,,,,,,,,,369.0860000003595,,response,,,13,B,,,,,Space,keypress(Space),,,,lyrical,-------- -------- --- --- ---- --- --- ------ -- --------<br>over --------- --- ------- ------------ ---------- ---------<br>--- ---------- ------- ---------- ------- -- -------- ----<br>---- --- ------ ----- ------ -- ---- --- ----- -- - -------<br>-------- -- --- --- -- ----- ----------- ----- -----------<br>---- --- ---------- --- ---- --- -- ----------,170035.69999999925,170034.90000000037,169649.144,169652,169665.814,170049.244,,10,over
screen,html.Screen,0_4_1_0_1_11,2021-11-26T13:29:42.971Z,,,,,,,,,,,,,,,,51,,,,,,,,,,,,,,345.55599999887636,,response,,,13,B,,,,,Space,keypress(Space),,,,lyrical,-------- -------- --- --- ---- --- --- ------ -- --------<br>---- reforming --- ------- ------------ ---------- ---------<br>--- ---------- ------- ---------- ------- -- -------- ----<br>---- --- ------ ----- ------ -- ---- --- ----- -- - -------<br>-------- -- --- --- -- ----- ----------- ----- -----------<br>---- --- ---------- --- ---- --- -- ----------,170395.69999999925,170394.79999999888,170032.574,170036,170049.244,170399.379,,11,reforming
screen,html.Screen,0_4_1_0_1_12,2021-11-26T13:29:43.363Z,,,,,,,,,,,,,,,,51,,,,,,,,,,,,,,387.52100000038627,,response,,,13,B,,,,,Space,keypress(Space),,,,lyrical,-------- -------- --- --- ---- --- --- ------ -- --------<br>---- --------- the ------- ------------ ---------- ---------<br>--- ---------- ------- ---------- ------- -- -------- ----<br>---- --- ------ ----- ------ -- ---- --- ----- -- - -------<br>-------- -- --- --- -- ----- ----------- ----- -----------<br>---- --- ---------- --- ---- --- -- ----------,170787.59999999963,170786.90000000037,170382.708,170395.90000000037,170399.379,170799.484,,12,the
screen,html.Screen,0_4_1_0_1_13,2021-11-26T13:29:43.747Z,,,,,,,,,,,,,,,,51,,,,,,,,,,,,,,371.3159999988857,,response,,,13,B,,,,,Space,keypress(Space),,,,lyrical,-------- -------- --- --- ---- --- --- ------ -- --------<br>---- --------- --- federal ------------ ---------- ---------<br>--- ---------- ------- ---------- ------- -- -------- ----<br>---- --- ------ ----- ------ -- ---- --- ----- -- - -------<br>-------- -- --- --- -- ----- ----------- ----- -----------<br>---- --- ---------- --- ---- --- -- ----------,171171.59999999963,171170.79999999888,170782.813,170787.90000000037,170799.484,171182.861,,13,federal
screen,html.Screen,0_4_1_0_1_14,2021-11-26T13:29:44.107Z,,,,,,,,,,,,,,,,51,,,,,,,,,,,,,,347.8389999992505,,response,,,13,B,,,,,Space,keypress(Space),,,,lyrical,-------- -------- --- --- ---- --- --- ------ -- --------<br>---- --------- --- ------- government's ---------- ---------<br>--- ---------- ------- ---------- ------- -- -------- ----<br>---- --- ------ ----- ------ -- ---- --- ----- -- - -------<br>-------- -- --- --- -- ----- ----------- ----- -----------<br>---- --- ---------- --- ---- --- -- ----------,171531.59999999963,171530.69999999925,171166.191,171171.90000000037,171182.861,171532.965,,14,government's
screen,html.Screen,0_4_1_0_1_15,2021-11-26T13:29:44.507Z,,,,,,,,,,,,,,,,51,,,,,,,,,,,,,,397.73499999925843,,response,,,13,B,,,,,Space,keypress(Space),,,,lyrical,-------- -------- --- --- ---- --- --- ------ -- --------<br>---- --------- --- ------- ------------ regulatory ---------<br>--- ---------- ------- ---------- ------- -- -------- ----<br>---- --- ------ ----- ------ -- ---- --- ----- -- - -------<br>-------- -- --- --- -- ----- ----------- ----- -----------<br>---- --- ---------- --- ---- --- -- ----------,171931.59999999963,171930.69999999925,171516.295,171531.69999999925,171532.965,171932.929,,15,regulatory
screen,html.Screen,0_4_1_0_1_16,2021-11-26T13:29:45.027Z,,,,,,,,,,,,,,,,51,,,,,,,,,,,,,,517.7709999992512,,response,,,13,B,,,,,Space,keypress(Space),,,,lyrical,-------- -------- --- --- ---- --- --- ------ -- --------<br>---- --------- --- ------- ------------ ---------- apparatus<br>--- ---------- ------- ---------- ------- -- -------- ----<br>---- --- ------ ----- ------ -- ---- --- ----- -- - -------<br>-------- -- --- --- -- ----- ----------- ----- -----------<br>---- --- ---------- --- ---- --- -- ----------,172451.69999999925,172450.69999999925,171916.261,171931.69999999925,171932.929,172466.633,,16,apparatus
screen,html.Screen,0_4_1_0_1_17,2021-11-26T13:29:45.507Z,,,,,,,,,,,,,,,,51,,,,,,,,,,,,,,463.96699999962584,,response,,,13,B,,,,,Space,keypress(Space),,,,lyrical,-------- -------- --- --- ---- --- --- ------ -- --------<br>---- --------- --- ------- ------------ ---------- ---------<br>may ---------- ------- ---------- ------- -- -------- ----<br>---- --- ------ ----- ------ -- ---- --- ----- -- - -------<br>-------- -- --- --- -- ----- ----------- ----- -----------<br>---- --- ---------- --- ---- --- -- ----------,172931.40000000037,172930.59999999963,172449.961,172451.90000000037,172466.633,172933.312,,17,may
screen,html.Screen,0_4_1_0_1_18,2021-11-26T13:29:46.003Z,,,,,,,,,,,,,,,,51,,,,,,,,,,,,,,493.18799999999464,,response,,,13,B,,,,,Space,keypress(Space),,,,lyrical,-------- -------- --- --- ---- --- --- ------ -- --------<br>---- --------- --- ------- ------------ ---------- ---------<br>--- profoundly ------- ---------- ------- -- -------- ----<br>---- --- ------ ----- ------ -- ---- --- ----- -- - -------<br>-------- -- --- --- -- ----- ----------- ----- -----------<br>---- --- ---------- --- ---- --- -- ----------,173427.40000000037,173426.5,172916.642,172931.69999999925,172933.312,173433.419,,18,profoundly
screen,html.Screen,0_4_1_0_1_19,2021-11-26T13:29:46.507Z,,,,,,,,,,,,,,,,51,,,,,,,,,,,,,,497.18099999963306,,response,,,13,B,,,,,Space,keypress(Space),,,,lyrical,-------- -------- --- --- ---- --- --- ------ -- --------<br>---- --------- --- ------- ------------ ---------- ---------<br>--- ---------- improve ---------- ------- -- -------- ----<br>---- --- ------ ----- ------ -- ---- --- ----- -- - -------<br>-------- -- --- --- -- ----- ----------- ----- -----------<br>---- --- ---------- --- ---- --- -- ----------,173931.40000000037,173930.59999999963,173416.749,173427.59999999963,173433.419,173933.595,,19,improve
screen,html.Screen,0_4_1_0_1_20,2021-11-26T13:29:46.955Z,,,,,,,,,,,,,,,,51,,,,,,,,,,,,,,445.0049999996263,,response,,,13,B,,,,,Space,keypress(Space),,,,lyrical,-------- -------- --- --- ---- --- --- ------ -- --------<br>---- --------- --- ------- ------------ ---------- ---------<br>--- ---------- ------- companies' ------- -- -------- ----<br>---- --- ------ ----- ------ -- ---- --- ----- -- - -------<br>-------- -- --- --- -- ----- ----------- ----- -----------<br>---- --- ---------- --- ---- --- -- ----------,174379.40000000037,174378.59999999963,173916.924,173931.69999999925,173933.595,174383.675,,20,companies'
screen,html.Screen,0_4_1_0_1_21,2021-11-26T13:29:47.371Z,,,,,,,,,,,,,,,,51,,,,,,,,,,,,,,410.9249999996391,,response,,,13,B,,,,,Space,keypress(Space),,,,lyrical,-------- -------- --- --- ---- --- --- ------ -- --------<br>---- --------- --- ------- ------------ ---------- ---------<br>--- ---------- ------- ---------- ability -- -------- ----<br>---- --- ------ ----- ------ -- ---- --- ----- -- - -------<br>-------- -- --- --- -- ----- ----------- ----- -----------<br>---- --- ---------- --- ---- --- -- ----------,174795.29999999888,174794.59999999963,174367.005,174379.69999999925,174383.675,174800.446,,21,ability
screen,html.Screen,0_4_1_0_1_22,2021-11-26T13:29:47.779Z,,,,,,,,,,,,,,,,51,,,,,,,,,,,,,,402.0540000000037,,response,,,13,B,,,,,Space,keypress(Space),,,,lyrical,-------- -------- --- --- ---- --- --- ------ -- --------<br>---- --------- --- ------- ------------ ---------- ---------<br>--- ---------- ------- ---------- ------- to -------- ----<br>---- --- ------ ----- ------ -- ---- --- ----- -- - -------<br>-------- -- --- --- -- ----- ----------- ----- -----------<br>---- --- ---------- --- ---- --- -- ----------,175203.29999999888,175202.5,174783.776,174795.69999999925,174800.446,175217.078,,22,to
screen,html.Screen,0_4_1_0_1_23,2021-11-26T13:29:48.211Z,,,,,,,,,,,,,,,,51,,,,,,,,,,,,,,417.4219999999914,,response,,,13,B,,,,,Space,keypress(Space),,,,lyrical,-------- -------- --- --- ---- --- --- ------ -- --------<br>---- --------- --- ------- ------------ ---------- ---------<br>--- ---------- ------- ---------- ------- -- survive. ----<br>---- --- ------ ----- ------ -- ---- --- ----- -- - -------<br>-------- -- --- --- -- ----- ----------- ----- -----------<br>---- --- ---------- --- ---- --- -- ----------,175635.29999999888,175634.5,175200.41,175203.59999999963,175217.078,175650.756,,23,survive.
screen,html.Screen,0_4_1_0_1_24,2021-11-26T13:29:48.595Z,,,,,,,,,,,,,,,,51,,,,,,,,,,,,,,367.74400000000605,,response,,,13,B,,,,,Space,keypress(Space),,,,lyrical,-------- -------- --- --- ---- --- --- ------ -- --------<br>---- --------- --- ------- ------------ ---------- ---------<br>--- ---------- ------- ---------- ------- -- -------- This<br>---- --- ------ ----- ------ -- ---- --- ----- -- - -------<br>-------- -- --- --- -- ----- ----------- ----- -----------<br>---- --- ---------- --- ---- --- -- ----------,176019.29999999888,176018.5,175634.084,175635.69999999925,175650.756,176034.008,,24,This
screen,html.Screen,0_4_1_0_1_25,2021-11-26T13:29:49.067Z,,,,,,,,,,,,,,,,51,,,,,,,,,,,,,,456.8920000003709,,response,,,13,B,,,,,Space,keypress(Space),,,,lyrical,-------- -------- --- --- ---- --- --- ------ -- --------<br>---- --------- --- ------- ------------ ---------- ---------<br>--- ---------- ------- ---------- ------- -- -------- ----<br>week --- ------ ----- ------ -- ---- --- ----- -- - -------<br>-------- -- --- --- -- ----- ----------- ----- -----------<br>---- --- ---------- --- ---- --- -- ----------,176491.59999999963,176490.90000000037,176017.339,176019.59999999963,176034.008,176500.908,,25,week
screen,html.Screen,0_4_1_0_1_26,2021-11-26T13:29:49.547Z,,,,,,,,,,,,,,,,51,,,,,,,,,,,,,,469.3919999988866,,response,,,13,B,,,,,Space,keypress(Space),,,,lyrical,-------- -------- --- --- ---- --- --- ------ -- --------<br>---- --------- --- ------- ------------ ---------- ---------<br>--- ---------- ------- ---------- ------- -- -------- ----<br>---- the ------ ----- ------ -- ---- --- ----- -- - -------<br>-------- -- --- --- -- ----- ----------- ----- -----------<br>---- --- ---------- --- ---- --- -- ----------,176971.29999999888,176970.29999999888,176484.237,176491.90000000037,176500.908,176984.156,,26,the
screen,html.Screen,0_4_1_0_1_27,2021-11-26T13:29:49.987Z,,,,,,,,,,,,,,,,51,,,,,,,,,,,,,,426.1439999988943,,response,,,13,B,,,,,Space,keypress(Space),,,,lyrical,-------- -------- --- --- ---- --- --- ------ -- --------<br>---- --------- --- ------- ------------ ---------- ---------<br>--- ---------- ------- ---------- ------- -- -------- ----<br>---- --- Senate ----- ------ -- ---- --- ----- -- - -------<br>-------- -- --- --- -- ----- ----------- ----- -----------<br>---- --- ---------- --- ---- --- -- ----------,177411.19999999925,177410.29999999888,176967.488,176971.40000000037,176984.156,177417.877,,27,Senate
screen,html.Screen,0_4_1_0_1_28,2021-11-26T13:29:50.475Z,,,,,,,,,,,,,,,,51,,,,,,,,,,,,,,480.52300000036485,,response,,,13,B,,,,,Space,keypress(Space),,,,lyrical,-------- -------- --- --- ---- --- --- ------ -- --------<br>---- --------- --- ------- ------------ ---------- ---------<br>--- ---------- ------- ---------- ------- -- -------- ----<br>---- --- ------ seems ------ -- ---- --- ----- -- - -------<br>-------- -- --- --- -- ----- ----------- ----- -----------<br>---- --- ---------- --- ---- --- -- ----------,177899.09999999963,177898.40000000037,177401.205,177411.40000000037,177417.877,177901.183,,28,seems
screen,html.Screen,0_4_1_0_1_29,2021-11-26T13:29:50.971Z,,,,,,,,,,,,,,,,51,,,,,,,,,,,,,,493.1169999988924,,response,,,13,B,,,,,Space,keypress(Space),,,,lyrical,-------- -------- --- --- ---- --- --- ------ -- --------<br>---- --------- --- ------- ------------ ---------- ---------<br>--- ---------- ------- ---------- ------- -- -------- ----<br>---- --- ------ ----- poised -- ---- --- ----- -- - -------<br>-------- -- --- --- -- ----- ----------- ----- -----------<br>---- --- ---------- --- ---- --- -- ----------,178395,178394.29999999888,177884.513,177899.40000000037,177901.183,178401.373,,29,poised
screen,html.Screen,0_4_1_0_1_30,2021-11-26T13:29:51.411Z,,,,,,,,,,,,,,,,51,,,,,,,,,,,,,,432.8269999992626,,response,,,13,B,,,,,Space,keypress(Space),,,,lyrical,-------- -------- --- --- ---- --- --- ------ -- --------<br>---- --------- --- ------- ------------ ---------- ---------<br>--- ---------- ------- ---------- ------- -- -------- ----<br>---- --- ------ ----- ------ to ---- --- ----- -- - -------<br>-------- -- --- --- -- ----- ----------- ----- -----------<br>---- --- ---------- --- ---- --- -- ----------,178835,178834.19999999925,178384.702,178395.29999999888,178401.373,178851.435,,30,to
screen,html.Screen,0_4_1_0_1_31,2021-11-26T13:29:51.819Z,,,,,,,,,,,,,,,,51,,,,,,,,,,,,,,390.86499999888474,,response,,,13,B,,,,,Space,keypress(Space),,,,lyrical,-------- -------- --- --- ---- --- --- ------ -- --------<br>---- --------- --- ------- ------------ ---------- ---------<br>--- ---------- ------- ---------- ------- -- -------- ----<br>---- --- ------ ----- ------ -- join --- ----- -- - -------<br>-------- -- --- --- -- ----- ----------- ----- -----------<br>---- --- ---------- --- ---- --- -- ----------,179243,179242.29999999888,178834.765,178835.29999999888,178851.435,179251.549,,31,join
screen,html.Screen,0_4_1_0_1_32,2021-11-26T13:29:52.203Z,,,,,,,,,,,,,,,,51,,,,,,,,,,,,,,374.6509999992559,,response,,,13,B,,,,,Space,keypress(Space),,,,lyrical,-------- -------- --- --- ---- --- --- ------ -- --------<br>---- --------- --- ------- ------------ ---------- ---------<br>--- ---------- ------- ---------- ------- -- -------- ----<br>---- --- ------ ----- ------ -- ---- the ----- -- - -------<br>-------- -- --- --- -- ----- ----------- ----- -----------<br>---- --- ---------- --- ---- --- -- ----------,179627.09999999963,179626.19999999925,179234.879,179243.29999999888,179251.549,179634.959,,32,the
screen,html.Screen,0_4_1_0_1_33,2021-11-26T13:29:52.611Z,,,,,,,,,,,,,,,,51,,,,,,,,,,,,,,399.2409999992524,,response,,,13,B,,,,,Space,keypress(Space),,,,lyrical,-------- -------- --- --- ---- --- --- ------ -- --------<br>---- --------- --- ------- ------------ ---------- ---------<br>--- ---------- ------- ---------- ------- -- -------- ----<br>---- --- ------ ----- ------ -- ---- --- House -- - -------<br>-------- -- --- --- -- ----- ----------- ----- -----------<br>---- --- ---------- --- ---- --- -- ----------,180035.19999999925,180034.19999999925,179618.289,179627.19999999925,179634.959,180051.73,,33,House
screen,html.Screen,0_4_1_0_1_34,2021-11-26T13:29:53.044Z,,,,,,,,,,,,,,,,51,,,,,,,,,,,,,,414.46999999924446,,response,,,13,B,,,,,Space,keypress(Space),,,,lyrical,-------- -------- --- --- ---- --- --- ------ -- --------<br>---- --------- --- ------- ------------ ---------- ---------<br>--- ---------- ------- ---------- ------- -- -------- ----<br>---- --- ------ ----- ------ -- ---- --- ----- in - -------<br>-------- -- --- --- -- ----- ----------- ----- -----------<br>---- --- ---------- --- ---- --- -- ----------,180467,180466.19999999925,180035.06,180035.40000000037,180051.73,180468.515,,34,in
screen,html.Screen,0_4_1_0_1_35,2021-11-26T13:29:53.556Z,,,,,,,,,,,,,,,,51,,,,,,,,,,,,,,509.5849999996135,,response,,,13,B,,,,,Space,keypress(Space),,,,lyrical,-------- -------- --- --- ---- --- --- ------ -- --------<br>---- --------- --- ------- ------------ ---------- ---------<br>--- ---------- ------- ---------- ------- -- -------- ----<br>---- --- ------ ----- ------ -- ---- --- ----- -- a -------<br>-------- -- --- --- -- ----- ----------- ----- -----------<br>---- --- ---------- --- ---- --- -- ----------,180978.90000000037,180978.09999999963,180451.845,180467.19999999925,180468.515,180985.304,,35,a
screen,html.Screen,0_4_1_0_1_36,2021-11-26T13:29:54.004Z,,,,,,,,,,,,,,,,51,,,,,,,,,,,,,,440.79599999962375,,response,,,13,B,,,,,Space,keypress(Space),,,,lyrical,-------- -------- --- --- ---- --- --- ------ -- --------<br>---- --------- --- ------- ------------ ---------- ---------<br>--- ---------- ------- ---------- ------- -- -------- ----<br>---- --- ------ ----- ------ -- ---- --- ----- -- - massive<br>-------- -- --- --- -- ----- ----------- ----- -----------<br>---- --- ---------- --- ---- --- -- ----------,181426.90000000037,181426.09999999963,180968.634,180979.19999999925,180985.304,181435.4,,36,massive
screen,html.Screen,0_4_1_0_1_37,2021-11-26T13:29:54.492Z,,,,,,,,,,,,,,,,51,,,,,,,,,,,,,,478.6999999996333,,response,,,13,B,,,,,Space,keypress(Space),,,,lyrical,-------- -------- --- --- ---- --- --- ------ -- --------<br>---- --------- --- ------- ------------ ---------- ---------<br>--- ---------- ------- ---------- ------- -- -------- ----<br>---- --- ------ ----- ------ -- ---- --- ----- -- - -------<br>overhaul -- --- --- -- ----- ----------- ----- -----------<br>---- --- ---------- --- ---- --- -- ----------,181914.90000000037,181914.09999999963,181418.73,181427.09999999963,181435.4,181918.841,,37,overhaul
screen,html.Screen,0_4_1_0_1_38,2021-11-26T13:29:54.892Z,,,,,,,,,,,,,,,,51,,,,,,,,,,,,,,395.2589999996417,,response,,,13,B,,,,,Space,keypress(Space),,,,lyrical,-------- -------- --- --- ---- --- --- ------ -- --------<br>---- --------- --- ------- ------------ ---------- ---------<br>--- ---------- ------- ---------- ------- -- -------- ----<br>---- --- ------ ----- ------ -- ---- --- ----- -- - -------<br>-------- of --- --- -- ----- ----------- ----- -----------<br>---- --- ---------- --- ---- --- -- ----------,182314.90000000037,182314.09999999963,181902.171,181915.09999999963,181918.841,182318.896,,38,of
screen,html.Screen,0_4_1_0_1_39,2021-11-26T13:29:55.276Z,,,,,,,,,,,,,,,,51,,,,,,,,,,,,,,379.20399999961955,,response,,,13,B,,,,,Space,keypress(Space),,,,lyrical,-------- -------- --- --- ---- --- --- ------ -- --------<br>---- --------- --- ------- ------------ ---------- ---------<br>--- ---------- ------- ---------- ------- -- -------- ----<br>---- --- ------ ----- ------ -- ---- --- ----- -- - -------<br>-------- -- the --- -- ----- ----------- ----- -----------<br>---- --- ---------- --- ---- --- -- ----------,182698.79999999888,182698.09999999963,182302.227,182315,182318.896,182702.458,,39,the
screen,html.Screen,0_4_1_0_1_40,2021-11-26T13:29:55.756Z,,,,,,,,,,,,,,,,51,,,,,,,,,,,,,,475.54199999998673,,response,,,13,B,,,,,Space,keypress(Space),,,,lyrical,-------- -------- --- --- ---- --- --- ------ -- --------<br>---- --------- --- ------- ------------ ---------- ---------<br>--- ---------- ------- ---------- ------- -- -------- ----<br>---- --- ------ ----- ------ -- ---- --- ----- -- - -------<br>-------- -- --- way -- ----- ----------- ----- -----------<br>---- --- ---------- --- ---- --- -- ----------,183178.90000000037,183178,182685.787,182699.09999999963,182702.458,183185.899,,40,way
screen,html.Screen,0_4_1_0_1_41,2021-11-26T13:29:56.196Z,,,,,,,,,,,,,,,,51,,,,,,,,,,,,,,432.1009999999951,,response,,,13,B,,,,,Space,keypress(Space),,,,lyrical,-------- -------- --- --- ---- --- --- ------ -- --------<br>---- --------- --- ------- ------------ ---------- ---------<br>--- ---------- ------- ---------- ------- -- -------- ----<br>---- --- ------ ----- ------ -- ---- --- ----- -- - -------<br>-------- -- --- --- in ----- ----------- ----- -----------<br>---- --- ---------- --- ---- --- -- ----------,183618.79999999888,183618,183169.228,183179,183185.899,183635.958,,41,in
screen,html.Screen,0_4_1_0_1_42,2021-11-26T13:29:56.604Z,,,,,,,,,,,,,,,,51,,,,,,,,,,,,,,390.04199999998673,,response,,,13,B,,,,,Space,keypress(Space),,,,lyrical,-------- -------- --- --- ---- --- --- ------ -- --------<br>---- --------- --- ------- ------------ ---------- ---------<br>--- ---------- ------- ---------- ------- -- -------- ----<br>---- --- ------ ----- ------ -- ---- --- ----- -- - -------<br>-------- -- --- --- -- which ----------- ----- -----------<br>---- --- ---------- --- ---- --- -- ----------,184026.69999999925,184026,183619.288,183619.09999999963,183635.958,184035.936,,42,which
screen,html.Screen,0_4_1_0_1_43,2021-11-26T13:29:57.068Z,,,,,,,,,,,,,,,,51,,,,,,,,,,,,,,453.96400000038557,,response,,,13,B,,,,,Space,keypress(Space),,,,lyrical,-------- -------- --- --- ---- --- --- ------ -- --------<br>---- --------- --- ------- ------------ ---------- ---------<br>--- ---------- ------- ---------- ------- -- -------- ----<br>---- --- ------ ----- ------ -- ---- --- ----- -- - -------<br>-------- -- --- --- -- ----- bureaucrats ----- -----------<br>---- --- ---------- --- ---- --- -- ----------,184490.59999999963,184489.90000000037,184019.268,184026.90000000037,184035.936,184502.95,,43,bureaucrats
screen,html.Screen,0_4_1_0_1_44,2021-11-26T13:29:57.444Z,,,,,,,,,,,,,,,,51,,,,,,,,,,,,,,362.9500000003609,,response,,,13,B,,,,,Space,keypress(Space),,,,lyrical,-------- -------- --- --- ---- --- --- ------ -- --------<br>---- --------- --- ------- ------------ ---------- ---------<br>--- ---------- ------- ---------- ------- -- -------- ----<br>---- --- ------ ----- ------ -- ---- --- ----- -- - -------<br>-------- -- --- --- -- ----- ----------- enact -----------<br>---- --- ---------- --- ---- --- -- ----------,184866.69999999925,184865.90000000037,184486.278,184490.90000000037,184502.95,184869.605,,44,enact
screen,html.Screen,0_4_1_0_1_45,2021-11-26T13:29:57.868Z,,,,,,,,,,,,,,,,51,,,,,,,,,,,,,,420.29500000036205,,response,,,13,B,,,,,Space,keypress(Space),,,,lyrical,-------- -------- --- --- ---- --- --- ------ -- --------<br>---- --------- --- ------- ------------ ---------- ---------<br>--- ---------- ------- ---------- ------- -- -------- ----<br>---- --- ------ ----- ------ -- ---- --- ----- -- - -------<br>-------- -- --- --- -- ----- ----------- ----- regulations<br>---- --- ---------- --- ---- --- -- ----------,185290.59999999963,185289.90000000037,184852.935,184866.90000000037,184869.605,185302.953,,45,regulations
screen,html.Screen,0_4_1_0_1_46,2021-11-26T13:29:58.292Z,,,,,,,,,,,,,,,,51,,,,,,,,,,,,,,410.8469999988738,,response,,,13,B,,,,,Space,keypress(Space),,,,lyrical,-------- -------- --- --- ---- --- --- ------ -- --------<br>---- --------- --- ------- ------------ ---------- ---------<br>--- ---------- ------- ---------- ------- -- -------- ----<br>---- --- ------ ----- ------ -- ---- --- ----- -- - -------<br>-------- -- --- --- -- ----- ----------- ----- -----------<br>that --- ---------- --- ---- --- -- ----------,185714.59999999963,185713.79999999888,185286.284,185290.79999999888,185302.953,185719.782,,46,that
screen,html.Screen,0_4_1_0_1_47,2021-11-26T13:29:58.676Z,,,,,,,,,,,,,,,,51,,,,,,,,,,,,,,378.118000000366,,response,,,13,B,,,,,Space,keypress(Space),,,,lyrical,-------- -------- --- --- ---- --- --- ------ -- --------<br>---- --------- --- ------- ------------ ---------- ---------<br>--- ---------- ------- ---------- ------- -- -------- ----<br>---- --- ------ ----- ------ -- ---- --- ----- -- - -------<br>-------- -- --- --- -- ----- ----------- ----- -----------<br>---- are ---------- --- ---- --- -- ----------,186098.59999999963,186097.90000000037,185703.112,185714.90000000037,185719.782,186103.212,,47,are
screen,html.Screen,0_4_1_0_1_48,2021-11-26T13:29:59.180Z,,,,,,,,,,,,,,,,51,,,,,,,,,,,,,,498.9879999992554,,response,,,13,B,,,,,Space,keypress(Space),,,,lyrical,-------- -------- --- --- ---- --- --- ------ -- --------<br>---- --------- --- ------- ------------ ---------- ---------<br>--- ---------- ------- ---------- ------- -- -------- ----<br>---- --- ------ ----- ------ -- ---- --- ----- -- - -------<br>-------- -- --- --- -- ----- ----------- ----- -----------<br>---- --- strangling --- ---- --- -- ----------,186603,186602.19999999925,186086.542,186098.79999999888,186103.212,186620.147,,48,strangling
screen,html.Screen,0_4_1_0_1_49,2021-11-26T13:29:59.580Z,,,,,,,,,,,,,,,,51,,,,,,,,,,,,,,381.6529999988852,,response,,,13,B,,,,,Space,keypress(Space),,,,lyrical,-------- -------- --- --- ---- --- --- ------ -- --------<br>---- --------- --- ------- ------------ ---------- ---------<br>--- ---------- ------- ---------- ------- -- -------- ----<br>---- --- ------ ----- ------ -- ---- --- ----- -- - -------<br>-------- -- --- --- -- ----- ----------- ----- -----------<br>---- --- ---------- the ---- --- -- ----------,187002.5,187001.79999999888,186603.475,186603.29999999888,186620.147,187003.47,,49,the
screen,html.Screen,0_4_1_0_1_50,2021-11-26T13:29:59.972Z,,,,,,,,,,,,,,,,51,,,,,,,,,,,,,,390.32999999888125,,response,,,13,B,,,,,Space,keypress(Space),,,,lyrical,-------- -------- --- --- ---- --- --- ------ -- --------<br>---- --------- --- ------- ------------ ---------- ---------<br>--- ---------- ------- ---------- ------- -- -------- ----<br>---- --- ------ ----- ------ -- ---- --- ----- -- - -------<br>-------- -- --- --- -- ----- ----------- ----- -----------<br>---- --- ---------- --- life --- -- ----------,187394.69999999925,187393.79999999888,186986.8,187002.79999999888,187003.47,187403.578,,50,life
