sender,sender_type,sender_id,timestamp,meta,,Blues,Classical,Country,Dance,Electronic,Folk,Gospel,Hip-Hop,Jazz,Latin,Musical/Film,New-age,Pop,Provo_ID,R&B,Rap,Reggae,Religious,Rock,Soul,Swing,Traditional,age,artist_name,correct,correctResponse,distraction,duration,education,ended_on,familiarity,gender,item,list,music_frequency,offensiveness,pleasantness,preference,response,response_action,snippet_file,song_name,song_rating,sound,text,time_commit,time_end,time_render,time_run,time_show,time_switch,url,word,word_ID
Instructions,html.Page,0_0,2021-12-02T16:17:17.188Z,"{""labjs_version"":""20.2.3"",""labjs_build"":{""flavor"":""production"",""commit"":""7ea907d66ca8aeef8054924ca5d82ffbe11e34e5""},""location"":""https://run.pavlovia.org/mvasilev/lab_music_d/"",""userAgent"":""Mozilla/5.0 (Windows NT 6.1; Win64; x64) AppleWebKit/537.36 (KHTML, like Gecko) Chrome/96.0.4664.45 Safari/537.36"",""platform"":""Win32"",""language"":""en-US"",""locale"":""en-US"",""timeZone"":""Europe/London"",""timezoneOffset"":0,""screen_width"":1920,""screen_height"":1080,""scroll_width"":1920,""scroll_height"":959,""window_innerWidth"":1920,""window_innerHeight"":1007,""devicePixelRatio"":1}",,,,,,,,,,,,,,,,,,,,,,,,,,,,,17938.549,,form submission,,,,,,,,,,,,,,,,30051.80000001192,30051,12079.121,12090.399999976158,12112.451,30061.001,{},,
Headphones,html.Page,0_1,2021-12-02T16:17:19.291Z,,,,,,,,,,,,,,,,,,,,,,,,,,,,,,2093.098999964237,,form submission,,,,,,,,,,,,,,,,32154.599999964237,32154.099999964237,30044.317,30052.30000001192,30061.001,32158.008,,,
Holding screen,html.Screen,0_2_0_0,2021-12-02T16:17:29.285Z,,,,,,,,,,,,,,,,,,,,,,,,,,,,,,10003.898000000001,,timeout,,,,,,,,,,,,,,,,42148.59999996424,42145.24,32141.376,32154.899999976158,32158.008,42161.906,,,
screen,html.Screen,0_2_0_1_0,2021-12-02T16:17:30.586Z,,,,,,,,,,,,,,,,53,,,,,,,,,,,,,,1286.5939999999973,,response,,,99,,,,,,Space,keypress(Space),,,,,When -- ----- -- ------ - ------- --- ----------<br>------------- ------ ------ ---- ---- ------- ----- -- ----<br>-------- ------- -- ---------- --- - --- ----- ----- ----<br>---- --- --- ----- --- ---- ---- ------- ----- ---- -------<br>--- --- -- ----- -- --- ---- -- --- ---- -- ------ ------<br>--- ----- -- ----,43449.5,43448.5,42145.24,42148.89999997616,42161.906,43461.756,,0,When
screen,html.Screen,0_2_0_1_1,2021-12-02T16:17:31.186Z,,,,,,,,,,,,,,,,53,,,,,,,,,,,,,,586.6439999761569,,response,,,99,,,,,,Space,keypress(Space),,,,,---- it ----- -- ------ - ------- --- ----------<br>------------- ------ ------ ---- ---- ------- ----- -- ----<br>-------- ------- -- ---------- --- - --- ----- ----- ----<br>---- --- --- ----- --- ---- ---- ------- ----- ---- -------<br>--- --- -- ----- -- --- ---- -- --- ---- -- ------ ------<br>--- ----- -- ----,44049.09999996424,44048.39999997616,43445.091,43449.69999998808,43461.756,44061.764,,1,it
screen,html.Screen,0_2_0_1_2,2021-12-02T16:17:31.714Z,,,,,,,,,,,,,,,,53,,,,,,,,,,,,,,514.5360000119181,,response,,,99,,,,,,Space,keypress(Space),,,,,---- -- comes -- ------ - ------- --- ----------<br>------------- ------ ------ ---- ---- ------- ----- -- ----<br>-------- ------- -- ---------- --- - --- ----- ----- ----<br>---- --- --- ----- --- ---- ---- ------- ----- ---- -------<br>--- --- -- ----- -- --- ---- -- --- ---- -- ------ ------<br>--- ----- -- ----,44577,44576.30000001192,44045.099,44049.30000001192,44061.764,44578.406,,2,comes
screen,html.Screen,0_2_0_1_3,2021-12-02T16:17:32.114Z,,,,,,,,,,,,,,,,53,,,,,,,,,,,,,,397.89400001191825,,response,,,99,,,,,,Space,keypress(Space),,,,,---- -- ----- to ------ - ------- --- ----------<br>------------- ------ ------ ---- ---- ------- ----- -- ----<br>-------- ------- -- ---------- --- - --- ----- ----- ----<br>---- --- --- ----- --- ---- ---- ------- ----- ---- -------<br>--- --- -- ----- -- --- ---- -- --- ---- -- ------ ------<br>--- ----- -- ----,44977.09999996424,44976.30000001192,44561.741,44577.19999998808,44578.406,44978.422,,3,to
screen,html.Screen,0_2_0_1_4,2021-12-02T16:17:32.714Z,,,,,,,,,,,,,,,,53,,,,,,,,,,,,,,597.8780000119223,,response,,,99,,,,,,Space,keypress(Space),,,,,---- -- ----- -- having - ------- --- ----------<br>------------- ------ ------ ---- ---- ------- ----- -- ----<br>-------- ------- -- ---------- --- - --- ----- ----- ----<br>---- --- --- ----- --- ---- ---- ------- ----- ---- -------<br>--- --- -- ----- -- --- ---- -- --- ---- -- ------ ------<br>--- ----- -- ----,45577.19999998808,45576.30000001192,44961.757,44977.5,44978.422,45578.268,,4,having
screen,html.Screen,0_2_0_1_5,2021-12-02T16:17:33.130Z,,,,,,,,,,,,,,,,53,,,,,,,,,,,,,,414.03200001192454,,response,,,99,,,,,,Space,keypress(Space),,,,,---- -- ----- -- ------ a ------- --- ----------<br>------------- ------ ------ ---- ---- ------- ----- -- ----<br>-------- ------- -- ---------- --- - --- ----- ----- ----<br>---- --- --- ----- --- ---- ---- ------- ----- ---- -------<br>--- --- -- ----- -- --- ---- -- --- ---- -- ------ ------<br>--- ----- -- ----,45993,45992.30000001192,45561.604,45577.30000001192,45578.268,45995.104,,5,a
screen,html.Screen,0_2_0_1_6,2021-12-02T16:17:33.738Z,,,,,,,,,,,,,,,,53,,,,,,,,,,,,,,605.1960000119216,,response,,,99,,,,,,Space,keypress(Space),,,,,---- -- ----- -- ------ - lasting --- ----------<br>------------- ------ ------ ---- ---- ------- ----- -- ----<br>-------- ------- -- ---------- --- - --- ----- ----- ----<br>---- --- --- ----- --- ---- ---- ------- ----- ---- -------<br>--- --- -- ----- -- --- ---- -- --- ---- -- ------ ------<br>--- ----- -- ----,46601,46600.30000001192,45978.437,45993.30000001192,45995.104,46611.671,,6,lasting
screen,html.Screen,0_2_0_1_7,2021-12-02T16:17:34.258Z,,,,,,,,,,,,,,,,53,,,,,,,,,,,,,,508.62900001191883,,response,,,99,,,,,,Space,keypress(Space),,,,,---- -- ----- -- ------ - ------- and ----------<br>------------- ------ ------ ---- ---- ------- ----- -- ----<br>-------- ------- -- ---------- --- - --- ----- ----- ----<br>---- --- --- ----- --- ---- ---- ------- ----- ---- -------<br>--- --- -- ----- -- --- ---- -- --- ---- -- ------ ------<br>--- ----- -- ----,47121,47120.30000001192,46595.006,46601.19999998808,46611.671,47128.321,,7,and
screen,html.Screen,0_2_0_1_8,2021-12-02T16:17:34.802Z,,,,,,,,,,,,,,,,53,,,,,,,,,,,,,,535.9790000119174,,response,,,99,,,,,,Space,keypress(Space),,,,,---- -- ----- -- ------ - ------- --- fulfilling<br>------------- ------ ------ ---- ---- ------- ----- -- ----<br>-------- ------- -- ---------- --- - --- ----- ----- ----<br>---- --- --- ----- --- ---- ---- ------- ----- ---- -------<br>--- --- -- ----- -- --- ---- -- --- ---- -- ------ ------<br>--- ----- -- ----,47665.09999996424,47664.30000001192,47111.656,47121.19999998808,47128.321,47678.353,,8,fulfilling
screen,html.Screen,0_2_0_1_9,2021-12-02T16:17:35.393Z,,,,,,,,,,,,,,,,53,,,,,,,,,,,,,,577.9470000119181,,response,,,99,,,,,,Space,keypress(Space),,,,,"---- -- ----- -- ------ - ------- --- ----------<br>relationship, ------ ------ ---- ---- ------- ----- -- ----<br>-------- ------- -- ---------- --- - --- ----- ----- ----<br>---- --- --- ----- --- ---- ---- ------- ----- ---- -------<br>--- --- -- ----- -- --- ---- -- --- ---- -- ------ ------<br>--- ----- -- ----",48256.89999997616,48256.30000001192,47661.687,47665.39999997616,47678.353,48261.612,,9,"relationship,"
screen,html.Screen,0_2_0_1_10,2021-12-02T16:17:35.889Z,,,,,,,,,,,,,,,,53,,,,,,,,,,,,,,490.5879999880781,,response,,,99,,,,,,Space,keypress(Space),,,,,---- -- ----- -- ------ - ------- --- ----------<br>------------- common ------ ---- ---- ------- ----- -- ----<br>-------- ------- -- ---------- --- - --- ----- ----- ----<br>---- --- --- ----- --- ---- ---- ------- ----- ---- -------<br>--- --- -- ----- -- --- ---- -- --- ---- -- ------ ------<br>--- ----- -- ----,48752.89999997616,48752.19999998808,48244.947,48257.09999996424,48261.612,48761.597,,10,common
screen,html.Screen,0_2_0_1_11,2021-12-02T16:17:37.530Z,,,,,,,,,,,,,,,,53,,,,,,,,,,,,,,1630.8029999761566,,response,,,99,,,,,,Space,keypress(Space),,,,,---- -- ----- -- ------ - ------- --- ----------<br>------------- ------ wisdom ---- ---- ------- ----- -- ----<br>-------- ------- -- ---------- --- - --- ----- ----- ----<br>---- --- --- ----- --- ---- ---- ------- ----- ---- -------<br>--- --- -- ----- -- --- ---- -- --- ---- -- ------ ------<br>--- ----- -- ----,50393.19999998808,50392.39999997616,48744.932,48753,48761.597,50394.794,,11,wisdom
screen,html.Screen,0_2_0_1_12,2021-12-02T16:17:38.185Z,,,,,,,,,,,,,,,,53,,,,,,,,,,,,,,653.4059999880774,,response,,,99,,,,,,Space,keypress(Space),,,,,---- -- ----- -- ------ - ------- --- ----------<br>------------- ------ ------ says ---- ------- ----- -- ----<br>-------- ------- -- ---------- --- - --- ----- ----- ----<br>---- --- --- ----- --- ---- ---- ------- ----- ---- -------<br>--- --- -- ----- -- --- ---- -- --- ---- -- ------ ------<br>--- ----- -- ----,51048.80000001192,51048.19999998808,50378.129,50393.39999997616,50394.794,51061.441,,12,says
screen,html.Screen,0_2_0_1_13,2021-12-02T16:17:38.681Z,,,,,,,,,,,,,,,,53,,,,,,,,,,,,,,482.7589999880802,,response,,,99,,,,,,Space,keypress(Space),,,,,---- -- ----- -- ------ - ------- --- ----------<br>------------- ------ ------ ---- that ------- ----- -- ----<br>-------- ------- -- ---------- --- - --- ----- ----- ----<br>---- --- --- ----- --- ---- ---- ------- ----- ---- -------<br>--- --- -- ----- -- --- ---- -- --- ---- -- ------ ------<br>--- ----- -- ----,51544.80000001192,51544.19999998808,51044.776,51049,51061.441,51561.476,,13,that
screen,html.Screen,0_2_0_1_14,2021-12-02T16:17:39.137Z,,,,,,,,,,,,,,,,53,,,,,,,,,,,,,,438.6239999642348,,response,,,99,,,,,,Space,keypress(Space),,,,,---- -- ----- -- ------ - ------- --- ----------<br>------------- ------ ------ ---- ---- feeling ----- -- ----<br>-------- ------- -- ---------- --- - --- ----- ----- ----<br>---- --- --- ----- --- ---- ---- ------- ----- ---- -------<br>--- --- -- ----- -- --- ---- -- --- ---- -- ------ ------<br>--- ----- -- ----,52000.59999996424,52000.09999996424,51544.811,51545,51561.476,52028.088,,14,feeling
screen,html.Screen,0_2_0_1_15,2021-12-02T16:17:39.681Z,,,,,,,,,,,,,,,,53,,,,,,,,,,,,,,516.0119999642338,,response,,,99,,,,,,Space,keypress(Space),,,,,---- -- ----- -- ------ - ------- --- ----------<br>------------- ------ ------ ---- ---- ------- close -- ----<br>-------- ------- -- ---------- --- - --- ----- ----- ----<br>---- --- --- ----- --- ---- ---- ------- ----- ---- -------<br>--- --- -- ----- -- --- ---- -- --- ---- -- ------ ------<br>--- ----- -- ----,52544.59999996424,52544.09999996424,52011.423,52000.80000001192,52028.088,52561.544,,15,close
screen,html.Screen,0_2_0_1_16,2021-12-02T16:17:40.193Z,,,,,,,,,,,,,,,,53,,,,,,,,,,,,,,494.4559999999983,,response,,,99,,,,,,Space,keypress(Space),,,,,---- -- ----- -- ------ - ------- --- ----------<br>------------- ------ ------ ---- ---- ------- ----- to ----<br>-------- ------- -- ---------- --- - --- ----- ----- ----<br>---- --- --- ----- --- ---- ---- ------- ----- ---- -------<br>--- --- -- ----- -- --- ---- -- --- ---- -- ------ ------<br>--- ----- -- ----,53056.59999996424,53056,52544.877,52544.80000001192,52561.544,53061.507,,16,to
screen,html.Screen,0_2_0_1_17,2021-12-02T16:17:40.697Z,,,,,,,,,,,,,,,,53,,,,,,,,,,,,,,498.5929999642394,,response,,,99,,,,,,Space,keypress(Space),,,,,---- -- ----- -- ------ - ------- --- ----------<br>------------- ------ ------ ---- ---- ------- ----- -- your<br>-------- ------- -- ---------- --- - --- ----- ----- ----<br>---- --- --- ----- --- ---- ---- ------- ----- ---- -------<br>--- --- -- ----- -- --- ---- -- --- ---- -- ------ ------<br>--- ----- -- ----,53560.69999998808,53560.09999996424,53044.841,53056.80000001192,53061.507,53578.075,,17,your
screen,html.Screen,0_2_0_1_18,2021-12-02T16:17:41.217Z,,,,,,,,,,,,,,,,53,,,,,,,,,,,,,,502.0249999642401,,response,,,99,,,,,,Space,keypress(Space),,,,,---- -- ----- -- ------ - ------- --- ----------<br>------------- ------ ------ ---- ---- ------- ----- -- ----<br>romantic ------- -- ---------- --- - --- ----- ----- ----<br>---- --- --- ----- --- ---- ---- ------- ----- ---- -------<br>--- --- -- ----- -- --- ---- -- --- ---- -- ------ ------<br>--- ----- -- ----,54080.59999996424,54080.09999996424,53561.41,53560.89999997616,53578.075,54094.776,,18,romantic
screen,html.Screen,0_2_0_1_19,2021-12-02T16:17:41.665Z,,,,,,,,,,,,,,,,53,,,,,,,,,,,,,,433.224000000002,,response,,,99,,,,,,Space,keypress(Space),,,,,---- -- ----- -- ------ - ------- --- ----------<br>------------- ------ ------ ---- ---- ------- ----- -- ----<br>-------- partner -- ---------- --- - --- ----- ----- ----<br>---- --- --- ----- --- ---- ---- ------- ----- ---- -------<br>--- --- -- ----- -- --- ---- -- --- ---- -- ------ ------<br>--- ----- -- ----,54528.5,54528,54078.11,54080.80000001192,54094.776,54544.569,,19,partner
screen,html.Screen,0_2_0_1_20,2021-12-02T16:17:42.513Z,,,,,,,,,,,,,,,,53,,,,,,,,,,,,,,831.4309999999969,,response,,,99,,,,,,Space,keypress(Space),,,,,---- -- ----- -- ------ - ------- --- ----------<br>------------- ------ ------ ---- ---- ------- ----- -- ----<br>-------- ------- is ---------- --- - --- ----- ----- ----<br>---- --- --- ----- --- ---- ---- ------- ----- ---- -------<br>--- --- -- ----- -- --- ---- -- --- ---- -- ------ ------<br>--- ----- -- ----,55376.59999996424,55376,54527.906,54528.69999998808,54544.569,55378.118,,20,is
screen,html.Screen,0_2_0_1_21,2021-12-02T16:17:43.505Z,,,,,,,,,,,,,,,,53,,,,,,,,,,,,,,989.8819999999978,,response,,,99,,,,,,Space,keypress(Space),,,,,---- -- ----- -- ------ - ------- --- ----------<br>------------- ------ ------ ---- ---- ------- ----- -- ----<br>-------- ------- -- paramount. --- - --- ----- ----- ----<br>---- --- --- ----- --- ---- ---- ------- ----- ---- -------<br>--- --- -- ----- -- --- ---- -- --- ---- -- ------ ------<br>--- ----- -- ----,56368.59999996424,56368,55361.451,55376.80000001192,55378.118,56377.802,,21,paramount.
screen,html.Screen,0_2_0_1_22,2021-12-02T16:17:44.065Z,,,,,,,,,,,,,,,,53,,,,,,,,,,,,,,550.0979999761548,,response,,,99,,,,,,Space,keypress(Space),,,,,---- -- ----- -- ------ - ------- --- ----------<br>------------- ------ ------ ---- ---- ------- ----- -- ----<br>-------- ------- -- ---------- But - --- ----- ----- ----<br>---- --- --- ----- --- ---- ---- ------- ----- ---- -------<br>--- --- -- ----- -- --- ---- -- --- ---- -- ------ ------<br>--- ----- -- ----,56928.59999996424,56927.89999997616,56361.138,56368.89999997616,56377.802,56944.736,,22,But
screen,html.Screen,0_2_0_1_23,2021-12-02T16:17:44.585Z,,,,,,,,,,,,,,,,53,,,,,,,,,,,,,,503.163999976161,,response,,,99,,,,,,Space,keypress(Space),,,,,---- -- ----- -- ------ - ------- --- ----------<br>------------- ------ ------ ---- ---- ------- ----- -- ----<br>-------- ------- -- ---------- --- a --- ----- ----- ----<br>---- --- --- ----- --- ---- ---- ------- ----- ---- -------<br>--- --- -- ----- -- --- ---- -- --- ---- -- ------ ------<br>--- ----- -- ----,57448.5,57447.89999997616,56928.069,56928.80000001192,56944.736,57461.275,,23,a
screen,html.Screen,0_2_0_1_24,2021-12-02T16:17:44.993Z,,,,,,,,,,,,,,,,53,,,,,,,,,,,,,,394.6249999761567,,response,,,99,,,,,,Space,keypress(Space),,,,,---- -- ----- -- ------ - ------- --- ----------<br>------------- ------ ------ ---- ---- ------- ----- -- ----<br>-------- ------- -- ---------- --- - new ----- ----- ----<br>---- --- --- ----- --- ---- ---- ------- ----- ---- -------<br>--- --- -- ----- -- --- ---- -- --- ---- -- ------ ------<br>--- ----- -- ----,57856.5,57855.89999997616,57444.61,57448.69999998808,57461.275,57861.184,,24,new
screen,html.Screen,0_2_0_1_25,2021-12-02T16:17:45.521Z,,,,,,,,,,,,,,,,53,,,,,,,,,,,,,,522.6160000119198,,response,,,99,,,,,,Space,keypress(Space),,,,,---- -- ----- -- ------ - ------- --- ----------<br>------------- ------ ------ ---- ---- ------- ----- -- ----<br>-------- ------- -- ---------- --- - --- study ----- ----<br>---- --- --- ----- --- ---- ---- ------- ----- ---- -------<br>--- --- -- ----- -- --- ---- -- --- ---- -- ------ ------<br>--- ----- -- ----,58384.39999997616,58383.80000001192,57844.52,57856.69999998808,57861.184,58394.672,,25,study
screen,html.Screen,0_2_0_1_26,2021-12-02T16:17:45.969Z,,,,,,,,,,,,,,,,53,,,,,,,,,,,,,,437.2279999761595,,response,,,99,,,,,,Space,keypress(Space),,,,,---- -- ----- -- ------ - ------- --- ----------<br>------------- ------ ------ ---- ---- ------- ----- -- ----<br>-------- ------- -- ---------- --- - --- ----- finds ----<br>---- --- --- ----- --- ---- ---- ------- ----- ---- -------<br>--- --- -- ----- -- --- ---- -- --- ---- -- ------ ------<br>--- ----- -- ----,58832.39999997616,58831.89999997616,58378.005,58384.59999996424,58394.672,58844.567,,26,finds
screen,html.Screen,0_2_0_1_27,2021-12-02T16:17:46.401Z,,,,,,,,,,,,,,,,53,,,,,,,,,,,,,,419.43299999999726,,response,,,99,,,,,,Space,keypress(Space),,,,,---- -- ----- -- ------ - ------- --- ----------<br>------------- ------ ------ ---- ---- ------- ----- -- ----<br>-------- ------- -- ---------- --- - --- ----- ----- that<br>---- --- --- ----- --- ---- ---- ------- ----- ---- -------<br>--- --- -- ----- -- --- ---- -- --- ---- -- ------ ------<br>--- ----- -- ----,59264.5,59264,58827.902,58832.69999998808,58844.567,59277.869,,27,that
screen,html.Screen,0_2_0_1_28,2021-12-02T16:17:46.953Z,,,,,,,,,,,,,,,,53,,,,,,,,,,,,,,537.9310000119222,,response,,,99,,,,,,Space,keypress(Space),,,,,---- -- ----- -- ------ - ------- --- ----------<br>------------- ------ ------ ---- ---- ------- ----- -- ----<br>-------- ------- -- ---------- --- - --- ----- ----- ----<br>it's --- --- ----- --- ---- ---- ------- ----- ---- -------<br>--- --- -- ----- -- --- ---- -- --- ---- -- ------ ------<br>--- ----- -- ----,59816.5,59815.80000001192,59261.204,59264.69999998808,59277.869,59827.851,,28,it's
screen,html.Screen,0_2_0_1_29,2021-12-02T16:17:47.363Z,,,,,,,,,,,,,,,,53,,,,,,,,,,,,,,395.94900001191854,,response,,,99,,,,,,Space,keypress(Space),,,,,---- -- ----- -- ------ - ------- --- ----------<br>------------- ------ ------ ---- ---- ------- ----- -- ----<br>-------- ------- -- ---------- --- - --- ----- ----- ----<br>---- not --- ----- --- ---- ---- ------- ----- ---- -------<br>--- --- -- ----- -- --- ---- -- --- ---- -- ------ ------<br>--- ----- -- ----,60224.39999997616,60223.80000001192,59811.186,59816.59999996424,59827.851,60227.881,,29,not
screen,html.Screen,0_2_0_1_30,2021-12-02T16:17:47.755Z,,,,,,,,,,,,,,,,53,,,,,,,,,,,,,,388.1189999999988,,response,,,99,,,,,,Space,keypress(Space),,,,,---- -- ----- -- ------ - ------- --- ----------<br>------------- ------ ------ ---- ---- ------- ----- -- ----<br>-------- ------- -- ---------- --- - --- ----- ----- ----<br>---- --- how ----- --- ---- ---- ------- ----- ---- -------<br>--- --- -- ----- -- --- ---- -- --- ---- -- ------ ------<br>--- ----- -- ----,60616.5,60616,60211.215,60224.59999996424,60227.881,60627.818,,30,how
screen,html.Screen,0_2_0_1_31,2021-12-02T16:17:48.163Z,,,,,,,,,,,,,,,,53,,,,,,,,,,,,,,395.88199998807977,,response,,,99,,,,,,Space,keypress(Space),,,,,---- -- ----- -- ------ - ------- --- ----------<br>------------- ------ ------ ---- ---- ------- ----- -- ----<br>-------- ------- -- ---------- --- - --- ----- ----- ----<br>---- --- --- close --- ---- ---- ------- ----- ---- -------<br>--- --- -- ----- -- --- ---- -- --- ---- -- ------ ------<br>--- ----- -- ----,61024.30000001192,61023.69999998808,60611.153,60616.80000001192,60627.818,61027.805,,31,close
screen,html.Screen,0_2_0_1_32,2021-12-02T16:17:48.523Z,,,,,,,,,,,,,,,,53,,,,,,,,,,,,,,355.99500001192064,,response,,,99,,,,,,Space,keypress(Space),,,,,---- -- ----- -- ------ - ------- --- ----------<br>------------- ------ ------ ---- ---- ------- ----- -- ----<br>-------- ------- -- ---------- --- - --- ----- ----- ----<br>---- --- --- ----- you ---- ---- ------- ----- ---- -------<br>--- --- -- ----- -- --- ---- -- --- ---- -- ------ ------<br>--- ----- -- ----,61384.39999997616,61383.80000001192,61011.14,61024.59999996424,61027.805,61394.442,,32,you
screen,html.Screen,0_2_0_1_33,2021-12-02T16:17:48.907Z,,,,,,,,,,,,,,,,53,,,,,,,,,,,,,,373.3580000119182,,response,,,99,,,,,,Space,keypress(Space),,,,,---- -- ----- -- ------ - ------- --- ----------<br>------------- ------ ------ ---- ---- ------- ----- -- ----<br>-------- ------- -- ---------- --- - --- ----- ----- ----<br>---- --- --- ----- --- feel ---- ------- ----- ---- -------<br>--- --- -- ----- -- --- ---- -- --- ---- -- ------ ------<br>--- ----- -- ----,61768.30000001192,61767.80000001192,61377.777,61384.59999996424,61394.442,61777.805,,33,feel
screen,html.Screen,0_2_0_1_34,2021-12-02T16:17:49.331Z,,,,,,,,,,,,,,,,53,,,,,,,,,,,,,,413.8949999880788,,response,,,99,,,,,,Space,keypress(Space),,,,,---- -- ----- -- ------ - ------- --- ----------<br>------------- ------ ------ ---- ---- ------- ----- -- ----<br>-------- ------- -- ---------- --- - --- ----- ----- ----<br>---- --- --- ----- --- ---- that ------- ----- ---- -------<br>--- --- -- ----- -- --- ---- -- --- ---- -- ------ ------<br>--- ----- -- ----,62192.39999997616,62191.69999998808,61761.139,61768.5,61777.805,62194.476,,34,that
screen,html.Screen,0_2_0_1_35,2021-12-02T16:17:49.787Z,,,,,,,,,,,,,,,,53,,,,,,,,,,,,,,453.2239999880767,,response,,,99,,,,,,Space,keypress(Space),,,,,---- -- ----- -- ------ - ------- --- ----------<br>------------- ------ ------ ---- ---- ------- ----- -- ----<br>-------- ------- -- ---------- --- - --- ----- ----- ----<br>---- --- --- ----- --- ---- ---- matters ----- ---- -------<br>--- --- -- ----- -- --- ---- -- --- ---- -- ------ ------<br>--- ----- -- ----,62648.39999997616,62647.69999998808,62177.81,62192.59999996424,62194.476,62661.055,,35,matters
screen,html.Screen,0_2_0_1_36,2021-12-02T16:17:50.387Z,,,,,,,,,,,,,,,,53,,,,,,,,,,,,,,586.6449999880788,,response,,,99,,,,,,Space,keypress(Space),,,,,"---- -- ----- -- ------ - ------- --- ----------<br>------------- ------ ------ ---- ---- ------- ----- -- ----<br>-------- ------- -- ---------- --- - --- ----- ----- ----<br>---- --- --- ----- --- ---- ---- ------- most, ---- -------<br>--- --- -- ----- -- --- ---- -- --- ---- -- ------ ------<br>--- ----- -- ----",63248.19999998808,63247.69999998808,62644.39,62648.5,62661.055,63261.105,,36,"most,"
screen,html.Screen,0_2_0_1_37,2021-12-02T16:17:50.851Z,,,,,,,,,,,,,,,,53,,,,,,,,,,,,,,450.59499998807587,,response,,,99,,,,,,Space,keypress(Space),,,,,---- -- ----- -- ------ - ------- --- ----------<br>------------- ------ ------ ---- ---- ------- ----- -- ----<br>-------- ------- -- ---------- --- - --- ----- ----- ----<br>---- --- --- ----- --- ---- ---- ------- ----- it's -------<br>--- --- -- ----- -- --- ---- -- --- ---- -- ------ ------<br>--- ----- -- ----,63712.39999997616,63711.69999998808,63244.439,63248.5,63261.105,63727.752,,37,it's
screen,html.Screen,0_2_0_1_38,2021-12-02T16:17:51.195Z,,,,,,,,,,,,,,,,53,,,,,,,,,,,,,,327.8479999642368,,response,,,99,,,,,,Space,keypress(Space),,,,,---- -- ----- -- ------ - ------- --- ----------<br>------------- ------ ------ ---- ---- ------- ----- -- ----<br>-------- ------- -- ---------- --- - --- ----- ----- ----<br>---- --- --- ----- --- ---- ---- ------- ----- ---- whether<br>--- --- -- ----- -- --- ---- -- --- ---- -- ------ ------<br>--- ----- -- ----,64056.19999998808,64055.59999996424,63711.086,63712.59999996424,63727.752,64061.054,,38,whether
screen,html.Screen,0_2_0_1_39,2021-12-02T16:17:51.563Z,,,,,,,,,,,,,,,,53,,,,,,,,,,,,,,362.54599996424076,,response,,,99,,,,,,Space,keypress(Space),,,,,---- -- ----- -- ------ - ------- --- ----------<br>------------- ------ ------ ---- ---- ------- ----- -- ----<br>-------- ------- -- ---------- --- - --- ----- ----- ----<br>---- --- --- ----- --- ---- ---- ------- ----- ---- -------<br>you --- -- ----- -- --- ---- -- --- ---- -- ------ ------<br>--- ----- -- ----,64424.19999998808,64423.59999996424,64044.389,64056.39999997616,64061.054,64427.707,,39,you
screen,html.Screen,0_2_0_1_40,2021-12-02T16:17:51.971Z,,,,,,,,,,,,,,,,53,,,,,,,,,,,,,,403.89299996423506,,response,,,99,,,,,,Space,keypress(Space),,,,,---- -- ----- -- ------ - ------- --- ----------<br>------------- ------ ------ ---- ---- ------- ----- -- ----<br>-------- ------- -- ---------- --- - --- ----- ----- ----<br>---- --- --- ----- --- ---- ---- ------- ----- ---- -------<br>--- are -- ----- -- --- ---- -- --- ---- -- ------ ------<br>--- ----- -- ----,64832.30000001192,64831.59999996424,64411.042,64424.30000001192,64427.707,64844.35,,40,are
screen,html.Screen,0_2_0_1_41,2021-12-02T16:17:52.355Z,,,,,,,,,,,,,,,,53,,,,,,,,,,,,,,371.24999996423867,,response,,,99,,,,,,Space,keypress(Space),,,,,---- -- ----- -- ------ - ------- --- ----------<br>------------- ------ ------ ---- ---- ------- ----- -- ----<br>-------- ------- -- ---------- --- - --- ----- ----- ----<br>---- --- --- ----- --- ---- ---- ------- ----- ---- -------<br>--- --- as ----- -- --- ---- -- --- ---- -- ------ ------<br>--- ----- -- ----,65216.09999996424,65215.59999996424,64827.685,64832.39999997616,64844.35,65227.703,,41,as
screen,html.Screen,0_2_0_1_42,2021-12-02T16:17:52.779Z,,,,,,,,,,,,,,,,53,,,,,,,,,,,,,,411.8969999642359,,response,,,99,,,,,,Space,keypress(Space),,,,,---- -- ----- -- ------ - ------- --- ----------<br>------------- ------ ------ ---- ---- ------- ----- -- ----<br>-------- ------- -- ---------- --- - --- ----- ----- ----<br>---- --- --- ----- --- ---- ---- ------- ----- ---- -------<br>--- --- -- close -- --- ---- -- --- ---- -- ------ ------<br>--- ----- -- ----,65640.19999998808,65639.59999996424,65211.037,65216.30000001192,65227.703,65644.304,,42,close
screen,html.Screen,0_2_0_1_43,2021-12-02T16:17:53.131Z,,,,,,,,,,,,,,,,53,,,,,,,,,,,,,,347.2959999642335,,response,,,99,,,,,,Space,keypress(Space),,,,,---- -- ----- -- ------ - ------- --- ----------<br>------------- ------ ------ ---- ---- ------- ----- -- ----<br>-------- ------- -- ---------- --- - --- ----- ----- ----<br>---- --- --- ----- --- ---- ---- ------- ----- ---- -------<br>--- --- -- ----- as --- ---- -- --- ---- -- ------ ------<br>--- ----- -- ----,65992.19999998808,65991.59999996424,65627.639,65640.30000001192,65644.304,65994.351,,43,as
screen,html.Screen,0_2_0_1_44,2021-12-02T16:17:53.571Z,,,,,,,,,,,,,,,,53,,,,,,,,,,,,,,437.1490000000049,,response,,,99,,,,,,Space,keypress(Space),,,,,---- -- ----- -- ------ - ------- --- ----------<br>------------- ------ ------ ---- ---- ------- ----- -- ----<br>-------- ------- -- ---------- --- - --- ----- ----- ----<br>---- --- --- ----- --- ---- ---- ------- ----- ---- -------<br>--- --- -- ----- -- you ---- -- --- ---- -- ------ ------<br>--- ----- -- ----,66432.19999998808,66431.5,65977.685,65992.30000001192,65994.351,66444.276,,44,you
screen,html.Screen,0_2_0_1_45,2021-12-02T16:17:53.907Z,,,,,,,,,,,,,,,,53,,,,,,,,,,,,,,323.3239999642392,,response,,,99,,,,,,Space,keypress(Space),,,,,---- -- ----- -- ------ - ------- --- ----------<br>------------- ------ ------ ---- ---- ------- ----- -- ----<br>-------- ------- -- ---------- --- - --- ----- ----- ----<br>---- --- --- ----- --- ---- ---- ------- ----- ---- -------<br>--- --- -- ----- -- --- want -- --- ---- -- ------ ------<br>--- ----- -- ----,66768.09999996424,66767.59999996424,66427.611,66432.30000001192,66444.276,66794.272,,45,want
screen,html.Screen,0_2_0_1_46,2021-12-02T16:17:54.259Z,,,,,,,,,,,,,,,,53,,,,,,,,,,,,,,325.2280000000028,,response,,,99,,,,,,Space,keypress(Space),,,,,---- -- ----- -- ------ - ------- --- ----------<br>------------- ------ ------ ---- ---- ------- ----- -- ----<br>-------- ------- -- ---------- --- - --- ----- ----- ----<br>---- --- --- ----- --- ---- ---- ------- ----- ---- -------<br>--- --- -- ----- -- --- ---- to --- ---- -- ------ ------<br>--- ----- -- ----,67120.09999996424,67119.5,66777.607,66768.30000001192,66794.272,67127.593,,46,to
screen,html.Screen,0_2_0_1_47,2021-12-02T16:17:54.627Z,,,,,,,,,,,,,,,,53,,,,,,,,,,,,,,359.9070000000065,,response,,,99,,,,,,Space,keypress(Space),,,,,"---- -- ----- -- ------ - ------- --- ----------<br>------------- ------ ------ ---- ---- ------- ----- -- ----<br>-------- ------- -- ---------- --- - --- ----- ----- ----<br>---- --- --- ----- --- ---- ---- ------- ----- ---- -------<br>--- --- -- ----- -- --- ---- -- be, ---- -- ------ ------<br>--- ----- -- ----",67488.09999996424,67487.5,67110.928,67120.19999998808,67127.593,67494.241,,47,"be,"
screen,html.Screen,0_2_0_1_48,2021-12-02T16:17:55.131Z,,,,,,,,,,,,,,,,53,,,,,,,,,,,,,,497.3589999642427,,response,,,99,,,,,,Space,keypress(Space),,,,,---- -- ----- -- ------ - ------- --- ----------<br>------------- ------ ------ ---- ---- ------- ----- -- ----<br>-------- ------- -- ---------- --- - --- ----- ----- ----<br>---- --- --- ----- --- ---- ---- ------- ----- ---- -------<br>--- --- -- ----- -- --- ---- -- --- even -- ------ ------<br>--- ----- -- ----,67992.19999998808,67991.59999996424,67477.576,67488.30000001192,67494.241,67994.262,,48,even
screen,html.Screen,0_2_0_1_49,2021-12-02T16:17:55.539Z,,,,,,,,,,,,,,,,53,,,,,,,,,,,,,,405.1379999761557,,response,,,99,,,,,,Space,keypress(Space),,,,,---- -- ----- -- ------ - ------- --- ----------<br>------------- ------ ------ ---- ---- ------- ----- -- ----<br>-------- ------- -- ---------- --- - --- ----- ----- ----<br>---- --- --- ----- --- ---- ---- ------- ----- ---- -------<br>--- --- -- ----- -- --- ---- -- --- ---- if ------ ------<br>--- ----- -- ----,68400,68399.39999997616,67977.596,67992.39999997616,67994.262,68410.906,,49,if
screen,html.Screen,0_2_0_1_50,2021-12-02T16:17:55.899Z,,,,,,,,,,,,,,,,53,,,,,,,,,,,,,,348.5939999999973,,response,,,99,,,,,,Space,keypress(Space),,,,,---- -- ----- -- ------ - ------- --- ----------<br>------------- ------ ------ ---- ---- ------- ----- -- ----<br>-------- ------- -- ---------- --- - --- ----- ----- ----<br>---- --- --- ----- --- ---- ---- ------- ----- ---- -------<br>--- --- -- ----- -- --- ---- -- --- ---- -- that's ------<br>--- ----- -- ----,68760.09999996424,68759.5,68394.24,68400.19999998808,68410.906,68760.885,,50,that's
screen,html.Screen,0_2_0_1_51,2021-12-02T16:17:56.291Z,,,,,,,,,,,,,,,,53,,,,,,,,,,,,,,390.5149999761634,,response,,,99,,,,,,Space,keypress(Space),,,,,---- -- ----- -- ------ - ------- --- ----------<br>------------- ------ ------ ---- ---- ------- ----- -- ----<br>-------- ------- -- ---------- --- - --- ----- ----- ----<br>---- --- --- ----- --- ---- ---- ------- ----- ---- -------<br>--- --- -- ----- -- --- ---- -- --- ---- -- ------ really<br>--- ----- -- ----,69152.09999996424,69151.39999997616,68744.22,68760.19999998808,68760.885,69160.893,,51,really
screen,html.Screen,0_2_0_1_52,2021-12-02T16:17:56.659Z,,,,,,,,,,,,,,,,53,,,,,,,,,,,,,,358.6070000000036,,response,,,99,,,,,,Space,keypress(Space),,,,,---- -- ----- -- ------ - ------- --- ----------<br>------------- ------ ------ ---- ---- ------- ----- -- ----<br>-------- ------- -- ---------- --- - --- ----- ----- ----<br>---- --- --- ----- --- ---- ---- ------- ----- ---- -------<br>--- --- -- ----- -- --- ---- -- --- ---- -- ------ ------<br>not ----- -- ----,69519.89999997616,69519.5,69144.227,69152.19999998808,69160.893,69527.516,,52,not
screen,html.Screen,0_2_0_1_53,2021-12-02T16:17:56.987Z,,,,,,,,,,,,,,,,53,,,,,,,,,,,,,,319.98399999999674,,response,,,99,,,,,,Space,keypress(Space),,,,,---- -- ----- -- ------ - ------- --- ----------<br>------------- ------ ------ ---- ---- ------- ----- -- ----<br>-------- ------- -- ---------- --- - --- ----- ----- ----<br>---- --- --- ----- --- ---- ---- ------- ----- ---- -------<br>--- --- -- ----- -- --- ---- -- --- ---- -- ------ ------<br>--- close -- ----,69848,69847.5,69510.851,69520.09999996424,69527.516,69860.847,,53,close
screen,html.Screen,0_2_0_1_54,2021-12-02T16:17:57.371Z,,,,,,,,,,,,,,,,53,,,,,,,,,,,,,,370.55299997616385,,response,,,99,,,,,,Space,keypress(Space),,,,,---- -- ----- -- ------ - ------- --- ----------<br>------------- ------ ------ ---- ---- ------- ----- -- ----<br>-------- ------- -- ---------- --- - --- ----- ----- ----<br>---- --- --- ----- --- ---- ---- ------- ----- ---- -------<br>--- --- -- ----- -- --- ---- -- --- ---- -- ------ ------<br>--- ----- at ----,70232,70231.39999997616,69844.182,69848.19999998808,69860.847,70244.149,,54,at
screen,html.Screen,0_2_0_1_55,2021-12-02T16:17:57.739Z,,,,,,,,,,,,,,,,53,,,,,,,,,,,,,,355.25099997615325,,response,,,99,,,,,,Space,keypress(Space),,,,,---- -- ----- -- ------ - ------- --- ----------<br>------------- ------ ------ ---- ---- ------- ----- -- ----<br>-------- ------- -- ---------- --- - --- ----- ----- ----<br>---- --- --- ----- --- ---- ---- ------- ----- ---- -------<br>--- --- -- ----- -- --- ---- -- --- ---- -- ------ ------<br>--- ----- -- all.,70600,70599.39999997616,70227.484,70232.19999998808,70244.149,70610.837,,55,all.
Item 99,flow.Loop,0_2_0_1,2021-12-02T16:17:57.742Z,,,,,,,,,,,,,,,,,,,,,,,,,,,,,,28437.493999976155,,completion,,,,D,,,,,,,,,,silence,,70602.80000001192,70599.39999997616,42145.24,42148.69999998808,42161.906,70610.837,,,
Question 1,html.Screen,0_2_0_2,2021-12-02T16:18:03.993Z,,,,,,,,,,,,,,,,,,,,,,,,,,,true,FALSE,,6242.062999976159,,response,,,99,D,,,,,FALSE,click #choice-2,,,,silence,,76853.89999997616,76852.89999997616,70594.171,70603,70610.837,76860.572,,,
Question 2,html.Screen,0_2_0_3,2021-12-02T16:18:07.828Z,,,,,,,,,,,,,,,,,,,,,,,,,,,true,TRUE,,3828.127999988079,,response,,,99,D,,,,,TRUE,click #choice-1,,,,silence,,80689.59999996424,80688.69999998808,76843.907,76854.09999996424,76860.572,80693.778,,,
Item 99,flow.Sequence,0_2_0,2021-12-02T16:18:07.829Z,,,,,,,,,,,,,,,,,,,,,,,,,,,,,,48530.69199998808,,completion,,,,,,,,,,,,,,,,80690,80688.69999998808,32141.376,32154.899999976158,32158.008,80693.778,,,
Holding screen,html.Screen,0_2_1_0,2021-12-02T16:18:17.816Z,,,,,,,,,,,,,,,,,,,,,,,,,,,,,,9999.653999999995,,timeout,,,,,,,,,,,,,,,,90677.39999997616,90676.766,80677.112,80690.19999998808,80693.778,90693.432,,,
screen,html.Screen,0_2_1_1_0,2021-12-02T16:18:18.506Z,,,,,,,,,,,,,,,,54,,,,,,,,,,,,,,673.4679999761574,,response,,,100,,,,,,Space,keypress(Space),,,,,At --- ---- --- ------ ----- ------- ---- -- --- ------- --<br>------- ---------- ------ -- ----- -- ----- -- ---- ------<br>--- ----- --- --- ------ -------- ----- --- ------ ----- --<br>----- ----- ---------- --- --- ------ ------ ---- -- ------<br>------- --- ------ ----- --- ---- ------- -- ---- --- --<br>------- ------,91367.59999996424,91366.89999997616,90676.766,90677.69999998808,90693.432,91376.662,,0,At
screen,html.Screen,0_2_1_1_1,2021-12-02T16:18:18.858Z,,,,,,,,,,,,,,,,54,,,,,,,,,,,,,,342.03799998808245,,response,,,100,,,,,,Space,keypress(Space),,,,,-- the ---- --- ------ ----- ------- ---- -- --- ------- --<br>------- ---------- ------ -- ----- -- ----- -- ---- ------<br>--- ----- --- --- ------ -------- ----- --- ------ ----- --<br>----- ----- ---------- --- --- ------ ------ ---- -- ------<br>------- --- ------ ----- --- ---- ------- -- ---- --- --<br>------- ------,91719.09999996424,91718.69999998808,91359.997,91367.80000001192,91376.662,91726.713,,1,the
screen,html.Screen,0_2_1_1_2,2021-12-02T16:18:19.194Z,,,,,,,,,,,,,,,,54,,,,,,,,,,,,,,327.88699996423384,,response,,,100,,,,,,Space,keypress(Space),,,,,-- --- time --- ------ ----- ------- ---- -- --- ------- --<br>------- ---------- ------ -- ----- -- ----- -- ---- ------<br>--- ----- --- --- ------ -------- ----- --- ------ ----- --<br>----- ----- ---------- --- --- ------ ------ ---- -- ------<br>------- --- ------ ----- --- ---- ------- -- ---- --- --<br>------- ------,92055.30000001192,92054.59999996424,91710.047,91719.39999997616,91726.713,92059.989,,2,time
screen,html.Screen,0_2_1_1_3,2021-12-02T16:18:19.498Z,,,,,,,,,,,,,,,,54,,,,,,,,,,,,,,298.6109999642358,,response,,,100,,,,,,Space,keypress(Space),,,,,-- --- ---- the ------ ----- ------- ---- -- --- ------- --<br>------- ---------- ------ -- ----- -- ----- -- ---- ------<br>--- ----- --- --- ------ -------- ----- --- ------ ----- --<br>----- ----- ---------- --- --- ------ ------ ---- -- ------<br>------- --- ------ ----- --- ---- ------- -- ---- --- --<br>------- ------,92359.19999998808,92358.59999996424,92043.324,92055.39999997616,92059.989,92376.584,,3,the
screen,html.Screen,0_2_1_1_4,2021-12-02T16:18:19.842Z,,,,,,,,,,,,,,,,54,,,,,,,,,,,,,,326.01599996423465,,response,,,100,,,,,,Space,keypress(Space),,,,,-- --- ---- --- French ----- ------- ---- -- --- ------- --<br>------- ---------- ------ -- ----- -- ----- -- ---- ------<br>--- ----- --- --- ------ -------- ----- --- ------ ----- --<br>----- ----- ---------- --- --- ------ ------ ---- -- ------<br>------- --- ------ ----- --- ---- ------- -- ---- --- --<br>------- ------,92703.19999998808,92702.59999996424,92359.92,92359.30000001192,92376.584,92710.034,,4,French
screen,html.Screen,0_2_1_1_5,2021-12-02T16:18:20.226Z,,,,,,,,,,,,,,,,54,,,,,,,,,,,,,,376.56599996423756,,response,,,100,,,,,,Space,keypress(Space),,,,,-- --- ---- --- ------ crown ------- ---- -- --- ------- --<br>------- ---------- ------ -- ----- -- ----- -- ---- ------<br>--- ----- --- --- ------ -------- ----- --- ------ ----- --<br>----- ----- ---------- --- --- ------ ------ ---- -- ------<br>------- --- ------ ----- --- ---- ------- -- ---- --- --<br>------- ------,93087.09999996424,93086.59999996424,92693.367,92703.30000001192,92710.034,93093.24,,5,crown
screen,html.Screen,0_2_1_1_6,2021-12-02T16:18:20.682Z,,,,,,,,,,,,,,,,54,,,,,,,,,,,,,,449.45999998807383,,response,,,100,,,,,,Space,keypress(Space),,,,,-- --- ---- --- ------ ----- secured ---- -- --- ------- --<br>------- ---------- ------ -- ----- -- ----- -- ---- ------<br>--- ----- --- --- ------ -------- ----- --- ------ ----- --<br>----- ----- ---------- --- --- ------ ------ ---- -- ------<br>------- --- ------ ----- --- ---- ------- -- ---- --- --<br>------- ------,93543.19999998808,93542.69999998808,93076.576,93087.30000001192,93093.24,93560.029,,6,secured
screen,html.Screen,0_2_1_1_7,2021-12-02T16:18:21.106Z,,,,,,,,,,,,,,,,54,,,,,,,,,,,,,,406.5709999642422,,response,,,100,,,,,,Space,keypress(Space),,,,,-- --- ---- --- ------ ----- ------- much -- --- ------- --<br>------- ---------- ------ -- ----- -- ----- -- ---- ------<br>--- ----- --- --- ------ -------- ----- --- ------ ----- --<br>----- ----- ---------- --- --- ------ ------ ---- -- ------<br>------- --- ------ ----- --- ---- ------- -- ---- --- --<br>------- ------,93967.19999998808,93966.59999996424,93543.362,93543.39999997616,93560.029,93976.582,,7,much
screen,html.Screen,0_2_1_1_8,2021-12-02T16:18:21.490Z,,,,,,,,,,,,,,,,54,,,,,,,,,,,,,,373.9180000000051,,response,,,100,,,,,,Space,keypress(Space),,,,,-- --- ---- --- ------ ----- ------- ---- of --- ------- --<br>------- ---------- ------ -- ----- -- ----- -- ---- ------<br>--- ----- --- --- ------ -------- ----- --- ------ ----- --<br>----- ----- ---------- --- --- ------ ------ ---- -- ------<br>------- --- ------ ----- --- ---- ------- -- ---- --- --<br>------- ------,94351.09999996424,94350.5,93959.917,93967.39999997616,93976.582,94359.912,,8,of
screen,html.Screen,0_2_1_1_9,2021-12-02T16:18:21.842Z,,,,,,,,,,,,,,,,54,,,,,,,,,,,,,,342.5880000000034,,response,,,100,,,,,,Space,keypress(Space),,,,,-- --- ---- --- ------ ----- ------- ---- -- its ------- --<br>------- ---------- ------ -- ----- -- ----- -- ---- ------<br>--- ----- --- --- ------ -------- ----- --- ------ ----- --<br>----- ----- ---------- --- --- ------ ------ ---- -- ------<br>------- --- ------ ----- --- ---- ------- -- ---- --- --<br>------- ------,94703.09999996424,94702.5,94343.247,94351.30000001192,94359.912,94709.956,,9,its
screen,html.Screen,0_2_1_1_10,2021-12-02T16:18:22.242Z,,,,,,,,,,,,,,,,54,,,,,,,,,,,,,,392.5439999999944,,response,,,100,,,,,,Space,keypress(Space),,,,,-- --- ---- --- ------ ----- ------- ---- -- --- revenue --<br>------- ---------- ------ -- ----- -- ----- -- ---- ------<br>--- ----- --- --- ------ -------- ----- --- ------ ----- --<br>----- ----- ---------- --- --- ------ ------ ---- -- ------<br>------- --- ------ ----- --- ---- ------- -- ---- --- --<br>------- ------,95103,95102.5,94693.29,94703.19999998808,94709.956,95109.888,,10,revenue
screen,html.Screen,0_2_1_1_11,2021-12-02T16:18:22.722Z,,,,,,,,,,,,,,,,54,,,,,,,,,,,,,,472.6119999999937,,response,,,100,,,,,,Space,keypress(Space),,,,,-- --- ---- --- ------ ----- ------- ---- -- --- ------- by<br>------- ---------- ------ -- ----- -- ----- -- ---- ------<br>--- ----- --- --- ------ -------- ----- --- ------ ----- --<br>----- ----- ---------- --- --- ------ ------ ---- -- ------<br>------- --- ------ ----- --- ---- ------- -- ---- --- --<br>------- ------,95583,95582.5,95093.223,95103.30000001192,95109.888,95593.171,,11,by
screen,html.Screen,0_2_1_1_12,2021-12-02T16:18:23.122Z,,,,,,,,,,,,,,,,54,,,,,,,,,,,,,,389.3289999999979,,response,,,100,,,,,,Space,keypress(Space),,,,,-- --- ---- --- ------ ----- ------- ---- -- --- ------- --<br>issuing ---------- ------ -- ----- -- ----- -- ---- ------<br>--- ----- --- --- ------ -------- ----- --- ------ ----- --<br>----- ----- ---------- --- --- ------ ------ ---- -- ------<br>------- --- ------ ----- --- ---- ------- -- ---- --- --<br>------- ------,95983,95982.5,95576.506,95583.19999998808,95593.171,95993.235,,12,issuing
screen,html.Screen,0_2_1_1_13,2021-12-02T16:18:23.586Z,,,,,,,,,,,,,,,,54,,,,,,,,,,,,,,453.16499997615756,,response,,,100,,,,,,Space,keypress(Space),,,,,-- --- ---- --- ------ ----- ------- ---- -- --- ------- --<br>------- government ------ -- ----- -- ----- -- ---- ------<br>--- ----- --- --- ------ -------- ----- --- ------ ----- --<br>----- ----- ---------- --- --- ------ ------ ---- -- ------<br>------- --- ------ ----- --- ---- ------- -- ---- --- --<br>------- ------,96447,96446.39999997616,95976.569,95983.19999998808,95993.235,96459.802,,13,government
screen,html.Screen,0_2_1_1_14,2021-12-02T16:18:24.074Z,,,,,,,,,,,,,,,,54,,,,,,,,,,,,,,474.69800000000396,,response,,,100,,,,,,Space,keypress(Space),,,,,-- --- ---- --- ------ ----- ------- ---- -- --- ------- --<br>------- ---------- bonds. -- ----- -- ----- -- ---- ------<br>--- ----- --- --- ------ -------- ----- --- ------ ----- --<br>----- ----- ---------- --- --- ------ ------ ---- -- ------<br>------- --- ------ ----- --- ---- ------- -- ---- --- --<br>------- ------,96935,96934.5,96443.137,96447.30000001192,96459.802,96943.201,,14,bonds.
screen,html.Screen,0_2_1_1_15,2021-12-02T16:18:24.634Z,,,,,,,,,,,,,,,,54,,,,,,,,,,,,,,551.1989999761572,,response,,,100,,,,,,Space,keypress(Space),,,,,-- --- ---- --- ------ ----- ------- ---- -- --- ------- --<br>------- ---------- ------ In ----- -- ----- -- ---- ------<br>--- ----- --- --- ------ -------- ----- --- ------ ----- --<br>----- ----- ---------- --- --- ------ ------ ---- -- ------<br>------- --- ------ ----- --- ---- ------- -- ---- --- --<br>------- ------,97495,97494.39999997616,96926.535,96935.30000001192,96943.201,97509.703,,15,In
screen,html.Screen,0_2_1_1_16,2021-12-02T16:18:25.026Z,,,,,,,,,,,,,,,,54,,,,,,,,,,,,,,376.6969999761641,,response,,,100,,,,,,Space,keypress(Space),,,,,"-- --- ---- --- ------ ----- ------- ---- -- --- ------- --<br>------- ---------- ------ -- 1727, -- ----- -- ---- ------<br>--- ----- --- --- ------ -------- ----- --- ------ ----- --<br>----- ----- ---------- --- --- ------ ------ ---- -- ------<br>------- --- ------ ----- --- ---- ------- -- ---- --- --<br>------- ------",97887,97886.39999997616,97493.039,97495.19999998808,97509.703,97893.166,,16,"1727,"
screen,html.Screen,0_2_1_1_17,2021-12-02T16:18:26.410Z,,,,,,,,,,,,,,,,54,,,,,,,,,,,,,,1377.2339999761607,,response,,,100,,,,,,Space,keypress(Space),,,,,-- --- ---- --- ------ ----- ------- ---- -- --- ------- --<br>------- ---------- ------ -- ----- in ----- -- ---- ------<br>--- ----- --- --- ------ -------- ----- --- ------ ----- --<br>----- ----- ---------- --- --- ------ ------ ---- -- ------<br>------- --- ------ ----- --- ---- ------- -- ---- --- --<br>------- ------,99271,99270.39999997616,97876.5,97887.19999998808,97893.166,99276.315,,17,in
screen,html.Screen,0_2_1_1_18,2021-12-02T16:18:27.234Z,,,,,,,,,,,,,,,,54,,,,,,,,,,,,,,818.0849999761558,,response,,,100,,,,,,Space,keypress(Space),,,,,-- --- ---- --- ------ ----- ------- ---- -- --- ------- --<br>------- ---------- ------ -- ----- -- order -- ---- ------<br>--- ----- --- --- ------ -------- ----- --- ------ ----- --<br>----- ----- ---------- --- --- ------ ------ ---- -- ------<br>------- --- ------ ----- --- ---- ------- -- ---- --- --<br>------- ------,100095,100094.39999997616,99259.65,99271.09999996424,99276.315,100109.755,,18,order
screen,html.Screen,0_2_1_1_19,2021-12-02T16:18:27.658Z,,,,,,,,,,,,,,,,54,,,,,,,,,,,,,,408.5450000119163,,response,,,100,,,,,,Space,keypress(Space),,,,,-- --- ---- --- ------ ----- ------- ---- -- --- ------- --<br>------- ---------- ------ -- ----- -- ----- to ---- ------<br>--- ----- --- --- ------ -------- ----- --- ------ ----- --<br>----- ----- ---------- --- --- ------ ------ ---- -- ------<br>------- --- ------ ----- --- ---- ------- -- ---- --- --<br>------- ------,100518.80000001192,100518.30000001192,100093.089,100095.19999998808,100109.755,100526.343,,19,to
screen,html.Screen,0_2_1_1_20,2021-12-02T16:18:28.266Z,,,,,,,,,,,,,,,,54,,,,,,,,,,,,,,600.0569999761647,,response,,,100,,,,,,Space,keypress(Space),,,,,-- --- ---- --- ------ ----- ------- ---- -- --- ------- --<br>------- ---------- ------ -- ----- -- ----- -- save ------<br>--- ----- --- --- ------ -------- ----- --- ------ ----- --<br>----- ----- ---------- --- --- ------ ------ ---- -- ------<br>------- --- ------ ----- --- ---- ------- -- ---- --- --<br>------- ------,101126.89999997616,101126.39999997616,100509.678,100519,100526.343,101143.044,,20,save
screen,html.Screen,0_2_1_1_21,2021-12-02T16:18:28.674Z,,,,,,,,,,,,,,,,54,,,,,,,,,,,,,,391.4560000000056,,response,,,100,,,,,,Space,keypress(Space),,,,,"-- --- ---- --- ------ ----- ------- ---- -- --- ------- --<br>------- ---------- ------ -- ----- -- ----- -- ---- money,<br>--- ----- --- --- ------ -------- ----- --- ------ ----- --<br>----- ----- ---------- --- --- ------ ------ ---- -- ------<br>------- --- ------ ----- --- ---- ------- -- ---- --- --<br>------- ------",101535,101534.5,101126.378,101127.09999996424,101143.044,101542.99,,21,"money,"
screen,html.Screen,0_2_1_1_22,2021-12-02T16:18:29.026Z,,,,,,,,,,,,,,,,54,,,,,,,,,,,,,,343.3100000119157,,response,,,100,,,,,,Space,keypress(Space),,,,,-- --- ---- --- ------ ----- ------- ---- -- --- ------- --<br>------- ---------- ------ -- ----- -- ----- -- ---- ------<br>the ----- --- --- ------ -------- ----- --- ------ ----- --<br>----- ----- ---------- --- --- ------ ------ ---- -- ------<br>------- --- ------ ----- --- ---- ------- -- ---- --- --<br>------- ------,101886.89999997616,101886.30000001192,101526.325,101535.09999996424,101542.99,101892.944,,22,the
screen,html.Screen,0_2_1_1_23,2021-12-02T16:18:29.385Z,,,,,,,,,,,,,,,,54,,,,,,,,,,,,,,353.2559999880759,,response,,,100,,,,,,Space,keypress(Space),,,,,-- --- ---- --- ------ ----- ------- ---- -- --- ------- --<br>------- ---------- ------ -- ----- -- ----- -- ---- ------<br>--- state --- --- ------ -------- ----- --- ------ ----- --<br>----- ----- ---------- --- --- ------ ------ ---- -- ------<br>------- --- ------ ----- --- ---- ------- -- ---- --- --<br>------- ------,102246.80000001192,102246.19999998808,101876.279,101887.19999998808,101892.944,102259.612,,23,state
screen,html.Screen,0_2_1_1_24,2021-12-02T16:18:29.761Z,,,,,,,,,,,,,,,,54,,,,,,,,,,,,,,362.58799998808536,,response,,,100,,,,,,Space,keypress(Space),,,,,-- --- ---- --- ------ ----- ------- ---- -- --- ------- --<br>------- ---------- ------ -- ----- -- ----- -- ---- ------<br>--- ----- cut --- ------ -------- ----- --- ------ ----- --<br>----- ----- ---------- --- --- ------ ------ ---- -- ------<br>------- --- ------ ----- --- ---- ------- -- ---- --- --<br>------- ------,102622.80000001192,102622.19999998808,102242.947,102247,102259.612,102626.299,,24,cut
screen,html.Screen,0_2_1_1_25,2021-12-02T16:18:30.178Z,,,,,,,,,,,,,,,,54,,,,,,,,,,,,,,411.90099998808,,response,,,100,,,,,,Space,keypress(Space),,,,,-- --- ---- --- ------ ----- ------- ---- -- --- ------- --<br>------- ---------- ------ -- ----- -- ----- -- ---- ------<br>--- ----- --- the ------ -------- ----- --- ------ ----- --<br>----- ----- ---------- --- --- ------ ------ ---- -- ------<br>------- --- ------ ----- --- ---- ------- -- ---- --- --<br>------- ------,103038.80000001192,103038.19999998808,102609.633,102623.09999996424,102626.299,103043.002,,25,the
screen,html.Screen,0_2_1_1_26,2021-12-02T16:18:30.521Z,,,,,,,,,,,,,,,,54,,,,,,,,,,,,,,339.19799998808594,,response,,,100,,,,,,Space,keypress(Space),,,,,-- --- ---- --- ------ ----- ------- ---- -- --- ------- --<br>------- ---------- ------ -- ----- -- ----- -- ---- ------<br>--- ----- --- --- bonds' -------- ----- --- ------ ----- --<br>----- ----- ---------- --- --- ------ ------ ---- -- ------<br>------- --- ------ ----- --- ---- ------- -- ---- --- --<br>------- ------,103382.80000001192,103382.19999998808,103026.335,103039,103043.002,103392.919,,26,bonds'
screen,html.Screen,0_2_1_1_27,2021-12-02T16:18:30.865Z,,,,,,,,,,,,,,,,54,,,,,,,,,,,,,,333.28099998808466,,response,,,100,,,,,,Space,keypress(Space),,,,,-- --- ---- --- ------ ----- ------- ---- -- --- ------- --<br>------- ---------- ------ -- ----- -- ----- -- ---- ------<br>--- ----- --- --- ------ interest ----- --- ------ ----- --<br>----- ----- ---------- --- --- ------ ------ ---- -- ------<br>------- --- ------ ----- --- ---- ------- -- ---- --- --<br>------- ------,103726.80000001192,103726.19999998808,103376.254,103382.89999997616,103392.919,103742.788,,27,interest
screen,html.Screen,0_2_1_1_28,2021-12-02T16:18:31.265Z,,,,,,,,,,,,,,,,54,,,,,,,,,,,,,,383.4119999880786,,response,,,100,,,,,,Space,keypress(Space),,,,,-- --- ---- --- ------ ----- ------- ---- -- --- ------- --<br>------- ---------- ------ -- ----- -- ----- -- ---- ------<br>--- ----- --- --- ------ -------- rate. --- ------ ----- --<br>----- ----- ---------- --- --- ------ ------ ---- -- ------<br>------- --- ------ ----- --- ---- ------- -- ---- --- --<br>------- ------,104126.69999998808,104126.19999998808,103726.125,103726.89999997616,103742.788,104142.842,,28,rate.
screen,html.Screen,0_2_1_1_29,2021-12-02T16:18:31.633Z,,,,,,,,,,,,,,,,54,,,,,,,,,,,,,,351.3579999880749,,response,,,100,,,,,,Space,keypress(Space),,,,,-- --- ---- --- ------ ----- ------- ---- -- --- ------- --<br>------- ---------- ------ -- ----- -- ----- -- ---- ------<br>--- ----- --- --- ------ -------- ----- The ------ ----- --<br>----- ----- ---------- --- --- ------ ------ ---- -- ------<br>------- --- ------ ----- --- ---- ------- -- ---- --- --<br>------- ------,104494.69999998808,104494.19999998808,104126.177,104126.80000001192,104142.842,104509.605,,29,The
screen,html.Screen,0_2_1_1_30,2021-12-02T16:18:31.969Z,,,,,,,,,,,,,,,,54,,,,,,,,,,,,,,320.4949999642413,,response,,,100,,,,,,Space,keypress(Space),,,,,-- --- ---- --- ------ ----- ------- ---- -- --- ------- --<br>------- ---------- ------ -- ----- -- ----- -- ---- ------<br>--- ----- --- --- ------ -------- ----- --- market ----- --<br>----- ----- ---------- --- --- ------ ------ ---- -- ------<br>------- --- ------ ----- --- ---- ------- -- ---- --- --<br>------- ------,104830.69999998808,104830.09999996424,104492.938,104494.80000001192,104509.605,104842.896,,30,market
screen,html.Screen,0_2_1_1_31,2021-12-02T16:18:32.313Z,,,,,,,,,,,,,,,,54,,,,,,,,,,,,,,331.20399996424385,,response,,,100,,,,,,Space,keypress(Space),,,,,-- --- ---- --- ------ ----- ------- ---- -- --- ------- --<br>------- ---------- ------ -- ----- -- ----- -- ---- ------<br>--- ----- --- --- ------ -------- ----- --- ------ value --<br>----- ----- ---------- --- --- ------ ------ ---- -- ------<br>------- --- ------ ----- --- ---- ------- -- ---- --- --<br>------- ------,105174.59999996424,105174.09999996424,104826.23,104830.80000001192,104842.896,105176.214,,31,value
screen,html.Screen,0_2_1_1_32,2021-12-02T16:18:32.681Z,,,,,,,,,,,,,,,,54,,,,,,,,,,,,,,365.88599996423,,response,,,100,,,,,,Space,keypress(Space),,,,,-- --- ---- --- ------ ----- ------- ---- -- --- ------- --<br>------- ---------- ------ -- ----- -- ----- -- ---- ------<br>--- ----- --- --- ------ -------- ----- --- ------ ----- of<br>----- ----- ---------- --- --- ------ ------ ---- -- ------<br>------- --- ------ ----- --- ---- ------- -- ---- --- --<br>------- ------,105542.69999998808,105542.09999996424,105159.548,105174.80000001192,105176.214,105559.493,,32,of
screen,html.Screen,0_2_1_1_33,2021-12-02T16:18:33.025Z,,,,,,,,,,,,,,,,54,,,,,,,,,,,,,,326.606999964235,,response,,,100,,,,,,Space,keypress(Space),,,,,-- --- ---- --- ------ ----- ------- ---- -- --- ------- --<br>------- ---------- ------ -- ----- -- ----- -- ---- ------<br>--- ----- --- --- ------ -------- ----- --- ------ ----- --<br>these ----- ---------- --- --- ------ ------ ---- -- ------<br>------- --- ------ ----- --- ---- ------- -- ---- --- --<br>------- ------,105886.69999998808,105886.09999996424,105542.828,105542.80000001192,105559.493,105892.851,,33,these
screen,html.Screen,0_2_1_1_34,2021-12-02T16:18:33.345Z,,,,,,,,,,,,,,,,54,,,,,,,,,,,,,,313.2489999642421,,response,,,100,,,,,,Space,keypress(Space),,,,,-- --- ---- --- ------ ----- ------- ---- -- --- ------- --<br>------- ---------- ------ -- ----- -- ----- -- ---- ------<br>--- ----- --- --- ------ -------- ----- --- ------ ----- --<br>----- bonds ---------- --- --- ------ ------ ---- -- ------<br>------- --- ------ ----- --- ---- ------- -- ---- --- --<br>------- ------,106206.69999998808,106206.09999996424,105876.185,105886.89999997616,105892.851,106209.481,,34,bonds
screen,html.Screen,0_2_1_1_35,2021-12-02T16:18:33.689Z,,,,,,,,,,,,,,,,54,,,,,,,,,,,,,,340.61899996423745,,response,,,100,,,,,,Space,keypress(Space),,,,,"-- --- ---- --- ------ ----- ------- ---- -- --- ------- --<br>------- ---------- ------ -- ----- -- ----- -- ---- ------<br>--- ----- --- --- ------ -------- ----- --- ------ ----- --<br>----- ----- plummeted, --- --- ------ ------ ---- -- ------<br>------- --- ------ ----- --- ---- ------- -- ---- --- --<br>------- ------",106550.69999998808,106550.09999996424,106192.816,106206.80000001192,106209.481,106559.464,,35,"plummeted,"
screen,html.Screen,0_2_1_1_36,2021-12-02T16:18:34.145Z,,,,,,,,,,,,,,,,54,,,,,,,,,,,,,,446.63599996423,,response,,,100,,,,,,Space,keypress(Space),,,,,-- --- ---- --- ------ ----- ------- ---- -- --- ------- --<br>------- ---------- ------ -- ----- -- ----- -- ---- ------<br>--- ----- --- --- ------ -------- ----- --- ------ ----- --<br>----- ----- ---------- and --- ------ ------ ---- -- ------<br>------- --- ------ ----- --- ---- ------- -- ---- --- --<br>------- ------,107006.69999998808,107006.09999996424,106542.799,106550.80000001192,106559.464,107009.525,,36,and
screen,html.Screen,0_2_1_1_37,2021-12-02T16:18:34.489Z,,,,,,,,,,,,,,,,54,,,,,,,,,,,,,,340.57499996424303,,response,,,100,,,,,,Space,keypress(Space),,,,,-- --- ---- --- ------ ----- ------- ---- -- --- ------- --<br>------- ---------- ------ -- ----- -- ----- -- ---- ------<br>--- ----- --- --- ------ -------- ----- --- ------ ----- --<br>----- ----- ---------- --- the ------ ------ ---- -- ------<br>------- --- ------ ----- --- ---- ------- -- ---- --- --<br>------- ------,107350.69999998808,107350.09999996424,106992.858,107006.89999997616,107009.525,107359.435,,37,the
screen,html.Screen,0_2_1_1_38,2021-12-02T16:18:34.801Z,,,,,,,,,,,,,,,,54,,,,,,,,,,,,,,302.5650000000023,,response,,,100,,,,,,Space,keypress(Space),,,,,-- --- ---- --- ------ ----- ------- ---- -- --- ------- --<br>------- ---------- ------ -- ----- -- ----- -- ---- ------<br>--- ----- --- --- ------ -------- ----- --- ------ ----- --<br>----- ----- ---------- --- --- market ------ ---- -- ------<br>------- --- ------ ----- --- ---- ------- -- ---- --- --<br>------- ------,107662.59999996424,107662,107342.77,107350.69999998808,107359.435,107676.128,,38,market
screen,html.Screen,0_2_1_1_39,2021-12-02T16:18:35.161Z,,,,,,,,,,,,,,,,54,,,,,,,,,,,,,,345.872000000003,,response,,,100,,,,,,Space,keypress(Space),,,,,-- --- ---- --- ------ ----- ------- ---- -- --- ------- --<br>------- ---------- ------ -- ----- -- ----- -- ---- ------<br>--- ----- --- --- ------ -------- ----- --- ------ ----- --<br>----- ----- ---------- --- --- ------ became ---- -- ------<br>------- --- ------ ----- --- ---- ------- -- ---- --- --<br>------- ------,108022.59999996424,108022,107659.462,107662.80000001192,107676.128,108026.089,,39,became
screen,html.Screen,0_2_1_1_40,2021-12-02T16:18:35.601Z,,,,,,,,,,,,,,,,54,,,,,,,,,,,,,,435.9109999999928,,response,,,100,,,,,,Space,keypress(Space),,,,,-- --- ---- --- ------ ----- ------- ---- -- --- ------- --<br>------- ---------- ------ -- ----- -- ----- -- ---- ------<br>--- ----- --- --- ------ -------- ----- --- ------ ----- --<br>----- ----- ---------- --- --- ------ ------ wary -- ------<br>------- --- ------ ----- --- ---- ------- -- ---- --- --<br>------- ------,108462.5,108462,108009.424,108022.80000001192,108026.089,108475.987,,40,wary
screen,html.Screen,0_2_1_1_41,2021-12-02T16:18:36.713Z,,,,,,,,,,,,,,,,54,,,,,,,,,,,,,,1098.0130000000063,,response,,,100,,,,,,Space,keypress(Space),,,,,-- --- ---- --- ------ ----- ------- ---- -- --- ------- --<br>------- ---------- ------ -- ----- -- ----- -- ---- ------<br>--- ----- --- --- ------ -------- ----- --- ------ ----- --<br>----- ----- ---------- --- --- ------ ------ ---- of ------<br>------- --- ------ ----- --- ---- ------- -- ---- --- --<br>------- ------,109574.59999996424,109574,108459.323,108462.69999998808,108475.987,109575.842,,41,of
screen,html.Screen,0_2_1_1_42,2021-12-02T16:18:37.089Z,,,,,,,,,,,,,,,,54,,,,,,,,,,,,,,374.1579999999958,,response,,,100,,,,,,Space,keypress(Space),,,,,-- --- ---- --- ------ ----- ------- ---- -- --- ------- --<br>------- ---------- ------ -- ----- -- ----- -- ---- ------<br>--- ----- --- --- ------ -------- ----- --- ------ ----- --<br>----- ----- ---------- --- --- ------ ------ ---- -- French<br>------- --- ------ ----- --- ---- ------- -- ---- --- --<br>------- ------,109950.5,109950,109559.178,109574.80000001192,109575.842,109959.376,,42,French
screen,html.Screen,0_2_1_1_43,2021-12-02T16:18:37.441Z,,,,,,,,,,,,,,,,54,,,,,,,,,,,,,,342.62399999999616,,response,,,100,,,,,,Space,keypress(Space),,,,,-- --- ---- --- ------ ----- ------- ---- -- --- ------- --<br>------- ---------- ------ -- ----- -- ----- -- ---- ------<br>--- ----- --- --- ------ -------- ----- --- ------ ----- --<br>----- ----- ---------- --- --- ------ ------ ---- -- ------<br>credit. --- ------ ----- --- ---- ------- -- ---- --- --<br>------- ------,110302.5,110302,109942.71,109950.69999998808,109959.376,110309.351,,43,credit.
screen,html.Screen,0_2_1_1_44,2021-12-02T16:18:37.937Z,,,,,,,,,,,,,,,,54,,,,,,,,,,,,,,488.54899997616303,,response,,,100,,,,,,Space,keypress(Space),,,,,-- --- ---- --- ------ ----- ------- ---- -- --- ------- --<br>------- ---------- ------ -- ----- -- ----- -- ---- ------<br>--- ----- --- --- ------ -------- ----- --- ------ ----- --<br>----- ----- ---------- --- --- ------ ------ ---- -- ------<br>------- The ------ ----- --- ---- ------- -- ---- --- --<br>------- ------,110798.5,110797.89999997616,110292.685,110302.59999996424,110309.351,110809.346,,44,The
screen,html.Screen,0_2_1_1_45,2021-12-02T16:18:38.305Z,,,,,,,,,,,,,,,,54,,,,,,,,,,,,,,356.4540000119159,,response,,,100,,,,,,Space,keypress(Space),,,,,-- --- ---- --- ------ ----- ------- ---- -- --- ------- --<br>------- ---------- ------ -- ----- -- ----- -- ---- ------<br>--- ----- --- --- ------ -------- ----- --- ------ ----- --<br>----- ----- ---------- --- --- ------ ------ ---- -- ------<br>------- --- French ----- --- ---- ------- -- ---- --- --<br>------- ------,111166.39999997616,111165.80000001192,110792.68,110798.59999996424,110809.346,111175.966,,45,French
screen,html.Screen,0_2_1_1_46,2021-12-02T16:18:38.625Z,,,,,,,,,,,,,,,,54,,,,,,,,,,,,,,309.9339999761578,,response,,,100,,,,,,Space,keypress(Space),,,,,-- --- ---- --- ------ ----- ------- ---- -- --- ------- --<br>------- ---------- ------ -- ----- -- ----- -- ---- ------<br>--- ----- --- --- ------ -------- ----- --- ------ ----- --<br>----- ----- ---------- --- --- ------ ------ ---- -- ------<br>------- --- ------ state --- ---- ------- -- ---- --- --<br>------- ------,111486.39999997616,111485.89999997616,111159.301,111166.59999996424,111175.966,111492.626,,46,state
screen,html.Screen,0_2_1_1_47,2021-12-02T16:18:38.977Z,,,,,,,,,,,,,,,,54,,,,,,,,,,,,,,345.47399996423337,,response,,,100,,,,,,Space,keypress(Space),,,,,-- --- ---- --- ------ ----- ------- ---- -- --- ------- --<br>------- ---------- ------ -- ----- -- ----- -- ---- ------<br>--- ----- --- --- ------ -------- ----- --- ------ ----- --<br>----- ----- ---------- --- --- ------ ------ ---- -- ------<br>------- --- ------ ----- was ---- ------- -- ---- --- --<br>------- ------,111838.69999998808,111838.09999996424,111475.961,111486.59999996424,111492.626,111842.642,,47,was
screen,html.Screen,0_2_1_1_48,2021-12-02T16:18:39.481Z,,,,,,,,,,,,,,,,54,,,,,,,,,,,,,,499.1580000119138,,response,,,100,,,,,,Space,keypress(Space),,,,,-- --- ---- --- ------ ----- ------- ---- -- --- ------- --<br>------- ---------- ------ -- ----- -- ----- -- ---- ------<br>--- ----- --- --- ------ -------- ----- --- ------ ----- --<br>----- ----- ---------- --- --- ------ ------ ---- -- ------<br>------- --- ------ ----- --- left ------- -- ---- --- --<br>------- ------,112342.39999997616,112341.80000001192,111825.976,111838.89999997616,111842.642,112359.225,,48,left
screen,html.Screen,0_2_1_1_49,2021-12-02T16:18:39.849Z,,,,,,,,,,,,,,,,54,,,,,,,,,,,,,,350.6749999761523,,response,,,100,,,,,,Space,keypress(Space),,,,,-- --- ---- --- ------ ----- ------- ---- -- --- ------- --<br>------- ---------- ------ -- ----- -- ----- -- ---- ------<br>--- ----- --- --- ------ -------- ----- --- ------ ----- --<br>----- ----- ---------- --- --- ------ ------ ---- -- ------<br>------- --- ------ ----- --- ---- without -- ---- --- --<br>------- ------,112710.5,112709.89999997616,112342.56,112342.59999996424,112359.225,112725.93,,49,without
screen,html.Screen,0_2_1_1_50,2021-12-02T16:18:40.249Z,,,,,,,,,,,,,,,,54,,,,,,,,,,,,,,383.8700000119279,,response,,,100,,,,,,Space,keypress(Space),,,,,-- --- ---- --- ------ ----- ------- ---- -- --- ------- --<br>------- ---------- ------ -- ----- -- ----- -- ---- ------<br>--- ----- --- --- ------ -------- ----- --- ------ ----- --<br>----- ----- ---------- --- --- ------ ------ ---- -- ------<br>------- --- ------ ----- --- ---- ------- an ---- --- --<br>------- ------,113110.39999997616,113109.80000001192,112709.264,112710.69999998808,112725.93,113125.882,,50,an
screen,html.Screen,0_2_1_1_51,2021-12-02T16:18:40.673Z,,,,,,,,,,,,,,,,54,,,,,,,,,,,,,,407.91800001192314,,response,,,100,,,,,,Space,keypress(Space),,,,,-- --- ---- --- ------ ----- ------- ---- -- --- ------- --<br>------- ---------- ------ -- ----- -- ----- -- ---- ------<br>--- ----- --- --- ------ -------- ----- --- ------ ----- --<br>----- ----- ---------- --- --- ------ ------ ---- -- ------<br>------- --- ------ ----- --- ---- ------- -- easy --- --<br>------- ------,113534.39999997616,113533.80000001192,113109.217,113110.59999996424,113125.882,113542.584,,51,easy
screen,html.Screen,0_2_1_1_52,2021-12-02T16:18:41.081Z,,,,,,,,,,,,,,,,54,,,,,,,,,,,,,,399.3159999761556,,response,,,100,,,,,,Space,keypress(Space),,,,,-- --- ---- --- ------ ----- ------- ---- -- --- ------- --<br>------- ---------- ------ -- ----- -- ----- -- ---- ------<br>--- ----- --- --- ------ -------- ----- --- ------ ----- --<br>----- ----- ---------- --- --- ------ ------ ---- -- ------<br>------- --- ------ ----- --- ---- ------- -- ---- way --<br>------- ------,113942.5,113941.89999997616,113525.918,113534.5,113542.584,113959.197,,52,way
screen,html.Screen,0_2_1_1_53,2021-12-02T16:18:41.369Z,,,,,,,,,,,,,,,,54,,,,,,,,,,,,,,270.6030000119208,,response,,,100,,,,,,Space,keypress(Space),,,,,-- --- ---- --- ------ ----- ------- ---- -- --- ------- --<br>------- ---------- ------ -- ----- -- ----- -- ---- ------<br>--- ----- --- --- ------ -------- ----- --- ------ ----- --<br>----- ----- ---------- --- --- ------ ------ ---- -- ------<br>------- --- ------ ----- --- ---- ------- -- ---- --- of<br>------- ------,114230.30000001192,114229.80000001192,113942.532,113942.69999998808,113959.197,114242.51,,53,of
screen,html.Screen,0_2_1_1_54,2021-12-02T16:18:42.249Z,,,,,,,,,,,,,,,,54,,,,,,,,,,,,,,867.2900000119262,,response,,,100,,,,,,Space,keypress(Space),,,,,-- --- ---- --- ------ ----- ------- ---- -- --- ------- --<br>------- ---------- ------ -- ----- -- ----- -- ---- ------<br>--- ----- --- --- ------ -------- ----- --- ------ ----- --<br>----- ----- ---------- --- --- ------ ------ ---- -- ------<br>------- --- ------ ----- --- ---- ------- -- ---- --- --<br>raising ------,115110.39999997616,115109.80000001192,114225.845,114230.39999997616,114242.51,115125.78,,54,raising
screen,html.Screen,0_2_1_1_55,2021-12-02T16:18:42.697Z,,,,,,,,,,,,,,,,54,,,,,,,,,,,,,,431.91999998808024,,response,,,100,,,,,,Space,keypress(Space),,,,,-- --- ---- --- ------ ----- ------- ---- -- --- ------- --<br>------- ---------- ------ -- ----- -- ----- -- ---- ------<br>--- ----- --- --- ------ -------- ----- --- ------ ----- --<br>----- ----- ---------- --- --- ------ ------ ---- -- ------<br>------- --- ------ ----- --- ---- ------- -- ---- --- --<br>------- money.,115558.39999997616,115557.69999998808,115109.115,115110.5,115125.78,115575.78,,55,money.
Item 100,flow.Loop,0_2_1_1,2021-12-02T16:18:42.697Z,,,,,,,,,,,,,,,,,,,,,,,,,,,,,,24864.26799998808,,completion,,,,D,,,,,,,,,,silence,,115558.59999996424,115557.69999998808,90676.766,90677.5,90693.432,115575.78,,,
Question 1,html.Screen,0_2_1_2,2021-12-02T16:18:46.659Z,,,,,,,,,,,,,,,,,,,,,,,,,,,true,TRUE,,3944.1199999761593,,response,,,100,D,,,,,TRUE,click #choice-1,,,,silence,,119520.69999998808,119519.89999997616,115559.115,115558.80000001192,115575.78,119525.732,,,
Question 2,html.Screen,0_2_1_3,2021-12-02T16:18:49.644Z,,,,,,,,,,,,,,,,,,,,,,,,,,,true,FALSE,,2977.4679999880755,,response,,,100,D,,,,,FALSE,click #choice-2,,,,silence,,122504,122503.19999998808,119509.065,119520.80000001192,119525.732,122508.798,,,
Item 100,flow.Sequence,0_2_1,2021-12-02T16:18:49.644Z,,,,,,,,,,,,,,,,,,,,,,,,,,,,,,41809.42199998807,,completion,,,,,,,,,,,,,,,,122504.19999998808,122503.19999998808,80677.112,80690,80693.778,122508.798,,,
End of Practice,html.Page,0_2_2,2021-12-02T16:18:54.780Z,,,,,,,,,,,,,,,,,,,,,,,,,,,,,,5130.401999988084,,form submission,,,,,,,,,,,,,,,,127639.5,127639.19999998808,122492.135,122504.30000001192,122508.798,127641.97,,,
Practice,flow.Sequence,0_2,2021-12-02T16:18:54.780Z,,,,,,,,,,,,,,,,,,,,,,,,,,,,,,95481.19199998808,,completion,,,,,,,,,,,,,,,,127639.59999996424,127639.19999998808,32141.376,32154.80000001192,32158.008,127641.97,,,
Trap_instruction,html.Page,0_3_0,2021-12-02T16:18:58.167Z,,,,,,,,,,,,,,,,,,,,,,,,,,,,,,3384.429999976157,,form submission,,,,,,,,,,,,,,,,131026.69999998808,131026.39999997616,127625.306,127639.69999998808,127641.97,131041.937,,,
trap_trial,html.Screen,0_3_1,2021-12-02T16:19:00.751Z,,,,,,,,,,,,,,,,,,,,,,,,,,,true,1,,2567.8630000119156,,response,,,,,,,,,1,click #choice-1,,,,,,133610.89999997616,133609.80000001192,131025.271,131026.89999997616,131041.937,133626.173,,,
end of trap trial,html.Page,0_3_2,2021-12-02T16:19:02.183Z,,,,,,,,,,,,,,,,,,,,,,,,,,,,,,1416.5269999880693,,form submission,,,,,,,,,,,,,,,,135043,135042.69999998808,133609.5,133611.09999996424,133626.173,135058.354,,,
Trap 1,flow.Sequence,0_3,2021-12-02T16:19:02.183Z,,,,,,,,,,,,,,,,,,,,,,,,,,,,,,7400.729999988078,,completion,,,,,,,,,,,,,,,,135043.19999998808,135042.69999998808,127625.306,127639.69999998808,127641.97,135058.354,,,
Standby,html.Page,0_4_0,2021-12-02T16:19:10.183Z,,,,,,,,,,,,,,,,,,,,,,,,,,,,,,7999.762000000017,,timeout,,,,,,,,,,,,,,,,143043,143041.45,135041.689,135043.39999997616,135058.354,143058.116,,,
Holding screen,html.Screen,0_4_1_0_0,2021-12-02T16:19:17.182Z,,,,,,,,,,,,,,,,,,,,,,,,,,,,,,6999.603000000003,,timeout,,,,,,,,,,,,,,,,150042.09999996424,150041.054,143041.45,143043.30000001192,143058.116,150057.719,,,
screen,html.Screen,0_4_1_0_1_0,2021-12-02T16:19:18.274Z,,,,,,,,,,,,,,,,11,,,,,,,,,,,,,,1074.8809999642253,,response,,,4,D,,,,,Space,keypress(Space),,,,silence,Known -- ---- --- -- --- -------- ------------ ---------- --<br>- ------- ------ --------- -- ------------ -- --- ---- -----<br>------ ---- ---- ------ ------ ------- --- ----- ---------<br>---- --- -------- -------- --- --- -- ------- --- --- -----<br>-- --- ------ ------- --- --- -------- ---- --------- --<br>---------- -- -------- ----------------,151133.39999997616,151132.59999996424,150041.054,150042.30000001192,150057.719,151141.167,,0,Known
screen,html.Screen,0_4_1_0_1_1,2021-12-02T16:19:18.689Z,,,,,,,,,,,,,,,,11,,,,,,,,,,,,,,407.2329999761714,,response,,,4,D,,,,,Space,keypress(Space),,,,silence,----- as ---- --- -- --- -------- ------------ ---------- --<br>- ------- ------ --------- -- ------------ -- --- ---- -----<br>------ ---- ---- ------ ------ ------- --- ----- ---------<br>---- --- -------- -------- --- --- -- ------- --- --- -----<br>-- --- ------ ------- --- --- -------- ---- --------- --<br>---------- -- -------- ----------------,151549,151548.39999997616,151124.501,151133.59999996424,151141.167,151557.84,,1,as
screen,html.Screen,0_4_1_0_1_2,2021-12-02T16:19:19.313Z,,,,,,,,,,,,,,,,11,,,,,,,,,,,,,,614.5599999761616,,response,,,4,D,,,,,Space,keypress(Space),,,,silence,----- -- Rapa --- -- --- -------- ------------ ---------- --<br>- ------- ------ --------- -- ------------ -- --- ---- -----<br>------ ---- ---- ------ ------ ------- --- ----- ---------<br>---- --- -------- -------- --- --- -- ------- --- --- -----<br>-- --- ------ ------- --- --- -------- ---- --------- --<br>---------- -- -------- ----------------,152172.89999997616,152172.39999997616,151541.174,151549.19999998808,151557.84,152174.397,,2,Rapa
screen,html.Screen,0_4_1_0_1_3,2021-12-02T16:19:19.921Z,,,,,,,,,,,,,,,,11,,,,,,,,,,,,,,606.0029999761609,,response,,,4,D,,,,,Space,keypress(Space),,,,silence,----- -- ---- Nui -- --- -------- ------------ ---------- --<br>- ------- ------ --------- -- ------------ -- --- ---- -----<br>------ ---- ---- ------ ------ ------- --- ----- ---------<br>---- --- -------- -------- --- --- -- ------- --- --- -----<br>-- --- ------ ------- --- --- -------- ---- --------- --<br>---------- -- -------- ----------------,152780.89999997616,152780.39999997616,152157.732,152173.09999996424,152174.397,152791.154,,3,Nui
screen,html.Screen,0_4_1_0_1_4,2021-12-02T16:19:20.393Z,,,,,,,,,,,,,,,,11,,,,,,,,,,,,,,461.1460000119114,,response,,,4,D,,,,,Space,keypress(Space),,,,silence,----- -- ---- --- to --- -------- ------------ ---------- --<br>- ------- ------ --------- -- ------------ -- --- ---- -----<br>------ ---- ---- ------ ------ ------- --- ----- ---------<br>---- --- -------- -------- --- --- -- ------- --- --- -----<br>-- --- ------ ------- --- --- -------- ---- --------- --<br>---------- -- -------- ----------------,153252.89999997616,153252.30000001192,152774.487,152781.09999996424,152791.154,153257.708,,4,to
screen,html.Screen,0_4_1_0_1_5,2021-12-02T16:19:20.841Z,,,,,,,,,,,,,,,,11,,,,,,,,,,,,,,442.59200001190766,,response,,,4,D,,,,,Space,keypress(Space),,,,silence,----- -- ---- --- -- the -------- ------------ ---------- --<br>- ------- ------ --------- -- ------------ -- --- ---- -----<br>------ ---- ---- ------ ------ ------- --- ----- ---------<br>---- --- -------- -------- --- --- -- ------- --- --- -----<br>-- --- ------ ------- --- --- -------- ---- --------- --<br>---------- -- -------- ----------------,153701,153700.30000001192,153241.043,153253.09999996424,153257.708,153707.705,,5,the
screen,html.Screen,0_4_1_0_1_6,2021-12-02T16:19:21.353Z,,,,,,,,,,,,,,,,11,,,,,,,,,,,,,,504.69499997617095,,response,,,4,D,,,,,Space,keypress(Space),,,,silence,----- -- ---- --- -- --- island's ------------ ---------- --<br>- ------- ------ --------- -- ------------ -- --- ---- -----<br>------ ---- ---- ------ ------ ------- --- ----- ---------<br>---- --- -------- -------- --- --- -- ------- --- --- -----<br>-- --- ------ ------- --- --- -------- ---- --------- --<br>---------- -- -------- ----------------,154213,154212.39999997616,153691.04,153701.19999998808,153707.705,154224.409,,6,island's
screen,html.Screen,0_4_1_0_1_7,2021-12-02T16:19:22.401Z,,,,,,,,,,,,,,,,11,,,,,,,,,,,,,,1035.990999976144,,response,,,4,D,,,,,Space,keypress(Space),,,,silence,"----- -- ---- --- -- --- -------- inhabitants, ---------- --<br>- ------- ------ --------- -- ------------ -- --- ---- -----<br>------ ---- ---- ------ ------ ------- --- ----- ---------<br>---- --- -------- -------- --- --- -- ------- --- --- -----<br>-- --- ------ ------- --- --- -------- ---- --------- --<br>---------- -- -------- ----------------",155260.89999997616,155260.39999997616,154207.743,154213.19999998808,154224.409,155274.289,,7,"inhabitants,"
screen,html.Screen,0_4_1_0_1_8,2021-12-02T16:19:24.153Z,,,,,,,,,,,,,,,,11,,,,,,,,,,,,,,1738.0110000119312,,response,,,4,D,,,,,Space,keypress(Space),,,,silence,----- -- ---- --- -- --- -------- ------------ Rongorongo --<br>- ------- ------ --------- -- ------------ -- --- ---- -----<br>------ ---- ---- ------ ------ ------- --- ----- ---------<br>---- --- -------- -------- --- --- -- ------- --- --- -----<br>-- --- ------ ------- --- --- -------- ---- --------- --<br>---------- -- -------- ----------------,157012.80000001192,157012.30000001192,155257.624,155261.09999996424,155274.289,157023.92,,8,Rongorongo
screen,html.Screen,0_4_1_0_1_9,2021-12-02T16:19:24.777Z,,,,,,,,,,,,,,,,11,,,,,,,,,,,,,,612.2799999880663,,response,,,4,D,,,,,Space,keypress(Space),,,,silence,----- -- ---- --- -- --- -------- ------------ ---------- is<br>- ------- ------ --------- -- ------------ -- --- ---- -----<br>------ ---- ---- ------ ------ ------- --- ----- ---------<br>---- --- -------- -------- --- --- -- ------- --- --- -----<br>-- --- ------ ------- --- --- -------- ---- --------- --<br>---------- -- -------- ----------------,157636.80000001192,157636.19999998808,157007.256,157013.09999996424,157023.92,157640.924,,9,is
screen,html.Screen,0_4_1_0_1_10,2021-12-02T16:19:25.145Z,,,,,,,,,,,,,,,,11,,,,,,,,,,,,,,363.17599996423814,,response,,,4,D,,,,,Space,keypress(Space),,,,silence,----- -- ---- --- -- --- -------- ------------ ---------- --<br>a ------- ------ --------- -- ------------ -- --- ---- -----<br>------ ---- ---- ------ ------ ------- --- ----- ---------<br>---- --- -------- -------- --- --- -- ------- --- --- -----<br>-- --- ------ ------- --- --- -------- ---- --------- --<br>---------- -- -------- ----------------,158004.80000001192,158004.09999996424,157624.258,157637,157640.924,158007.595,,10,a
screen,html.Screen,0_4_1_0_1_11,2021-12-02T16:19:25.457Z,,,,,,,,,,,,,,,,11,,,,,,,,,,,,,,308.50499996423605,,response,,,4,D,,,,,Space,keypress(Space),,,,silence,----- -- ---- --- -- --- -------- ------------ ---------- --<br>- writing ------ --------- -- ------------ -- --- ---- -----<br>------ ---- ---- ------ ------ ------- --- ----- ---------<br>---- --- -------- -------- --- --- -- ------- --- --- -----<br>-- --- ------ ------- --- --- -------- ---- --------- --<br>---------- -- -------- ----------------,158316.69999998808,158316.09999996424,157990.929,158005,158007.595,158324.204,,11,writing
screen,html.Screen,0_4_1_0_1_12,2021-12-02T16:19:25.865Z,,,,,,,,,,,,,,,,11,,,,,,,,,,,,,,399.99599998808117,,response,,,4,D,,,,,Space,keypress(Space),,,,silence,----- -- ---- --- -- --- -------- ------------ ---------- --<br>- ------- system --------- -- ------------ -- --- ---- -----<br>------ ---- ---- ------ ------ ------- --- ----- ---------<br>---- --- -------- -------- --- --- -- ------- --- --- -----<br>-- --- ------ ------- --- --- -------- ---- --------- --<br>---------- -- -------- ----------------,158724.69999998808,158724.19999998808,158307.539,158316.80000001192,158324.204,158740.852,,12,system
screen,html.Screen,0_4_1_0_1_13,2021-12-02T16:19:26.329Z,,,,,,,,,,,,,,,,11,,,,,,,,,,,,,,447.34799998806557,,response,,,4,D,,,,,Space,keypress(Space),,,,silence,----- -- ---- --- -- --- -------- ------------ ---------- --<br>- ------- ------ comprised -- ------------ -- --- ---- -----<br>------ ---- ---- ------ ------ ------- --- ----- ---------<br>---- --- -------- -------- --- --- -- ------- --- --- -----<br>-- --- ------ ------- --- --- -------- ---- --------- --<br>---------- -- -------- ----------------,159188.89999997616,159188.19999998808,158724.187,158724.89999997616,158740.852,159190.867,,13,comprised
screen,html.Screen,0_4_1_0_1_14,2021-12-02T16:19:26.849Z,,,,,,,,,,,,,,,,11,,,,,,,,,,,,,,517.2329999642388,,response,,,4,D,,,,,Space,keypress(Space),,,,silence,----- -- ---- --- -- --- -------- ------------ ---------- --<br>- ------- ------ --------- of ------------ -- --- ---- -----<br>------ ---- ---- ------ ------ ------- --- ----- ---------<br>---- --- -------- -------- --- --- -- ------- --- --- -----<br>-- --- ------ ------- --- --- -------- ---- --------- --<br>---------- -- -------- ----------------,159708.69999998808,159708.09999996424,159174.201,159189,159190.867,159724.182,,14,of
screen,html.Screen,0_4_1_0_1_15,2021-12-02T16:19:27.753Z,,,,,,,,,,,,,,,,11,,,,,,,,,,,,,,887.9179999642365,,response,,,4,D,,,,,Space,keypress(Space),,,,silence,----- -- ---- --- -- --- -------- ------------ ---------- --<br>- ------- ------ --------- -- pictographs. -- --- ---- -----<br>------ ---- ---- ------ ------ ------- --- ----- ---------<br>---- --- -------- -------- --- --- -- ------- --- --- -----<br>-- --- ------ ------- --- --- -------- ---- --------- --<br>---------- -- -------- ----------------,160612.69999998808,160612.09999996424,159707.516,159708.89999997616,159724.182,160624.085,,15,pictographs.
screen,html.Screen,0_4_1_0_1_16,2021-12-02T16:19:28.161Z,,,,,,,,,,,,,,,,11,,,,,,,,,,,,,,396.01499996424536,,response,,,4,D,,,,,Space,keypress(Space),,,,silence,----- -- ---- --- -- --- -------- ------------ ---------- --<br>- ------- ------ --------- -- ------------ It --- ---- -----<br>------ ---- ---- ------ ------ ------- --- ----- ---------<br>---- --- -------- -------- --- --- -- ------- --- --- -----<br>-- --- ------ ------- --- --- -------- ---- --------- --<br>---------- -- -------- ----------------,161020.69999998808,161020.09999996424,160607.42,160612.80000001192,160624.085,161024.096,,16,It
screen,html.Screen,0_4_1_0_1_17,2021-12-02T16:19:28.833Z,,,,,,,,,,,,,,,,11,,,,,,,,,,,,,,668.2040000119305,,response,,,4,D,,,,,Space,keypress(Space),,,,silence,----- -- ---- --- -- --- -------- ------------ ---------- --<br>- ------- ------ --------- -- ------------ -- has ---- -----<br>------ ---- ---- ------ ------ ------- --- ----- ---------<br>---- --- -------- -------- --- --- -- ------- --- --- -----<br>-- --- ------ ------- --- --- -------- ---- --------- --<br>---------- -- -------- ----------------,161693,161692.30000001192,161007.431,161020.80000001192,161024.096,161707.456,,17,has
screen,html.Screen,0_4_1_0_1_18,2021-12-02T16:19:29.249Z,,,,,,,,,,,,,,,,11,,,,,,,,,,,,,,400.5439999999944,,response,,,4,D,,,,,Space,keypress(Space),,,,silence,----- -- ---- --- -- --- -------- ------------ ---------- --<br>- ------- ------ --------- -- ------------ -- --- been -----<br>------ ---- ---- ------ ------ ------- --- ----- ---------<br>---- --- -------- -------- --- --- -- ------- --- --- -----<br>-- --- ------ ------- --- --- -------- ---- --------- --<br>---------- -- -------- ----------------,162108.69999998808,162108,161690.79,161693.09999996424,161707.456,162124.072,,18,been
screen,html.Screen,0_4_1_0_1_19,2021-12-02T16:19:29.745Z,,,,,,,,,,,,,,,,11,,,,,,,,,,,,,,479.92800000001444,,response,,,4,D,,,,,Space,keypress(Space),,,,silence,----- -- ---- --- -- --- -------- ------------ ---------- --<br>- ------- ------ --------- -- ------------ -- --- ---- found<br>------ ---- ---- ------ ------ ------- --- ----- ---------<br>---- --- -------- -------- --- --- -- ------- --- --- -----<br>-- --- ------ ------- --- --- -------- ---- --------- --<br>---------- -- -------- ----------------,162604.5,162604,162107.407,162108.80000001192,162124.072,162607.432,,19,found
screen,html.Screen,0_4_1_0_1_20,2021-12-02T16:19:30.129Z,,,,,,,,,,,,,,,,11,,,,,,,,,,,,,,380.5679999999993,,response,,,4,D,,,,,Space,keypress(Space),,,,silence,----- -- ---- --- -- --- -------- ------------ ---------- --<br>- ------- ------ --------- -- ------------ -- --- ---- -----<br>carved ---- ---- ------ ------ ------- --- ----- ---------<br>---- --- -------- -------- --- --- -- ------- --- --- -----<br>-- --- ------ ------- --- --- -------- ---- --------- --<br>---------- -- -------- ----------------,162988.69999998808,162988,162590.766,162604.69999998808,162607.432,162990.703,,20,carved
screen,html.Screen,0_4_1_0_1_21,2021-12-02T16:19:30.545Z,,,,,,,,,,,,,,,,11,,,,,,,,,,,,,,413.2969999999914,,response,,,4,D,,,,,Space,keypress(Space),,,,silence,----- -- ---- --- -- --- -------- ------------ ---------- --<br>- ------- ------ --------- -- ------------ -- --- ---- -----<br>------ into ---- ------ ------ ------- --- ----- ---------<br>---- --- -------- -------- --- --- -- ------- --- --- -----<br>-- --- ------ ------- --- --- -------- ---- --------- --<br>---------- -- -------- ----------------,163404.59999996424,163404,162974.038,162988.80000001192,162990.703,163407.4,,21,into
screen,html.Screen,0_4_1_0_1_22,2021-12-02T16:19:30.905Z,,,,,,,,,,,,,,,,11,,,,,,,,,,,,,,356.49999997616396,,response,,,4,D,,,,,Space,keypress(Space),,,,silence,----- -- ---- --- -- --- -------- ------------ ---------- --<br>- ------- ------ --------- -- ------------ -- --- ---- -----<br>------ ---- many ------ ------ ------- --- ----- ---------<br>---- --- -------- -------- --- --- -- ------- --- --- -----<br>-- --- ------ ------- --- --- -------- ---- --------- --<br>---------- -- -------- ----------------,163764.59999996424,163763.89999997616,163390.734,163404.80000001192,163407.4,163773.943,,22,many
screen,html.Screen,0_4_1_0_1_23,2021-12-02T16:19:31.281Z,,,,,,,,,,,,,,,,11,,,,,,,,,,,,,,365.95699997615884,,response,,,4,D,,,,,Space,keypress(Space),,,,silence,----- -- ---- --- -- --- -------- ------------ ---------- --<br>- ------- ------ --------- -- ------------ -- --- ---- -----<br>------ ---- ---- oblong ------ ------- --- ----- ---------<br>---- --- -------- -------- --- --- -- ------- --- --- -----<br>-- --- ------ ------- --- --- -------- ---- --------- --<br>---------- -- -------- ----------------,164140.5,164139.89999997616,163757.279,163764.69999998808,163773.943,164157.414,,23,oblong
screen,html.Screen,0_4_1_0_1_24,2021-12-02T16:19:31.761Z,,,,,,,,,,,,,,,,11,,,,,,,,,,,,,,462.4859999761684,,response,,,4,D,,,,,Space,keypress(Space),,,,silence,----- -- ---- --- -- --- -------- ------------ ---------- --<br>- ------- ------ --------- -- ------------ -- --- ---- -----<br>------ ---- ---- ------ wooden ------- --- ----- ---------<br>---- --- -------- -------- --- --- -- ------- --- --- -----<br>-- --- ------ ------- --- --- -------- ---- --------- --<br>---------- -- -------- ----------------,164620.5,164619.89999997616,164140.747,164140.59999996424,164157.414,164623.971,,24,wooden
screen,html.Screen,0_4_1_0_1_25,2021-12-02T16:19:32.177Z,,,,,,,,,,,,,,,,11,,,,,,,,,,,,,,411.9289999761677,,response,,,4,D,,,,,Space,keypress(Space),,,,silence,----- -- ---- --- -- --- -------- ------------ ---------- --<br>- ------- ------ --------- -- ------------ -- --- ---- -----<br>------ ---- ---- ------ ------ tablets --- ----- ---------<br>---- --- -------- -------- --- --- -- ------- --- --- -----<br>-- --- ------ ------- --- --- -------- ---- --------- --<br>---------- -- -------- ----------------,165036.5,165035.89999997616,164607.306,164620.69999998808,164623.971,165040.595,,25,tablets
screen,html.Screen,0_4_1_0_1_26,2021-12-02T16:19:32.713Z,,,,,,,,,,,,,,,,11,,,,,,,,,,,,,,531.304999976157,,response,,,4,D,,,,,Space,keypress(Space),,,,silence,----- -- ---- --- -- --- -------- ------------ ---------- --<br>- ------- ------ --------- -- ------------ -- --- ---- -----<br>------ ---- ---- ------ ------ ------- and ----- ---------<br>---- --- -------- -------- --- --- -- ------- --- --- -----<br>-- --- ------ ------- --- --- -------- ---- --------- --<br>---------- -- -------- ----------------,165572.5,165571.89999997616,165023.93,165036.69999998808,165040.595,165573.982,,26,and
screen,html.Screen,0_4_1_0_1_27,2021-12-02T16:19:33.081Z,,,,,,,,,,,,,,,,11,,,,,,,,,,,,,,365.9179999761691,,response,,,4,D,,,,,Space,keypress(Space),,,,silence,----- -- ---- --- -- --- -------- ------------ ---------- --<br>- ------- ------ --------- -- ------------ -- --- ---- -----<br>------ ---- ---- ------ ------ ------- --- other ---------<br>---- --- -------- -------- --- --- -- ------- --- --- -----<br>-- --- ------ ------- --- --- -------- ---- --------- --<br>---------- -- -------- ----------------,165940.5,165939.89999997616,165557.316,165572.59999996424,165573.982,165957.155,,27,other
screen,html.Screen,0_4_1_0_1_28,2021-12-02T16:19:33.433Z,,,,,,,,,,,,,,,,11,,,,,,,,,,,,,,334.7449999761593,,response,,,4,D,,,,,Space,keypress(Space),,,,silence,----- -- ---- --- -- --- -------- ------------ ---------- --<br>- ------- ------ --------- -- ------------ -- --- ---- -----<br>------ ---- ---- ------ ------ ------- --- ----- artifacts<br>---- --- -------- -------- --- --- -- ------- --- --- -----<br>-- --- ------ ------- --- --- -------- ---- --------- --<br>---------- -- -------- ----------------,166292.5,166291.89999997616,165940.491,165940.59999996424,165957.155,166307.265,,28,artifacts
screen,html.Screen,0_4_1_0_1_29,2021-12-02T16:19:34.153Z,,,,,,,,,,,,,,,,11,,,,,,,,,,,,,,704.6349999761442,,response,,,4,D,,,,,Space,keypress(Space),,,,silence,----- -- ---- --- -- --- -------- ------------ ---------- --<br>- ------- ------ --------- -- ------------ -- --- ---- -----<br>------ ---- ---- ------ ------ ------- --- ----- ---------<br>from --- -------- -------- --- --- -- ------- --- --- -----<br>-- --- ------ ------- --- --- -------- ---- --------- --<br>---------- -- -------- ----------------,167012.5,167011.89999997616,166290.599,166292.69999998808,166307.265,167023.923,,29,from
screen,html.Screen,0_4_1_0_1_30,2021-12-02T16:19:34.537Z,,,,,,,,,,,,,,,,11,,,,,,,,,,,,,,371.87700001191115,,response,,,4,D,,,,,Space,keypress(Space),,,,silence,----- -- ---- --- -- --- -------- ------------ ---------- --<br>- ------- ------ --------- -- ------------ -- --- ---- -----<br>------ ---- ---- ------ ------ ------- --- ----- ---------<br>---- the -------- -------- --- --- -- ------- --- --- -----<br>-- --- ------ ------- --- --- -------- ---- --------- --<br>---------- -- -------- ----------------,167396.39999997616,167395.80000001192,167007.257,167012.69999998808,167023.923,167407.247,,30,the
screen,html.Screen,0_4_1_0_1_31,2021-12-02T16:19:34.993Z,,,,,,,,,,,,,,,,11,,,,,,,,,,,,,,444.5530000119179,,response,,,4,D,,,,,Space,keypress(Space),,,,silence,----- -- ---- --- -- --- -------- ------------ ---------- --<br>- ------- ------ --------- -- ------------ -- --- ---- -----<br>------ ---- ---- ------ ------ ------- --- ----- ---------<br>---- --- island's -------- --- --- -- ------- --- --- -----<br>-- --- ------ ------- --- --- -------- ---- --------- --<br>---------- -- -------- ----------------,167852.39999997616,167851.80000001192,167390.581,167396.5,167407.247,167857.164,,31,island's
screen,html.Screen,0_4_1_0_1_32,2021-12-02T16:19:35.369Z,,,,,,,,,,,,,,,,11,,,,,,,,,,,,,,370.6360000119312,,response,,,4,D,,,,,Space,keypress(Space),,,,silence,----- -- ---- --- -- --- -------- ------------ ---------- --<br>- ------- ------ --------- -- ------------ -- --- ---- -----<br>------ ---- ---- ------ ------ ------- --- ----- ---------<br>---- --- -------- history. --- --- -- ------- --- --- -----<br>-- --- ------ ------- --- --- -------- ---- --------- --<br>---------- -- -------- ----------------,168228.30000001192,168227.80000001192,167840.499,167852.5,167857.164,168240.59,,32,history.
screen,html.Screen,0_4_1_0_1_33,2021-12-02T16:19:35.873Z,,,,,,,,,,,,,,,,11,,,,,,,,,,,,,,491.10999998808256,,response,,,4,D,,,,,Space,keypress(Space),,,,silence,----- -- ---- --- -- --- -------- ------------ ---------- --<br>- ------- ------ --------- -- ------------ -- --- ---- -----<br>------ ---- ---- ------ ------ ------- --- ----- ---------<br>---- --- -------- -------- The --- -- ------- --- --- -----<br>-- --- ------ ------- --- --- -------- ---- --------- --<br>---------- -- -------- ----------------,168732.30000001192,168731.69999998808,168223.923,168228.5,168240.59,168740.489,,33,The
screen,html.Screen,0_4_1_0_1_34,2021-12-02T16:19:36.329Z,,,,,,,,,,,,,,,,11,,,,,,,,,,,,,,447.31100001191953,,response,,,4,D,,,,,Space,keypress(Space),,,,silence,----- -- ---- --- -- --- -------- ------------ ---------- --<br>- ------- ------ --------- -- ------------ -- --- ---- -----<br>------ ---- ---- ------ ------ ------- --- ----- ---------<br>---- --- -------- -------- --- art -- ------- --- --- -----<br>-- --- ------ ------- --- --- -------- ---- --------- --<br>---------- -- -------- ----------------,169188.30000001192,169187.80000001192,168723.824,168732.39999997616,168740.489,169190.454,,34,art
screen,html.Screen,0_4_1_0_1_35,2021-12-02T16:19:36.729Z,,,,,,,,,,,,,,,,11,,,,,,,,,,,,,,397.24599998808117,,response,,,4,D,,,,,Space,keypress(Space),,,,silence,----- -- ---- --- -- --- -------- ------------ ---------- --<br>- ------- ------ --------- -- ------------ -- --- ---- -----<br>------ ---- ---- ------ ------ ------- --- ----- ---------<br>---- --- -------- -------- --- --- of ------- --- --- -----<br>-- --- ------ ------- --- --- -------- ---- --------- --<br>---------- -- -------- ----------------,169588.30000001192,169587.69999998808,169173.789,169188.5,169190.454,169590.453,,35,of
screen,html.Screen,0_4_1_0_1_36,2021-12-02T16:19:37.105Z,,,,,,,,,,,,,,,,11,,,,,,,,,,,,,,373.24699998807046,,response,,,4,D,,,,,Space,keypress(Space),,,,silence,----- -- ---- --- -- --- -------- ------------ ---------- --<br>- ------- ------ --------- -- ------------ -- --- ---- -----<br>------ ---- ---- ------ ------ ------- --- ----- ---------<br>---- --- -------- -------- --- --- -- writing --- --- -----<br>-- --- ------ ------- --- --- -------- ---- --------- --<br>---------- -- -------- ----------------,169964.39999997616,169963.69999998808,169573.788,169588.39999997616,169590.453,169973.774,,36,writing
screen,html.Screen,0_4_1_0_1_37,2021-12-02T16:19:37.601Z,,,,,,,,,,,,,,,,11,,,,,,,,,,,,,,485.9259999880742,,response,,,4,D,,,,,Space,keypress(Space),,,,silence,----- -- ---- --- -- --- -------- ------------ ---------- --<br>- ------- ------ --------- -- ------------ -- --- ---- -----<br>------ ---- ---- ------ ------ ------- --- ----- ---------<br>---- --- -------- -------- --- --- -- ------- was --- -----<br>-- --- ------ ------- --- --- -------- ---- --------- --<br>---------- -- -------- ----------------,170460.30000001192,170459.69999998808,169957.109,169964.5,169973.774,170473.748,,37,was
screen,html.Screen,0_4_1_0_1_38,2021-12-02T16:19:37.952Z,,,,,,,,,,,,,,,,11,,,,,,,,,,,,,,337.8519999642449,,response,,,4,D,,,,,Space,keypress(Space),,,,silence,----- -- ---- --- -- --- -------- ------------ ---------- --<br>- ------- ------ --------- -- ------------ -- --- ---- -----<br>------ ---- ---- ------ ------ ------- --- ----- ---------<br>---- --- -------- -------- --- --- -- ------- --- not -----<br>-- --- ------ ------- --- --- -------- ---- --------- --<br>---------- -- -------- ----------------,170812.30000001192,170811.59999996424,170457.083,170460.5,170473.748,170823.71,,38,not
screen,html.Screen,0_4_1_0_1_39,2021-12-02T16:19:38.345Z,,,,,,,,,,,,,,,,11,,,,,,,,,,,,,,379.9899999880872,,response,,,4,D,,,,,Space,keypress(Space),,,,silence,----- -- ---- --- -- --- -------- ------------ ---------- --<br>- ------- ------ --------- -- ------------ -- --- ---- -----<br>------ ---- ---- ------ ------ ------- --- ----- ---------<br>---- --- -------- -------- --- --- -- ------- --- --- known<br>-- --- ------ ------- --- --- -------- ---- --------- --<br>---------- -- -------- ----------------,171204.30000001192,171203.69999998808,170807.045,170812.30000001192,170823.71,171207.011,,39,known
screen,html.Screen,0_4_1_0_1_40,2021-12-02T16:19:38.712Z,,,,,,,,,,,,,,,,11,,,,,,,,,,,,,,364.5889999642386,,response,,,4,D,,,,,Space,keypress(Space),,,,silence,----- -- ---- --- -- --- -------- ------------ ---------- --<br>- ------- ------ --------- -- ------------ -- --- ---- -----<br>------ ---- ---- ------ ------ ------- --- ----- ---------<br>---- --- -------- -------- --- --- -- ------- --- --- -----<br>in --- ------ ------- --- --- -------- ---- --------- --<br>---------- -- -------- ----------------,171572.19999998808,171571.59999996424,171190.346,171204.5,171207.011,171573.771,,40,in
screen,html.Screen,0_4_1_0_1_41,2021-12-02T16:19:39.121Z,,,,,,,,,,,,,,,,11,,,,,,,,,,,,,,406.1289999761502,,response,,,4,D,,,,,Space,keypress(Space),,,,silence,----- -- ---- --- -- --- -------- ------------ ---------- --<br>- ------- ------ --------- -- ------------ -- --- ---- -----<br>------ ---- ---- ------ ------ ------- --- ----- ---------<br>---- --- -------- -------- --- --- -- ------- --- --- -----<br>-- any ------ ------- --- --- -------- ---- --------- --<br>---------- -- -------- ----------------,171980.5,171979.89999997616,171557.104,171572.39999997616,171573.771,171990.451,,41,any
screen,html.Screen,0_4_1_0_1_42,2021-12-02T16:19:39.456Z,,,,,,,,,,,,,,,,11,,,,,,,,,,,,,,325.04899999999907,,response,,,4,D,,,,,Space,keypress(Space),,,,silence,----- -- ---- --- -- --- -------- ------------ ---------- --<br>- ------- ------ --------- -- ------------ -- --- ---- -----<br>------ ---- ---- ------ ------ ------- --- ----- ---------<br>---- --- -------- -------- --- --- -- ------- --- --- -----<br>-- --- nearby ------- --- --- -------- ---- --------- --<br>---------- -- -------- ----------------,172316.09999996424,172315.5,171973.784,171980.59999996424,171990.451,172323.702,,42,nearby
screen,html.Screen,0_4_1_0_1_43,2021-12-02T16:19:39.969Z,,,,,,,,,,,,,,,,11,,,,,,,,,,,,,,503.99799998808885,,response,,,4,D,,,,,Space,keypress(Space),,,,silence,----- -- ---- --- -- --- -------- ------------ ---------- --<br>- ------- ------ --------- -- ------------ -- --- ---- -----<br>------ ---- ---- ------ ------ ------- --- ----- ---------<br>---- --- -------- -------- --- --- -- ------- --- --- -----<br>-- --- ------ islands --- --- -------- ---- --------- --<br>---------- -- -------- ----------------,172828.30000001192,172827.69999998808,172307.037,172316.30000001192,172323.702,172840.32,,43,islands
screen,html.Screen,0_4_1_0_1_44,2021-12-02T16:19:40.392Z,,,,,,,,,,,,,,,,11,,,,,,,,,,,,,,411.2799999642302,,response,,,4,D,,,,,Space,keypress(Space),,,,silence,----- -- ---- --- -- --- -------- ------------ ---------- --<br>- ------- ------ --------- -- ------------ -- --- ---- -----<br>------ ---- ---- ------ ------ ------- --- ----- ---------<br>---- --- -------- -------- --- --- -- ------- --- --- -----<br>-- --- ------ ------- and --- -------- ---- --------- --<br>---------- -- -------- ----------------,173252.09999996424,173251.59999996424,172823.655,172828.5,172840.32,173257.047,,44,and
screen,html.Screen,0_4_1_0_1_45,2021-12-02T16:19:40.712Z,,,,,,,,,,,,,,,,11,,,,,,,,,,,,,,314.4530000000086,,response,,,4,D,,,,,Space,keypress(Space),,,,silence,----- -- ---- --- -- --- -------- ------------ ---------- --<br>- ------- ------ --------- -- ------------ -- --- ---- -----<br>------ ---- ---- ------ ------ ------- --- ----- ---------<br>---- --- -------- -------- --- --- -- ------- --- --- -----<br>-- --- ------ ------- --- the -------- ---- --------- --<br>---------- -- -------- ----------------,173572.09999996424,173571.5,173240.381,173252.30000001192,173257.047,173573.637,,45,the
screen,html.Screen,0_4_1_0_1_46,2021-12-02T16:19:41.104Z,,,,,,,,,,,,,,,,11,,,,,,,,,,,,,,389.9629999642493,,response,,,4,D,,,,,Space,keypress(Space),,,,silence,----- -- ---- --- -- --- -------- ------------ ---------- --<br>- ------- ------ --------- -- ------------ -- --- ---- -----<br>------ ---- ---- ------ ------ ------- --- ----- ---------<br>---- --- -------- -------- --- --- -- ------- --- --- -----<br>-- --- ------ ------- --- --- script's ---- --------- --<br>---------- -- -------- ----------------,173964.19999998808,173963.59999996424,173556.972,173572.30000001192,173573.637,173973.654,,46,script's
screen,html.Screen,0_4_1_0_1_47,2021-12-02T16:19:41.520Z,,,,,,,,,,,,,,,,11,,,,,,,,,,,,,,405.84599999999045,,response,,,4,D,,,,,Space,keypress(Space),,,,silence,----- -- ---- --- -- --- -------- ------------ ---------- --<br>- ------- ------ --------- -- ------------ -- --- ---- -----<br>------ ---- ---- ------ ------ ------- --- ----- ---------<br>---- --- -------- -------- --- --- -- ------- --- --- -----<br>-- --- ------ ------- --- --- -------- mere --------- --<br>---------- -- -------- ----------------,174380.09999996424,174379.5,173956.988,173964.39999997616,173973.654,174390.257,,47,mere
screen,html.Screen,0_4_1_0_1_48,2021-12-02T16:19:42.008Z,,,,,,,,,,,,,,,,11,,,,,,,,,,,,,,477.24299999998766,,response,,,4,D,,,,,Space,keypress(Space),,,,silence,----- -- ---- --- -- --- -------- ------------ ---------- --<br>- ------- ------ --------- -- ------------ -- --- ---- -----<br>------ ---- ---- ------ ------ ------- --- ----- ---------<br>---- --- -------- -------- --- --- -- ------- --- --- -----<br>-- --- ------ ------- --- --- -------- ---- existence --<br>---------- -- -------- ----------------,174868.19999998808,174867.5,174373.592,174380.30000001192,174390.257,174873.634,,48,existence
screen,html.Screen,0_4_1_0_1_49,2021-12-02T16:19:42.432Z,,,,,,,,,,,,,,,,11,,,,,,,,,,,,,,417.8660000000091,,response,,,4,D,,,,,Space,keypress(Space),,,,silence,----- -- ---- --- -- --- -------- ------------ ---------- --<br>- ------- ------ --------- -- ------------ -- --- ---- -----<br>------ ---- ---- ------ ------ ------- --- ----- ---------<br>---- --- -------- -------- --- --- -- ------- --- --- -----<br>-- --- ------ ------- --- --- -------- ---- --------- is<br>---------- -- -------- ----------------,175292.19999998808,175291.5,174856.968,174868.30000001192,174873.634,175306.895,,49,is
screen,html.Screen,0_4_1_0_1_50,2021-12-02T16:19:43.376Z,,,,,,,,,,,,,,,,11,,,,,,,,,,,,,,928.7049999642477,,response,,,4,D,,,,,Space,keypress(Space),,,,silence,----- -- ---- --- -- --- -------- ------------ ---------- --<br>- ------- ------ --------- -- ------------ -- --- ---- -----<br>------ ---- ---- ------ ------ ------- --- ----- ---------<br>---- --- -------- -------- --- --- -- ------- --- --- -----<br>-- --- ------ ------- --- --- -------- ---- --------- --<br>sufficient -- -------- ----------------,176236.19999998808,176235.59999996424,175290.23,175292.30000001192,175306.895,176240.24,,50,sufficient
screen,html.Screen,0_4_1_0_1_51,2021-12-02T16:19:43.768Z,,,,,,,,,,,,,,,,11,,,,,,,,,,,,,,387.15999997616746,,response,,,4,D,,,,,Space,keypress(Space),,,,silence,----- -- ---- --- -- --- -------- ------------ ---------- --<br>- ------- ------ --------- -- ------------ -- --- ---- -----<br>------ ---- ---- ------ ------ ------- --- ----- ---------<br>---- --- -------- -------- --- --- -- ------- --- --- -----<br>-- --- ------ ------- --- --- -------- ---- --------- --<br>---------- to -------- ----------------,176628,176627.39999997616,176223.574,176236.30000001192,176240.24,176640.23,,51,to
