sender,sender_type,sender_id,timestamp,meta,,Blues,Classical,Country,Dance,Electronic,Folk,Gospel,Hip-Hop,Jazz,Latin,Musical/Film,New-age,Pop,Provo_ID,R&B,Rap,Reggae,Religious,Rock,Soul,Swing,Traditional,age,artist_name,correct,correctResponse,distraction,duration,education,ended_on,familiarity,gender,item,list,music_frequency,offensiveness,pleasantness,preference,response,response_action,snippet_file,song_name,song_rating,sound,text,time_commit,time_end,time_render,time_run,time_show,time_switch,url,word,word_ID
Instructions,html.Page,0_0,2021-12-03T13:20:11.447Z,"{""labjs_version"":""20.2.3"",""labjs_build"":{""flavor"":""production"",""commit"":""7ea907d66ca8aeef8054924ca5d82ffbe11e34e5""},""location"":""https://run.pavlovia.org/mvasilev/lab_music_e/"",""userAgent"":""Mozilla/5.0 (Windows NT 6.1; Win64; x64) AppleWebKit/537.36 (KHTML, like Gecko) Chrome/96.0.4664.45 Safari/537.36"",""platform"":""Win32"",""language"":""en-US"",""locale"":""en-US"",""timeZone"":""Europe/London"",""timezoneOffset"":0,""screen_width"":1920,""screen_height"":1080,""scroll_width"":1920,""scroll_height"":959,""window_innerWidth"":1920,""window_innerHeight"":1007,""devicePixelRatio"":1}",,,,,,,,,,,,,,,,,,,,,,,,,,,,,31573.506,,form submission,,,,,,,,,,,,,,,,63393.70000000298,63392.5,31785.654,31799,31818.994,63389.765,{},,
Headphones,html.Page,0_1,2021-12-03T13:20:15.537Z,,,,,,,,,,,,,,,,,,,,,,,,,,,,,,4092.8350000089413,,form submission,,,,,,,,,,,,,,,,67483.10000000894,67482.60000000894,63373.047,63394.40000000596,63389.765,67496.555,,,
Holding screen,html.Screen,0_2_0_0,2021-12-03T13:20:25.543Z,,,,,,,,,,,,,,,,,,,,,,,,,,,,,,10002.81300000001,,timeout,,,,,,,,,,,,,,,,77489.10000000894,77482.699,67479.886,67483.79999999702,67496.555,77499.368,,,
screen,html.Screen,0_2_0_1_0,2021-12-03T13:20:26.353Z,,,,,,,,,,,,,,,,53,,,,,,,,,,,,,,798.2320000089385,,response,,,99,,,,,,Space,keypress(Space),,,,,When -- ----- -- ------ - ------- --- ----------<br>------------- ------ ------ ---- ---- ------- ----- -- ----<br>-------- ------- -- ---------- --- - --- ----- ----- ----<br>---- --- --- ----- --- ---- ---- ------- ----- ---- -------<br>--- --- -- ----- -- --- ---- -- --- ---- -- ------ ------<br>--- ----- -- ----,78299.20000000298,78297.60000000894,77482.699,77489.5,77499.368,78299.877,,0,When
screen,html.Screen,0_2_0_1_1,2021-12-03T13:20:26.991Z,,,,,,,,,,,,,,,,53,,,,,,,,,,,,,,637.0230000059673,,response,,,99,,,,,,Space,keypress(Space),,,,,---- it ----- -- ------ - ------- --- ----------<br>------------- ------ ------ ---- ---- ------- ----- -- ----<br>-------- ------- -- ---------- --- - --- ----- ----- ----<br>---- --- --- ----- --- ---- ---- ------- ----- ---- -------<br>--- --- -- ----- -- --- ---- -- --- ---- -- ------ ------<br>--- ----- -- ----,78937.79999999702,78936.90000000596,78283.206,78299.5,78299.877,78950.021,,1,it
screen,html.Screen,0_2_0_1_2,2021-12-03T13:20:27.591Z,,,,,,,,,,,,,,,,53,,,,,,,,,,,,,,586.8790000059671,,response,,,99,,,,,,Space,keypress(Space),,,,,---- -- comes -- ------ - ------- --- ----------<br>------------- ------ ------ ---- ---- ------- ----- -- ----<br>-------- ------- -- ---------- --- - --- ----- ----- ----<br>---- --- --- ----- --- ---- ---- ------- ----- ---- -------<br>--- --- -- ----- -- --- ---- -- --- ---- -- ------ ------<br>--- ----- -- ----,79537.79999999702,79536.90000000596,78933.351,78938.10000000894,78950.021,79550.187,,2,comes
screen,html.Screen,0_2_0_1_3,2021-12-03T13:20:28.079Z,,,,,,,,,,,,,,,,53,,,,,,,,,,,,,,474.7130000059551,,response,,,99,,,,,,Space,keypress(Space),,,,,---- -- ----- to ------ - ------- --- ----------<br>------------- ------ ------ ---- ---- ------- ----- -- ----<br>-------- ------- -- ---------- --- - --- ----- ----- ----<br>---- --- --- ----- --- ---- ---- ------- ----- ---- -------<br>--- --- -- ----- -- --- ---- -- --- ---- -- ------ ------<br>--- ----- -- ----,80025.79999999702,80024.90000000596,79533.517,79538.10000000894,79550.187,80033.617,,3,to
screen,html.Screen,0_2_0_1_4,2021-12-03T13:20:28.671Z,,,,,,,,,,,,,,,,53,,,,,,,,,,,,,,583.2830000059621,,response,,,99,,,,,,Space,keypress(Space),,,,,---- -- ----- -- having - ------- --- ----------<br>------------- ------ ------ ---- ---- ------- ----- -- ----<br>-------- ------- -- ---------- --- - --- ----- ----- ----<br>---- --- --- ----- --- ---- ---- ------- ----- ---- -------<br>--- --- -- ----- -- --- ---- -- --- ---- -- ------ ------<br>--- ----- -- ----,80618,80616.90000000596,80016.947,80026.29999999702,80033.617,80633.85,,4,having
screen,html.Screen,0_2_0_1_5,2021-12-03T13:20:29.079Z,,,,,,,,,,,,,,,,53,,,,,,,,,,,,,,390.94999999701395,,response,,,99,,,,,,Space,keypress(Space),,,,,---- -- ----- -- ------ a ------- --- ----------<br>------------- ------ ------ ---- ---- ------- ----- -- ----<br>-------- ------- -- ---------- --- - --- ----- ----- ----<br>---- --- --- ----- --- ---- ---- ------- ----- ---- -------<br>--- --- -- ----- -- --- ---- -- --- ---- -- ------ ------<br>--- ----- -- ----,81025.60000000894,81024.79999999702,80617.179,80618.29999999702,80633.85,81033.924,,5,a
screen,html.Screen,0_2_0_1_6,2021-12-03T13:20:29.759Z,,,,,,,,,,,,,,,,53,,,,,,,,,,,,,,670.8759999970207,,response,,,99,,,,,,Space,keypress(Space),,,,,---- -- ----- -- ------ - lasting --- ----------<br>------------- ------ ------ ---- ---- ------- ----- -- ----<br>-------- ------- -- ---------- --- - --- ----- ----- ----<br>---- --- --- ----- --- ---- ---- ------- ----- ---- -------<br>--- --- -- ----- -- --- ---- -- --- ---- -- ------ ------<br>--- ----- -- ----,81705.70000000298,81704.79999999702,81017.254,81026.20000000298,81033.924,81717.392,,6,lasting
screen,html.Screen,0_2_0_1_7,2021-12-03T13:20:30.319Z,,,,,,,,,,,,,,,,53,,,,,,,,,,,,,,547.4079999970127,,response,,,99,,,,,,Space,keypress(Space),,,,,---- -- ----- -- ------ - ------- and ----------<br>------------- ------ ------ ---- ---- ------- ----- -- ----<br>-------- ------- -- ---------- --- - --- ----- ----- ----<br>---- --- --- ----- --- ---- ---- ------- ----- ---- -------<br>--- --- -- ----- -- --- ---- -- --- ---- -- ------ ------<br>--- ----- -- ----,82265.79999999702,82264.79999999702,81700.722,81706.10000000894,81717.392,82267.573,,7,and
screen,html.Screen,0_2_0_1_8,2021-12-03T13:20:30.959Z,,,,,,,,,,,,,,,,53,,,,,,,,,,,,,,637.2269999970158,,response,,,99,,,,,,Space,keypress(Space),,,,,---- -- ----- -- ------ - ------- --- fulfilling<br>------------- ------ ------ ---- ---- ------- ----- -- ----<br>-------- ------- -- ---------- --- - --- ----- ----- ----<br>---- --- --- ----- --- ---- ---- ------- ----- ---- -------<br>--- --- -- ----- -- --- ---- -- --- ---- -- ------ ------<br>--- ----- -- ----,82905.79999999702,82904.79999999702,82250.903,82266,82267.573,82917.738,,8,fulfilling
screen,html.Screen,0_2_0_1_9,2021-12-03T13:20:31.687Z,,,,,,,,,,,,,,,,53,,,,,,,,,,,,,,714.9620000029827,,response,,,99,,,,,,Space,keypress(Space),,,,,"---- -- ----- -- ------ - ------- --- ----------<br>relationship, ------ ------ ---- ---- ------- ----- -- ----<br>-------- ------- -- ---------- --- - --- ----- ----- ----<br>---- --- --- ----- --- ---- ---- ------- ----- ---- -------<br>--- --- -- ----- -- --- ---- -- --- ---- -- ------ ------<br>--- ----- -- ----",83633.60000000894,83632.70000000298,82901.068,82906.10000000894,82917.738,83634.595,,9,"relationship,"
screen,html.Screen,0_2_0_1_10,2021-12-03T13:20:32.247Z,,,,,,,,,,,,,,,,53,,,,,,,,,,,,,,558.1050000029791,,response,,,99,,,,,,Space,keypress(Space),,,,,---- -- ----- -- ------ - ------- --- ----------<br>------------- common ------ ---- ---- ------- ----- -- ----<br>-------- ------- -- ---------- --- - --- ----- ----- ----<br>---- --- --- ----- --- ---- ---- ------- ----- ---- -------<br>--- --- -- ----- -- --- ---- -- --- ---- -- ------ ------<br>--- ----- -- ----,84193.60000000894,84192.70000000298,83617.925,83633.90000000596,83634.595,84201.428,,10,common
screen,html.Screen,0_2_0_1_11,2021-12-03T13:20:32.903Z,,,,,,,,,,,,,,,,53,,,,,,,,,,,,,,647.1720000089408,,response,,,99,,,,,,Space,keypress(Space),,,,,---- -- ----- -- ------ - ------- --- ----------<br>------------- ------ wisdom ---- ---- ------- ----- -- ----<br>-------- ------- -- ---------- --- - --- ----- ----- ----<br>---- --- --- ----- --- ---- ---- ------- ----- ---- -------<br>--- --- -- ----- -- --- ---- -- --- ---- -- ------ ------<br>--- ----- -- ----,84849.5,84848.60000000894,84184.758,84193.90000000596,84201.428,84851.574,,11,wisdom
screen,html.Screen,0_2_0_1_12,2021-12-03T13:20:33.487Z,,,,,,,,,,,,,,,,53,,,,,,,,,,,,,,581.126000002987,,response,,,99,,,,,,Space,keypress(Space),,,,,---- -- ----- -- ------ - ------- --- ----------<br>------------- ------ ------ says ---- ------- ----- -- ----<br>-------- ------- -- ---------- --- - --- ----- ----- ----<br>---- --- --- ----- --- ---- ---- ------- ----- ---- -------<br>--- --- -- ----- -- --- ---- -- --- ---- -- ------ ------<br>--- ----- -- ----,85433.5,85432.70000000298,84834.904,84849.79999999702,84851.574,85435.08,,12,says
screen,html.Screen,0_2_0_1_13,2021-12-03T13:20:34.015Z,,,,,,,,,,,,,,,,53,,,,,,,,,,,,,,525.6200000029785,,response,,,99,,,,,,Space,keypress(Space),,,,,---- -- ----- -- ------ - ------- --- ----------<br>------------- ------ ------ ---- that ------- ----- -- ----<br>-------- ------- -- ---------- --- - --- ----- ----- ----<br>---- --- --- ----- --- ---- ---- ------- ----- ---- -------<br>--- --- -- ----- -- --- ---- -- --- ---- -- ------ ------<br>--- ----- -- ----,85961.40000000596,85960.70000000298,85418.41,85433.70000000298,85435.08,85968.555,,13,that
screen,html.Screen,0_2_0_1_14,2021-12-03T13:20:34.567Z,,,,,,,,,,,,,,,,53,,,,,,,,,,,,,,544.0450000089477,,response,,,99,,,,,,Space,keypress(Space),,,,,---- -- ----- -- ------ - ------- --- ----------<br>------------- ------ ------ ---- ---- feeling ----- -- ----<br>-------- ------- -- ---------- --- - --- ----- ----- ----<br>---- --- --- ----- --- ---- ---- ------- ----- ---- -------<br>--- --- -- ----- -- --- ---- -- --- ---- -- ------ ------<br>--- ----- -- ----,86513.40000000596,86512.60000000894,85951.885,85961.70000000298,85968.555,86518.753,,14,feeling
screen,html.Screen,0_2_0_1_15,2021-12-03T13:20:35.103Z,,,,,,,,,,,,,,,,53,,,,,,,,,,,,,,529.8470000089437,,response,,,99,,,,,,Space,keypress(Space),,,,,---- -- ----- -- ------ - ------- --- ----------<br>------------- ------ ------ ---- ---- ------- close -- ----<br>-------- ------- -- ---------- --- - --- ----- ----- ----<br>---- --- --- ----- --- ---- ---- ------- ----- ---- -------<br>--- --- -- ----- -- --- ---- -- --- ---- -- ------ ------<br>--- ----- -- ----,87049.40000000596,87048.60000000894,86502.082,86513.60000000894,86518.753,87052.162,,15,close
screen,html.Screen,0_2_0_1_16,2021-12-03T13:20:35.519Z,,,,,,,,,,,,,,,,53,,,,,,,,,,,,,,412.3380000000034,,response,,,99,,,,,,Space,keypress(Space),,,,,---- -- ----- -- ------ - ------- --- ----------<br>------------- ------ ------ ---- ---- ------- ----- to ----<br>-------- ------- -- ---------- --- - --- ----- ----- ----<br>---- --- --- ----- --- ---- ---- ------- ----- ---- -------<br>--- --- -- ----- -- --- ---- -- --- ---- -- ------ ------<br>--- ----- -- ----,87465.40000000596,87464.5,87035.492,87049.70000000298,87052.162,87468.964,,16,to
screen,html.Screen,0_2_0_1_17,2021-12-03T13:20:36.103Z,,,,,,,,,,,,,,,,53,,,,,,,,,,,,,,579.4360000059532,,response,,,99,,,,,,Space,keypress(Space),,,,,---- -- ----- -- ------ - ------- --- ----------<br>------------- ------ ------ ---- ---- ------- ----- -- your<br>-------- ------- -- ---------- --- - --- ----- ----- ----<br>---- --- --- ----- --- ---- ---- ------- ----- ---- -------<br>--- --- -- ----- -- --- ---- -- --- ---- -- ------ ------<br>--- ----- -- ----,88049.20000000298,88048.40000000596,87452.294,87465.60000000894,87468.964,88052.496,,17,your
screen,html.Screen,0_2_0_1_18,2021-12-03T13:20:36.735Z,,,,,,,,,,,,,,,,53,,,,,,,,,,,,,,628.3039999970206,,response,,,99,,,,,,Space,keypress(Space),,,,,---- -- ----- -- ------ - ------- --- ----------<br>------------- ------ ------ ---- ---- ------- ----- -- ----<br>romantic ------- -- ---------- --- - --- ----- ----- ----<br>---- --- --- ----- --- ---- ---- ------- ----- ---- -------<br>--- --- -- ----- -- --- ---- -- --- ---- -- ------ ------<br>--- ----- -- ----,88681.60000000894,88680.79999999702,88035.825,88049.40000000596,88052.496,88685.917,,18,romantic
screen,html.Screen,0_2_0_1_19,2021-12-03T13:20:37.327Z,,,,,,,,,,,,,,,,53,,,,,,,,,,,,,,586.5829999999987,,response,,,99,,,,,,Space,keypress(Space),,,,,---- -- ----- -- ------ - ------- --- ----------<br>------------- ------ ------ ---- ---- ------- ----- -- ----<br>-------- partner -- ---------- --- - --- ----- ----- ----<br>---- --- --- ----- --- ---- ---- ------- ----- ---- -------<br>--- --- -- ----- -- --- ---- -- --- ---- -- ------ ------<br>--- ----- -- ----,89273.29999999702,89272.5,88669.247,88681.79999999702,88685.917,89286.153,,19,partner
screen,html.Screen,0_2_0_1_20,2021-12-03T13:20:37.799Z,,,,,,,,,,,,,,,,53,,,,,,,,,,,,,,458.3469999999943,,response,,,99,,,,,,Space,keypress(Space),,,,,---- -- ----- -- ------ - ------- --- ----------<br>------------- ------ ------ ---- ---- ------- ----- -- ----<br>-------- ------- is ---------- --- - --- ----- ----- ----<br>---- --- --- ----- --- ---- ---- ------- ----- ---- -------<br>--- --- -- ----- -- --- ---- -- --- ---- -- ------ ------<br>--- ----- -- ----,89745.29999999702,89744.5,89269.482,89273.60000000894,89286.153,89752.912,,20,is
screen,html.Screen,0_2_0_1_21,2021-12-03T13:20:38.639Z,,,,,,,,,,,,,,,,53,,,,,,,,,,,,,,831.4880000059638,,response,,,99,,,,,,Space,keypress(Space),,,,,---- -- ----- -- ------ - ------- --- ----------<br>------------- ------ ------ ---- ---- ------- ----- -- ----<br>-------- ------- -- paramount. --- - --- ----- ----- ----<br>---- --- --- ----- --- ---- ---- ------- ----- ---- -------<br>--- --- -- ----- -- --- ---- -- --- ---- -- ------ ------<br>--- ----- -- ----,90585.20000000298,90584.40000000596,89736.242,89745.5,89752.912,90586.407,,21,paramount.
screen,html.Screen,0_2_0_1_22,2021-12-03T13:20:39.151Z,,,,,,,,,,,,,,,,53,,,,,,,,,,,,,,509.89299999701325,,response,,,99,,,,,,Space,keypress(Space),,,,,---- -- ----- -- ------ - ------- --- ----------<br>------------- ------ ------ ---- ---- ------- ----- -- ----<br>-------- ------- -- ---------- But - --- ----- ----- ----<br>---- --- --- ----- --- ---- ---- ------- ----- ---- -------<br>--- --- -- ----- -- --- ---- -- --- ---- -- ------ ------<br>--- ----- -- ----,91097.20000000298,91096.29999999702,90569.737,90585.60000000894,90586.407,91103.263,,22,But
screen,html.Screen,0_2_0_1_23,2021-12-03T13:20:39.703Z,,,,,,,,,,,,,,,,53,,,,,,,,,,,,,,545.0369999970135,,response,,,99,,,,,,Space,keypress(Space),,,,,---- -- ----- -- ------ - ------- --- ----------<br>------------- ------ ------ ---- ---- ------- ----- -- ----<br>-------- ------- -- ---------- --- a --- ----- ----- ----<br>---- --- --- ----- --- ---- ---- ------- ----- ---- -------<br>--- --- -- ----- -- --- ---- -- --- ---- -- ------ ------<br>--- ----- -- ----,91649.10000000894,91648.29999999702,91086.593,91097.40000000596,91103.263,91653.409,,23,a
screen,html.Screen,0_2_0_1_24,2021-12-03T13:20:40.151Z,,,,,,,,,,,,,,,,53,,,,,,,,,,,,,,442.8909999970201,,response,,,99,,,,,,Space,keypress(Space),,,,,---- -- ----- -- ------ - ------- --- ----------<br>------------- ------ ------ ---- ---- ------- ----- -- ----<br>-------- ------- -- ---------- --- - new ----- ----- ----<br>---- --- --- ----- --- ---- ---- ------- ----- ---- -------<br>--- --- -- ----- -- --- ---- -- --- ---- -- ------ ------<br>--- ----- -- ----,92097,92096.29999999702,91636.739,91649.40000000596,91653.409,92103.478,,24,new
screen,html.Screen,0_2_0_1_25,2021-12-03T13:20:40.710Z,,,,,,,,,,,,,,,,53,,,,,,,,,,,,,,552.821999997017,,response,,,99,,,,,,Space,keypress(Space),,,,,---- -- ----- -- ------ - ------- --- ----------<br>------------- ------ ------ ---- ---- ------- ----- -- ----<br>-------- ------- -- ---------- --- - --- study ----- ----<br>---- --- --- ----- --- ---- ---- ------- ----- ---- -------<br>--- --- -- ----- -- --- ---- -- --- ---- -- ------ ------<br>--- ----- -- ----,92657,92656.29999999702,92086.808,92097.29999999702,92103.478,92670.322,,25,study
screen,html.Screen,0_2_0_1_26,2021-12-03T13:20:41.207Z,,,,,,,,,,,,,,,,53,,,,,,,,,,,,,,481.97799999701965,,response,,,99,,,,,,Space,keypress(Space),,,,,---- -- ----- -- ------ - ------- --- ----------<br>------------- ------ ------ ---- ---- ------- ----- -- ----<br>-------- ------- -- ---------- --- - --- ----- finds ----<br>---- --- --- ----- --- ---- ---- ------- ----- ---- -------<br>--- --- -- ----- -- --- ---- -- --- ---- -- ------ ------<br>--- ----- -- ----,93153.10000000894,93152.29999999702,92653.652,92657.29999999702,92670.322,93170.507,,26,finds
screen,html.Screen,0_2_0_1_27,2021-12-03T13:20:41.727Z,,,,,,,,,,,,,,,,53,,,,,,,,,,,,,,501.792999997022,,response,,,99,,,,,,Space,keypress(Space),,,,,---- -- ----- -- ------ - ------- --- ----------<br>------------- ------ ------ ---- ---- ------- ----- -- ----<br>-------- ------- -- ---------- --- - --- ----- ----- that<br>---- --- --- ----- --- ---- ---- ------- ----- ---- -------<br>--- --- -- ----- -- --- ---- -- --- ---- -- ------ ------<br>--- ----- -- ----,93673,93672.29999999702,93153.836,93153.40000000596,93170.507,93687.318,,27,that
screen,html.Screen,0_2_0_1_28,2021-12-03T13:20:42.247Z,,,,,,,,,,,,,,,,53,,,,,,,,,,,,,,504.88200000298093,,response,,,99,,,,,,Space,keypress(Space),,,,,---- -- ----- -- ------ - ------- --- ----------<br>------------- ------ ------ ---- ---- ------- ----- -- ----<br>-------- ------- -- ---------- --- - --- ----- ----- ----<br>it's --- --- ----- --- ---- ---- ------- ----- ---- -------<br>--- --- -- ----- -- --- ---- -- --- ---- -- ------ ------<br>--- ----- -- ----,94193.10000000894,94192.20000000298,93670.647,93673.29999999702,93687.318,94204.085,,28,it's
screen,html.Screen,0_2_0_1_29,2021-12-03T13:20:42.718Z,,,,,,,,,,,,,,,,53,,,,,,,,,,,,,,460.11500000297383,,response,,,99,,,,,,Space,keypress(Space),,,,,---- -- ----- -- ------ - ------- --- ----------<br>------------- ------ ------ ---- ---- ------- ----- -- ----<br>-------- ------- -- ---------- --- - --- ----- ----- ----<br>---- not --- ----- --- ---- ---- ------- ----- ---- -------<br>--- --- -- ----- -- --- ---- -- --- ---- -- ------ ------<br>--- ----- -- ----,94665,94664.20000000298,94187.415,94193.29999999702,94204.085,94670.882,,29,not
screen,html.Screen,0_2_0_1_30,2021-12-03T13:20:43.238Z,,,,,,,,,,,,,,,,53,,,,,,,,,,,,,,513.3180000029824,,response,,,99,,,,,,Space,keypress(Space),,,,,---- -- ----- -- ------ - ------- --- ----------<br>------------- ------ ------ ---- ---- ------- ----- -- ----<br>-------- ------- -- ---------- --- - --- ----- ----- ----<br>---- --- how ----- --- ---- ---- ------- ----- ---- -------<br>--- --- -- ----- -- --- ---- -- --- ---- -- ------ ------<br>--- ----- -- ----,95185,95184.20000000298,94654.212,94665.29999999702,94670.882,95187.654,,30,how
screen,html.Screen,0_2_0_1_31,2021-12-03T13:20:43.726Z,,,,,,,,,,,,,,,,53,,,,,,,,,,,,,,484.54600000298524,,response,,,99,,,,,,Space,keypress(Space),,,,,---- -- ----- -- ------ - ------- --- ----------<br>------------- ------ ------ ---- ---- ------- ----- -- ----<br>-------- ------- -- ---------- --- - --- ----- ----- ----<br>---- --- --- close --- ---- ---- ------- ----- ---- -------<br>--- --- -- ----- -- --- ---- -- --- ---- -- ------ ------<br>--- ----- -- ----,95673,95672.20000000298,95170.984,95185.29999999702,95187.654,95687.865,,31,close
screen,html.Screen,0_2_0_1_32,2021-12-03T13:20:44.222Z,,,,,,,,,,,,,,,,53,,,,,,,,,,,,,,480.335000002975,,response,,,99,,,,,,Space,keypress(Space),,,,,---- -- ----- -- ------ - ------- --- ----------<br>------------- ------ ------ ---- ---- ------- ----- -- ----<br>-------- ------- -- ---------- --- - --- ----- ----- ----<br>---- --- --- ----- you ---- ---- ------- ----- ---- -------<br>--- --- -- ----- -- --- ---- -- --- ---- -- ------ ------<br>--- ----- -- ----,96169,96168.20000000298,95671.194,95673.20000000298,95687.865,96171.262,,32,you
screen,html.Screen,0_2_0_1_33,2021-12-03T13:20:44.678Z,,,,,,,,,,,,,,,,53,,,,,,,,,,,,,,452.83800000893825,,response,,,99,,,,,,Space,keypress(Space),,,,,---- -- ----- -- ------ - ------- --- ----------<br>------------- ------ ------ ---- ---- ------- ----- -- ----<br>-------- ------- -- ---------- --- - --- ----- ----- ----<br>---- --- --- ----- --- feel ---- ------- ----- ---- -------<br>--- --- -- ----- -- --- ---- -- --- ---- -- ------ ------<br>--- ----- -- ----,96624.90000000596,96624.10000000894,96154.592,96169.20000000298,96171.262,96638.111,,33,feel
screen,html.Screen,0_2_0_1_34,2021-12-03T13:20:45.182Z,,,,,,,,,,,,,,,,53,,,,,,,,,,,,,,489.9890000089363,,response,,,99,,,,,,Space,keypress(Space),,,,,---- -- ----- -- ------ - ------- --- ----------<br>------------- ------ ------ ---- ---- ------- ----- -- ----<br>-------- ------- -- ---------- --- - --- ----- ----- ----<br>---- --- --- ----- --- ---- that ------- ----- ---- -------<br>--- --- -- ----- -- --- ---- -- --- ---- -- ------ ------<br>--- ----- -- ----,97128.90000000596,97128.10000000894,96621.44,96625.20000000298,96638.111,97138.208,,34,that
screen,html.Screen,0_2_0_1_35,2021-12-03T13:20:45.750Z,,,,,,,,,,,,,,,,53,,,,,,,,,,,,,,557.892000008942,,response,,,99,,,,,,Space,keypress(Space),,,,,---- -- ----- -- ------ - ------- --- ----------<br>------------- ------ ------ ---- ---- ------- ----- -- ----<br>-------- ------- -- ---------- --- - --- ----- ----- ----<br>---- --- --- ----- --- ---- ---- matters ----- ---- -------<br>--- --- -- ----- -- --- ---- -- --- ---- -- ------ ------<br>--- ----- -- ----,97696.90000000596,97696.10000000894,97121.538,97129.10000000894,97138.208,97704.968,,35,matters
screen,html.Screen,0_2_0_1_36,2021-12-03T13:20:46.318Z,,,,,,,,,,,,,,,,53,,,,,,,,,,,,,,559.1320000089472,,response,,,99,,,,,,Space,keypress(Space),,,,,"---- -- ----- -- ------ - ------- --- ----------<br>------------- ------ ------ ---- ---- ------- ----- -- ----<br>-------- ------- -- ---------- --- - --- ----- ----- ----<br>---- --- --- ----- --- ---- ---- ------- most, ---- -------<br>--- --- -- ----- -- --- ---- -- --- ---- -- ------ ------<br>--- ----- -- ----",98265,98264.10000000894,97688.298,97697.10000000894,97704.968,98271.861,,36,"most,"
screen,html.Screen,0_2_0_1_37,2021-12-03T13:20:46.839Z,,,,,,,,,,,,,,,,53,,,,,,,,,,,,,,512.6389999999956,,response,,,99,,,,,,Space,keypress(Space),,,,,---- -- ----- -- ------ - ------- --- ----------<br>------------- ------ ------ ---- ---- ------- ----- -- ----<br>-------- ------- -- ---------- --- - --- ----- ----- ----<br>---- --- --- ----- --- ---- ---- ------- ----- it's -------<br>--- --- -- ----- -- --- ---- -- --- ---- -- ------ ------<br>--- ----- -- ----,98785.20000000298,98784.5,98255.19,98265.29999999702,98271.861,98788.675,,37,it's
screen,html.Screen,0_2_0_1_38,2021-12-03T13:20:47.526Z,,,,,,,,,,,,,,,,53,,,,,,,,,,,,,,683.3249999999971,,response,,,99,,,,,,Space,keypress(Space),,,,,---- -- ----- -- ------ - ------- --- ----------<br>------------- ------ ------ ---- ---- ------- ----- -- ----<br>-------- ------- -- ---------- --- - --- ----- ----- ----<br>---- --- --- ----- --- ---- ---- ------- ----- ---- whether<br>--- --- -- ----- -- --- ---- -- --- ---- -- ------ ------<br>--- ----- -- ----,99472.79999999702,99472,98772.004,98785.40000000596,98788.675,99488.817,,38,whether
screen,html.Screen,0_2_0_1_39,2021-12-03T13:20:48.198Z,,,,,,,,,,,,,,,,53,,,,,,,,,,,,,,655.083000005965,,response,,,99,,,,,,Space,keypress(Space),,,,,---- -- ----- -- ------ - ------- --- ----------<br>------------- ------ ------ ---- ---- ------- ----- -- ----<br>-------- ------- -- ---------- --- - --- ----- ----- ----<br>---- --- --- ----- --- ---- ---- ------- ----- ---- -------<br>you --- -- ----- -- --- ---- -- --- ---- -- ------ ------<br>--- ----- -- ----,100144.70000000298,100143.90000000596,99472.147,99473.10000000894,99488.817,100155.639,,39,you
screen,html.Screen,0_2_0_1_40,2021-12-03T13:20:48.790Z,,,,,,,,,,,,,,,,53,,,,,,,,,,,,,,580.2610000059649,,response,,,99,,,,,,Space,keypress(Space),,,,,---- -- ----- -- ------ - ------- --- ----------<br>------------- ------ ------ ---- ---- ------- ----- -- ----<br>-------- ------- -- ---------- --- - --- ----- ----- ----<br>---- --- --- ----- --- ---- ---- ------- ----- ---- -------<br>--- are -- ----- -- --- ---- -- --- ---- -- ------ ------<br>--- ----- -- ----,100736.90000000596,100735.90000000596,100138.969,100145.10000000894,100155.639,100739.197,,40,are
screen,html.Screen,0_2_0_1_41,2021-12-03T13:20:49.326Z,,,,,,,,,,,,,,,,53,,,,,,,,,,,,,,532.7030000059603,,response,,,99,,,,,,Space,keypress(Space),,,,,---- -- ----- -- ------ - ------- --- ----------<br>------------- ------ ------ ---- ---- ------- ----- -- ----<br>-------- ------- -- ---------- --- - --- ----- ----- ----<br>---- --- --- ----- --- ---- ---- ------- ----- ---- -------<br>--- --- as ----- -- --- ---- -- --- ---- -- ------ ------<br>--- ----- -- ----,101272.70000000298,101271.90000000596,100722.526,100737.10000000894,100739.197,101289.285,,41,as
screen,html.Screen,0_2_0_1_42,2021-12-03T13:20:49.806Z,,,,,,,,,,,,,,,,53,,,,,,,,,,,,,,462.5149999970163,,response,,,99,,,,,,Space,keypress(Space),,,,,---- -- ----- -- ------ - ------- --- ----------<br>------------- ------ ------ ---- ---- ------- ----- -- ----<br>-------- ------- -- ---------- --- - --- ----- ----- ----<br>---- --- --- ----- --- ---- ---- ------- ----- ---- -------<br>--- --- -- close -- --- ---- -- --- ---- -- ------ ------<br>--- ----- -- ----,101752.60000000894,101751.79999999702,101272.615,101272.90000000596,101289.285,101756.14,,42,close
screen,html.Screen,0_2_0_1_43,2021-12-03T13:20:50.326Z,,,,,,,,,,,,,,,,53,,,,,,,,,,,,,,515.760000005961,,response,,,99,,,,,,Space,keypress(Space),,,,,---- -- ----- -- ------ - ------- --- ----------<br>------------- ------ ------ ---- ---- ------- ----- -- ----<br>-------- ------- -- ---------- --- - --- ----- ----- ----<br>---- --- --- ----- --- ---- ---- ------- ----- ---- -------<br>--- --- -- ----- as --- ---- -- --- ---- -- ------ ------<br>--- ----- -- ----,102272.70000000298,102271.90000000596,101739.469,101752.79999999702,101756.14,102289.545,,43,as
screen,html.Screen,0_2_0_1_44,2021-12-03T13:20:50.854Z,,,,,,,,,,,,,,,,53,,,,,,,,,,,,,,510.2549999970215,,response,,,99,,,,,,Space,keypress(Space),,,,,---- -- ----- -- ------ - ------- --- ----------<br>------------- ------ ------ ---- ---- ------- ----- -- ----<br>-------- ------- -- ---------- --- - --- ----- ----- ----<br>---- --- --- ----- --- ---- ---- ------- ----- ---- -------<br>--- --- -- ----- -- you ---- -- --- ---- -- ------ ------<br>--- ----- -- ----,102800.70000000298,102799.79999999702,102272.875,102272.90000000596,102289.545,102806.412,,44,you
screen,html.Screen,0_2_0_1_45,2021-12-03T13:20:51.302Z,,,,,,,,,,,,,,,,53,,,,,,,,,,,,,,441.38799999702314,,response,,,99,,,,,,Space,keypress(Space),,,,,---- -- ----- -- ------ - ------- --- ----------<br>------------- ------ ------ ---- ---- ------- ----- -- ----<br>-------- ------- -- ---------- --- - --- ----- ----- ----<br>---- --- --- ----- --- ---- ---- ------- ----- ---- -------<br>--- --- -- ----- -- --- want -- --- ---- -- ------ ------<br>--- ----- -- ----,103248.60000000894,103247.79999999702,102789.741,102800.90000000596,102806.412,103256.484,,45,want
screen,html.Screen,0_2_0_1_46,2021-12-03T13:20:51.766Z,,,,,,,,,,,,,,,,53,,,,,,,,,,,,,,455.315999997023,,response,,,99,,,,,,Space,keypress(Space),,,,,---- -- ----- -- ------ - ------- --- ----------<br>------------- ------ ------ ---- ---- ------- ----- -- ----<br>-------- ------- -- ---------- --- - --- ----- ----- ----<br>---- --- --- ----- --- ---- ---- ------- ----- ---- -------<br>--- --- -- ----- -- --- ---- to --- ---- -- ------ ------<br>--- ----- -- ----,103712.60000000894,103711.79999999702,103239.814,103248.90000000596,103256.484,103723.249,,46,to
screen,html.Screen,0_2_0_1_47,2021-12-03T13:20:52.190Z,,,,,,,,,,,,,,,,53,,,,,,,,,,,,,,412.5509999970236,,response,,,99,,,,,,Space,keypress(Space),,,,,"---- -- ----- -- ------ - ------- --- ----------<br>------------- ------ ------ ---- ---- ------- ----- -- ----<br>-------- ------- -- ---------- --- - --- ----- ----- ----<br>---- --- --- ----- --- ---- ---- ------- ----- ---- -------<br>--- --- -- ----- -- --- ---- -- be, ---- -- ------ ------<br>--- ----- -- ----",104136.5,104135.79999999702,103706.579,103712.79999999702,103723.249,104140.053,,47,"be,"
screen,html.Screen,0_2_0_1_48,2021-12-03T13:20:52.686Z,,,,,,,,,,,,,,,,53,,,,,,,,,,,,,,491.64700000298035,,response,,,99,,,,,,Space,keypress(Space),,,,,---- -- ----- -- ------ - ------- --- ----------<br>------------- ------ ------ ---- ---- ------- ----- -- ----<br>-------- ------- -- ---------- --- - --- ----- ----- ----<br>---- --- --- ----- --- ---- ---- ------- ----- ---- -------<br>--- --- -- ----- -- --- ---- -- --- even -- ------ ------<br>--- ----- -- ----,104632.60000000894,104631.70000000298,104123.383,104136.79999999702,104140.053,104640.224,,48,even
screen,html.Screen,0_2_0_1_49,2021-12-03T13:20:53.174Z,,,,,,,,,,,,,,,,53,,,,,,,,,,,,,,479.47600000297825,,response,,,99,,,,,,Space,keypress(Space),,,,,---- -- ----- -- ------ - ------- --- ----------<br>------------- ------ ------ ---- ---- ------- ----- -- ----<br>-------- ------- -- ---------- --- - --- ----- ----- ----<br>---- --- --- ----- --- ---- ---- ------- ----- ---- -------<br>--- --- -- ----- -- --- ---- -- --- ---- if ------ ------<br>--- ----- -- ----,105120.5,105119.70000000298,104623.553,104632.79999999702,104640.224,105123.694,,49,if
screen,html.Screen,0_2_0_1_50,2021-12-03T13:20:53.598Z,,,,,,,,,,,,,,,,53,,,,,,,,,,,,,,420.0060000029771,,response,,,99,,,,,,Space,keypress(Space),,,,,---- -- ----- -- ------ - ------- --- ----------<br>------------- ------ ------ ---- ---- ------- ----- -- ----<br>-------- ------- -- ---------- --- - --- ----- ----- ----<br>---- --- --- ----- --- ---- ---- ------- ----- ---- -------<br>--- --- -- ----- -- --- ---- -- --- ---- -- that's ------<br>--- ----- -- ----,105544.5,105543.70000000298,105107.023,105120.70000000298,105123.694,105557.099,,50,that's
screen,html.Screen,0_2_0_1_51,2021-12-03T13:20:54.078Z,,,,,,,,,,,,,,,,53,,,,,,,,,,,,,,466.60100000297825,,response,,,99,,,,,,Space,keypress(Space),,,,,---- -- ----- -- ------ - ------- --- ----------<br>------------- ------ ------ ---- ---- ------- ----- -- ----<br>-------- ------- -- ---------- --- - --- ----- ----- ----<br>---- --- --- ----- --- ---- ---- ------- ----- ---- -------<br>--- --- -- ----- -- --- ---- -- --- ---- -- ------ really<br>--- ----- -- ----,106024.5,106023.70000000298,105540.429,105544.70000000298,105557.099,106040.55,,51,really
screen,html.Screen,0_2_0_1_52,2021-12-03T13:20:54.614Z,,,,,,,,,,,,,,,,53,,,,,,,,,,,,,,519.0500000089378,,response,,,99,,,,,,Space,keypress(Space),,,,,---- -- ----- -- ------ - ------- --- ----------<br>------------- ------ ------ ---- ---- ------- ----- -- ----<br>-------- ------- -- ---------- --- - --- ----- ----- ----<br>---- --- --- ----- --- ---- ---- ------- ----- ---- -------<br>--- --- -- ----- -- --- ---- -- --- ---- -- ------ ------<br>not ----- -- ----,106560.40000000596,106559.60000000894,106023.88,106024.60000000894,106040.55,106573.982,,52,not
screen,html.Screen,0_2_0_1_53,2021-12-03T13:20:55.086Z,,,,,,,,,,,,,,,,53,,,,,,,,,,,,,,457.7180000029766,,response,,,99,,,,,,Space,keypress(Space),,,,,---- -- ----- -- ------ - ------- --- ----------<br>------------- ------ ------ ---- ---- ------- ----- -- ----<br>-------- ------- -- ---------- --- - --- ----- ----- ----<br>---- --- --- ----- --- ---- ---- ------- ----- ---- -------<br>--- --- -- ----- -- --- ---- -- --- ---- -- ------ ------<br>--- close -- ----,107032.5,107031.70000000298,106557.312,106560.70000000298,106573.982,107040.885,,53,close
screen,html.Screen,0_2_0_1_54,2021-12-03T13:20:55.534Z,,,,,,,,,,,,,,,,53,,,,,,,,,,,,,,438.71500000894594,,response,,,99,,,,,,Space,keypress(Space),,,,,---- -- ----- -- ------ - ------- --- ----------<br>------------- ------ ------ ---- ---- ------- ----- -- ----<br>-------- ------- -- ---------- --- - --- ----- ----- ----<br>---- --- --- ----- --- ---- ---- ------- ----- ---- -------<br>--- --- -- ----- -- --- ---- -- --- ---- -- ------ ------<br>--- ----- at ----,107480.40000000596,107479.60000000894,107024.214,107032.70000000298,107040.885,107490.928,,54,at
screen,html.Screen,0_2_0_1_55,2021-12-03T13:20:57.174Z,,,,,,,,,,,,,,,,53,,,,,,,,,,,,,,1629.0720000000001,,response,,,99,,,,,,Space,keypress(Space),,,,,---- -- ----- -- ------ - ------- --- ----------<br>------------- ------ ------ ---- ---- ------- ----- -- ----<br>-------- ------- -- ---------- --- - --- ----- ----- ----<br>---- --- --- ----- --- ---- ---- ------- ----- ---- -------<br>--- --- -- ----- -- --- ---- -- --- ---- -- ------ ------<br>--- ----- -- all.,109120.70000000298,109120,107474.258,107480.60000000894,107490.928,109141.304,,55,all.
Item 99,flow.Loop,0_2_0_1,2021-12-03T13:20:57.179Z,,,,,,,,,,,,,,,,,,,,,,,,,,,,,,31620.631999999998,,completion,,,,E,,,,,,,,,,silence,,109125,109120,77482.699,77489.40000000596,77499.368,109141.304,,,
Question 1,html.Screen,0_2_0_2,2021-12-03T13:21:03.854Z,,,,,,,,,,,,,,,,,,,,,,,,,,,true,FALSE,,6657.695999999996,,response,,,99,E,,,,,FALSE,click #choice-2,,,,silence,,115800.40000000596,115799,109124.634,109125.29999999702,109141.304,115809.672,,,
Question 2,html.Screen,0_2_0_3,2021-12-03T13:21:08.241Z,,,,,,,,,,,,,,,,,,,,,,,,,,,true,TRUE,,4373.127999997014,,response,,,99,E,,,,,TRUE,click #choice-1,,,,silence,,120184,120182.79999999702,115793.006,115800.70000000298,115809.672,120194.366,,,
Item 99,flow.Sequence,0_2_0,2021-12-03T13:21:08.241Z,,,,,,,,,,,,,,,,,,,,,,,,,,,,,,52686.24499999703,,completion,,,,,,,,,,,,,,,,120184.40000000596,120182.79999999702,67479.886,67483.70000000298,67496.555,120194.366,,,
Holding screen,html.Screen,0_2_1_0,2021-12-03T13:21:18.238Z,,,,,,,,,,,,,,,,,,,,,,,,,,,,,,10002.465000000011,,timeout,,,,,,,,,,,,,,,,130181.79999999702,130180.161,120177.695,120184.70000000298,120194.366,130196.831,,,
screen,html.Screen,0_2_1_1_0,2021-12-03T13:21:18.976Z,,,,,,,,,,,,,,,,54,,,,,,,,,,,,,,722.1689999999944,,response,,,100,,,,,,Space,keypress(Space),,,,,At --- ---- --- ------ ----- ------- ---- -- --- ------- --<br>------- ---------- ------ -- ----- -- ----- -- ---- ------<br>--- ----- --- --- ------ -------- ----- --- ------ ----- --<br>----- ----- ---------- --- --- ------ ------ ---- -- ------<br>------- --- ------ ----- --- ---- ------- -- ---- --- --<br>------- ------,130920,130919,130180.161,130182.20000000298,130196.831,130930.578,,0,At
screen,html.Screen,0_2_1_1_1,2021-12-03T13:21:19.560Z,,,,,,,,,,,,,,,,54,,,,,,,,,,,,,,571.9220000000059,,response,,,100,,,,,,Space,keypress(Space),,,,,-- the ---- --- ------ ----- ------- ---- -- --- ------- --<br>------- ---------- ------ -- ----- -- ----- -- ---- ------<br>--- ----- --- --- ------ -------- ----- --- ------ ----- --<br>----- ----- ---------- --- --- ------ ------ ---- -- ------<br>------- --- ------ ----- --- ---- ------- -- ---- --- --<br>------- ------,131503.29999999702,131502.5,130913.907,130920.20000000298,130930.578,131513.927,,1,the
screen,html.Screen,0_2_1_1_2,2021-12-03T13:21:20.032Z,,,,,,,,,,,,,,,,54,,,,,,,,,,,,,,460.57300000000396,,response,,,100,,,,,,Space,keypress(Space),,,,,-- --- time --- ------ ----- ------- ---- -- --- ------- --<br>------- ---------- ------ -- ----- -- ----- -- ---- ------<br>--- ----- --- --- ------ -------- ----- --- ------ ----- --<br>----- ----- ---------- --- --- ------ ------ ---- -- ------<br>------- --- ------ ----- --- ---- ------- -- ---- --- --<br>------- ------,131975.40000000596,131974.5,131497.257,131503.5,131513.927,131980.749,,2,time
screen,html.Screen,0_2_1_1_3,2021-12-03T13:21:20.584Z,,,,,,,,,,,,,,,,54,,,,,,,,,,,,,,545.7509999999893,,response,,,100,,,,,,Space,keypress(Space),,,,,-- --- ---- the ------ ----- ------- ---- -- --- ------- --<br>------- ---------- ------ -- ----- -- ----- -- ---- ------<br>--- ----- --- --- ------ -------- ----- --- ------ ----- --<br>----- ----- ---------- --- --- ------ ------ ---- -- ------<br>------- --- ------ ----- --- ---- ------- -- ---- --- --<br>------- ------,132527.29999999702,132526.5,131964.079,131975.60000000894,131980.749,132531.028,,3,the
screen,html.Screen,0_2_1_1_4,2021-12-03T13:21:21.128Z,,,,,,,,,,,,,,,,54,,,,,,,,,,,,,,539.3720000059693,,response,,,100,,,,,,Space,keypress(Space),,,,,-- --- ---- --- French ----- ------- ---- -- --- ------- --<br>------- ---------- ------ -- ----- -- ----- -- ---- ------<br>--- ----- --- --- ------ -------- ----- --- ------ ----- --<br>----- ----- ---------- --- --- ------ ------ ---- -- ------<br>------- --- ------ ----- --- ---- ------- -- ---- --- --<br>------- ------,133071.29999999702,133070.40000000596,132514.356,132527.5,132531.028,133081.063,,4,French
screen,html.Screen,0_2_1_1_5,2021-12-03T13:21:21.704Z,,,,,,,,,,,,,,,,54,,,,,,,,,,,,,,565.3370000059658,,response,,,100,,,,,,Space,keypress(Space),,,,,-- --- ---- --- ------ crown ------- ---- -- --- ------- --<br>------- ---------- ------ -- ----- -- ----- -- ---- ------<br>--- ----- --- --- ------ -------- ----- --- ------ ----- --<br>----- ----- ---------- --- --- ------ ------ ---- -- ------<br>------- --- ------ ----- --- ---- ------- -- ---- --- --<br>------- ------,133647.20000000298,133646.40000000596,133064.393,133071.60000000894,133081.063,133664.61,,5,crown
screen,html.Screen,0_2_1_1_6,2021-12-03T13:21:22.184Z,,,,,,,,,,,,,,,,54,,,,,,,,,,,,,,461.79000000597443,,response,,,100,,,,,,Space,keypress(Space),,,,,-- --- ---- --- ------ ----- secured ---- -- --- ------- --<br>------- ---------- ------ -- ----- -- ----- -- ---- ------<br>--- ----- --- --- ------ -------- ----- --- ------ ----- --<br>----- ----- ---------- --- --- ------ ------ ---- -- ------<br>------- --- ------ ----- --- ---- ------- -- ---- --- --<br>------- ------,134127.20000000298,134126.40000000596,133647.939,133647.40000000596,133664.61,134131.328,,6,secured
screen,html.Screen,0_2_1_1_7,2021-12-03T13:21:22.736Z,,,,,,,,,,,,,,,,54,,,,,,,,,,,,,,547.0720000059518,,response,,,100,,,,,,Space,keypress(Space),,,,,-- --- ---- --- ------ ----- ------- much -- --- ------- --<br>------- ---------- ------ -- ----- -- ----- -- ---- ------<br>--- ----- --- --- ------ -------- ----- --- ------ ----- --<br>----- ----- ---------- --- --- ------ ------ ---- -- ------<br>------- --- ------ ----- --- ---- ------- -- ---- --- --<br>------- ------,134679.10000000894,134678.40000000596,134114.658,134127.40000000596,134131.328,134681.544,,7,much
screen,html.Screen,0_2_1_1_8,2021-12-03T13:21:23.192Z,,,,,,,,,,,,,,,,54,,,,,,,,,,,,,,452.75599999702536,,response,,,100,,,,,,Space,keypress(Space),,,,,-- --- ---- --- ------ ----- ------- ---- of --- ------- --<br>------- ---------- ------ -- ----- -- ----- -- ---- ------<br>--- ----- --- --- ------ -------- ----- --- ------ ----- --<br>----- ----- ---------- --- --- ------ ------ ---- -- ------<br>------- --- ------ ----- --- ---- ------- -- ---- --- --<br>------- ------,135135.10000000894,135134.29999999702,134664.873,134679.40000000596,134681.544,135148.346,,8,of
screen,html.Screen,0_2_1_1_9,2021-12-03T13:21:23.592Z,,,,,,,,,,,,,,,,54,,,,,,,,,,,,,,385.9539999970293,,response,,,100,,,,,,Space,keypress(Space),,,,,-- --- ---- --- ------ ----- ------- ---- -- its ------- --<br>------- ---------- ------ -- ----- -- ----- -- ---- ------<br>--- ----- --- --- ------ -------- ----- --- ------ ----- --<br>----- ----- ---------- --- --- ------ ------ ---- -- ------<br>------- --- ------ ----- --- ---- ------- -- ---- --- --<br>------- ------,135535.10000000894,135534.29999999702,135131.675,135135.40000000596,135148.346,135548.419,,9,its
screen,html.Screen,0_2_1_1_10,2021-12-03T13:21:24.056Z,,,,,,,,,,,,,,,,54,,,,,,,,,,,,,,449.88099999702536,,response,,,100,,,,,,Space,keypress(Space),,,,,-- --- ---- --- ------ ----- ------- ---- -- --- revenue --<br>------- ---------- ------ -- ----- -- ----- -- ---- ------<br>--- ----- --- --- ------ -------- ----- --- ------ ----- --<br>----- ----- ---------- --- --- ------ ------ ---- -- ------<br>------- --- ------ ----- --- ---- ------- -- ---- --- --<br>------- ------,135999.20000000298,135998.29999999702,135531.749,135535.40000000596,135548.419,136015.248,,10,revenue
screen,html.Screen,0_2_1_1_11,2021-12-03T13:21:24.584Z,,,,,,,,,,,,,,,,54,,,,,,,,,,,,,,511.05199999702745,,response,,,100,,,,,,Space,keypress(Space),,,,,-- --- ---- --- ------ ----- ------- ---- -- --- ------- by<br>------- ---------- ------ -- ----- -- ----- -- ---- ------<br>--- ----- --- --- ------ -------- ----- --- ------ ----- --<br>----- ----- ---------- --- --- ------ ------ ---- -- ------<br>------- --- ------ ----- --- ---- ------- -- ---- --- --<br>------- ------,136527,136526.29999999702,135998.577,135999.5,136015.248,136531.83,,11,by
screen,html.Screen,0_2_1_1_12,2021-12-03T13:21:25.088Z,,,,,,,,,,,,,,,,54,,,,,,,,,,,,,,498.37000000299304,,response,,,100,,,,,,Space,keypress(Space),,,,,-- --- ---- --- ------ ----- ------- ---- -- --- ------- --<br>issuing ---------- ------ -- ----- -- ----- -- ---- ------<br>--- ----- --- --- ------ -------- ----- --- ------ ----- --<br>----- ----- ---------- --- --- ------ ------ ---- -- ------<br>------- --- ------ ----- --- ---- ------- -- ---- --- --<br>------- ------,137031,137030.20000000298,136515.162,136527.29999999702,136531.83,137032.239,,12,issuing
screen,html.Screen,0_2_1_1_13,2021-12-03T13:21:25.615Z,,,,,,,,,,,,,,,,54,,,,,,,,,,,,,,526.0609999970184,,response,,,100,,,,,,Space,keypress(Space),,,,,-- --- ---- --- ------ ----- ------- ---- -- --- ------- --<br>------- government ------ -- ----- -- ----- -- ---- ------<br>--- ----- --- --- ------ -------- ----- --- ------ ----- --<br>----- ----- ---------- --- --- ------ ------ ---- -- ------<br>------- --- ------ ----- --- ---- ------- -- ---- --- --<br>------- ------,137559,137558.29999999702,137015.567,137031.29999999702,137032.239,137565.596,,13,government
screen,html.Screen,0_2_1_1_14,2021-12-03T13:21:26.207Z,,,,,,,,,,,,,,,,54,,,,,,,,,,,,,,584.5040000089502,,response,,,100,,,,,,Space,keypress(Space),,,,,-- --- ---- --- ------ ----- ------- ---- -- --- ------- --<br>------- ---------- bonds. -- ----- -- ----- -- ---- ------<br>--- ----- --- --- ------ -------- ----- --- ------ ----- --<br>----- ----- ---------- --- --- ------ ------ ---- -- ------<br>------- --- ------ ----- --- ---- ------- -- ---- --- --<br>------- ------,138151,138150.10000000894,137548.926,137559.20000000298,137565.596,138165.76,,14,bonds.
screen,html.Screen,0_2_1_1_15,2021-12-03T13:21:26.695Z,,,,,,,,,,,,,,,,54,,,,,,,,,,,,,,472.3400000089314,,response,,,100,,,,,,Space,keypress(Space),,,,,-- --- ---- --- ------ ----- ------- ---- -- --- ------- --<br>------- ---------- ------ In ----- -- ----- -- ---- ------<br>--- ----- --- --- ------ -------- ----- --- ------ ----- --<br>----- ----- ---------- --- --- ------ ------ ---- -- ------<br>------- --- ------ ----- --- ---- ------- -- ---- --- --<br>------- ------,138638.90000000596,138638.10000000894,138149.09,138151.10000000894,138165.76,138649.234,,15,In
screen,html.Screen,0_2_1_1_16,2021-12-03T13:21:27.479Z,,,,,,,,,,,,,,,,54,,,,,,,,,,,,,,772.866000008944,,response,,,100,,,,,,Space,keypress(Space),,,,,"-- --- ---- --- ------ ----- ------- ---- -- --- ------- --<br>------- ---------- ------ -- 1727, -- ----- -- ---- ------<br>--- ----- --- --- ------ -------- ----- --- ------ ----- --<br>----- ----- ---------- --- --- ------ ------ ---- -- ------<br>------- --- ------ ----- --- ---- ------- -- ---- --- --<br>------- ------",139422.90000000596,139422.10000000894,138632.564,138639.20000000298,138649.234,139432.728,,16,"1727,"
screen,html.Screen,0_2_1_1_17,2021-12-03T13:21:28.647Z,,,,,,,,,,,,,,,,54,,,,,,,,,,,,,,1157.372000008938,,response,,,100,,,,,,Space,keypress(Space),,,,,-- --- ---- --- ------ ----- ------- ---- -- --- ------- --<br>------- ---------- ------ -- ----- in ----- -- ---- ------<br>--- ----- --- --- ------ -------- ----- --- ------ ----- --<br>----- ----- ---------- --- --- ------ ------ ---- -- ------<br>------- --- ------ ----- --- ---- ------- -- ---- --- --<br>------- ------,140590.90000000596,140590.10000000894,139416.058,139423.20000000298,139432.728,140599.705,,17,in
screen,html.Screen,0_2_1_1_18,2021-12-03T13:21:29.200Z,,,,,,,,,,,,,,,,54,,,,,,,,,,,,,,542.7950000000128,,response,,,100,,,,,,Space,keypress(Space),,,,,-- --- ---- --- ------ ----- ------- ---- -- --- ------- --<br>------- ---------- ------ -- ----- -- order -- ---- ------<br>--- ----- --- --- ------ -------- ----- --- ------ ----- --<br>----- ----- ---------- --- --- ------ ------ ---- -- ------<br>------- --- ------ ----- --- ---- ------- -- ---- --- --<br>------- ------,141143.29999999702,141142.5,140583.035,140591.10000000894,140599.705,141149.824,,18,order
screen,html.Screen,0_2_1_1_19,2021-12-03T13:21:29.711Z,,,,,,,,,,,,,,,,54,,,,,,,,,,,,,,504.17600000000675,,response,,,100,,,,,,Space,keypress(Space),,,,,-- --- ---- --- ------ ----- ------- ---- -- --- ------- --<br>------- ---------- ------ -- ----- -- ----- to ---- ------<br>--- ----- --- --- ------ -------- ----- --- ------ ----- --<br>----- ----- ---------- --- --- ------ ------ ---- -- ------<br>------- --- ------ ----- --- ---- ------- -- ---- --- --<br>------- ------,141654.79999999702,141654,141133.154,141143.5,141149.824,141666.655,,19,to
screen,html.Screen,0_2_1_1_20,2021-12-03T13:21:30.407Z,,,,,,,,,,,,,,,,54,,,,,,,,,,,,,,683.3450000000012,,response,,,100,,,,,,Space,keypress(Space),,,,,-- --- ---- --- ------ ----- ------- ---- -- --- ------- --<br>------- ---------- ------ -- ----- -- ----- -- save ------<br>--- ----- --- --- ------ -------- ----- --- ------ ----- --<br>----- ----- ---------- --- --- ------ ------ ---- -- ------<br>------- --- ------ ----- --- ---- ------- -- ---- --- --<br>------- ------,142350.90000000596,142350,141649.985,141655,141666.655,142366.927,,20,save
screen,html.Screen,0_2_1_1_21,2021-12-03T13:21:31.071Z,,,,,,,,,,,,,,,,54,,,,,,,,,,,,,,647.073000000004,,response,,,100,,,,,,Space,keypress(Space),,,,,"-- --- ---- --- ------ ----- ------- ---- -- --- ------- --<br>------- ---------- ------ -- ----- -- ----- -- ---- money,<br>--- ----- --- --- ------ -------- ----- --- ------ ----- --<br>----- ----- ---------- --- --- ------ ------ ---- -- ------<br>------- --- ------ ----- --- ---- ------- -- ---- --- --<br>------- ------",143014.79999999702,143014,142350.256,142351.10000000894,142366.927,143017.101,,21,"money,"
screen,html.Screen,0_2_1_1_22,2021-12-03T13:21:31.631Z,,,,,,,,,,,,,,,,54,,,,,,,,,,,,,,556.6989999970247,,response,,,100,,,,,,Space,keypress(Space),,,,,-- --- ---- --- ------ ----- ------- ---- -- --- ------- --<br>------- ---------- ------ -- ----- -- ----- -- ---- ------<br>the ----- --- --- ------ -------- ----- --- ------ ----- --<br>----- ----- ---------- --- --- ------ ------ ---- -- ------<br>------- --- ------ ----- --- ---- ------- -- ---- --- --<br>------- ------,143574.60000000894,143573.79999999702,143000.43,143015,143017.101,143583.879,,22,the
screen,html.Screen,0_2_1_1_23,2021-12-03T13:21:32.127Z,,,,,,,,,,,,,,,,54,,,,,,,,,,,,,,486.0210000059742,,response,,,100,,,,,,Space,keypress(Space),,,,,-- --- ---- --- ------ ----- ------- ---- -- --- ------- --<br>------- ---------- ------ -- ----- -- ----- -- ---- ------<br>--- state --- --- ------ -------- ----- --- ------ ----- --<br>----- ----- ---------- --- --- ------ ------ ---- -- ------<br>------- --- ------ ----- --- ---- ------- -- ---- --- --<br>------- ------,144070.70000000298,144069.90000000596,143567.209,143574.90000000596,143583.879,144083.996,,23,state
screen,html.Screen,0_2_1_1_24,2021-12-03T13:21:32.815Z,,,,,,,,,,,,,,,,54,,,,,,,,,,,,,,673.7040000029665,,response,,,100,,,,,,Space,keypress(Space),,,,,-- --- ---- --- ------ ----- ------- ---- -- --- ------- --<br>------- ---------- ------ -- ----- -- ----- -- ---- ------<br>--- ----- cut --- ------ -------- ----- --- ------ ----- --<br>----- ----- ---------- --- --- ------ ------ ---- -- ------<br>------- --- ------ ----- --- ---- ------- -- ---- --- --<br>------- ------,144758.60000000894,144757.70000000298,144067.326,144071,144083.996,144767.507,,24,cut
screen,html.Screen,0_2_1_1_25,2021-12-03T13:21:33.375Z,,,,,,,,,,,,,,,,54,,,,,,,,,,,,,,550.1930000029679,,response,,,100,,,,,,Space,keypress(Space),,,,,-- --- ---- --- ------ ----- ------- ---- -- --- ------- --<br>------- ---------- ------ -- ----- -- ----- -- ---- ------<br>--- ----- --- the ------ -------- ----- --- ------ ----- --<br>----- ----- ---------- --- --- ------ ------ ---- -- ------<br>------- --- ------ ----- --- ---- ------- -- ---- --- --<br>------- ------,145318.5,145317.70000000298,144750.837,144758.79999999702,144767.507,145334.293,,25,the
screen,html.Screen,0_2_1_1_26,2021-12-03T13:21:33.855Z,,,,,,,,,,,,,,,,54,,,,,,,,,,,,,,463.4070000029751,,response,,,100,,,,,,Space,keypress(Space),,,,,-- --- ---- --- ------ ----- ------- ---- -- --- ------- --<br>------- ---------- ------ -- ----- -- ----- -- ---- ------<br>--- ----- --- --- bonds' -------- ----- --- ------ ----- --<br>----- ----- ---------- --- --- ------ ------ ---- -- ------<br>------- --- ------ ----- --- ---- ------- -- ---- --- --<br>------- ------,145798.5,145797.70000000298,145317.623,145318.70000000298,145334.293,145801.139,,26,bonds'
screen,html.Screen,0_2_1_1_27,2021-12-03T13:21:34.351Z,,,,,,,,,,,,,,,,54,,,,,,,,,,,,,,492.6609999970242,,response,,,100,,,,,,Space,keypress(Space),,,,,-- --- ---- --- ------ ----- ------- ---- -- --- ------- --<br>------- ---------- ------ -- ----- -- ----- -- ---- ------<br>--- ----- --- --- ------ interest ----- --- ------ ----- --<br>----- ----- ---------- --- --- ------ ------ ---- -- ------<br>------- --- ------ ----- --- ---- ------- -- ---- --- --<br>------- ------,146294.5,146293.79999999702,145784.469,145798.70000000298,145801.139,146301.27,,27,interest
screen,html.Screen,0_2_1_1_28,2021-12-03T13:21:34.927Z,,,,,,,,,,,,,,,,54,,,,,,,,,,,,,,568.5299999970302,,response,,,100,,,,,,Space,keypress(Space),,,,,-- --- ---- --- ------ ----- ------- ---- -- --- ------- --<br>------- ---------- ------ -- ----- -- ----- -- ---- ------<br>--- ----- --- --- ------ -------- rate. --- ------ ----- --<br>----- ----- ---------- --- --- ------ ------ ---- -- ------<br>------- --- ------ ----- --- ---- ------- -- ---- --- --<br>------- ------,146870.5,146869.79999999702,146284.6,146294.79999999702,146301.27,146884.755,,28,rate.
screen,html.Screen,0_2_1_1_29,2021-12-03T13:21:35.447Z,,,,,,,,,,,,,,,,54,,,,,,,,,,,,,,504.9450000029756,,response,,,100,,,,,,Space,keypress(Space),,,,,-- --- ---- --- ------ ----- ------- ---- -- --- ------- --<br>------- ---------- ------ -- ----- -- ----- -- ---- ------<br>--- ----- --- --- ------ -------- ----- The ------ ----- --<br>----- ----- ---------- --- --- ------ ------ ---- -- ------<br>------- --- ------ ----- --- ---- ------- -- ---- --- --<br>------- ------,147390.5,147389.70000000298,146868.085,146870.79999999702,146884.755,147401.546,,29,The
screen,html.Screen,0_2_1_1_30,2021-12-03T13:21:35.959Z,,,,,,,,,,,,,,,,54,,,,,,,,,,,,,,500.15400000297814,,response,,,100,,,,,,Space,keypress(Space),,,,,-- --- ---- --- ------ ----- ------- ---- -- --- ------- --<br>------- ---------- ------ -- ----- -- ----- -- ---- ------<br>--- ----- --- --- ------ -------- ----- --- market ----- --<br>----- ----- ---------- --- --- ------ ------ ---- -- ------<br>------- --- ------ ----- --- ---- ------- -- ---- --- --<br>------- ------,147902.60000000894,147901.70000000298,147384.876,147390.70000000298,147401.546,147918.361,,30,market
screen,html.Screen,0_2_1_1_31,2021-12-03T13:21:36.463Z,,,,,,,,,,,,,,,,54,,,,,,,,,,,,,,487.3390000029758,,response,,,100,,,,,,Space,keypress(Space),,,,,-- --- ---- --- ------ ----- ------- ---- -- --- ------- --<br>------- ---------- ------ -- ----- -- ----- -- ---- ------<br>--- ----- --- --- ------ -------- ----- --- ------ value --<br>----- ----- ---------- --- --- ------ ------ ---- -- ------<br>------- --- ------ ----- --- ---- ------- -- ---- --- --<br>------- ------,148406.5,148405.70000000298,147901.691,147902.70000000298,147918.361,148418.463,,31,value
screen,html.Screen,0_2_1_1_32,2021-12-03T13:21:37.359Z,,,,,,,,,,,,,,,,54,,,,,,,,,,,,,,883.2370000029914,,response,,,100,,,,,,Space,keypress(Space),,,,,-- --- ---- --- ------ ----- ------- ---- -- --- ------- --<br>------- ---------- ------ -- ----- -- ----- -- ---- ------<br>--- ----- --- --- ------ -------- ----- --- ------ ----- of<br>----- ----- ---------- --- --- ------ ------ ---- -- ------<br>------- --- ------ ----- --- ---- ------- -- ---- --- --<br>------- ------,149302.5,149301.70000000298,148401.793,148406.70000000298,148418.463,149318.798,,32,of
screen,html.Screen,0_2_1_1_33,2021-12-03T13:21:37.807Z,,,,,,,,,,,,,,,,54,,,,,,,,,,,,,,430.7019999999902,,response,,,100,,,,,,Space,keypress(Space),,,,,-- --- ---- --- ------ ----- ------- ---- -- --- ------- --<br>------- ---------- ------ -- ----- -- ----- -- ---- ------<br>--- ----- --- --- ------ -------- ----- --- ------ ----- --<br>these ----- ---------- --- --- ------ ------ ---- -- ------<br>------- --- ------ ----- --- ---- ------- -- ---- --- --<br>------- ------,149750.20000000298,149749.5,149302.127,149302.79999999702,149318.798,149752.121,,33,these
screen,html.Screen,0_2_1_1_34,2021-12-03T13:21:38.263Z,,,,,,,,,,,,,,,,54,,,,,,,,,,,,,,453.5790000029665,,response,,,100,,,,,,Space,keypress(Space),,,,,-- --- ---- --- ------ ----- ------- ---- -- --- ------- --<br>------- ---------- ------ -- ----- -- ----- -- ---- ------<br>--- ----- --- --- ------ -------- ----- --- ------ ----- --<br>----- bonds ---------- --- --- ------ ------ ---- -- ------<br>------- --- ------ ----- --- ---- ------- -- ---- --- --<br>------- ------,150206.40000000596,150205.70000000298,149735.451,149750.5,149752.121,150219.014,,34,bonds
screen,html.Screen,0_2_1_1_35,2021-12-03T13:21:38.727Z,,,,,,,,,,,,,,,,54,,,,,,,,,,,,,,450.68600000298466,,response,,,100,,,,,,Space,keypress(Space),,,,,"-- --- ---- --- ------ ----- ------- ---- -- --- ------- --<br>------- ---------- ------ -- ----- -- ----- -- ---- ------<br>--- ----- --- --- ------ -------- ----- --- ------ ----- --<br>----- ----- plummeted, --- --- ------ ------ ---- -- ------<br>------- --- ------ ----- --- ---- ------- -- ---- --- --<br>------- ------",150670.40000000596,150669.70000000298,150202.343,150206.60000000894,150219.014,150685.755,,35,"plummeted,"
screen,html.Screen,0_2_1_1_36,2021-12-03T13:21:39.223Z,,,,,,,,,,,,,,,,54,,,,,,,,,,,,,,480.34500000893604,,response,,,100,,,,,,Space,keypress(Space),,,,,-- --- ---- --- ------ ----- ------- ---- -- --- ------- --<br>------- ---------- ------ -- ----- -- ----- -- ---- ------<br>--- ----- --- --- ------ -------- ----- --- ------ ----- --<br>----- ----- ---------- and --- ------ ------ ---- -- ------<br>------- --- ------ ----- --- ---- ------- -- ---- --- --<br>------- ------,151166.79999999702,151166.10000000894,150669.085,150670.70000000298,150685.755,151169.226,,36,and
screen,html.Screen,0_2_1_1_37,2021-12-03T13:21:39.679Z,,,,,,,,,,,,,,,,54,,,,,,,,,,,,,,452.3740000089456,,response,,,100,,,,,,Space,keypress(Space),,,,,-- --- ---- --- ------ ----- ------- ---- -- --- ------- --<br>------- ---------- ------ -- ----- -- ----- -- ---- ------<br>--- ----- --- --- ------ -------- ----- --- ------ ----- --<br>----- ----- ---------- --- the ------ ------ ---- -- ------<br>------- --- ------ ----- --- ---- ------- -- ---- --- --<br>------- ------,151622.29999999702,151621.60000000894,151152.556,151167,151169.226,151636.007,,37,the
screen,html.Screen,0_2_1_1_38,2021-12-03T13:21:40.127Z,,,,,,,,,,,,,,,,54,,,,,,,,,,,,,,433.49299999998766,,response,,,100,,,,,,Space,keypress(Space),,,,,-- --- ---- --- ------ ----- ------- ---- -- --- ------- --<br>------- ---------- ------ -- ----- -- ----- -- ---- ------<br>--- ----- --- --- ------ -------- ----- --- ------ ----- --<br>----- ----- ---------- --- --- market ------ ---- -- ------<br>------- --- ------ ----- --- ---- ------- -- ---- --- --<br>------- ------,152070.29999999702,152069.5,151619.337,151622.60000000894,151636.007,152086.136,,38,market
screen,html.Screen,0_2_1_1_39,2021-12-03T13:21:40.575Z,,,,,,,,,,,,,,,,54,,,,,,,,,,,,,,431.3640000000014,,response,,,100,,,,,,Space,keypress(Space),,,,,-- --- ---- --- ------ ----- ------- ---- -- --- ------- --<br>------- ---------- ------ -- ----- -- ----- -- ---- ------<br>--- ----- --- --- ------ -------- ----- --- ------ ----- --<br>----- ----- ---------- --- --- ------ became ---- -- ------<br>------- --- ------ ----- --- ---- ------- -- ---- --- --<br>------- ------,152518.29999999702,152517.5,152069.466,152070.60000000894,152086.136,152519.628,,39,became
screen,html.Screen,0_2_1_1_40,2021-12-03T13:21:40.991Z,,,,,,,,,,,,,,,,54,,,,,,,,,,,,,,413.872000000003,,response,,,100,,,,,,Space,keypress(Space),,,,,-- --- ---- --- ------ ----- ------- ---- -- --- ------- --<br>------- ---------- ------ -- ----- -- ----- -- ---- ------<br>--- ----- --- --- ------ -------- ----- --- ------ ----- --<br>----- ----- ---------- --- --- ------ ------ wary -- ------<br>------- --- ------ ----- --- ---- ------- -- ---- --- --<br>------- ------,152934.29999999702,152933.5,152502.957,152518.5,152519.628,152936.411,,40,wary
screen,html.Screen,0_2_1_1_41,2021-12-03T13:21:41.407Z,,,,,,,,,,,,,,,,54,,,,,,,,,,,,,,412.9890000059677,,response,,,100,,,,,,Space,keypress(Space),,,,,-- --- ---- --- ------ ----- ------- ---- -- --- ------- --<br>------- ---------- ------ -- ----- -- ----- -- ---- ------<br>--- ----- --- --- ------ -------- ----- --- ------ ----- --<br>----- ----- ---------- --- --- ------ ------ ---- of ------<br>------- --- ------ ----- --- ---- ------- -- ---- --- --<br>------- ------,153350.10000000894,153349.40000000596,152919.74,152934.60000000894,152936.411,153353.132,,41,of
screen,html.Screen,0_2_1_1_42,2021-12-03T13:21:41.847Z,,,,,,,,,,,,,,,,54,,,,,,,,,,,,,,436.36799999998766,,response,,,100,,,,,,Space,keypress(Space),,,,,-- --- ---- --- ------ ----- ------- ---- -- --- ------- --<br>------- ---------- ------ -- ----- -- ----- -- ---- ------<br>--- ----- --- --- ------ -------- ----- --- ------ ----- --<br>----- ----- ---------- --- --- ------ ------ ---- -- French<br>------- --- ------ ----- --- ---- ------- -- ---- --- --<br>------- ------,153790.40000000596,153789.5,153336.462,153350.40000000596,153353.132,153803.263,,42,French
screen,html.Screen,0_2_1_1_43,2021-12-03T13:21:42.255Z,,,,,,,,,,,,,,,,54,,,,,,,,,,,,,,394.2369999999937,,response,,,100,,,,,,Space,keypress(Space),,,,,-- --- ---- --- ------ ----- ------- ---- -- --- ------- --<br>------- ---------- ------ -- ----- -- ----- -- ---- ------<br>--- ----- --- --- ------ -------- ----- --- ------ ----- --<br>----- ----- ---------- --- --- ------ ------ ---- -- ------<br>credit. --- ------ ----- --- ---- ------- -- ---- --- --<br>------- ------,154198.20000000298,154197.5,153786.593,153790.60000000894,153803.263,154203.359,,43,credit.
screen,html.Screen,0_2_1_1_44,2021-12-03T13:21:42.783Z,,,,,,,,,,,,,,,,54,,,,,,,,,,,,,,522.1410000000033,,response,,,100,,,,,,Space,keypress(Space),,,,,-- --- ---- --- ------ ----- ------- ---- -- --- ------- --<br>------- ---------- ------ -- ----- -- ----- -- ---- ------<br>--- ----- --- --- ------ -------- ----- --- ------ ----- --<br>----- ----- ---------- --- --- ------ ------ ---- -- ------<br>------- The ------ ----- --- ---- ------- -- ---- --- --<br>------- ------,154726.10000000894,154725.5,154186.689,154198.40000000596,154203.359,154736.892,,44,The
screen,html.Screen,0_2_1_1_45,2021-12-03T13:21:43.303Z,,,,,,,,,,,,,,,,54,,,,,,,,,,,,,,508.5080000059679,,response,,,100,,,,,,Space,keypress(Space),,,,,-- --- ---- --- ------ ----- ------- ---- -- --- ------- --<br>------- ---------- ------ -- ----- -- ----- -- ---- ------<br>--- ----- --- --- ------ -------- ----- --- ------ ----- --<br>----- ----- ---------- --- --- ------ ------ ---- -- ------<br>------- --- French ----- --- ---- ------- -- ---- --- --<br>------- ------,155246.20000000298,155245.40000000596,154720.221,154726.40000000596,154736.892,155253.639,,45,French
screen,html.Screen,0_2_1_1_46,2021-12-03T13:21:43.743Z,,,,,,,,,,,,,,,,54,,,,,,,,,,,,,,431.7610000059649,,response,,,100,,,,,,Space,keypress(Space),,,,,-- --- ---- --- ------ ----- ------- ---- -- --- ------- --<br>------- ---------- ------ -- ----- -- ----- -- ---- ------<br>--- ----- --- --- ------ -------- ----- --- ------ ----- --<br>----- ----- ---------- --- --- ------ ------ ---- -- ------<br>------- --- ------ state --- ---- ------- -- ---- --- --<br>------- ------,155686.10000000894,155685.40000000596,155236.969,155246.5,155253.639,155703.739,,46,state
screen,html.Screen,0_2_1_1_47,2021-12-03T13:21:44.223Z,,,,,,,,,,,,,,,,54,,,,,,,,,,,,,,461.66100000595907,,response,,,100,,,,,,Space,keypress(Space),,,,,-- --- ---- --- ------ ----- ------- ---- -- --- ------- --<br>------- ---------- ------ -- ----- -- ----- -- ---- ------<br>--- ----- --- --- ------ -------- ----- --- ------ ----- --<br>----- ----- ---------- --- --- ------ ------ ---- -- ------<br>------- --- ------ ----- was ---- ------- -- ---- --- --<br>------- ------,156166.10000000894,156165.40000000596,155687.069,155686.29999999702,155703.739,156170.546,,47,was
screen,html.Screen,0_2_1_1_48,2021-12-03T13:21:44.679Z,,,,,,,,,,,,,,,,54,,,,,,,,,,,,,,450.7539999970177,,response,,,100,,,,,,Space,keypress(Space),,,,,-- --- ---- --- ------ ----- ------- ---- -- --- ------- --<br>------- ---------- ------ -- ----- -- ----- -- ---- ------<br>--- ----- --- --- ------ -------- ----- --- ------ ----- --<br>----- ----- ---------- --- --- ------ ------ ---- -- ------<br>------- --- ------ ----- --- left ------- -- ---- --- --<br>------- ------,156622.10000000894,156621.29999999702,156153.876,156166.40000000596,156170.546,156637.345,,48,left
screen,html.Screen,0_2_1_1_49,2021-12-03T13:21:45.135Z,,,,,,,,,,,,,,,,54,,,,,,,,,,,,,,440.0550000059593,,response,,,100,,,,,,Space,keypress(Space),,,,,-- --- ---- --- ------ ----- ------- ---- -- --- ------- --<br>------- ---------- ------ -- ----- -- ----- -- ---- ------<br>--- ----- --- --- ------ -------- ----- --- ------ ----- --<br>----- ----- ---------- --- --- ------ ------ ---- -- ------<br>------- --- ------ ----- --- ---- without -- ---- --- --<br>------- ------,157078.10000000894,157077.40000000596,156620.675,156622.29999999702,156637.345,157087.509,,49,without
screen,html.Screen,0_2_1_1_50,2021-12-03T13:21:45.671Z,,,,,,,,,,,,,,,,54,,,,,,,,,,,,,,525.7909999970288,,response,,,100,,,,,,Space,keypress(Space),,,,,-- --- ---- --- ------ ----- ------- ---- -- --- ------- --<br>------- ---------- ------ -- ----- -- ----- -- ---- ------<br>--- ----- --- --- ------ -------- ----- --- ------ ----- --<br>----- ----- ---------- --- --- ------ ------ ---- -- ------<br>------- --- ------ ----- --- ---- ------- an ---- --- --<br>------- ------,157614,157613.29999999702,157070.838,157078.29999999702,157087.509,157620.942,,50,an
screen,html.Screen,0_2_1_1_51,2021-12-03T13:21:46.191Z,,,,,,,,,,,,,,,,54,,,,,,,,,,,,,,512.3579999970098,,response,,,100,,,,,,Space,keypress(Space),,,,,-- --- ---- --- ------ ----- ------- ---- -- --- ------- --<br>------- ---------- ------ -- ----- -- ----- -- ---- ------<br>--- ----- --- --- ------ -------- ----- --- ------ ----- --<br>----- ----- ---------- --- --- ------ ------ ---- -- ------<br>------- --- ------ ----- --- ---- ------- -- easy --- --<br>------- ------,158134.10000000894,158133.29999999702,157604.272,157614.29999999702,157620.942,158137.796,,51,easy
screen,html.Screen,0_2_1_1_52,2021-12-03T13:21:46.631Z,,,,,,,,,,,,,,,,54,,,,,,,,,,,,,,435.40400000297814,,response,,,100,,,,,,Space,keypress(Space),,,,,-- --- ---- --- ------ ----- ------- ---- -- --- ------- --<br>------- ---------- ------ -- ----- -- ----- -- ---- ------<br>--- ----- --- --- ------ -------- ----- --- ------ ----- --<br>----- ----- ---------- --- --- ------ ------ ---- -- ------<br>------- --- ------ ----- --- ---- ------- -- ---- way --<br>------- ------,158574,158573.20000000298,158121.125,158134.29999999702,158137.796,158587.786,,52,way
screen,html.Screen,0_2_1_1_53,2021-12-03T13:21:47.030Z,,,,,,,,,,,,,,,,54,,,,,,,,,,,,,,385.41400000298745,,response,,,100,,,,,,Space,keypress(Space),,,,,-- --- ---- --- ------ ----- ------- ---- -- --- ------- --<br>------- ---------- ------ -- ----- -- ----- -- ---- ------<br>--- ----- --- --- ------ -------- ----- --- ------ ----- --<br>----- ----- ---------- --- --- ------ ------ ---- -- ------<br>------- --- ------ ----- --- ---- ------- -- ---- --- of<br>------- ------,158974,158973.20000000298,158571.117,158574.29999999702,158587.786,158988.013,,53,of
screen,html.Screen,0_2_1_1_54,2021-12-03T13:21:47.734Z,,,,,,,,,,,,,,,,54,,,,,,,,,,,,,,689.187000002974,,response,,,100,,,,,,Space,keypress(Space),,,,,-- --- ---- --- ------ ----- ------- ---- -- --- ------- --<br>------- ---------- ------ -- ----- -- ----- -- ---- ------<br>--- ----- --- --- ------ -------- ----- --- ------ ----- --<br>----- ----- ---------- --- --- ------ ------ ---- -- ------<br>------- --- ------ ----- --- ---- ------- -- ---- --- --<br>raising ------,159677.90000000596,159677.20000000298,158971.342,158974.20000000298,158988.013,159688.202,,54,raising
screen,html.Screen,0_2_1_1_55,2021-12-03T13:21:48.374Z,,,,,,,,,,,,,,,,54,,,,,,,,,,,,,,628.8980000089505,,response,,,100,,,,,,Space,keypress(Space),,,,,-- --- ---- --- ------ ----- ------- ---- -- --- ------- --<br>------- ---------- ------ -- ----- -- ----- -- ---- ------<br>--- ----- --- --- ------ -------- ----- --- ------ ----- --<br>----- ----- ---------- --- --- ------ ------ ---- -- ------<br>------- --- ------ ----- --- ---- ------- -- ---- --- --<br>------- money.,160317.79999999702,160317.10000000894,159671.531,159678.10000000894,159688.202,160321.607,,55,money.
Item 100,flow.Loop,0_2_1_1,2021-12-03T13:21:48.375Z,,,,,,,,,,,,,,,,,,,,,,,,,,,,,,30120.269000008935,,completion,,,,E,,,,,,,,,,silence,,160318.20000000298,160317.10000000894,130180.161,130182,130196.831,160321.607,,,
Question 1,html.Screen,0_2_1_2,2021-12-03T13:21:51.950Z,,,,,,,,,,,,,,,,,,,,,,,,,,,true,TRUE,,3571.093000002991,,response,,,100,E,,,,,TRUE,click #choice-1,,,,silence,,163893.90000000596,163892.70000000298,160304.937,160318.40000000596,160321.607,163905.915,,,
Question 2,html.Screen,0_2_1_3,2021-12-03T13:21:57.046Z,,,,,,,,,,,,,,,,,,,,,,,,,,,true,FALSE,,5082.584999999992,,response,,,100,E,,,,,FALSE,click #choice-2,,,,silence,,168989.70000000298,168988.5,163889.245,163894.20000000298,163905.915,169007.368,,,
Item 100,flow.Sequence,0_2_1,2021-12-03T13:21:57.047Z,,,,,,,,,,,,,,,,,,,,,,,,,,,,,,48794.134000000005,,completion,,,,,,,,,,,,,,,,168990.20000000298,168988.5,120177.695,120184.70000000298,120194.366,169007.368,,,
End of Practice,html.Page,0_2_2,2021-12-03T13:22:03.967Z,,,,,,,,,,,,,,,,,,,,,,,,,,,,,,6902.332000002993,,form submission,,,,,,,,,,,,,,,,175910.29999999702,175909.70000000298,168990.696,168990.40000000596,169007.368,175925.812,,,
Practice,flow.Sequence,0_2,2021-12-03T13:22:03.967Z,,,,,,,,,,,,,,,,,,,,,,,,,,,,,,108413.14500000299,,completion,,,,,,,,,,,,,,,,175910.70000000298,175909.70000000298,67479.886,67483.5,67496.555,175925.812,,,
Trap_instruction,html.Page,0_3_0,2021-12-03T13:22:09.097Z,,,,,,,,,,,,,,,,,,,,,,,,,,,,,,5111.487999997014,,form submission,,,,,,,,,,,,,,,,181037.70000000298,181037.29999999702,175909.14,175911,175925.812,181077.753,,,
trap_trial,html.Screen,0_3_1,2021-12-03T13:22:13.280Z,,,,,,,,,,,,,,,,,,,,,,,,,,,true,1,,4142.046999997023,,response,,,,,,,,,1,click #choice-1,,,,,,185221,185219.79999999702,181027.728,181037.90000000596,181077.753,185234.287,,,
end of trap trial,html.Page,0_3_2,2021-12-03T13:22:18.353Z,,,,,,,,,,,,,,,,,,,,,,,,,,,,,,5058.712999999989,,form submission,,,,,,,,,,,,,,,,190293.5,190293,185217.726,185221.20000000298,185234.287,190295.948,,,
Trap 1,flow.Sequence,0_3,2021-12-03T13:22:18.353Z,,,,,,,,,,,,,,,,,,,,,,,,,,,,,,14367.187999999995,,completion,,,,,,,,,,,,,,,,190293.90000000596,190293,175909.14,175910.90000000596,175925.812,190295.948,,,
Standby,html.Page,0_4_0,2021-12-03T13:22:26.342Z,,,,,,,,,,,,,,,,,,,,,,,,,,,,,,8001.905999999988,,timeout,,,,,,,,,,,,,,,,198282.20000000298,198281.184,190279.278,190294.20000000298,190295.948,198297.854,,,
Holding screen,html.Screen,0_4_1_0_0,2021-12-03T13:22:33.344Z,,,,,,,,,,,,,,,,,,,,,,,,,,,,,,7002.296000000002,,timeout,,,,,,,,,,,,,,,,205284.79999999702,205283.48,198281.184,198282.60000000894,198297.854,205300.15,,,
screen,html.Screen,0_4_1_0_1_0,2021-12-03T13:22:34.040Z,,,,,,,,,,,,,,,,51,,,,,,,,,,,,,,679.4500000089465,,response,,,13,E,,,,,Space,keypress(Space),,,,lyrical,American -------- --- --- ---- --- --- ------ -- --------<br>---- --------- --- ------- ------------ ---------- ---------<br>--- ---------- ------- ---------- ------- -- -------- ----<br>---- --- ------ ----- ------ -- ---- --- ----- -- - -------<br>-------- -- --- --- -- ----- ----------- ----- -----------<br>---- --- ---------- --- ---- --- -- ----------,205980.40000000596,205979.60000000894,205283.48,205285.20000000298,205300.15,205983.813,,0,American
screen,html.Screen,0_4_1_0_1_1,2021-12-03T13:22:34.567Z,,,,,,,,,,,,,,,,51,,,,,,,,,,,,,,523.1870000000054,,response,,,13,E,,,,,Space,keypress(Space),,,,lyrical,-------- industry --- --- ---- --- --- ------ -- --------<br>---- --------- --- ------- ------------ ---------- ---------<br>--- ---------- ------- ---------- ------- -- -------- ----<br>---- --- ------ ----- ------ -- ---- --- ----- -- - -------<br>-------- -- --- --- -- ----- ----------- ----- -----------<br>---- --- ---------- --- ---- --- -- ----------,206507.79999999702,206507,205967.142,205980.79999999702,205983.813,206517.179,,1,industry
screen,html.Screen,0_4_1_0_1_2,2021-12-03T13:22:35.031Z,,,,,,,,,,,,,,,,51,,,,,,,,,,,,,,453.8209999999963,,response,,,13,E,,,,,Space,keypress(Space),,,,lyrical,-------- -------- may --- ---- --- --- ------ -- --------<br>---- --------- --- ------- ------------ ---------- ---------<br>--- ---------- ------- ---------- ------- -- -------- ----<br>---- --- ------ ----- ------ -- ---- --- ----- -- - -------<br>-------- -- --- --- -- ----- ----------- ----- -----------<br>---- --- ---------- --- ---- --- -- ----------,206971.90000000596,206971,206500.509,206508,206517.179,207000.753,,2,may
screen,html.Screen,0_4_1_0_1_3,2021-12-03T13:22:35.503Z,,,,,,,,,,,,,,,,51,,,,,,,,,,,,,,442.247000000003,,response,,,13,E,,,,,Space,keypress(Space),,,,lyrical,-------- -------- --- not ---- --- --- ------ -- --------<br>---- --------- --- ------- ------------ ---------- ---------<br>--- ---------- ------- ---------- ------- -- -------- ----<br>---- --- ------ ----- ------ -- ---- --- ----- -- - -------<br>-------- -- --- --- -- ----- ----------- ----- -----------<br>---- --- ---------- --- ---- --- -- ----------,207443.70000000298,207443,206984.082,206972,207000.753,207450.795,,3,not
screen,html.Screen,0_4_1_0_1_4,2021-12-03T13:22:36.015Z,,,,,,,,,,,,,,,,51,,,,,,,,,,,,,,504.00499999700696,,response,,,13,E,,,,,Space,keypress(Space),,,,lyrical,-------- -------- --- --- know --- --- ------ -- --------<br>---- --------- --- ------- ------------ ---------- ---------<br>--- ---------- ------- ---------- ------- -- -------- ----<br>---- --- ------ ----- ------ -- ---- --- ----- -- - -------<br>-------- -- --- --- -- ----- ----------- ----- -----------<br>---- --- ---------- --- ---- --- -- ----------,207955.60000000894,207954.79999999702,207434.125,207444,207450.795,207967.751,,4,know
screen,html.Screen,0_4_1_0_1_5,2021-12-03T13:22:36.431Z,,,,,,,,,,,,,,,,51,,,,,,,,,,,,,,403.0489999970305,,response,,,13,E,,,,,Space,keypress(Space),,,,lyrical,"-------- -------- --- --- ---- it, --- ------ -- --------<br>---- --------- --- ------- ------------ ---------- ---------<br>--- ---------- ------- ---------- ------- -- -------- ----<br>---- --- ------ ----- ------ -- ---- --- ----- -- - -------<br>-------- -- --- --- -- ----- ----------- ----- -----------<br>---- --- ---------- --- ---- --- -- ----------",208371.60000000894,208370.79999999702,207951.079,207955.79999999702,207967.751,208384.319,,5,"it,"
screen,html.Screen,0_4_1_0_1_6,2021-12-03T13:22:36.927Z,,,,,,,,,,,,,,,,51,,,,,,,,,,,,,,482.5810000059719,,response,,,13,E,,,,,Space,keypress(Space),,,,lyrical,-------- -------- --- --- ---- --- but ------ -- --------<br>---- --------- --- ------- ------------ ---------- ---------<br>--- ---------- ------- ---------- ------- -- -------- ----<br>---- --- ------ ----- ------ -- ---- --- ----- -- - -------<br>-------- -- --- --- -- ----- ----------- ----- -----------<br>---- --- ---------- --- ---- --- -- ----------,208867.70000000298,208866.90000000596,208367.65,208371.79999999702,208384.319,208884.523,,6,but
screen,html.Screen,0_4_1_0_1_7,2021-12-03T13:22:37.423Z,,,,,,,,,,,,,,,,51,,,,,,,,,,,,,,478.37700000597397,,response,,,13,E,,,,,Space,keypress(Space),,,,lyrical,-------- -------- --- --- ---- --- --- debate -- --------<br>---- --------- --- ------- ------------ ---------- ---------<br>--- ---------- ------- ---------- ------- -- -------- ----<br>---- --- ------ ----- ------ -- ---- --- ----- -- - -------<br>-------- -- --- --- -- ----- ----------- ----- -----------<br>---- --- ---------- --- ---- --- -- ----------,209363.70000000298,209362.90000000596,208867.853,208867.90000000596,208884.523,209367.985,,7,debate
screen,html.Screen,0_4_1_0_1_8,2021-12-03T13:22:37.927Z,,,,,,,,,,,,,,,,51,,,,,,,,,,,,,,498.91500000597443,,response,,,13,E,,,,,Space,keypress(Space),,,,lyrical,-------- -------- --- --- ---- --- --- ------ in --------<br>---- --------- --- ------- ------------ ---------- ---------<br>--- ---------- ------- ---------- ------- -- -------- ----<br>---- --- ------ ----- ------ -- ---- --- ----- -- - -------<br>-------- -- --- --- -- ----- ----------- ----- -----------<br>---- --- ---------- --- ---- --- -- ----------,209867.60000000894,209866.90000000596,209351.315,209363.90000000596,209367.985,209884.932,,8,in
screen,html.Screen,0_4_1_0_1_9,2021-12-03T13:22:38.407Z,,,,,,,,,,,,,,,,51,,,,,,,,,,,,,,461.96800000595977,,response,,,13,E,,,,,Space,keypress(Space),,,,lyrical,-------- -------- --- --- ---- --- --- ------ -- Congress<br>---- --------- --- ------- ------------ ---------- ---------<br>--- ---------- ------- ---------- ------- -- -------- ----<br>---- --- ------ ----- ------ -- ---- --- ----- -- - -------<br>-------- -- --- --- -- ----- ----------- ----- -----------<br>---- --- ---------- --- ---- --- -- ----------,210347.70000000298,210346.90000000596,209868.26,209867.90000000596,209884.932,210351.612,,9,Congress
screen,html.Screen,0_4_1_0_1_10,2021-12-03T13:22:38.903Z,,,,,,,,,,,,,,,,51,,,,,,,,,,,,,,491.28800000596675,,response,,,13,E,,,,,Space,keypress(Space),,,,lyrical,-------- -------- --- --- ---- --- --- ------ -- --------<br>over --------- --- ------- ------------ ---------- ---------<br>--- ---------- ------- ---------- ------- -- -------- ----<br>---- --- ------ ----- ------ -- ---- --- ----- -- - -------<br>-------- -- --- --- -- ----- ----------- ----- -----------<br>---- --- ---------- --- ---- --- -- ----------,210843.60000000894,210842.90000000596,210334.942,210347.90000000596,210351.612,210851.755,,10,over
screen,html.Screen,0_4_1_0_1_11,2021-12-03T13:22:39.415Z,,,,,,,,,,,,,,,,51,,,,,,,,,,,,,,502.84500000893604,,response,,,13,E,,,,,Space,keypress(Space),,,,lyrical,-------- -------- --- --- ---- --- --- ------ -- --------<br>---- reforming --- ------- ------------ ---------- ---------<br>--- ---------- ------- ---------- ------- -- -------- ----<br>---- --- ------ ----- ------ -- ---- --- ----- -- - -------<br>-------- -- --- --- -- ----- ----------- ----- -----------<br>---- --- ---------- --- ---- --- -- ----------,211355.40000000596,211354.60000000894,210835.085,210843.79999999702,210851.755,211368.512,,11,reforming
screen,html.Screen,0_4_1_0_1_12,2021-12-03T13:22:39.887Z,,,,,,,,,,,,,,,,51,,,,,,,,,,,,,,458.2879999970319,,response,,,13,E,,,,,Space,keypress(Space),,,,lyrical,-------- -------- --- --- ---- --- --- ------ -- --------<br>---- --------- the ------- ------------ ---------- ---------<br>--- ---------- ------- ---------- ------- -- -------- ----<br>---- --- ------ ----- ------ -- ---- --- ----- -- - -------<br>-------- -- --- --- -- ----- ----------- ----- -----------<br>---- --- ---------- --- ---- --- -- ----------,211827.60000000894,211826.79999999702,211351.842,211355.70000000298,211368.512,211835.338,,12,the
screen,html.Screen,0_4_1_0_1_13,2021-12-03T13:22:40.439Z,,,,,,,,,,,,,,,,51,,,,,,,,,,,,,,543.3620000029914,,response,,,13,E,,,,,Space,keypress(Space),,,,lyrical,-------- -------- --- --- ---- --- --- ------ -- --------<br>---- --------- --- federal ------------ ---------- ---------<br>--- ---------- ------- ---------- ------- -- -------- ----<br>---- --- ------ ----- ------ -- ---- --- ----- -- - -------<br>-------- -- --- --- -- ----- ----------- ----- -----------<br>---- --- ---------- --- ---- --- -- ----------,212379.5,212378.70000000298,211818.668,211827.79999999702,211835.338,212385.53,,13,federal
screen,html.Screen,0_4_1_0_1_14,2021-12-03T13:22:40.951Z,,,,,,,,,,,,,,,,51,,,,,,,,,,,,,,505.1700000029814,,response,,,13,E,,,,,Space,keypress(Space),,,,lyrical,-------- -------- --- --- ---- --- --- ------ -- --------<br>---- --------- --- ------- government's ---------- ---------<br>--- ---------- ------- ---------- ------- -- -------- ----<br>---- --- ------ ----- ------ -- ---- --- ----- -- - -------<br>-------- -- --- --- -- ----- ----------- ----- -----------<br>---- --- ---------- --- ---- --- -- ----------,212891.5,212890.70000000298,212368.859,212379.79999999702,212385.53,212902.3,,14,government's
screen,html.Screen,0_4_1_0_1_15,2021-12-03T13:22:41.463Z,,,,,,,,,,,,,,,,51,,,,,,,,,,,,,,500.4000000029919,,response,,,13,E,,,,,Space,keypress(Space),,,,lyrical,-------- -------- --- --- ---- --- --- ------ -- --------<br>---- --------- --- ------- ------------ regulatory ---------<br>--- ---------- ------- ---------- ------- -- -------- ----<br>---- --- ------ ----- ------ -- ---- --- ----- -- - -------<br>-------- -- --- --- -- ----- ----------- ----- -----------<br>---- --- ---------- --- ---- --- -- ----------,213403.40000000596,213402.70000000298,212885.63,212891.79999999702,212902.3,213419.104,,15,regulatory
screen,html.Screen,0_4_1_0_1_16,2021-12-03T13:22:42.135Z,,,,,,,,,,,,,,,,51,,,,,,,,,,,,,,655.4960000089486,,response,,,13,E,,,,,Space,keypress(Space),,,,lyrical,-------- -------- --- --- ---- --- --- ------ -- --------<br>---- --------- --- ------- ------------ ---------- apparatus<br>--- ---------- ------- ---------- ------- -- -------- ----<br>---- --- ------ ----- ------ -- ---- --- ----- -- - -------<br>-------- -- --- --- -- ----- ----------- ----- -----------<br>---- --- ---------- --- ---- --- -- ----------,214075.29999999702,214074.60000000894,213402.434,213403.70000000298,213419.104,214085.904,,16,apparatus
screen,html.Screen,0_4_1_0_1_17,2021-12-03T13:22:42.687Z,,,,,,,,,,,,,,,,51,,,,,,,,,,,,,,540.7960000029707,,response,,,13,E,,,,,Space,keypress(Space),,,,lyrical,-------- -------- --- --- ---- --- --- ------ -- --------<br>---- --------- --- ------- ------------ ---------- ---------<br>may ---------- ------- ---------- ------- -- -------- ----<br>---- --- ------ ----- ------ -- ---- --- ----- -- - -------<br>-------- -- --- --- -- ----- ----------- ----- -----------<br>---- --- ---------- --- ---- --- -- ----------,214627.40000000596,214626.70000000298,214069.234,214075.60000000894,214085.904,214636.153,,17,may
screen,html.Screen,0_4_1_0_1_18,2021-12-03T13:22:43.183Z,,,,,,,,,,,,,,,,51,,,,,,,,,,,,,,486.44700000894954,,response,,,13,E,,,,,Space,keypress(Space),,,,lyrical,-------- -------- --- --- ---- --- --- ------ -- --------<br>---- --------- --- ------- ------------ ---------- ---------<br>--- profoundly ------- ---------- ------- -- -------- ----<br>---- --- ------ ----- ------ -- ---- --- ----- -- - -------<br>-------- -- --- --- -- ----- ----------- ----- -----------<br>---- --- ---------- --- ---- --- -- ----------,215123.40000000596,215122.60000000894,214619.482,214627.60000000894,214636.153,215136.091,,18,profoundly
screen,html.Screen,0_4_1_0_1_19,2021-12-03T13:22:43.751Z,,,,,,,,,,,,,,,,51,,,,,,,,,,,,,,554.5090000089549,,response,,,13,E,,,,,Space,keypress(Space),,,,lyrical,-------- -------- --- --- ---- --- --- ------ -- --------<br>---- --------- --- ------- ------------ ---------- ---------<br>--- ---------- improve ---------- ------- -- -------- ----<br>---- --- ------ ----- ------ -- ---- --- ----- -- - -------<br>-------- -- --- --- -- ----- ----------- ----- -----------<br>---- --- ---------- --- ---- --- -- ----------,215691.40000000596,215690.60000000894,215119.422,215123.60000000894,215136.091,215703.139,,19,improve
screen,html.Screen,0_4_1_0_1_20,2021-12-03T13:22:44.255Z,,,,,,,,,,,,,,,,51,,,,,,,,,,,,,,491.7610000059649,,response,,,13,E,,,,,Space,keypress(Space),,,,lyrical,-------- -------- --- --- ---- --- --- ------ -- --------<br>---- --------- --- ------- ------------ ---------- ---------<br>--- ---------- ------- companies' ------- -- -------- ----<br>---- --- ------ ----- ------ -- ---- --- ----- -- - -------<br>-------- -- --- --- -- ----- ----------- ----- -----------<br>---- --- ---------- --- ---- --- -- ----------,216195.60000000894,216194.90000000596,215686.467,215691.60000000894,215703.139,216203.055,,20,companies'
screen,html.Screen,0_4_1_0_1_21,2021-12-03T13:22:44.815Z,,,,,,,,,,,,,,,,51,,,,,,,,,,,,,,551.445000000007,,response,,,13,E,,,,,Space,keypress(Space),,,,lyrical,-------- -------- --- --- ---- --- --- ------ -- --------<br>---- --------- --- ------- ------------ ---------- ---------<br>--- ---------- ------- ---------- ability -- -------- ----<br>---- --- ------ ----- ------ -- ---- --- ----- -- - -------<br>-------- -- --- --- -- ----- ----------- ----- -----------<br>---- --- ---------- --- ---- --- -- ----------,216755.20000000298,216754.5,216186.386,216195.90000000596,216203.055,216770.012,,21,ability
screen,html.Screen,0_4_1_0_1_22,2021-12-03T13:22:45.399Z,,,,,,,,,,,,,,,,51,,,,,,,,,,,,,,568.4880000000121,,response,,,13,E,,,,,Space,keypress(Space),,,,lyrical,-------- -------- --- --- ---- --- --- ------ -- --------<br>---- --------- --- ------- ------------ ---------- ---------<br>--- ---------- ------- ---------- ------- to -------- ----<br>---- --- ------ ----- ------ -- ---- --- ----- -- - -------<br>-------- -- --- --- -- ----- ----------- ----- -----------<br>---- --- ---------- --- ---- --- -- ----------,217339.29999999702,217338.5,216753.341,216755.40000000596,216770.012,217353.541,,22,to
screen,html.Screen,0_4_1_0_1_23,2021-12-03T13:22:46.063Z,,,,,,,,,,,,,,,,51,,,,,,,,,,,,,,648.9590000000026,,response,,,13,E,,,,,Space,keypress(Space),,,,lyrical,-------- -------- --- --- ---- --- --- ------ -- --------<br>---- --------- --- ------- ------------ ---------- ---------<br>--- ---------- ------- ---------- ------- -- survive. ----<br>---- --- ------ ----- ------ -- ---- --- ----- -- - -------<br>-------- -- --- --- -- ----- ----------- ----- -----------<br>---- --- ---------- --- ---- --- -- ----------,218003.29999999702,218002.5,217336.87,217339.5,217353.541,218020.285,,23,survive.
screen,html.Screen,0_4_1_0_1_24,2021-12-03T13:22:46.551Z,,,,,,,,,,,,,,,,51,,,,,,,,,,,,,,470.115000005957,,response,,,13,E,,,,,Space,keypress(Space),,,,lyrical,-------- -------- --- --- ---- --- --- ------ -- --------<br>---- --------- --- ------- ------------ ---------- ---------<br>--- ---------- ------- ---------- ------- -- -------- This<br>---- --- ------ ----- ------ -- ---- --- ----- -- - -------<br>-------- -- --- --- -- ----- ----------- ----- -----------<br>---- --- ---------- --- ---- --- -- ----------,218491.20000000298,218490.40000000596,218003.615,218003.5,218020.285,218503.829,,24,This
screen,html.Screen,0_4_1_0_1_25,2021-12-03T13:22:47.174Z,,,,,,,,,,,,,,,,51,,,,,,,,,,,,,,610.4709999970219,,response,,,13,E,,,,,Space,keypress(Space),,,,lyrical,-------- -------- --- --- ---- --- --- ------ -- --------<br>---- --------- --- ------- ------------ ---------- ---------<br>--- ---------- ------- ---------- ------- -- -------- ----<br>week --- ------ ----- ------ -- ---- --- ----- -- - -------<br>-------- -- --- --- -- ----- ----------- ----- -----------<br>---- --- ---------- --- ---- --- -- ----------,219115.10000000894,219114.29999999702,218487.158,218491.40000000596,218503.829,219120.614,,25,week
screen,html.Screen,0_4_1_0_1_26,2021-12-03T13:22:47.711Z,,,,,,,,,,,,,,,,51,,,,,,,,,,,,,,529.7860000059591,,response,,,13,E,,,,,Space,keypress(Space),,,,lyrical,-------- -------- --- --- ---- --- --- ------ -- --------<br>---- --------- --- ------- ------------ ---------- ---------<br>--- ---------- ------- ---------- ------- -- -------- ----<br>---- the ------ ----- ------ -- ---- --- ----- -- - -------<br>-------- -- --- --- -- ----- ----------- ----- -----------<br>---- --- ---------- --- ---- --- -- ----------,219651.20000000298,219650.40000000596,219103.944,219115.29999999702,219120.614,219654.098,,26,the
screen,html.Screen,0_4_1_0_1_27,2021-12-03T13:22:48.358Z,,,,,,,,,,,,,,,,51,,,,,,,,,,,,,,644.2019999970216,,response,,,13,E,,,,,Space,keypress(Space),,,,lyrical,-------- -------- --- --- ---- --- --- ------ -- --------<br>---- --------- --- ------- ------------ ---------- ---------<br>--- ---------- ------- ---------- ------- -- -------- ----<br>---- --- Senate ----- ------ -- ---- --- ----- -- - -------<br>-------- -- --- --- -- ----- ----------- ----- -----------<br>---- --- ---------- --- ---- --- -- ----------,220299.10000000894,220298.29999999702,219637.428,219651.40000000596,219654.098,220304.199,,27,Senate
screen,html.Screen,0_4_1_0_1_28,2021-12-03T13:22:48.846Z,,,,,,,,,,,,,,,,51,,,,,,,,,,,,,,482.1009999970265,,response,,,13,E,,,,,Space,keypress(Space),,,,lyrical,-------- -------- --- --- ---- --- --- ------ -- --------<br>---- --------- --- ------- ------------ ---------- ---------<br>--- ---------- ------- ---------- ------- -- -------- ----<br>---- --- ------ seems ------ -- ---- --- ----- -- - -------<br>-------- -- --- --- -- ----- ----------- ----- -----------<br>---- --- ---------- --- ---- --- -- ----------,220787.10000000894,220786.29999999702,220287.529,220299.40000000596,220304.199,220804.525,,28,seems
screen,html.Screen,0_4_1_0_1_29,2021-12-03T13:22:49.502Z,,,,,,,,,,,,,,,,51,,,,,,,,,,,,,,637.7749999970256,,response,,,13,E,,,,,Space,keypress(Space),,,,lyrical,-------- -------- --- --- ---- --- --- ------ -- --------<br>---- --------- --- ------- ------------ ---------- ---------<br>--- ---------- ------- ---------- ------- -- -------- ----<br>---- --- ------ ----- poised -- ---- --- ----- -- - -------<br>-------- -- --- --- -- ----- ----------- ----- -----------<br>---- --- ---------- --- ---- --- -- ----------,221443.10000000894,221442.29999999702,220787.853,220787.29999999702,220804.525,221454.44,,29,poised
screen,html.Screen,0_4_1_0_1_30,2021-12-03T13:22:49.942Z,,,,,,,,,,,,,,,,51,,,,,,,,,,,,,,427.85999999701744,,response,,,13,E,,,,,Space,keypress(Space),,,,lyrical,-------- -------- --- --- ---- --- --- ------ -- --------<br>---- --------- --- ------- ------------ ---------- ---------<br>--- ---------- ------- ---------- ------- -- -------- ----<br>---- --- ------ ----- ------ to ---- --- ----- -- - -------<br>-------- -- --- --- -- ----- ----------- ----- -----------<br>---- --- ---------- --- ---- --- -- ----------,221883.10000000894,221882.29999999702,221437.771,221443.29999999702,221454.44,221888.143,,30,to
screen,html.Screen,0_4_1_0_1_31,2021-12-03T13:22:50.462Z,,,,,,,,,,,,,,,,51,,,,,,,,,,,,,,514.1569999970088,,response,,,13,E,,,,,Space,keypress(Space),,,,lyrical,-------- -------- --- --- ---- --- --- ------ -- --------<br>---- --------- --- ------- ------------ ---------- ---------<br>--- ---------- ------- ---------- ------- -- -------- ----<br>---- --- ------ ----- ------ -- join --- ----- -- - -------<br>-------- -- --- --- -- ----- ----------- ----- -----------<br>---- --- ---------- --- ---- --- -- ----------,222403.10000000894,222402.29999999702,221871.471,221883.29999999702,221888.143,222421.503,,31,join
screen,html.Screen,0_4_1_0_1_32,2021-12-03T13:22:50.926Z,,,,,,,,,,,,,,,,51,,,,,,,,,,,,,,444.69700000298326,,response,,,13,E,,,,,Space,keypress(Space),,,,lyrical,-------- -------- --- --- ---- --- --- ------ -- --------<br>---- --------- --- ------- ------------ ---------- ---------<br>--- ---------- ------- ---------- ------- -- -------- ----<br>---- --- ------ ----- ------ -- ---- the ----- -- - -------<br>-------- -- --- --- -- ----- ----------- ----- -----------<br>---- --- ---------- --- ---- --- -- ----------,222867,222866.20000000298,222404.833,222403.20000000298,222421.503,222871.668,,32,the
screen,html.Screen,0_4_1_0_1_33,2021-12-03T13:22:51.542Z,,,,,,,,,,,,,,,,51,,,,,,,,,,,,,,610.5320000029751,,response,,,13,E,,,,,Space,keypress(Space),,,,lyrical,-------- -------- --- --- ---- --- --- ------ -- --------<br>---- --------- --- ------- ------------ ---------- ---------<br>--- ---------- ------- ---------- ------- -- -------- ----<br>---- --- ------ ----- ------ -- ---- --- House -- - -------<br>-------- -- --- --- -- ----- ----------- ----- -----------<br>---- --- ---------- --- ---- --- -- ----------,223483.10000000894,223482.20000000298,222854.997,222867.20000000298,222871.668,223488.436,,33,House
screen,html.Screen,0_4_1_0_1_34,2021-12-03T13:22:51.982Z,,,,,,,,,,,,,,,,51,,,,,,,,,,,,,,433.56400000001304,,response,,,13,E,,,,,Space,keypress(Space),,,,lyrical,-------- -------- --- --- ---- --- --- ------ -- --------<br>---- --------- --- ------- ------------ ---------- ---------<br>--- ---------- ------- ---------- ------- -- -------- ----<br>---- --- ------ ----- ------ -- ---- --- ----- in - -------<br>-------- -- --- --- -- ----- ----------- ----- -----------<br>---- --- ---------- --- ---- --- -- ----------,223922.79999999702,223922,223471.766,223483.29999999702,223488.436,223938.557,,34,in
screen,html.Screen,0_4_1_0_1_35,2021-12-03T13:22:52.454Z,,,,,,,,,,,,,,,,51,,,,,,,,,,,,,,455.4429999999993,,response,,,13,E,,,,,Space,keypress(Space),,,,lyrical,-------- -------- --- --- ---- --- --- ------ -- --------<br>---- --------- --- ------- ------------ ---------- ---------<br>--- ---------- ------- ---------- ------- -- -------- ----<br>---- --- ------ ----- ------ -- ---- --- ----- -- a -------<br>-------- -- --- --- -- ----- ----------- ----- -----------<br>---- --- ---------- --- ---- --- -- ----------,224394.79999999702,224394,223921.887,223923.10000000894,223938.557,224405.401,,35,a
screen,html.Screen,0_4_1_0_1_36,2021-12-03T13:22:52.974Z,,,,,,,,,,,,,,,,51,,,,,,,,,,,,,,508.6990000089281,,response,,,13,E,,,,,Space,keypress(Space),,,,lyrical,-------- -------- --- --- ---- --- --- ------ -- --------<br>---- --------- --- ------- ------------ ---------- ---------<br>--- ---------- ------- ---------- ------- -- -------- ----<br>---- --- ------ ----- ------ -- ---- --- ----- -- - massive<br>-------- -- --- --- -- ----- ----------- ----- -----------<br>---- --- ---------- --- ---- --- -- ----------,224914.79999999702,224914.10000000894,224388.73,224395.10000000894,224405.401,224922.153,,36,massive
screen,html.Screen,0_4_1_0_1_37,2021-12-03T13:22:53.526Z,,,,,,,,,,,,,,,,51,,,,,,,,,,,,,,543.9470000089495,,response,,,13,E,,,,,Space,keypress(Space),,,,lyrical,-------- -------- --- --- ---- --- --- ------ -- --------<br>---- --------- --- ------- ------------ ---------- ---------<br>--- ---------- ------- ---------- ------- -- -------- ----<br>---- --- ------ ----- ------ -- ---- --- ----- -- - -------<br>overhaul -- --- --- -- ----- ----------- ----- -----------<br>---- --- ---------- --- ---- --- -- ----------,225466.90000000596,225466.10000000894,224905.483,224915,224922.153,225472.274,,37,overhaul
screen,html.Screen,0_4_1_0_1_38,2021-12-03T13:22:54.078Z,,,,,,,,,,,,,,,,51,,,,,,,,,,,,,,545.8260000089358,,response,,,13,E,,,,,Space,keypress(Space),,,,lyrical,-------- -------- --- --- ---- --- --- ------ -- --------<br>---- --------- --- ------- ------------ ---------- ---------<br>--- ---------- ------- ---------- ------- -- -------- ----<br>---- --- ------ ----- ------ -- ---- --- ----- -- - -------<br>-------- of --- --- -- ----- ----------- ----- -----------<br>---- --- ---------- --- ---- --- -- ----------,226018.90000000596,226018.10000000894,225455.604,225467.10000000894,225472.274,226022.418,,38,of
screen,html.Screen,0_4_1_0_1_39,2021-12-03T13:22:54.774Z,,,,,,,,,,,,,,,,51,,,,,,,,,,,,,,691.8819999970146,,response,,,13,E,,,,,Space,keypress(Space),,,,lyrical,-------- -------- --- --- ---- --- --- ------ -- --------<br>---- --------- --- ------- ------------ ---------- ---------<br>--- ---------- ------- ---------- ------- -- -------- ----<br>---- --- ------ ----- ------ -- ---- --- ----- -- - -------<br>-------- -- the --- -- ----- ----------- ----- -----------<br>---- --- ---------- --- ---- --- -- ----------,226715.10000000894,226714.29999999702,226005.748,226019.10000000894,226022.418,226722.676,,39,the
screen,html.Screen,0_4_1_0_1_40,2021-12-03T13:22:55.302Z,,,,,,,,,,,,,,,,51,,,,,,,,,,,,,,519.424000008934,,response,,,13,E,,,,,Space,keypress(Space),,,,lyrical,-------- -------- --- --- ---- --- --- ------ -- --------<br>---- --------- --- ------- ------------ ---------- ---------<br>--- ---------- ------- ---------- ------- -- -------- ----<br>---- --- ------ ----- ------ -- ---- --- ----- -- - -------<br>-------- -- --- way -- ----- ----------- ----- -----------<br>---- --- ---------- --- ---- --- -- ----------,227242.79999999702,227242.10000000894,226706.005,226715.29999999702,226722.676,227256.072,,40,way
screen,html.Screen,0_4_1_0_1_41,2021-12-03T13:22:55.942Z,,,,,,,,,,,,,,,,51,,,,,,,,,,,,,,625.9280000000144,,response,,,13,E,,,,,Space,keypress(Space),,,,lyrical,-------- -------- --- --- ---- --- --- ------ -- --------<br>---- --------- --- ------- ------------ ---------- ---------<br>--- ---------- ------- ---------- ------- -- -------- ----<br>---- --- ------ ----- ------ -- ---- --- ----- -- - -------<br>-------- -- --- --- in ----- ----------- ----- -----------<br>---- --- ---------- --- ---- --- -- ----------,227882.79999999702,227882,227239.402,227243,227256.072,227889.611,,41,in
screen,html.Screen,0_4_1_0_1_42,2021-12-03T13:22:56.430Z,,,,,,,,,,,,,,,,51,,,,,,,,,,,,,,480.3889999999956,,response,,,13,E,,,,,Space,keypress(Space),,,,lyrical,-------- -------- --- --- ---- --- --- ------ -- --------<br>---- --------- --- ------- ------------ ---------- ---------<br>--- ---------- ------- ---------- ------- -- -------- ----<br>---- --- ------ ----- ------ -- ---- --- ----- -- - -------<br>-------- -- --- --- -- which ----------- ----- -----------<br>---- --- ---------- --- ---- --- -- ----------,228370.79999999702,228370,227872.941,227883,227889.611,228372.933,,42,which
screen,html.Screen,0_4_1_0_1_43,2021-12-03T13:22:57.318Z,,,,,,,,,,,,,,,,51,,,,,,,,,,,,,,884.9670000059705,,response,,,13,E,,,,,Space,keypress(Space),,,,lyrical,-------- -------- --- --- ---- --- --- ------ -- --------<br>---- --------- --- ------- ------------ ---------- ---------<br>--- ---------- ------- ---------- ------- -- -------- ----<br>---- --- ------ ----- ------ -- ---- --- ----- -- - -------<br>-------- -- --- --- -- ----- bureaucrats ----- -----------<br>---- --- ---------- --- ---- --- -- ----------,229258.90000000596,229257.90000000596,228356.264,228371,228372.933,229273.251,,43,bureaucrats
screen,html.Screen,0_4_1_0_1_44,2021-12-03T13:22:57.894Z,,,,,,,,,,,,,,,,51,,,,,,,,,,,,,,560.5489999970305,,response,,,13,E,,,,,Space,keypress(Space),,,,lyrical,-------- -------- --- --- ---- --- --- ------ -- --------<br>---- --------- --- ------- ------------ ---------- ---------<br>--- ---------- ------- ---------- ------- -- -------- ----<br>---- --- ------ ----- ------ -- ---- --- ----- -- - -------<br>-------- -- --- --- -- ----- ----------- enact -----------<br>---- --- ---------- --- ---- --- -- ----------,229834.60000000894,229833.79999999702,229256.581,229259.10000000894,229273.251,229840.241,,44,enact
screen,html.Screen,0_4_1_0_1_45,2021-12-03T13:22:58.654Z,,,,,,,,,,,,,,,,51,,,,,,,,,,,,,,753.4590000029712,,response,,,13,E,,,,,Space,keypress(Space),,,,lyrical,-------- -------- --- --- ---- --- --- ------ -- --------<br>---- --------- --- ------- ------------ ---------- ---------<br>--- ---------- ------- ---------- ------- -- -------- ----<br>---- --- ------ ----- ------ -- ---- --- ----- -- - -------<br>-------- -- --- --- -- ----- ----------- ----- regulations<br>---- --- ---------- --- ---- --- -- ----------,230594.60000000894,230593.70000000298,229823.569,229834.79999999702,229840.241,230606.986,,45,regulations
screen,html.Screen,0_4_1_0_1_46,2021-12-03T13:22:59.134Z,,,,,,,,,,,,,,,,51,,,,,,,,,,,,,,466.81399999701534,,response,,,13,E,,,,,Space,keypress(Space),,,,lyrical,-------- -------- --- --- ---- --- --- ------ -- --------<br>---- --------- --- ------- ------------ ---------- ---------<br>--- ---------- ------- ---------- ------- -- -------- ----<br>---- --- ------ ----- ------ -- ---- --- ----- -- - -------<br>-------- -- --- --- -- ----- ----------- ----- -----------<br>that --- ---------- --- ---- --- -- ----------,231074.5,231073.79999999702,230590.316,230594.79999999702,230606.986,231090.345,,46,that
screen,html.Screen,0_4_1_0_1_47,2021-12-03T13:22:59.630Z,,,,,,,,,,,,,,,,51,,,,,,,,,,,,,,479.4549999970186,,response,,,13,E,,,,,Space,keypress(Space),,,,lyrical,-------- -------- --- --- ---- --- --- ------ -- --------<br>---- --------- --- ------- ------------ ---------- ---------<br>--- ---------- ------- ---------- ------- -- -------- ----<br>---- --- ------ ----- ------ -- ---- --- ----- -- - -------<br>-------- -- --- --- -- ----- ----------- ----- -----------<br>---- are ---------- --- ---- --- -- ----------,231570.60000000894,231569.79999999702,231073.676,231074.70000000298,231090.345,231573.887,,47,are
screen,html.Screen,0_4_1_0_1_48,2021-12-03T13:23:00.238Z,,,,,,,,,,,,,,,,51,,,,,,,,,,,,,,604.0130000059726,,response,,,13,E,,,,,Space,keypress(Space),,,,lyrical,-------- -------- --- --- ---- --- --- ------ -- --------<br>---- --------- --- ------- ------------ ---------- ---------<br>--- ---------- ------- ---------- ------- -- -------- ----<br>---- --- ------ ----- ------ -- ---- --- ----- -- - -------<br>-------- -- --- --- -- ----- ----------- ----- -----------<br>---- --- strangling --- ---- --- -- ----------,232178.60000000894,232177.90000000596,231557.217,231570.90000000596,231573.887,232190.802,,48,strangling
screen,html.Screen,0_4_1_0_1_49,2021-12-03T13:23:00.806Z,,,,,,,,,,,,,,,,51,,,,,,,,,,,,,,554.9979999970237,,response,,,13,E,,,,,Space,keypress(Space),,,,lyrical,-------- -------- --- --- ---- --- --- ------ -- --------<br>---- --------- --- ------- ------------ ---------- ---------<br>--- ---------- ------- ---------- ------- -- -------- ----<br>---- --- ------ ----- ------ -- ---- --- ----- -- - -------<br>-------- -- --- --- -- ----- ----------- ----- -----------<br>---- --- ---------- the ---- --- -- ----------,232746.60000000894,232745.79999999702,232174.131,232178.90000000596,232190.802,232757.611,,49,the
screen,html.Screen,0_4_1_0_1_50,2021-12-03T13:23:01.310Z,,,,,,,,,,,,,,,,51,,,,,,,,,,,,,,492.0890000029758,,response,,,13,E,,,,,Space,keypress(Space),,,,lyrical,-------- -------- --- --- ---- --- --- ------ -- --------<br>---- --------- --- ------- ------------ ---------- ---------<br>--- ---------- ------- ---------- ------- -- -------- ----<br>---- --- ------ ----- ------ -- ---- --- ----- -- - -------<br>-------- -- --- --- -- ----- ----------- ----- -----------<br>---- --- ---------- --- life --- -- ----------,233250.60000000894,233249.70000000298,232740.94,232746.79999999702,232757.611,233257.756,,50,life
