sender,sender_type,sender_id,timestamp,meta,,Blues,Classical,Country,Dance,Electronic,Folk,Gospel,Hip-Hop,Jazz,Latin,Musical/Film,New-age,Pop,Provo_ID,R&B,Rap,Reggae,Religious,Rock,Soul,Swing,Traditional,age,artist_name,correct,correctResponse,distraction,duration,education,ended_on,familiarity,gender,item,list,music_frequency,offensiveness,pleasantness,preference,response,response_action,snippet_file,song_name,song_rating,sound,text,time_commit,time_end,time_render,time_run,time_show,time_switch,url,word,word_ID
Instructions,html.Page,0_0,2021-11-19T15:30:58.048Z,"{""labjs_version"":""20.2.3"",""labjs_build"":{""flavor"":""production"",""commit"":""7ea907d66ca8aeef8054924ca5d82ffbe11e34e5""},""location"":""https://run.pavlovia.org/mvasilev/lab_music_a/"",""userAgent"":""Mozilla/5.0 (Windows NT 6.1; Win64; x64) AppleWebKit/537.36 (KHTML, like Gecko) Chrome/96.0.4664.45 Safari/537.36"",""platform"":""Win32"",""language"":""en-US"",""locale"":""en-US"",""timeZone"":""Europe/London"",""timezoneOffset"":0,""screen_width"":1920,""screen_height"":1080,""scroll_width"":1920,""scroll_height"":959,""window_innerWidth"":1920,""window_innerHeight"":1007,""devicePixelRatio"":1}",,,,,,,,,,,,,,,,,,,,,,,,,,,,,18729.867000047685,,form submission,,,,,,,,,,,,,,,,26847.89999985695,26846.700000047684,8083.505,8094.099999904633,8116.833,26841.764,{},,
Headphones,html.Page,0_1,2021-11-19T15:31:00.618Z,,,,,,,,,,,,,,,,,,,,,,,,,,,,,,2575.6359998569496,,form submission,,,,,,,,,,,,,,,,29417.89999985695,29417.39999985695,26825.092,26848.599999904633,26841.764,29425.799,,,
Holding screen,html.Screen,0_2_0_0,2021-11-19T15:31:10.619Z,,,,,,,,,,,,,,,,,,,,,,,,,,,,,,10002.491000000002,,timeout,,,,,,,,,,,,,,,,39418.200000047684,39411.62,29409.128,29418.39999985695,29425.799,39428.29,,,
screen,html.Screen,0_2_0_1_0,2021-11-19T15:31:11.306Z,,,,,,,,,,,,,,,,53,,,,,,,,,,,,,,676.0099999523154,,response,,,99,,,,,,Space,keypress(Space),,,,,When -- ----- -- ------ - ------- --- ----------<br>------------- ------ ------ ---- ---- ------- ----- -- ----<br>-------- ------- -- ---------- --- - --- ----- ----- ----<br>---- --- --- ----- --- ---- ---- ------- ----- ---- -------<br>--- --- -- ----- -- --- ---- -- --- ---- -- ------ ------<br>--- ----- -- ----,40105.700000047684,40104.299999952316,39411.62,39418.59999990463,39428.29,40111.955,,0,When
screen,html.Screen,0_2_0_1_1,2021-11-19T15:31:11.673Z,,,,,,,,,,,,,,,,53,,,,,,,,,,,,,,359.9449998569471,,response,,,99,,,,,,Space,keypress(Space),,,,,---- it ----- -- ------ - ------- --- ----------<br>------------- ------ ------ ---- ---- ------- ----- -- ----<br>-------- ------- -- ---------- --- - --- ----- ----- ----<br>---- --- --- ----- --- ---- ---- ------- ----- ---- -------<br>--- --- -- ----- -- --- ---- -- --- ---- -- ------ ------<br>--- ----- -- ----,40472.700000047684,40471.89999985695,40095.284,40106.09999990463,40111.955,40478.718,,1,it
screen,html.Screen,0_2_0_1_2,2021-11-19T15:31:12.025Z,,,,,,,,,,,,,,,,53,,,,,,,,,,,,,,345.0819999523155,,response,,,99,,,,,,Space,keypress(Space),,,,,---- -- comes -- ------ - ------- --- ----------<br>------------- ------ ------ ---- ---- ------- ----- -- ----<br>-------- ------- -- ---------- --- - --- ----- ----- ----<br>---- --- --- ----- --- ---- ---- ------- ----- ---- -------<br>--- --- -- ----- -- --- ---- -- --- ---- -- ------ ------<br>--- ----- -- ----,40824.799999952316,40823.799999952316,40462.047,40473,40478.718,40828.82,,2,comes
screen,html.Screen,0_2_0_1_3,2021-11-19T15:31:12.393Z,,,,,,,,,,,,,,,,53,,,,,,,,,,,,,,363.07999985694914,,response,,,99,,,,,,Space,keypress(Space),,,,,---- -- ----- to ------ - ------- --- ----------<br>------------- ------ ------ ---- ---- ------- ----- -- ----<br>-------- ------- -- ---------- --- - --- ----- ----- ----<br>---- --- --- ----- --- ---- ---- ------- ----- ---- -------<br>--- --- -- ----- -- --- ---- -- --- ---- -- ------ ------<br>--- ----- -- ----,41192.799999952316,41191.89999985695,40812.149,40825.09999990463,40828.82,41195.578,,3,to
screen,html.Screen,0_2_0_1_4,2021-11-19T15:31:12.705Z,,,,,,,,,,,,,,,,53,,,,,,,,,,,,,,308.22199995231495,,response,,,99,,,,,,Space,keypress(Space),,,,,---- -- ----- -- having - ------- --- ----------<br>------------- ------ ------ ---- ---- ------- ----- -- ----<br>-------- ------- -- ---------- --- - --- ----- ----- ----<br>---- --- --- ----- --- ---- ---- ------- ----- ---- -------<br>--- --- -- ----- -- --- ---- -- --- ---- -- ------ ------<br>--- ----- -- ----,41504.89999985695,41503.799999952316,41178.907,41193.299999952316,41195.578,41512.329,,4,having
screen,html.Screen,0_2_0_1_5,2021-11-19T15:31:13.057Z,,,,,,,,,,,,,,,,53,,,,,,,,,,,,,,343.4709999523184,,response,,,99,,,,,,Space,keypress(Space),,,,,---- -- ----- -- ------ a ------- --- ----------<br>------------- ------ ------ ---- ---- ------- ----- -- ----<br>-------- ------- -- ---------- --- - --- ----- ----- ----<br>---- --- --- ----- --- ---- ---- ------- ----- ---- -------<br>--- --- -- ----- -- --- ---- -- --- ---- -- ------ ------<br>--- ----- -- ----,41856.700000047684,41855.799999952316,41495.658,41505.299999952316,41512.329,41862.435,,5,a
screen,html.Screen,0_2_0_1_6,2021-11-19T15:31:13.353Z,,,,,,,,,,,,,,,,53,,,,,,,,,,,,,,289.3649999523186,,response,,,99,,,,,,Space,keypress(Space),,,,,---- -- ----- -- ------ - lasting --- ----------<br>------------- ------ ------ ---- ---- ------- ----- -- ----<br>-------- ------- -- ---------- --- - --- ----- ----- ----<br>---- --- --- ----- --- ---- ---- ------- ----- ---- -------<br>--- --- -- ----- -- --- ---- -- --- ---- -- ------ ------<br>--- ----- -- ----,42152.700000047684,42151.799999952316,41845.764,41857.09999990463,41862.435,42162.473,,6,lasting
screen,html.Screen,0_2_0_1_7,2021-11-19T15:31:13.793Z,,,,,,,,,,,,,,,,53,,,,,,,,,,,,,,429.32699995231815,,response,,,99,,,,,,Space,keypress(Space),,,,,---- -- ----- -- ------ - ------- and ----------<br>------------- ------ ------ ---- ---- ------- ----- -- ----<br>-------- ------- -- ---------- --- - --- ----- ----- ----<br>---- --- --- ----- --- ---- ---- ------- ----- ---- -------<br>--- --- -- ----- -- --- ---- -- --- ---- -- ------ ------<br>--- ----- -- ----,42592.700000047684,42591.799999952316,42145.803,42153,42162.473,42595.953,,7,and
screen,html.Screen,0_2_0_1_8,2021-11-19T15:31:14.089Z,,,,,,,,,,,,,,,,53,,,,,,,,,,,,,,291.84699995231495,,response,,,99,,,,,,Space,keypress(Space),,,,,---- -- ----- -- ------ - ------- --- fulfilling<br>------------- ------ ------ ---- ---- ------- ----- -- ----<br>-------- ------- -- ---------- --- - --- ----- ----- ----<br>---- --- --- ----- --- ---- ---- ------- ----- ---- -------<br>--- --- -- ----- -- --- ---- -- --- ---- -- ------ ------<br>--- ----- -- ----,42888.799999952316,42887.799999952316,42579.282,42593,42595.953,42896.032,,8,fulfilling
screen,html.Screen,0_2_0_1_9,2021-11-19T15:31:14.505Z,,,,,,,,,,,,,,,,53,,,,,,,,,,,,,,407.6680000476845,,response,,,99,,,,,,Space,keypress(Space),,,,,"---- -- ----- -- ------ - ------- --- ----------<br>relationship, ------ ------ ---- ---- ------- ----- -- ----<br>-------- ------- -- ---------- --- - --- ----- ----- ----<br>---- --- --- ----- --- ---- ---- ------- ----- ---- -------<br>--- --- -- ----- -- --- ---- -- --- ---- -- ------ ------<br>--- ----- -- ----",43304.700000047684,43303.700000047684,42879.361,42889.09999990463,42896.032,43312.812,,9,"relationship,"
screen,html.Screen,0_2_0_1_10,2021-11-19T15:31:14.937Z,,,,,,,,,,,,,,,,53,,,,,,,,,,,,,,422.9879999523182,,response,,,99,,,,,,Space,keypress(Space),,,,,---- -- ----- -- ------ - ------- --- ----------<br>------------- common ------ ---- ---- ------- ----- -- ----<br>-------- ------- -- ---------- --- - --- ----- ----- ----<br>---- --- --- ----- --- ---- ---- ------- ----- ---- -------<br>--- --- -- ----- -- --- ---- -- --- ---- -- ------ ------<br>--- ----- -- ----,43736.700000047684,43735.799999952316,43296.141,43305,43312.812,43746.288,,10,common
screen,html.Screen,0_2_0_1_11,2021-11-19T15:31:15.289Z,,,,,,,,,,,,,,,,53,,,,,,,,,,,,,,341.41200004768325,,response,,,99,,,,,,Space,keypress(Space),,,,,---- -- ----- -- ------ - ------- --- ----------<br>------------- ------ wisdom ---- ---- ------- ----- -- ----<br>-------- ------- -- ---------- --- - --- ----- ----- ----<br>---- --- --- ----- --- ---- ---- ------- ----- ---- -------<br>--- --- -- ----- -- --- ---- -- --- ---- -- ------ ------<br>--- ----- -- ----,44088.59999990463,44087.700000047684,43729.617,43736.89999985695,43746.288,44096.192,,11,wisdom
screen,html.Screen,0_2_0_1_12,2021-11-19T15:31:15.657Z,,,,,,,,,,,,,,,,53,,,,,,,,,,,,,,359.508000047681,,response,,,99,,,,,,Space,keypress(Space),,,,,---- -- ----- -- ------ - ------- --- ----------<br>------------- ------ ------ says ---- ------- ----- -- ----<br>-------- ------- -- ---------- --- - --- ----- ----- ----<br>---- --- --- ----- --- ---- ---- ------- ----- ---- -------<br>--- --- -- ----- -- --- ---- -- --- ---- -- ------ ------<br>--- ----- -- ----,44456.5,44455.700000047684,44079.524,44088.89999985695,44096.192,44463.176,,12,says
screen,html.Screen,0_2_0_1_13,2021-11-19T15:31:16.009Z,,,,,,,,,,,,,,,,53,,,,,,,,,,,,,,344.52400004768424,,response,,,99,,,,,,Space,keypress(Space),,,,,---- -- ----- -- ------ - ------- --- ----------<br>------------- ------ ------ ---- that ------- ----- -- ----<br>-------- ------- -- ---------- --- - --- ----- ----- ----<br>---- --- --- ----- --- ---- ---- ------- ----- ---- -------<br>--- --- -- ----- -- --- ---- -- --- ---- -- ------ ------<br>--- ----- -- ----,44808.59999990463,44807.700000047684,44446.504,44456.700000047684,44463.176,44813.214,,13,that
screen,html.Screen,0_2_0_1_14,2021-11-19T15:31:16.417Z,,,,,,,,,,,,,,,,53,,,,,,,,,,,,,,402.4860000476838,,response,,,99,,,,,,Space,keypress(Space),,,,,---- -- ----- -- ------ - ------- --- ----------<br>------------- ------ ------ ---- ---- feeling ----- -- ----<br>-------- ------- -- ---------- --- - --- ----- ----- ----<br>---- --- --- ----- --- ---- ---- ------- ----- ---- -------<br>--- --- -- ----- -- --- ---- -- --- ---- -- ------ ------<br>--- ----- -- ----,45216.5,45215.700000047684,44796.543,44808.799999952316,44813.214,45229.992,,14,feeling
screen,html.Screen,0_2_0_1_15,2021-11-19T15:31:16.809Z,,,,,,,,,,,,,,,,53,,,,,,,,,,,,,,377.70800004768535,,response,,,99,,,,,,Space,keypress(Space),,,,,---- -- ----- -- ------ - ------- --- ----------<br>------------- ------ ------ ---- ---- ------- close -- ----<br>-------- ------- -- ---------- --- - --- ----- ----- ----<br>---- --- --- ----- --- ---- ---- ------- ----- ---- -------<br>--- --- -- ----- -- --- ---- -- --- ---- -- ------ ------<br>--- ----- -- ----,45608.39999985695,45607.700000047684,45213.321,45216.799999952316,45229.992,45613.269,,15,close
screen,html.Screen,0_2_0_1_16,2021-11-19T15:31:17.137Z,,,,,,,,,,,,,,,,53,,,,,,,,,,,,,,322.33099990463234,,response,,,99,,,,,,Space,keypress(Space),,,,,---- -- ----- -- ------ - ------- --- ----------<br>------------- ------ ------ ---- ---- ------- ----- to ----<br>-------- ------- -- ---------- --- - --- ----- ----- ----<br>---- --- --- ----- --- ---- ---- ------- ----- ---- -------<br>--- --- -- ----- -- --- ---- -- --- ---- -- ------ ------<br>--- ----- -- ----,45936.5,45935.59999990463,45596.601,45608.700000047684,45613.269,45946.943,,16,to
screen,html.Screen,0_2_0_1_17,2021-11-19T15:31:17.569Z,,,,,,,,,,,,,,,,53,,,,,,,,,,,,,,420.65699990463327,,response,,,99,,,,,,Space,keypress(Space),,,,,---- -- ----- -- ------ - ------- --- ----------<br>------------- ------ ------ ---- ---- ------- ----- -- your<br>-------- ------- -- ---------- --- - --- ----- ----- ----<br>---- --- --- ----- --- ---- ---- ------- ----- ---- -------<br>--- --- -- ----- -- --- ---- -- --- ---- -- ------ ------<br>--- ----- -- ----,46368.39999985695,46367.59999990463,45930.27,45936.700000047684,45946.943,46380.261,,17,your
screen,html.Screen,0_2_0_1_18,2021-11-19T15:31:17.889Z,,,,,,,,,,,,,,,,53,,,,,,,,,,,,,,307.33899990463397,,response,,,99,,,,,,Space,keypress(Space),,,,,---- -- ----- -- ------ - ------- --- ----------<br>------------- ------ ------ ---- ---- ------- ----- -- ----<br>romantic ------- -- ---------- --- - --- ----- ----- ----<br>---- --- --- ----- --- ---- ---- ------- ----- ---- -------<br>--- --- -- ----- -- --- ---- -- --- ---- -- ------ ------<br>--- ----- -- ----,46688.39999985695,46687.59999990463,46363.591,46368.59999990463,46380.261,46696.903,,18,romantic
screen,html.Screen,0_2_0_1_19,2021-11-19T15:31:18.249Z,,,,,,,,,,,,,,,,53,,,,,,,,,,,,,,350.69699990463414,,response,,,99,,,,,,Space,keypress(Space),,,,,---- -- ----- -- ------ - ------- --- ----------<br>------------- ------ ------ ---- ---- ------- ----- -- ----<br>-------- partner -- ---------- --- - --- ----- ----- ----<br>---- --- --- ----- --- ---- ---- ------- ----- ---- -------<br>--- --- -- ----- -- --- ---- -- --- ---- -- ------ ------<br>--- ----- -- ----,47048.39999985695,47047.59999990463,46680.235,46688.59999990463,46696.903,47063.874,,19,partner
screen,html.Screen,0_2_0_1_20,2021-11-19T15:31:18.545Z,,,,,,,,,,,,,,,,53,,,,,,,,,,,,,,279.72599990462913,,response,,,99,,,,,,Space,keypress(Space),,,,,---- -- ----- -- ------ - ------- --- ----------<br>------------- ------ ------ ---- ---- ------- ----- -- ----<br>-------- ------- is ---------- --- - --- ----- ----- ----<br>---- --- --- ----- --- ---- ---- ------- ----- ---- -------<br>--- --- -- ----- -- --- ---- -- --- ---- -- ------ ------<br>--- ----- -- ----,47344.39999985695,47343.59999990463,47047.202,47048.59999990463,47063.874,47347.204,,20,is
screen,html.Screen,0_2_0_1_21,2021-11-19T15:31:18.849Z,,,,,,,,,,,,,,,,53,,,,,,,,,,,,,,300.39599990463466,,response,,,99,,,,,,Space,keypress(Space),,,,,---- -- ----- -- ------ - ------- --- ----------<br>------------- ------ ------ ---- ---- ------- ----- -- ----<br>-------- ------- -- paramount. --- - --- ----- ----- ----<br>---- --- --- ----- --- ---- ---- ------- ----- ---- -------<br>--- --- -- ----- -- --- ---- -- --- ---- -- ------ ------<br>--- ----- -- ----,47648.5,47647.59999990463,47330.534,47344.59999990463,47347.204,47663.994,,21,paramount.
screen,html.Screen,0_2_0_1_22,2021-11-19T15:31:19.305Z,,,,,,,,,,,,,,,,53,,,,,,,,,,,,,,439.5060000000012,,response,,,99,,,,,,Space,keypress(Space),,,,,---- -- ----- -- ------ - ------- --- ----------<br>------------- ------ ------ ---- ---- ------- ----- -- ----<br>-------- ------- -- ---------- But - --- ----- ----- ----<br>---- --- --- ----- --- ---- ---- ------- ----- ---- -------<br>--- --- -- ----- -- --- ---- -- --- ---- -- ------ ------<br>--- ----- -- ----,48104.299999952316,48103.5,47647.323,47648.799999952316,47663.994,48113.926,,22,But
screen,html.Screen,0_2_0_1_23,2021-11-19T15:31:19.649Z,,,,,,,,,,,,,,,,53,,,,,,,,,,,,,,333.5740000000005,,response,,,99,,,,,,Space,keypress(Space),,,,,---- -- ----- -- ------ - ------- --- ----------<br>------------- ------ ------ ---- ---- ------- ----- -- ----<br>-------- ------- -- ---------- --- a --- ----- ----- ----<br>---- --- --- ----- --- ---- ---- ------- ----- ---- -------<br>--- --- -- ----- -- --- ---- -- --- ---- -- ------ ------<br>--- ----- -- ----,48448.39999985695,48447.5,48097.258,48104.5,48113.926,48464.282,,23,a
screen,html.Screen,0_2_0_1_24,2021-11-19T15:31:20.049Z,,,,,,,,,,,,,,,,53,,,,,,,,,,,,,,383.21800000000076,,response,,,99,,,,,,Space,keypress(Space),,,,,---- -- ----- -- ------ - ------- --- ----------<br>------------- ------ ------ ---- ---- ------- ----- -- ----<br>-------- ------- -- ---------- --- - new ----- ----- ----<br>---- --- --- ----- --- ---- ---- ------- ----- ---- -------<br>--- --- -- ----- -- --- ---- -- --- ---- -- ------ ------<br>--- ----- -- ----,48848.299999952316,48847.5,48447.609,48448.59999990463,48464.282,48864.311,,24,new
screen,html.Screen,0_2_0_1_25,2021-11-19T15:31:20.369Z,,,,,,,,,,,,,,,,53,,,,,,,,,,,,,,303.1889999999985,,response,,,99,,,,,,Space,keypress(Space),,,,,---- -- ----- -- ------ - ------- --- ----------<br>------------- ------ ------ ---- ---- ------- ----- -- ----<br>-------- ------- -- ---------- --- - --- study ----- ----<br>---- --- --- ----- --- ---- ---- ------- ----- ---- -------<br>--- --- -- ----- -- --- ---- -- --- ---- -- ------ ------<br>--- ----- -- ----,49168.299999952316,49167.5,48847.64,48848.59999990463,48864.311,49181.025,,25,study
screen,html.Screen,0_2_0_1_26,2021-11-19T15:31:20.913Z,,,,,,,,,,,,,,,,53,,,,,,,,,,,,,,530.4749999999985,,response,,,99,,,,,,Space,keypress(Space),,,,,---- -- ----- -- ------ - ------- --- ----------<br>------------- ------ ------ ---- ---- ------- ----- -- ----<br>-------- ------- -- ---------- --- - --- ----- finds ----<br>---- --- --- ----- --- ---- ---- ------- ----- ---- -------<br>--- --- -- ----- -- --- ---- -- --- ---- -- ------ ------<br>--- ----- -- ----,49712.200000047684,49711.5,49164.355,49168.5,49181.025,49714.542,,26,finds
screen,html.Screen,0_2_0_1_27,2021-11-19T15:31:21.265Z,,,,,,,,,,,,,,,,53,,,,,,,,,,,,,,348.9579999999987,,response,,,99,,,,,,Space,keypress(Space),,,,,---- -- ----- -- ------ - ------- --- ----------<br>------------- ------ ------ ---- ---- ------- ----- -- ----<br>-------- ------- -- ---------- --- - --- ----- ----- that<br>---- --- --- ----- --- ---- ---- ------- ----- ---- -------<br>--- --- -- ----- -- --- ---- -- --- ---- -- ------ ------<br>--- ----- -- ----,50064.200000047684,50063.5,49697.871,49712.5,49714.542,50081.252,,27,that
screen,html.Screen,0_2_0_1_28,2021-11-19T15:31:21.569Z,,,,,,,,,,,,,,,,53,,,,,,,,,,,,,,286.5479999523159,,response,,,99,,,,,,Space,keypress(Space),,,,,---- -- ----- -- ------ - ------- --- ----------<br>------------- ------ ------ ---- ---- ------- ----- -- ----<br>-------- ------- -- ---------- --- - --- ----- ----- ----<br>it's --- --- ----- --- ---- ---- ------- ----- ---- -------<br>--- --- -- ----- -- --- ---- -- --- ---- -- ------ ------<br>--- ----- -- ----,50368.59999990463,50367.799999952316,50064.582,50064.5,50081.252,50381.387,,28,it's
screen,html.Screen,0_2_0_1_29,2021-11-19T15:31:21.897Z,,,,,,,,,,,,,,,,53,,,,,,,,,,,,,,314.11299999999756,,response,,,99,,,,,,Space,keypress(Space),,,,,---- -- ----- -- ------ - ------- --- ----------<br>------------- ------ ------ ---- ---- ------- ----- -- ----<br>-------- ------- -- ---------- --- - --- ----- ----- ----<br>---- not --- ----- --- ---- ---- ------- ----- ---- -------<br>--- --- -- ----- -- --- ---- -- --- ---- -- ------ ------<br>--- ----- -- ----,50696.299999952316,50695.5,50364.716,50369,50381.387,50698.131,,29,not
screen,html.Screen,0_2_0_1_30,2021-11-19T15:31:22.273Z,,,,,,,,,,,,,,,,53,,,,,,,,,,,,,,373.26899985694763,,response,,,99,,,,,,Space,keypress(Space),,,,,---- -- ----- -- ------ - ------- --- ----------<br>------------- ------ ------ ---- ---- ------- ----- -- ----<br>-------- ------- -- ---------- --- - --- ----- ----- ----<br>---- --- how ----- --- ---- ---- ------- ----- ---- -------<br>--- --- -- ----- -- --- ---- -- --- ---- -- ------ ------<br>--- ----- -- ----,51072.299999952316,51071.39999985695,50681.46,50696.59999990463,50698.131,51081.579,,30,how
screen,html.Screen,0_2_0_1_31,2021-11-19T15:31:22.633Z,,,,,,,,,,,,,,,,53,,,,,,,,,,,,,,349.82099985695095,,response,,,99,,,,,,Space,keypress(Space),,,,,---- -- ----- -- ------ - ------- --- ----------<br>------------- ------ ------ ---- ---- ------- ----- -- ----<br>-------- ------- -- ---------- --- - --- ----- ----- ----<br>---- --- --- close --- ---- ---- ------- ----- ---- -------<br>--- --- -- ----- -- --- ---- -- --- ---- -- ------ ------<br>--- ----- -- ----,51432.09999990463,51431.39999985695,51064.908,51072.59999990463,51081.579,51448.34,,31,close
screen,html.Screen,0_2_0_1_32,2021-11-19T15:31:23.009Z,,,,,,,,,,,,,,,,53,,,,,,,,,,,,,,359.05999985695234,,response,,,99,,,,,,Space,keypress(Space),,,,,---- -- ----- -- ------ - ------- --- ----------<br>------------- ------ ------ ---- ---- ------- ----- -- ----<br>-------- ------- -- ---------- --- - --- ----- ----- ----<br>---- --- --- ----- you ---- ---- ------- ----- ---- -------<br>--- --- -- ----- -- --- ---- -- --- ---- -- ------ ------<br>--- ----- -- ----,51808.200000047684,51807.39999985695,51431.669,51432.5,51448.34,51815.107,,32,you
screen,html.Screen,0_2_0_1_33,2021-11-19T15:31:23.465Z,,,,,,,,,,,,,,,,53,,,,,,,,,,,,,,448.1929999523127,,response,,,99,,,,,,Space,keypress(Space),,,,,---- -- ----- -- ------ - ------- --- ----------<br>------------- ------ ------ ---- ---- ------- ----- -- ----<br>-------- ------- -- ---------- --- - --- ----- ----- ----<br>---- --- --- ----- --- feel ---- ------- ----- ---- -------<br>--- --- -- ----- -- --- ---- -- --- ---- -- ------ ------<br>--- ----- -- ----,52264.09999990463,52263.299999952316,51798.436,51808.39999985695,51815.107,52265.176,,33,feel
screen,html.Screen,0_2_0_1_34,2021-11-19T15:31:23.777Z,,,,,,,,,,,,,,,,53,,,,,,,,,,,,,,310.1239999523168,,response,,,99,,,,,,Space,keypress(Space),,,,,---- -- ----- -- ------ - ------- --- ----------<br>------------- ------ ------ ---- ---- ------- ----- -- ----<br>-------- ------- -- ---------- --- - --- ----- ----- ----<br>---- --- --- ----- --- ---- that ------- ----- ---- -------<br>--- --- -- ----- -- --- ---- -- --- ---- -- ------ ------<br>--- ----- -- ----,52576.09999990463,52575.299999952316,52248.506,52264.299999952316,52265.176,52581.985,,34,that
screen,html.Screen,0_2_0_1_35,2021-11-19T15:31:24.145Z,,,,,,,,,,,,,,,,53,,,,,,,,,,,,,,361.3149999523157,,response,,,99,,,,,,Space,keypress(Space),,,,,---- -- ----- -- ------ - ------- --- ----------<br>------------- ------ ------ ---- ---- ------- ----- -- ----<br>-------- ------- -- ---------- --- - --- ----- ----- ----<br>---- --- --- ----- --- ---- ---- matters ----- ---- -------<br>--- --- -- ----- -- --- ---- -- --- ---- -- ------ ------<br>--- ----- -- ----,52944,52943.299999952316,52565.314,52576.299999952316,52581.985,52948.711,,35,matters
screen,html.Screen,0_2_0_1_36,2021-11-19T15:31:24.577Z,,,,,,,,,,,,,,,,53,,,,,,,,,,,,,,426.5889999523133,,response,,,99,,,,,,Space,keypress(Space),,,,,"---- -- ----- -- ------ - ------- --- ----------<br>------------- ------ ------ ---- ---- ------- ----- -- ----<br>-------- ------- -- ---------- --- - --- ----- ----- ----<br>---- --- --- ----- --- ---- ---- ------- most, ---- -------<br>--- --- -- ----- -- --- ---- -- --- ---- -- ------ ------<br>--- ----- -- ----",53376.200000047684,53375.299999952316,52932.041,52944.299999952316,52948.711,53382.15,,36,"most,"
screen,html.Screen,0_2_0_1_37,2021-11-19T15:31:25.024Z,,,,,,,,,,,,,,,,53,,,,,,,,,,,,,,441.05000004768226,,response,,,99,,,,,,Space,keypress(Space),,,,,---- -- ----- -- ------ - ------- --- ----------<br>------------- ------ ------ ---- ---- ------- ----- -- ----<br>-------- ------- -- ---------- --- - --- ----- ----- ----<br>---- --- --- ----- --- ---- ---- ------- ----- it's -------<br>--- --- -- ----- -- --- ---- -- --- ---- -- ------ ------<br>--- ----- -- ----,53824,53823.200000047684,53365.48,53376.39999985695,53382.15,53832.305,,37,it's
screen,html.Screen,0_2_0_1_38,2021-11-19T15:31:25.336Z,,,,,,,,,,,,,,,,53,,,,,,,,,,,,,,302.8950000476834,,response,,,99,,,,,,Space,keypress(Space),,,,,---- -- ----- -- ------ - ------- --- ----------<br>------------- ------ ------ ---- ---- ------- ----- -- ----<br>-------- ------- -- ---------- --- - --- ----- ----- ----<br>---- --- --- ----- --- ---- ---- ------- ----- ---- whether<br>--- --- -- ----- -- --- ---- -- --- ---- -- ------ ------<br>--- ----- -- ----,54135.89999985695,54135.200000047684,53815.634,53824.200000047684,53832.305,54149.07,,38,whether
screen,html.Screen,0_2_0_1_39,2021-11-19T15:31:25.808Z,,,,,,,,,,,,,,,,53,,,,,,,,,,,,,,458.130000047684,,response,,,99,,,,,,Space,keypress(Space),,,,,---- -- ----- -- ------ - ------- --- ----------<br>------------- ------ ------ ---- ---- ------- ----- -- ----<br>-------- ------- -- ---------- --- - --- ----- ----- ----<br>---- --- --- ----- --- ---- ---- ------- ----- ---- -------<br>you --- -- ----- -- --- ---- -- --- ---- -- ------ ------<br>--- ----- -- ----,54607.89999985695,54607.200000047684,54132.399,54136.200000047684,54149.07,54615.685,,39,you
screen,html.Screen,0_2_0_1_40,2021-11-19T15:31:26.200Z,,,,,,,,,,,,,,,,53,,,,,,,,,,,,,,383.51500004768604,,response,,,99,,,,,,Space,keypress(Space),,,,,---- -- ----- -- ------ - ------- --- ----------<br>------------- ------ ------ ---- ---- ------- ----- -- ----<br>-------- ------- -- ---------- --- - --- ----- ----- ----<br>---- --- --- ----- --- ---- ---- ------- ----- ---- -------<br>--- are -- ----- -- --- ---- -- --- ---- -- ------ ------<br>--- ----- -- ----,55000,54999.200000047684,54599.017,54608.200000047684,54615.685,55016.051,,40,are
screen,html.Screen,0_2_0_1_41,2021-11-19T15:31:26.488Z,,,,,,,,,,,,,,,,53,,,,,,,,,,,,,,271.14900004768424,,response,,,99,,,,,,Space,keypress(Space),,,,,---- -- ----- -- ------ - ------- --- ----------<br>------------- ------ ------ ---- ---- ------- ----- -- ----<br>-------- ------- -- ---------- --- - --- ----- ----- ----<br>---- --- --- ----- --- ---- ---- ------- ----- ---- -------<br>--- --- as ----- -- --- ---- -- --- ---- -- ------ ------<br>--- ----- -- ----,55288,55287.200000047684,54999.378,55000.200000047684,55016.051,55299.388,,41,as
screen,html.Screen,0_2_0_1_42,2021-11-19T15:31:26.928Z,,,,,,,,,,,,,,,,53,,,,,,,,,,,,,,427.8120000476847,,response,,,99,,,,,,Space,keypress(Space),,,,,---- -- ----- -- ------ - ------- --- ----------<br>------------- ------ ------ ---- ---- ------- ----- -- ----<br>-------- ------- -- ---------- --- - --- ----- ----- ----<br>---- --- --- ----- --- ---- ---- ------- ----- ---- -------<br>--- --- -- close -- --- ---- -- --- ---- -- ------ ------<br>--- ----- -- ----,55728,55727.200000047684,55282.717,55288.200000047684,55299.388,55732.715,,42,close
screen,html.Screen,0_2_0_1_43,2021-11-19T15:31:27.224Z,,,,,,,,,,,,,,,,53,,,,,,,,,,,,,,290.4850000476872,,response,,,99,,,,,,Space,keypress(Space),,,,,---- -- ----- -- ------ - ------- --- ----------<br>------------- ------ ------ ---- ---- ------- ----- -- ----<br>-------- ------- -- ---------- --- - --- ----- ----- ----<br>---- --- --- ----- --- ---- ---- ------- ----- ---- -------<br>--- --- -- ----- as --- ---- -- --- ---- -- ------ ------<br>--- ----- -- ----,56024,56023.200000047684,55716.046,55728.299999952316,55732.715,56032.967,,43,as
screen,html.Screen,0_2_0_1_44,2021-11-19T15:31:27.544Z,,,,,,,,,,,,,,,,53,,,,,,,,,,,,,,310.2330000476868,,response,,,99,,,,,,Space,keypress(Space),,,,,---- -- ----- -- ------ - ------- --- ----------<br>------------- ------ ------ ---- ---- ------- ----- -- ----<br>-------- ------- -- ---------- --- - --- ----- ----- ----<br>---- --- --- ----- --- ---- ---- ------- ----- ---- -------<br>--- --- -- ----- -- you ---- -- --- ---- -- ------ ------<br>--- ----- -- ----,56343.89999985695,56343.200000047684,56016.295,56024.200000047684,56032.967,56349.623,,44,you
screen,html.Screen,0_2_0_1_45,2021-11-19T15:31:27.872Z,,,,,,,,,,,,,,,,53,,,,,,,,,,,,,,321.5770000476841,,response,,,99,,,,,,Space,keypress(Space),,,,,---- -- ----- -- ------ - ------- --- ----------<br>------------- ------ ------ ---- ---- ------- ----- -- ----<br>-------- ------- -- ---------- --- - --- ----- ----- ----<br>---- --- --- ----- --- ---- ---- ------- ----- ---- -------<br>--- --- -- ----- -- --- want -- --- ---- -- ------ ------<br>--- ----- -- ----,56672,56671.200000047684,56332.953,56344.200000047684,56349.623,56683.132,,45,want
screen,html.Screen,0_2_0_1_46,2021-11-19T15:31:28.200Z,,,,,,,,,,,,,,,,53,,,,,,,,,,,,,,315.9679999046348,,response,,,99,,,,,,Space,keypress(Space),,,,,---- -- ----- -- ------ - ------- --- ----------<br>------------- ------ ------ ---- ---- ------- ----- -- ----<br>-------- ------- -- ---------- --- - --- ----- ----- ----<br>---- --- --- ----- --- ---- ---- ------- ----- ---- -------<br>--- --- -- ----- -- --- ---- to --- ---- -- ------ ------<br>--- ----- -- ----,56999.89999985695,56999.09999990463,56666.46,56672.200000047684,56683.132,57016.474,,46,to
screen,html.Screen,0_2_0_1_47,2021-11-19T15:31:28.536Z,,,,,,,,,,,,,,,,53,,,,,,,,,,,,,,318.6259999046306,,response,,,99,,,,,,Space,keypress(Space),,,,,"---- -- ----- -- ------ - ------- --- ----------<br>------------- ------ ------ ---- ---- ------- ----- -- ----<br>-------- ------- -- ---------- --- - --- ----- ----- ----<br>---- --- --- ----- --- ---- ---- ------- ----- ---- -------<br>--- --- -- ----- -- --- ---- -- be, ---- -- ------ ------<br>--- ----- -- ----",57335.89999985695,57335.09999990463,56999.804,57000.200000047684,57016.474,57349.834,,47,"be,"
screen,html.Screen,0_2_0_1_48,2021-11-19T15:31:28.888Z,,,,,,,,,,,,,,,,53,,,,,,,,,,,,,,337.26599990463,,response,,,99,,,,,,Space,keypress(Space),,,,,---- -- ----- -- ------ - ------- --- ----------<br>------------- ------ ------ ---- ---- ------- ----- -- ----<br>-------- ------- -- ---------- --- - --- ----- ----- ----<br>---- --- --- ----- --- ---- ---- ------- ----- ---- -------<br>--- --- -- ----- -- --- ---- -- --- even -- ------ ------<br>--- ----- -- ----,57687.89999985695,57687.09999990463,57333.165,57336.09999990463,57349.834,57700.029,,48,even
screen,html.Screen,0_2_0_1_49,2021-11-19T15:31:29.168Z,,,,,,,,,,,,,,,,53,,,,,,,,,,,,,,267.17100004768145,,response,,,99,,,,,,Space,keypress(Space),,,,,---- -- ----- -- ------ - ------- --- ----------<br>------------- ------ ------ ---- ---- ------- ----- -- ----<br>-------- ------- -- ---------- --- - --- ----- ----- ----<br>---- --- --- ----- --- ---- ---- ------- ----- ---- -------<br>--- --- -- ----- -- --- ---- -- --- ---- if ------ ------<br>--- ----- -- ----,57967.89999985695,57967.200000047684,57683.358,57688.200000047684,57700.029,57983.436,,49,if
screen,html.Screen,0_2_0_1_50,2021-11-19T15:31:29.456Z,,,,,,,,,,,,,,,,53,,,,,,,,,,,,,,271.66399990463105,,response,,,99,,,,,,Space,keypress(Space),,,,,---- -- ----- -- ------ - ------- --- ----------<br>------------- ------ ------ ---- ---- ------- ----- -- ----<br>-------- ------- -- ---------- --- - --- ----- ----- ----<br>---- --- --- ----- --- ---- ---- ------- ----- ---- -------<br>--- --- -- ----- -- --- ---- -- --- ---- -- that's ------<br>--- ----- -- ----,58255.89999985695,58255.09999990463,57966.765,57968.09999990463,57983.436,58266.716,,50,that's
screen,html.Screen,0_2_0_1_51,2021-11-19T15:31:29.824Z,,,,,,,,,,,,,,,,53,,,,,,,,,,,,,,356.3839999046322,,response,,,99,,,,,,Space,keypress(Space),,,,,---- -- ----- -- ------ - ------- --- ----------<br>------------- ------ ------ ---- ---- ------- ----- -- ----<br>-------- ------- -- ---------- --- - --- ----- ----- ----<br>---- --- --- ----- --- ---- ---- ------- ----- ---- -------<br>--- --- -- ----- -- --- ---- -- --- ---- -- ------ really<br>--- ----- -- ----,58623.59999990463,58623.09999990463,58250.048,58256.200000047684,58266.716,58633.676,,51,really
screen,html.Screen,0_2_0_1_52,2021-11-19T15:31:30.152Z,,,,,,,,,,,,,,,,53,,,,,,,,,,,,,,317.3240000000005,,response,,,99,,,,,,Space,keypress(Space),,,,,---- -- ----- -- ------ - ------- --- ----------<br>------------- ------ ------ ---- ---- ------- ----- -- ----<br>-------- ------- -- ---------- --- - --- ----- ----- ----<br>---- --- --- ----- --- ---- ---- ------- ----- ---- -------<br>--- --- -- ----- -- --- ---- -- --- ---- -- ------ ------<br>not ----- -- ----,58951.700000047684,58951,58617.003,58623.799999952316,58633.676,58966.993,,52,not
screen,html.Screen,0_2_0_1_53,2021-11-19T15:31:30.440Z,,,,,,,,,,,,,,,,53,,,,,,,,,,,,,,272.10699990463036,,response,,,99,,,,,,Space,keypress(Space),,,,,---- -- ----- -- ------ - ------- --- ----------<br>------------- ------ ------ ---- ---- ------- ----- -- ----<br>-------- ------- -- ---------- --- - --- ----- ----- ----<br>---- --- --- ----- --- ---- ---- ------- ----- ---- -------<br>--- --- -- ----- -- --- ---- -- --- ---- -- ------ ------<br>--- close -- ----,59239.799999952316,59239.09999990463,58950.323,58952,58966.993,59250.432,,53,close
screen,html.Screen,0_2_0_1_54,2021-11-19T15:31:30.768Z,,,,,,,,,,,,,,,,53,,,,,,,,,,,,,,316.66799990463187,,response,,,99,,,,,,Space,keypress(Space),,,,,---- -- ----- -- ------ - ------- --- ----------<br>------------- ------ ------ ---- ---- ------- ----- -- ----<br>-------- ------- -- ---------- --- - --- ----- ----- ----<br>---- --- --- ----- --- ---- ---- ------- ----- ---- -------<br>--- --- -- ----- -- --- ---- -- --- ---- -- ------ ------<br>--- ----- at ----,59567.89999985695,59567.09999990463,59233.761,59240,59250.432,59583.75,,54,at
screen,html.Screen,0_2_0_1_55,2021-11-19T15:31:31.219Z,,,,,,,,,,,,,,,,53,,,,,,,,,,,,,,431.25,,response,,,99,,,,,,Space,keypress(Space),,,,,---- -- ----- -- ------ - ------- --- ----------<br>------------- ------ ------ ---- ---- ------- ----- -- ----<br>-------- ------- -- ---------- --- - --- ----- ----- ----<br>---- --- --- ----- --- ---- ---- ------- ----- ---- -------<br>--- --- -- ----- -- --- ---- -- --- ---- -- ------ ------<br>--- ----- -- all.,60015.799999952316,60015,59567.081,59568.09999990463,59583.75,60034.079,,55,all.
Item 99,flow.Loop,0_2_0_1,2021-11-19T15:31:31.223Z,,,,,,,,,,,,,,,,,,,,,,,,,,,,,,20586.71,,completion,,,,A,,,,,,,,,,silence,,60020.200000047684,60015,39411.62,39418.5,39428.29,60034.079,,,
Question 1,html.Screen,0_2_0_2,2021-11-19T15:31:35.363Z,,,,,,,,,,,,,,,,,,,,,,,,,,,true,FALSE,,4124.621000047686,,response,,,99,A,,,,,FALSE,click #choice-2,,,,silence,,64160.09999990463,64158.700000047684,60017.406,60020.5,60034.079,64168.331,,,
Question 2,html.Screen,0_2_0_3,2021-11-19T15:31:40.363Z,,,,,,,,,,,,,,,,,,,,,,,,,,,true,TRUE,,4990.169000000002,,response,,,99,A,,,,,TRUE,click #choice-1,,,,silence,,69159.59999990463,69158.5,64151.662,64160.299999952316,64168.331,69169.58,,,
Item 99,flow.Sequence,0_2_0,2021-11-19T15:31:40.363Z,,,,,,,,,,,,,,,,,,,,,,,,,,,,,,39732.701,,completion,,,,,,,,,,,,,,,,69160,69158.5,29409.128,29418.299999952316,29425.799,69169.58,,,
Holding screen,html.Screen,0_2_1_0,2021-11-19T15:31:50.360Z,,,,,,,,,,,,,,,,,,,,,,,,,,,,,,10002.801999999996,,timeout,,,,,,,,,,,,,,,,79156.70000004768,79155.711,69152.912,69160.29999995232,69169.58,79172.382,,,
screen,html.Screen,0_2_1_1_0,2021-11-19T15:31:51.371Z,,,,,,,,,,,,,,,,54,,,,,,,,,,,,,,994.3180000476859,,response,,,100,,,,,,Space,keypress(Space),,,,,At --- ---- --- ------ ----- ------- ---- -- --- ------- --<br>------- ---------- ------ -- ----- -- ----- -- ---- ------<br>--- ----- --- --- ------ -------- ----- --- ------ ----- --<br>----- ----- ---------- --- --- ------ ------ ---- -- ------<br>------- --- ------ ----- --- ---- ------- -- ---- --- --<br>------- ------,80167.5,80166.70000004768,79155.711,79157.20000004768,79172.382,80172.839,,0,At
screen,html.Screen,0_2_1_1_1,2021-11-19T15:31:51.690Z,,,,,,,,,,,,,,,,54,,,,,,,,,,,,,,313.26099990462535,,response,,,100,,,,,,Space,keypress(Space),,,,,-- the ---- --- ------ ----- ------- ---- -- --- ------- --<br>------- ---------- ------ -- ----- -- ----- -- ---- ------<br>--- ----- --- --- ------ -------- ----- --- ------ ----- --<br>----- ----- ---------- --- --- ------ ------ ---- -- ------<br>------- --- ------ ----- --- ---- ------- -- ---- --- --<br>------- ------,80486.89999985695,80486.09999990463,80156.167,80167.70000004768,80172.839,80489.424,,1,the
screen,html.Screen,0_2_1_1_2,2021-11-19T15:31:51.970Z,,,,,,,,,,,,,,,,54,,,,,,,,,,,,,,276.77600004768465,,response,,,100,,,,,,Space,keypress(Space),,,,,-- --- time --- ------ ----- ------- ---- -- --- ------- --<br>------- ---------- ------ -- ----- -- ----- -- ---- ------<br>--- ----- --- --- ------ -------- ----- --- ------ ----- --<br>----- ----- ---------- --- --- ------ ------ ---- -- ------<br>------- --- ------ ----- --- ---- ------- -- ---- --- --<br>------- ------,80766.89999985695,80766.20000004768,80472.754,80487.09999990463,80489.424,80772.872,,2,time
screen,html.Screen,0_2_1_1_3,2021-11-19T15:31:52.386Z,,,,,,,,,,,,,,,,54,,,,,,,,,,,,,,409.22799990462954,,response,,,100,,,,,,Space,keypress(Space),,,,,-- --- ---- the ------ ----- ------- ---- -- --- ------- --<br>------- ---------- ------ -- ----- -- ----- -- ---- ------<br>--- ----- --- --- ------ -------- ----- --- ------ ----- --<br>----- ----- ---------- --- --- ------ ------ ---- -- ------<br>------- --- ------ ----- --- ---- ------- -- ---- --- --<br>------- ------,81182.89999985695,81182.09999990463,80756.201,80767.09999990463,80772.872,81189.673,,3,the
screen,html.Screen,0_2_1_1_4,2021-11-19T15:31:52.674Z,,,,,,,,,,,,,,,,54,,,,,,,,,,,,,,280.42699990463734,,response,,,100,,,,,,Space,keypress(Space),,,,,-- --- ---- --- French ----- ------- ---- -- --- ------- --<br>------- ---------- ------ -- ----- -- ----- -- ---- ------<br>--- ----- --- --- ------ -------- ----- --- ------ ----- --<br>----- ----- ---------- --- --- ------ ------ ---- -- ------<br>------- --- ------ ----- --- ---- ------- -- ---- --- --<br>------- ------,81470.89999985695,81470.09999990463,81173.002,81184.5,81189.673,81473.073,,4,French
screen,html.Screen,0_2_1_1_5,2021-11-19T15:31:53.010Z,,,,,,,,,,,,,,,,54,,,,,,,,,,,,,,333.0269999046286,,response,,,100,,,,,,Space,keypress(Space),,,,,-- --- ---- --- ------ crown ------- ---- -- --- ------- --<br>------- ---------- ------ -- ----- -- ----- -- ---- ------<br>--- ----- --- --- ------ -------- ----- --- ------ ----- --<br>----- ----- ---------- --- --- ------ ------ ---- -- ------<br>------- --- ------ ----- --- ---- ------- -- ---- --- --<br>------- ------,81807,81806.09999990463,81456.402,81471.09999990463,81473.073,81823.025,,5,crown
screen,html.Screen,0_2_1_1_6,2021-11-19T15:31:53.378Z,,,,,,,,,,,,,,,,54,,,,,,,,,,,,,,350.9750000000058,,response,,,100,,,,,,Space,keypress(Space),,,,,-- --- ---- --- ------ ----- secured ---- -- --- ------- --<br>------- ---------- ------ -- ----- -- ----- -- ---- ------<br>--- ----- --- --- ------ -------- ----- --- ------ ----- --<br>----- ----- ---------- --- --- ------ ------ ---- -- ------<br>------- --- ------ ----- --- ---- ------- -- ---- --- --<br>------- ------,82174.70000004768,82174,81806.357,81807.20000004768,81823.025,82190.013,,6,secured
screen,html.Screen,0_2_1_1_7,2021-11-19T15:31:53.842Z,,,,,,,,,,,,,,,,54,,,,,,,,,,,,,,447.9869999999937,,response,,,100,,,,,,Space,keypress(Space),,,,,-- --- ---- --- ------ ----- ------- much -- --- ------- --<br>------- ---------- ------ -- ----- -- ----- -- ---- ------<br>--- ----- --- --- ------ -------- ----- --- ------ ----- --<br>----- ----- ---------- --- --- ------ ------ ---- -- ------<br>------- --- ------ ----- --- ---- ------- -- ---- --- --<br>------- ------,82638.79999995232,82638,82173.34,82174.89999985695,82190.013,82640.057,,7,much
screen,html.Screen,0_2_1_1_8,2021-11-19T15:31:54.250Z,,,,,,,,,,,,,,,,54,,,,,,,,,,,,,,405.9429999999993,,response,,,100,,,,,,Space,keypress(Space),,,,,-- --- ---- --- ------ ----- ------- ---- of --- ------- --<br>------- ---------- ------ -- ----- -- ----- -- ---- ------<br>--- ----- --- --- ------ -------- ----- --- ------ ----- --<br>----- ----- ---------- --- --- ------ ------ ---- -- ------<br>------- --- ------ ----- --- ---- ------- -- ---- --- --<br>------- ------,83046.79999995232,83046,82623.386,82639.09999990463,82640.057,83056.827,,8,of
screen,html.Screen,0_2_1_1_9,2021-11-19T15:31:54.746Z,,,,,,,,,,,,,,,,54,,,,,,,,,,,,,,485.1729999999952,,response,,,100,,,,,,Space,keypress(Space),,,,,-- --- ---- --- ------ ----- ------- ---- -- its ------- --<br>------- ---------- ------ -- ----- -- ----- -- ---- ------<br>--- ----- --- --- ------ -------- ----- --- ------ ----- --<br>----- ----- ---------- --- --- ------ ------ ---- -- ------<br>------- --- ------ ----- --- ---- ------- -- ---- --- --<br>------- ------,83542.79999995232,83542,83040.156,83047.09999990463,83056.827,83556.958,,9,its
screen,html.Screen,0_2_1_1_10,2021-11-19T15:31:55.130Z,,,,,,,,,,,,,,,,54,,,,,,,,,,,,,,369.0420000000013,,response,,,100,,,,,,Space,keypress(Space),,,,,-- --- ---- --- ------ ----- ------- ---- -- --- revenue --<br>------- ---------- ------ -- ----- -- ----- -- ---- ------<br>--- ----- --- --- ------ -------- ----- --- ------ ----- --<br>----- ----- ---------- --- --- ------ ------ ---- -- ------<br>------- --- ------ ----- --- ---- ------- -- ---- --- --<br>------- ------,83926.70000004768,83926,83540.287,83542.89999985695,83556.958,83940.409,,10,revenue
screen,html.Screen,0_2_1_1_11,2021-11-19T15:31:55.586Z,,,,,,,,,,,,,,,,54,,,,,,,,,,,,,,441.59100000000035,,response,,,100,,,,,,Space,keypress(Space),,,,,-- --- ---- --- ------ ----- ------- ---- -- --- ------- by<br>------- ---------- ------ -- ----- -- ----- -- ---- ------<br>--- ----- --- --- ------ -------- ----- --- ------ ----- --<br>----- ----- ---------- --- --- ------ ------ ---- -- ------<br>------- --- ------ ----- --- ---- ------- -- ---- --- --<br>------- ------,84382.70000004768,84382,83923.738,83927,83940.409,84390.481,,11,by
screen,html.Screen,0_2_1_1_12,2021-11-19T15:31:56.098Z,,,,,,,,,,,,,,,,54,,,,,,,,,,,,,,503.4189998569491,,response,,,100,,,,,,Space,keypress(Space),,,,,-- --- ---- --- ------ ----- ------- ---- -- --- ------- --<br>issuing ---------- ------ -- ----- -- ----- -- ---- ------<br>--- ----- --- --- ------ -------- ----- --- ------ ----- --<br>----- ----- ---------- --- --- ------ ------ ---- -- ------<br>------- --- ------ ----- --- ---- ------- -- ---- --- --<br>------- ------,84894.59999990463,84893.89999985695,84373.811,84383,84390.481,84907.169,,12,issuing
screen,html.Screen,0_2_1_1_13,2021-11-19T15:31:56.554Z,,,,,,,,,,,,,,,,54,,,,,,,,,,,,,,442.73099985695444,,response,,,100,,,,,,Space,keypress(Space),,,,,-- --- ---- --- ------ ----- ------- ---- -- --- ------- --<br>------- government ------ -- ----- -- ----- -- ---- ------<br>--- ----- --- --- ------ -------- ----- --- ------ ----- --<br>----- ----- ---------- --- --- ------ ------ ---- -- ------<br>------- --- ------ ----- --- ---- ------- -- ---- --- --<br>------- ------,85350.59999990463,85349.89999985695,84890.5,84894.89999985695,84907.169,85357.526,,13,government
screen,html.Screen,0_2_1_1_14,2021-11-19T15:31:56.841Z,,,,,,,,,,,,,,,,54,,,,,,,,,,,,,,280.27399995231826,,response,,,100,,,,,,Space,keypress(Space),,,,,-- --- ---- --- ------ ----- ------- ---- -- --- ------- --<br>------- ---------- bonds. -- ----- -- ----- -- ---- ------<br>--- ----- --- --- ------ -------- ----- --- ------ ----- --<br>----- ----- ---------- --- --- ------ ------ ---- -- ------<br>------- --- ------ ----- --- ---- ------- -- ---- --- --<br>------- ------,85638.29999995232,85637.79999995232,85340.854,85350.89999985695,85357.526,85640.811,,14,bonds.
screen,html.Screen,0_2_1_1_15,2021-11-19T15:31:57.434Z,,,,,,,,,,,,,,,,54,,,,,,,,,,,,,,589.0889998569473,,response,,,100,,,,,,Space,keypress(Space),,,,,-- --- ---- --- ------ ----- ------- ---- -- --- ------- --<br>------- ---------- ------ In ----- -- ----- -- ---- ------<br>--- ----- --- --- ------ -------- ----- --- ------ ----- --<br>----- ----- ---------- --- --- ------ ------ ---- -- ------<br>------- --- ------ ----- --- ---- ------- -- ---- --- --<br>------- ------,86230.70000004768,86229.89999985695,85624.141,85638.5,85640.811,86241.015,,15,In
screen,html.Screen,0_2_1_1_16,2021-11-19T15:31:57.802Z,,,,,,,,,,,,,,,,54,,,,,,,,,,,,,,356.88499985694943,,response,,,100,,,,,,Space,keypress(Space),,,,,"-- --- ---- --- ------ ----- ------- ---- -- --- ------- --<br>------- ---------- ------ -- 1727, -- ----- -- ---- ------<br>--- ----- --- --- ------ -------- ----- --- ------ ----- --<br>----- ----- ---------- --- --- ------ ------ ---- -- ------<br>------- --- ------ ----- --- ---- ------- -- ---- --- --<br>------- ------",86598.59999990463,86597.89999985695,86224.344,86230.89999985695,86241.015,86607.792,,16,"1727,"
screen,html.Screen,0_2_1_1_17,2021-11-19T15:31:59.626Z,,,,,,,,,,,,,,,,54,,,,,,,,,,,,,,1813.9080000476824,,response,,,100,,,,,,Space,keypress(Space),,,,,-- --- ---- --- ------ ----- ------- ---- -- --- ------- --<br>------- ---------- ------ -- ----- in ----- -- ---- ------<br>--- ----- --- --- ------ -------- ----- --- ------ ----- --<br>----- ----- ---------- --- --- ------ ------ ---- -- ------<br>------- --- ------ ----- --- ---- ------- -- ---- --- --<br>------- ------,88422.59999990463,88421.70000004768,86591.121,86598.89999985695,86607.792,88424.806,,17,in
screen,html.Screen,0_2_1_1_18,2021-11-19T15:32:00.090Z,,,,,,,,,,,,,,,,54,,,,,,,,,,,,,,460.89400004768686,,response,,,100,,,,,,Space,keypress(Space),,,,,-- --- ---- --- ------ ----- ------- ---- -- --- ------- --<br>------- ---------- ------ -- ----- -- order -- ---- ------<br>--- ----- --- --- ------ -------- ----- --- ------ ----- --<br>----- ----- ---------- --- --- ------ ------ ---- -- ------<br>------- --- ------ ----- --- ---- ------- -- ---- --- --<br>------- ------,88886.5,88885.70000004768,88408.136,88422.79999995232,88424.806,88891.72,,18,order
screen,html.Screen,0_2_1_1_19,2021-11-19T15:32:00.417Z,,,,,,,,,,,,,,,,54,,,,,,,,,,,,,,321.98000004768255,,response,,,100,,,,,,Space,keypress(Space),,,,,-- --- ---- --- ------ ----- ------- ---- -- --- ------- --<br>------- ---------- ------ -- ----- -- ----- to ---- ------<br>--- ----- --- --- ------ -------- ----- --- ------ ----- --<br>----- ----- ---------- --- --- ------ ------ ---- -- ------<br>------- --- ------ ----- --- ---- ------- -- ---- --- --<br>------- ------,89214.39999985695,89213.70000004768,88875.049,88886.70000004768,88891.72,89225.15,,19,to
screen,html.Screen,0_2_1_1_20,2021-11-19T15:32:00.778Z,,,,,,,,,,,,,,,,54,,,,,,,,,,,,,,348.55000004768954,,response,,,100,,,,,,Space,keypress(Space),,,,,-- --- ---- --- ------ ----- ------- ---- -- --- ------- --<br>------- ---------- ------ -- ----- -- ----- -- save ------<br>--- ----- --- --- ------ -------- ----- --- ------ ----- --<br>----- ----- ---------- --- --- ------ ------ ---- -- ------<br>------- --- ------ ----- --- ---- ------- -- ---- --- --<br>------- ------,89574.39999985695,89573.70000004768,89208.479,89214.59999990463,89225.15,89591.819,,20,save
screen,html.Screen,0_2_1_1_21,2021-11-19T15:32:01.202Z,,,,,,,,,,,,,,,,54,,,,,,,,,,,,,,405.7809999046294,,response,,,100,,,,,,Space,keypress(Space),,,,,"-- --- ---- --- ------ ----- ------- ---- -- --- ------- --<br>------- ---------- ------ -- ----- -- ----- -- ---- money,<br>--- ----- --- --- ------ -------- ----- --- ------ ----- --<br>----- ----- ---------- --- --- ------ ------ ---- -- ------<br>------- --- ------ ----- --- ---- ------- -- ---- --- --<br>------- ------",89998.39999985695,89997.59999990463,89575.15,89574.59999990463,89591.819,90008.784,,21,"money,"
screen,html.Screen,0_2_1_1_22,2021-11-19T15:32:01.737Z,,,,,,,,,,,,,,,,54,,,,,,,,,,,,,,524.8159999046329,,response,,,100,,,,,,Space,keypress(Space),,,,,-- --- ---- --- ------ ----- ------- ---- -- --- ------- --<br>------- ---------- ------ -- ----- -- ----- -- ---- ------<br>the ----- --- --- ------ -------- ----- --- ------ ----- --<br>----- ----- ---------- --- --- ------ ------ ---- -- ------<br>------- --- ------ ----- --- ---- ------- -- ---- --- --<br>------- ------,90534.09999990463,90533.59999990463,89992.111,89998.59999990463,90008.784,90541.96,,22,the
screen,html.Screen,0_2_1_1_23,2021-11-19T15:32:02.058Z,,,,,,,,,,,,,,,,54,,,,,,,,,,,,,,311.7400000476773,,response,,,100,,,,,,Space,keypress(Space),,,,,-- --- ---- --- ------ ----- ------- ---- -- --- ------- --<br>------- ---------- ------ -- ----- -- ----- -- ---- ------<br>--- state --- --- ------ -------- ----- --- ------ ----- --<br>----- ----- ---------- --- --- ------ ------ ---- -- ------<br>------- --- ------ ----- --- ---- ------- -- ---- --- --<br>------- ------,90854.5,90853.70000004768,90525.292,90534.20000004768,90541.96,90859.007,,23,state
screen,html.Screen,0_2_1_1_24,2021-11-19T15:32:02.426Z,,,,,,,,,,,,,,,,54,,,,,,,,,,,,,,362.6930000476859,,response,,,100,,,,,,Space,keypress(Space),,,,,-- --- ---- --- ------ ----- ------- ---- -- --- ------- --<br>------- ---------- ------ -- ----- -- ----- -- ---- ------<br>--- ----- cut --- ------ -------- ----- --- ------ ----- --<br>----- ----- ---------- --- --- ------ ------ ---- -- ------<br>------- --- ------ ----- --- ---- ------- -- ---- --- --<br>------- ------,91222.39999985695,91221.70000004768,90842.334,90854.70000004768,90859.007,91225.693,,24,cut
screen,html.Screen,0_2_1_1_25,2021-11-19T15:32:02.865Z,,,,,,,,,,,,,,,,54,,,,,,,,,,,,,,435.90699990463327,,response,,,100,,,,,,Space,keypress(Space),,,,,-- --- ---- --- ------ ----- ------- ---- -- --- ------- --<br>------- ---------- ------ -- ----- -- ----- -- ---- ------<br>--- ----- --- the ------ -------- ----- --- ------ ----- --<br>----- ----- ---------- --- --- ------ ------ ---- -- ------<br>------- --- ------ ----- --- ---- ------- -- ---- --- --<br>------- ------,91662.39999985695,91661.59999990463,91209.022,91222.70000004768,91225.693,91675.704,,25,the
screen,html.Screen,0_2_1_1_26,2021-11-19T15:32:03.321Z,,,,,,,,,,,,,,,,54,,,,,,,,,,,,,,441.89599990463466,,response,,,100,,,,,,Space,keypress(Space),,,,,-- --- ---- --- ------ ----- ------- ---- -- --- ------- --<br>------- ---------- ------ -- ----- -- ----- -- ---- ------<br>--- ----- --- --- bonds' -------- ----- --- ------ ----- --<br>----- ----- ---------- --- --- ------ ------ ---- -- ------<br>------- --- ------ ----- --- ---- ------- -- ---- --- --<br>------- ------,92118.39999985695,92117.59999990463,91659.035,91662.59999990463,91675.704,92125.992,,26,bonds'
screen,html.Screen,0_2_1_1_27,2021-11-19T15:32:03.697Z,,,,,,,,,,,,,,,,54,,,,,,,,,,,,,,367.6079999046342,,response,,,100,,,,,,Space,keypress(Space),,,,,-- --- ---- --- ------ ----- ------- ---- -- --- ------- --<br>------- ---------- ------ -- ----- -- ----- -- ---- ------<br>--- ----- --- --- ------ interest ----- --- ------ ----- --<br>----- ----- ---------- --- --- ------ ------ ---- -- ------<br>------- --- ------ ----- --- ---- ------- -- ---- --- --<br>------- ------,92494.29999995232,92493.59999990463,92109.32,92118.59999990463,92125.992,92509.323,,27,interest
screen,html.Screen,0_2_1_1_28,2021-11-19T15:32:04.121Z,,,,,,,,,,,,,,,,54,,,,,,,,,,,,,,408.2769999046286,,response,,,100,,,,,,Space,keypress(Space),,,,,-- --- ---- --- ------ ----- ------- ---- -- --- ------- --<br>------- ---------- ------ -- ----- -- ----- -- ---- ------<br>--- ----- --- --- ------ -------- rate. --- ------ ----- --<br>----- ----- ---------- --- --- ------ ------ ---- -- ------<br>------- --- ------ ----- --- ---- ------- -- ---- --- --<br>------- ------,92918.39999985695,92917.59999990463,92492.653,92494.5,92509.323,92926.154,,28,rate.
screen,html.Screen,0_2_1_1_29,2021-11-19T15:32:04.609Z,,,,,,,,,,,,,,,,54,,,,,,,,,,,,,,479.4459999046376,,response,,,100,,,,,,Space,keypress(Space),,,,,-- --- ---- --- ------ ----- ------- ---- -- --- ------- --<br>------- ---------- ------ -- ----- -- ----- -- ---- ------<br>--- ----- --- --- ------ -------- ----- The ------ ----- --<br>----- ----- ---------- --- --- ------ ------ ---- -- ------<br>------- --- ------ ----- --- ---- ------- -- ---- --- --<br>------- ------,93406.39999985695,93405.59999990463,92909.483,92918.5,92926.154,93409.614,,29,The
screen,html.Screen,0_2_1_1_30,2021-11-19T15:32:04.993Z,,,,,,,,,,,,,,,,54,,,,,,,,,,,,,,379.8859999999986,,response,,,100,,,,,,Space,keypress(Space),,,,,-- --- ---- --- ------ ----- ------- ---- -- --- ------- --<br>------- ---------- ------ -- ----- -- ----- -- ---- ------<br>--- ----- --- --- ------ -------- ----- --- market ----- --<br>----- ----- ---------- --- --- ------ ------ ---- -- ------<br>------- --- ------ ----- --- ---- ------- -- ---- --- --<br>------- ------,93790.29999995232,93789.5,93392.943,93406.5,93409.614,93793.013,,30,market
screen,html.Screen,0_2_1_1_31,2021-11-19T15:32:05.353Z,,,,,,,,,,,,,,,,54,,,,,,,,,,,,,,356.4869999999937,,response,,,100,,,,,,Space,keypress(Space),,,,,-- --- ---- --- ------ ----- ------- ---- -- --- ------- --<br>------- ---------- ------ -- ----- -- ----- -- ---- ------<br>--- ----- --- --- ------ -------- ----- --- ------ value --<br>----- ----- ---------- --- --- ------ ------ ---- -- ------<br>------- --- ------ ----- --- ---- ------- -- ---- --- --<br>------- ------,94150.20000004768,94149.5,93776.343,93790.59999990463,93793.013,94159.821,,31,value
screen,html.Screen,0_2_1_1_32,2021-11-19T15:32:05.729Z,,,,,,,,,,,,,,,,54,,,,,,,,,,,,,,365.6790000000037,,response,,,100,,,,,,Space,keypress(Space),,,,,-- --- ---- --- ------ ----- ------- ---- -- --- ------- --<br>------- ---------- ------ -- ----- -- ----- -- ---- ------<br>--- ----- --- --- ------ -------- ----- --- ------ ----- of<br>----- ----- ---------- --- --- ------ ------ ---- -- ------<br>------- --- ------ ----- --- ---- ------- -- ---- --- --<br>------- ------,94526.29999995232,94525.5,94143.15,94150.5,94159.821,94543.217,,32,of
screen,html.Screen,0_2_1_1_33,2021-11-19T15:32:06.073Z,,,,,,,,,,,,,,,,54,,,,,,,,,,,,,,326.2829999999958,,response,,,100,,,,,,Space,keypress(Space),,,,,-- --- ---- --- ------ ----- ------- ---- -- --- ------- --<br>------- ---------- ------ -- ----- -- ----- -- ---- ------<br>--- ----- --- --- ------ -------- ----- --- ------ ----- --<br>these ----- ---------- --- --- ------ ------ ---- -- ------<br>------- --- ------ ----- --- ---- ------- -- ---- --- --<br>------- ------,94870.20000004768,94869.5,94526.547,94526.5,94543.217,94876.682,,33,these
screen,html.Screen,0_2_1_1_34,2021-11-19T15:32:06.361Z,,,,,,,,,,,,,,,,54,,,,,,,,,,,,,,280.8179999999993,,response,,,100,,,,,,Space,keypress(Space),,,,,-- --- ---- --- ------ ----- ------- ---- -- --- ------- --<br>------- ---------- ------ -- ----- -- ----- -- ---- ------<br>--- ----- --- --- ------ -------- ----- --- ------ ----- --<br>----- bonds ---------- --- --- ------ ------ ---- -- ------<br>------- --- ------ ----- --- ---- ------- -- ---- --- --<br>------- ------,95158.29999995232,95157.5,94860.011,94870.5,94876.682,95160.089,,34,bonds
screen,html.Screen,0_2_1_1_35,2021-11-19T15:32:06.809Z,,,,,,,,,,,,,,,,54,,,,,,,,,,,,,,445.4109999999928,,response,,,100,,,,,,Space,keypress(Space),,,,,"-- --- ---- --- ------ ----- ------- ---- -- --- ------- --<br>------- ---------- ------ -- ----- -- ----- -- ---- ------<br>--- ----- --- --- ------ -------- ----- --- ------ ----- --<br>----- ----- plummeted, --- --- ------ ------ ---- -- ------<br>------- --- ------ ----- --- ---- ------- -- ---- --- --<br>------- ------",95606.29999995232,95605.5,95143.418,95158.5,95160.089,95610.16,,35,"plummeted,"
screen,html.Screen,0_2_1_1_36,2021-11-19T15:32:07.297Z,,,,,,,,,,,,,,,,54,,,,,,,,,,,,,,483.23999985694536,,response,,,100,,,,,,Space,keypress(Space),,,,,-- --- ---- --- ------ ----- ------- ---- -- --- ------- --<br>------- ---------- ------ -- ----- -- ----- -- ---- ------<br>--- ----- --- --- ------ -------- ----- --- ------ ----- --<br>----- ----- ---------- and --- ------ ------ ---- -- ------<br>------- --- ------ ----- --- ---- ------- -- ---- --- --<br>------- ------,96094.20000004768,96093.39999985695,95593.49,95606.5,95610.16,96110.343,,36,and
screen,html.Screen,0_2_1_1_37,2021-11-19T15:32:07.641Z,,,,,,,,,,,,,,,,54,,,,,,,,,,,,,,327.0569998569554,,response,,,100,,,,,,Space,keypress(Space),,,,,-- --- ---- --- ------ ----- ------- ---- -- --- ------- --<br>------- ---------- ------ -- ----- -- ----- -- ---- ------<br>--- ----- --- --- ------ -------- ----- --- ------ ----- --<br>----- ----- ---------- --- the ------ ------ ---- -- ------<br>------- --- ------ ----- --- ---- ------- -- ---- --- --<br>------- ------,96438.20000004768,96437.39999985695,96093.672,96094.39999985695,96110.343,96443.775,,37,the
screen,html.Screen,0_2_1_1_38,2021-11-19T15:32:08.001Z,,,,,,,,,,,,,,,,54,,,,,,,,,,,,,,353.5249999523221,,response,,,100,,,,,,Space,keypress(Space),,,,,-- --- ---- --- ------ ----- ------- ---- -- --- ------- --<br>------- ---------- ------ -- ----- -- ----- -- ---- ------<br>--- ----- --- --- ------ -------- ----- --- ------ ----- --<br>----- ----- ---------- --- --- market ------ ---- -- ------<br>------- --- ------ ----- --- ---- ------- -- ---- --- --<br>------- ------,96798.09999990463,96797.29999995232,96427.104,96438.39999985695,96443.775,96810.487,,38,market
screen,html.Screen,0_2_1_1_39,2021-11-19T15:32:08.577Z,,,,,,,,,,,,,,,,54,,,,,,,,,,,,,,562.8129999523226,,response,,,100,,,,,,Space,keypress(Space),,,,,-- --- ---- --- ------ ----- ------- ---- -- --- ------- --<br>------- ---------- ------ -- ----- -- ----- -- ---- ------<br>--- ----- --- --- ------ -------- ----- --- ------ ----- --<br>----- ----- ---------- --- --- ------ became ---- -- ------<br>------- --- ------ ----- --- ---- ------- -- ---- --- --<br>------- ------,97374.20000004768,97373.29999995232,96793.817,96798.29999995232,96810.487,97377.351,,39,became
screen,html.Screen,0_2_1_1_40,2021-11-19T15:32:09.001Z,,,,,,,,,,,,,,,,54,,,,,,,,,,,,,,419.8490000476886,,response,,,100,,,,,,Space,keypress(Space),,,,,-- --- ---- --- ------ ----- ------- ---- -- --- ------- --<br>------- ---------- ------ -- ----- -- ----- -- ---- ------<br>--- ----- --- --- ------ -------- ----- --- ------ ----- --<br>----- ----- ---------- --- --- ------ ------ wary -- ------<br>------- --- ------ ----- --- ---- ------- -- ---- --- --<br>------- ------,97798,97797.20000004768,97360.68,97374.29999995232,97377.351,97810.591,,40,wary
screen,html.Screen,0_2_1_1_41,2021-11-19T15:32:09.418Z,,,,,,,,,,,,,,,,54,,,,,,,,,,,,,,402.8089998569485,,response,,,100,,,,,,Space,keypress(Space),,,,,-- --- ---- --- ------ ----- ------- ---- -- --- ------- --<br>------- ---------- ------ -- ----- -- ----- -- ---- ------<br>--- ----- --- --- ------ -------- ----- --- ------ ----- --<br>----- ----- ---------- --- --- ------ ------ ---- of ------<br>------- --- ------ ----- --- ---- ------- -- ---- --- --<br>------- ------,98215.20000004768,98213.39999985695,97793.923,97798.29999995232,97810.591,98227.634,,41,of
screen,html.Screen,0_2_1_1_42,2021-11-19T15:32:09.761Z,,,,,,,,,,,,,,,,54,,,,,,,,,,,,,,329.6659999523108,,response,,,100,,,,,,Space,keypress(Space),,,,,-- --- ---- --- ------ ----- ------- ---- -- --- ------- --<br>------- ---------- ------ -- ----- -- ----- -- ---- ------<br>--- ----- --- --- ------ -------- ----- --- ------ ----- --<br>----- ----- ---------- --- --- ------ ------ ---- -- French<br>------- --- ------ ----- --- ---- ------- -- ---- --- --<br>------- ------,98558.09999990463,98557.29999995232,98210.962,98215.5,98227.634,98560.995,,42,French
screen,html.Screen,0_2_1_1_43,2021-11-19T15:32:10.201Z,,,,,,,,,,,,,,,,54,,,,,,,,,,,,,,436.30499995232094,,response,,,100,,,,,,Space,keypress(Space),,,,,-- --- ---- --- ------ ----- ------- ---- -- --- ------- --<br>------- ---------- ------ -- ----- -- ----- -- ---- ------<br>--- ----- --- --- ------ -------- ----- --- ------ ----- --<br>----- ----- ---------- --- --- ------ ------ ---- -- ------<br>credit. --- ------ ----- --- ---- ------- -- ---- --- --<br>------- ------,98998.09999990463,98997.29999995232,98544.324,98558.29999995232,98560.995,99010.997,,43,credit.
screen,html.Screen,0_2_1_1_44,2021-11-19T15:32:10.769Z,,,,,,,,,,,,,,,,54,,,,,,,,,,,,,,554.3029999523133,,response,,,100,,,,,,Space,keypress(Space),,,,,-- --- ---- --- ------ ----- ------- ---- -- --- ------- --<br>------- ---------- ------ -- ----- -- ----- -- ---- ------<br>--- ----- --- --- ------ -------- ----- --- ------ ----- --<br>----- ----- ---------- --- --- ------ ------ ---- -- ------<br>------- The ------ ----- --- ---- ------- -- ---- --- --<br>------- ------,99566,99565.29999995232,98994.328,98998.20000004768,99010.997,99577.837,,44,The
screen,html.Screen,0_2_1_1_45,2021-11-19T15:32:11.177Z,,,,,,,,,,,,,,,,54,,,,,,,,,,,,,,395.46299995231675,,response,,,100,,,,,,Space,keypress(Space),,,,,-- --- ---- --- ------ ----- ------- ---- -- --- ------- --<br>------- ---------- ------ -- ----- -- ----- -- ---- ------<br>--- ----- --- --- ------ -------- ----- --- ------ ----- --<br>----- ----- ---------- --- --- ------ ------ ---- -- ------<br>------- --- French ----- --- ---- ------- -- ---- --- --<br>------- ------,99974.09999990463,99973.29999995232,99561.167,99566.29999995232,99577.837,99978.108,,45,French
screen,html.Screen,0_2_1_1_46,2021-11-19T15:32:11.537Z,,,,,,,,,,,,,,,,54,,,,,,,,,,,,,,355.1919999523234,,response,,,100,,,,,,Space,keypress(Space),,,,,-- --- ---- --- ------ ----- ------- ---- -- --- ------- --<br>------- ---------- ------ -- ----- -- ----- -- ---- ------<br>--- ----- --- --- ------ -------- ----- --- ------ ----- --<br>----- ----- ---------- --- --- ------ ------ ---- -- ------<br>------- --- ------ state --- ---- ------- -- ---- --- --<br>------- ------,100334,100333.29999995232,99961.436,99974.29999995232,99978.108,100344.818,,46,state
screen,html.Screen,0_2_1_1_47,2021-11-19T15:32:12.235Z,,,,,,,,,,,,,,,,54,,,,,,,,,,,,,,684.5819998569496,,response,,,100,,,,,,Space,keypress(Space),,,,,-- --- ---- --- ------ ----- ------- ---- -- --- ------- --<br>------- ---------- ------ -- ----- -- ----- -- ---- ------<br>--- ----- --- --- ------ -------- ----- --- ------ ----- --<br>----- ----- ---------- --- --- ------ ------ ---- -- ------<br>------- --- ------ ----- was ---- ------- -- ---- --- --<br>------- ------,101031.59999990463,101029.39999985695,100328.147,100334.20000004768,100344.818,101044.932,,47,was
screen,html.Screen,0_2_1_1_48,2021-11-19T15:32:12.609Z,,,,,,,,,,,,,,,,54,,,,,,,,,,,,,,360.268000047683,,response,,,100,,,,,,Space,keypress(Space),,,,,-- --- ---- --- ------ ----- ------- ---- -- --- ------- --<br>------- ---------- ------ -- ----- -- ----- -- ---- ------<br>--- ----- --- --- ------ -------- ----- --- ------ ----- --<br>----- ----- ---------- --- --- ------ ------ ---- -- ------<br>------- --- ------ ----- --- left ------- -- ---- --- --<br>------- ------,101406,101405.20000004768,101028.262,101031.79999995232,101044.932,101411.769,,48,left
screen,html.Screen,0_2_1_1_49,2021-11-19T15:32:13.025Z,,,,,,,,,,,,,,,,54,,,,,,,,,,,,,,409.4310000476835,,response,,,100,,,,,,Space,keypress(Space),,,,,-- --- ---- --- ------ ----- ------- ---- -- --- ------- --<br>------- ---------- ------ -- ----- -- ----- -- ---- ------<br>--- ----- --- --- ------ -------- ----- --- ------ ----- --<br>----- ----- ---------- --- --- ------ ------ ---- -- ------<br>------- --- ------ ----- --- ---- without -- ---- --- --<br>------- ------,101822,101821.20000004768,101395.098,101406.20000004768,101411.769,101828.534,,49,without
screen,html.Screen,0_2_1_1_50,2021-11-19T15:32:13.425Z,,,,,,,,,,,,,,,,54,,,,,,,,,,,,,,392.66600004768407,,response,,,100,,,,,,Space,keypress(Space),,,,,-- --- ---- --- ------ ----- ------- ---- -- --- ------- --<br>------- ---------- ------ -- ----- -- ----- -- ---- ------<br>--- ----- --- --- ------ -------- ----- --- ------ ----- --<br>----- ----- ---------- --- --- ------ ------ ---- -- ------<br>------- --- ------ ----- --- ---- ------- an ---- --- --<br>------- ------,102222,102221.20000004768,101811.863,101822.20000004768,101828.534,102228.667,,50,an
screen,html.Screen,0_2_1_1_51,2021-11-19T15:32:13.793Z,,,,,,,,,,,,,,,,54,,,,,,,,,,,,,,360.4329999046313,,response,,,100,,,,,,Space,keypress(Space),,,,,-- --- ---- --- ------ ----- ------- ---- -- --- ------- --<br>------- ---------- ------ -- ----- -- ----- -- ---- ------<br>--- ----- --- --- ------ -------- ----- --- ------ ----- --<br>----- ----- ---------- --- --- ------ ------ ---- -- ------<br>------- --- ------ ----- --- ---- ------- -- easy --- --<br>------- ------,102589.89999985695,102589.09999990463,102211.996,102222.20000004768,102228.667,102595.371,,51,easy
screen,html.Screen,0_2_1_1_52,2021-11-19T15:32:14.185Z,,,,,,,,,,,,,,,,54,,,,,,,,,,,,,,385.7289999046334,,response,,,100,,,,,,Space,keypress(Space),,,,,-- --- ---- --- ------ ----- ------- ---- -- --- ------- --<br>------- ---------- ------ -- ----- -- ----- -- ---- ------<br>--- ----- --- --- ------ -------- ----- --- ------ ----- --<br>----- ----- ---------- --- --- ------ ------ ---- -- ------<br>------- --- ------ ----- --- ---- ------- -- ---- way --<br>------- ------,102981.89999985695,102981.09999990463,102578.701,102590.09999990463,102595.371,102995.529,,52,way
screen,html.Screen,0_2_1_1_53,2021-11-19T15:32:14.537Z,,,,,,,,,,,,,,,,54,,,,,,,,,,,,,,337.471000000005,,response,,,100,,,,,,Space,keypress(Space),,,,,-- --- ---- --- ------ ----- ------- ---- -- --- ------- --<br>------- ---------- ------ -- ----- -- ----- -- ---- ------<br>--- ----- --- --- ------ -------- ----- --- ------ ----- --<br>----- ----- ---------- --- --- ------ ------ ---- -- ------<br>------- --- ------ ----- --- ---- ------- -- ---- --- of<br>------- ------,103333.79999995232,103333,102978.858,102982.09999990463,102995.529,103345.581,,53,of
screen,html.Screen,0_2_1_1_54,2021-11-19T15:32:14.961Z,,,,,,,,,,,,,,,,54,,,,,,,,,,,,,,411.518999904627,,response,,,100,,,,,,Space,keypress(Space),,,,,-- --- ---- --- ------ ----- ------- ---- -- --- ------- --<br>------- ---------- ------ -- ----- -- ----- -- ---- ------<br>--- ----- --- --- ------ -------- ----- --- ------ ----- --<br>----- ----- ---------- --- --- ------ ------ ---- -- ------<br>------- --- ------ ----- --- ---- ------- -- ---- --- --<br>raising ------,103757.89999985695,103757.09999990463,103328.911,103333.89999985695,103345.581,103762.415,,54,raising
screen,html.Screen,0_2_1_1_55,2021-11-19T15:32:15.641Z,,,,,,,,,,,,,,,,54,,,,,,,,,,,,,,674.5850000000064,,response,,,100,,,,,,Space,keypress(Space),,,,,-- --- ---- --- ------ ----- ------- ---- -- --- ------- --<br>------- ---------- ------ -- ----- -- ----- -- ---- ------<br>--- ----- --- --- ------ -------- ----- --- ------ ----- --<br>----- ----- ---------- --- --- ------ ------ ---- -- ------<br>------- --- ------ ----- --- ---- ------- -- ---- --- --<br>------- money.,104437.89999985695,104437,103745.744,103758.09999990463,103762.415,104445.674,,55,money.
Item 100,flow.Loop,0_2_1_1,2021-11-19T15:32:15.641Z,,,,,,,,,,,,,,,,,,,,,,,,,,,,,,25264.618000000002,,completion,,,,A,,,,,,,,,,silence,,104438.29999995232,104437,79155.711,79157,79172.382,104445.674,,,
Question 1,html.Screen,0_2_1_2,2021-11-19T15:32:18.505Z,,,,,,,,,,,,,,,,,,,,,,,,,,,true,TRUE,,2855.125999952317,,response,,,100,A,,,,,TRUE,click #choice-1,,,,silence,,107301.89999985695,107300.79999995232,104429.006,104438.5,104445.674,107313.349,,,
Question 2,html.Screen,0_2_1_3,2021-11-19T15:32:20.897Z,,,,,,,,,,,,,,,,,,,,,,,,,,,true,FALSE,,2379.2509999046306,,response,,,100,A,,,,,FALSE,click #choice-2,,,,silence,,109693.70000004768,109692.59999990463,107296.678,107302.20000004768,107313.349,109697.328,,,
Item 100,flow.Sequence,0_2_1,2021-11-19T15:32:20.897Z,,,,,,,,,,,,,,,,,,,,,,,,,,,,,,40523.01999990463,,completion,,,,,,,,,,,,,,,,109694.09999990463,109692.59999990463,69152.912,69160.20000004768,69169.58,109697.328,,,
End of Practice,html.Page,0_2_2,2021-11-19T15:32:25.498Z,,,,,,,,,,,,,,,,,,,,,,,,,,,,,,4596.571999856955,,form submission,,,,,,,,,,,,,,,,114294.5,114293.89999985695,109680.657,109694.20000004768,109697.328,114298.446,,,
Practice,flow.Sequence,0_2,2021-11-19T15:32:25.498Z,,,,,,,,,,,,,,,,,,,,,,,,,,,,,,84868.10099985695,,completion,,,,,,,,,,,,,,,,114295,114293.89999985695,29409.128,29418.200000047684,29425.799,114298.446,,,
Trap_instruction,html.Page,0_3_0,2021-11-19T15:32:29.865Z,,,,,,,,,,,,,,,,,,,,,,,,,,,,,,4363.153999904636,,form submission,,,,,,,,,,,,,,,,118662.09999990463,118661.59999990463,114281.776,114295.29999995232,114298.446,118682.714,,,
trap_trial,html.Screen,0_3_1,2021-11-19T15:32:32.523Z,,,,,,,,,,,,,,,,,,,,,,,,,,,true,1,,2633.285999999993,,response,,,,,,,,,1,click #choice-1,,,,,,121317.20000004768,121316,118649.374,118662.20000004768,118682.714,121333.561,,,
end of trap trial,html.Page,0_3_2,2021-11-19T15:32:34.036Z,,,,,,,,,,,,,,,,,,,,,,,,,,,,,,1495.8389998569473,,form submission,,,,,,,,,,,,,,,,122829.89999985695,122829.39999985695,121316.891,121317.5,121333.561,122834.191,,,
Trap 1,flow.Sequence,0_3,2021-11-19T15:32:34.036Z,,,,,,,,,,,,,,,,,,,,,,,,,,,,,,8530.953999856953,,completion,,,,,,,,,,,,,,,,122830.20000004768,122829.39999985695,114281.776,114295.20000004768,114298.446,122834.191,,,
Standby,html.Page,0_4_0,2021-11-19T15:32:42.026Z,,,,,,,,,,,,,,,,,,,,,,,,,,,,,,8001.535999999993,,timeout,,,,,,,,,,,,,,,,130820.39999985695,130819.057,122817.52,122830.39999985695,122834.191,130835.727,,,
Holding screen,html.Screen,0_4_1_0_0,2021-11-19T15:32:49.028Z,,,,,,,,,,,,,,,,,,,,,,,,,,,,,,7002.476999999999,,timeout,,,,,,,,,,,,,,,,137822.5,137821.533,130819.057,130821,130835.727,137838.204,,,
screen,html.Screen,0_4_1_0_1_0,2021-11-19T15:32:49.771Z,,,,,,,,,,,,,,,,51,,,,,,,,,,,,,,725.8959999046347,,response,,,13,A,,,,,Space,keypress(Space),,,,silence,American -------- --- --- ---- --- --- ------ -- --------<br>---- --------- --- ------- ------------ ---------- ---------<br>--- ---------- ------- ---------- ------- -- -------- ----<br>---- --- ------ ----- ------ -- ---- --- ----- -- - -------<br>-------- -- --- --- -- ----- ----------- ----- -----------<br>---- --- ---------- --- ---- --- -- ----------,138565.09999990463,138564.09999990463,137821.533,137823,137838.204,138571.731,,0,American
screen,html.Screen,0_4_1_0_1_1,2021-11-19T15:32:50.186Z,,,,,,,,,,,,,,,,51,,,,,,,,,,,,,,407.76900000000023,,response,,,13,A,,,,,Space,keypress(Space),,,,silence,-------- industry --- --- ---- --- --- ------ -- --------<br>---- --------- --- ------- ------------ ---------- ---------<br>--- ---------- ------- ---------- ------- -- -------- ----<br>---- --- ------ ----- ------ -- ---- --- ----- -- - -------<br>-------- -- --- --- -- ----- ----------- ----- -----------<br>---- --- ---------- --- ---- --- -- ----------,138980.5,138979.5,138555.06,138565.5,138571.731,138988.368,,1,industry
screen,html.Screen,0_4_1_0_1_2,2021-11-19T15:32:50.586Z,,,,,,,,,,,,,,,,51,,,,,,,,,,,,,,391.2319999046449,,response,,,13,A,,,,,Space,keypress(Space),,,,silence,-------- -------- may --- ---- --- --- ------ -- --------<br>---- --------- --- ------- ------------ ---------- ---------<br>--- ---------- ------- ---------- ------- -- -------- ----<br>---- --- ------ ----- ------ -- ---- --- ----- -- - -------<br>-------- -- --- --- -- ----- ----------- ----- -----------<br>---- --- ---------- --- ---- --- -- ----------,139380.39999985695,139379.59999990463,138971.699,138980.79999995232,138988.368,139388.678,,2,may
screen,html.Screen,0_4_1_0_1_3,2021-11-19T15:32:50.938Z,,,,,,,,,,,,,,,,51,,,,,,,,,,,,,,342.82199999998556,,response,,,13,A,,,,,Space,keypress(Space),,,,silence,-------- -------- --- not ---- --- --- ------ -- --------<br>---- --------- --- ------- ------------ ---------- ---------<br>--- ---------- ------- ---------- ------- -- -------- ----<br>---- --- ------ ----- ------ -- ---- --- ----- -- - -------<br>-------- -- --- --- -- ----- ----------- ----- -----------<br>---- --- ---------- --- ---- --- -- ----------,139732.39999985695,139731.5,139372.006,139380.70000004768,139388.678,139738.615,,3,not
screen,html.Screen,0_4_1_0_1_4,2021-11-19T15:32:51.362Z,,,,,,,,,,,,,,,,51,,,,,,,,,,,,,,416.8850000000093,,response,,,13,A,,,,,Space,keypress(Space),,,,silence,-------- -------- --- --- know --- --- ------ -- --------<br>---- --------- --- ------- ------------ ---------- ---------<br>--- ---------- ------- ---------- ------- -- -------- ----<br>---- --- ------ ----- ------ -- ---- --- ----- -- - -------<br>-------- -- --- --- -- ----- ----------- ----- -----------<br>---- --- ---------- --- ---- --- -- ----------,140156.29999995232,140155.5,139721.946,139732.59999990463,139738.615,140172.1,,4,know
screen,html.Screen,0_4_1_0_1_5,2021-11-19T15:32:51.738Z,,,,,,,,,,,,,,,,51,,,,,,,,,,,,,,359.49999990462675,,response,,,13,A,,,,,Space,keypress(Space),,,,silence,"-------- -------- --- --- ---- it, --- ------ -- --------<br>---- --------- --- ------- ------------ ---------- ---------<br>--- ---------- ------- ---------- ------- -- -------- ----<br>---- --- ------ ----- ------ -- ---- --- ----- -- - -------<br>-------- -- --- --- -- ----- ----------- ----- -----------<br>---- --- ---------- --- ---- --- -- ----------",140532.39999985695,140531.59999990463,140155.43,140156.59999990463,140172.1,140539,,5,"it,"
screen,html.Screen,0_4_1_0_1_6,2021-11-19T15:32:52.194Z,,,,,,,,,,,,,,,,51,,,,,,,,,,,,,,448.5,,response,,,13,A,,,,,Space,keypress(Space),,,,silence,-------- -------- --- --- ---- --- but ------ -- --------<br>---- --------- --- ------- ------------ ---------- ---------<br>--- ---------- ------- ---------- ------- -- -------- ----<br>---- --- ------ ----- ------ -- ---- --- ----- -- - -------<br>-------- -- --- --- -- ----- ----------- ----- -----------<br>---- --- ---------- --- ---- --- -- ----------,140988.20000004768,140987.5,140522.328,140532.70000004768,140539,141005.69,,6,but
screen,html.Screen,0_4_1_0_1_7,2021-11-19T15:32:52.802Z,,,,,,,,,,,,,,,,51,,,,,,,,,,,,,,589.7099998569465,,response,,,13,A,,,,,Space,keypress(Space),,,,silence,-------- -------- --- --- ---- --- --- debate -- --------<br>---- --------- --- ------- ------------ ---------- ---------<br>--- ---------- ------- ---------- ------- -- -------- ----<br>---- --- ------ ----- ------ -- ---- --- ----- -- - -------<br>-------- -- --- --- -- ----- ----------- ----- -----------<br>---- --- ---------- --- ---- --- -- ----------,141596.20000004768,141595.39999985695,140989.02,140988.5,141005.69,141605.902,,7,debate
screen,html.Screen,0_4_1_0_1_8,2021-11-19T15:32:53.122Z,,,,,,,,,,,,,,,,51,,,,,,,,,,,,,,309.3979999523144,,response,,,13,A,,,,,Space,keypress(Space),,,,silence,-------- -------- --- --- ---- --- --- ------ in --------<br>---- --------- --- ------- ------------ ---------- ---------<br>--- ---------- ------- ---------- ------- -- -------- ----<br>---- --- ------ ----- ------ -- ---- --- ----- -- - -------<br>-------- -- --- --- -- ----- ----------- ----- -----------<br>---- --- ---------- --- ---- --- -- ----------,141916.09999990463,141915.29999995232,141589.231,141596.5,141605.902,141922.61,,8,in
screen,html.Screen,0_4_1_0_1_9,2021-11-19T15:32:53.580Z,,,,,,,,,,,,,,,,51,,,,,,,,,,,,,,448.68999995233025,,response,,,13,A,,,,,Space,keypress(Space),,,,silence,-------- -------- --- --- ---- --- --- ------ -- Congress<br>---- --------- --- ------- ------------ ---------- ---------<br>--- ---------- ------- ---------- ------- -- -------- ----<br>---- --- ------ ----- ------ -- ---- --- ----- -- - -------<br>-------- -- --- --- -- ----- ----------- ----- -----------<br>---- --- ---------- --- ---- --- -- ----------,142374,142371.29999995232,141905.94,141916.29999995232,141922.61,142389.435,,9,Congress
screen,html.Screen,0_4_1_0_1_10,2021-11-19T15:32:54.026Z,,,,,,,,,,,,,,,,51,,,,,,,,,,,,,,429.8649999523186,,response,,,13,A,,,,,Space,keypress(Space),,,,silence,-------- -------- --- --- ---- --- --- ------ -- --------<br>over --------- --- ------- ------------ ---------- ---------<br>--- ---------- ------- ---------- ------- -- -------- ----<br>---- --- ------ ----- ------ -- ---- --- ----- -- - -------<br>-------- -- --- --- -- ----- ----------- ----- -----------<br>---- --- ---------- --- ---- --- -- ----------,142820.09999990463,142819.29999995232,142372.764,142374.29999995232,142389.435,142822.883,,10,over
screen,html.Screen,0_4_1_0_1_11,2021-11-19T15:32:54.450Z,,,,,,,,,,,,,,,,51,,,,,,,,,,,,,,420.41699995231465,,response,,,13,A,,,,,Space,keypress(Space),,,,silence,-------- -------- --- --- ---- --- --- ------ -- --------<br>---- reforming --- ------- ------------ ---------- ---------<br>--- ---------- ------- ---------- ------- -- -------- ----<br>---- --- ------ ----- ------ -- ---- --- ----- -- - -------<br>-------- -- --- --- -- ----- ----------- ----- -----------<br>---- --- ---------- --- ---- --- -- ----------,143244.09999990463,143243.29999995232,142806.212,142820.29999995232,142822.883,143256.348,,11,reforming
screen,html.Screen,0_4_1_0_1_12,2021-11-19T15:32:54.898Z,,,,,,,,,,,,,,,,51,,,,,,,,,,,,,,434.95199995231815,,response,,,13,A,,,,,Space,keypress(Space),,,,silence,-------- -------- --- --- ---- --- --- ------ -- --------<br>---- --------- the ------- ------------ ---------- ---------<br>--- ---------- ------- ---------- ------- -- -------- ----<br>---- --- ------ ----- ------ -- ---- --- ----- -- - -------<br>-------- -- --- --- -- ----- ----------- ----- -----------<br>---- --- ---------- --- ---- --- -- ----------,143692.09999990463,143691.29999995232,143239.677,143244.39999985695,143256.348,143706.419,,12,the
screen,html.Screen,0_4_1_0_1_13,2021-11-19T15:32:55.210Z,,,,,,,,,,,,,,,,51,,,,,,,,,,,,,,296.98099985695444,,response,,,13,A,,,,,Space,keypress(Space),,,,silence,-------- -------- --- --- ---- --- --- ------ -- --------<br>---- --------- --- federal ------------ ---------- ---------<br>--- ---------- ------- ---------- ------- -- -------- ----<br>---- --- ------ ----- ------ -- ---- --- ----- -- - -------<br>-------- -- --- --- -- ----- ----------- ----- -----------<br>---- --- ---------- --- ---- --- -- ----------,144004.09999990463,144003.39999985695,143689.749,143692.39999985695,143706.419,144006.552,,13,federal
screen,html.Screen,0_4_1_0_1_14,2021-11-19T15:32:55.650Z,,,,,,,,,,,,,,,,51,,,,,,,,,,,,,,436.74799995232024,,response,,,13,A,,,,,Space,keypress(Space),,,,silence,-------- -------- --- --- ---- --- --- ------ -- --------<br>---- --------- --- ------- government's ---------- ---------<br>--- ---------- ------- ---------- ------- -- -------- ----<br>---- --- ------ ----- ------ -- ---- --- ----- -- - -------<br>-------- -- --- --- -- ----- ----------- ----- -----------<br>---- --- ---------- --- ---- --- -- ----------,144444.09999990463,144443.29999995232,143989.881,144004.39999985695,144006.552,144456.624,,14,government's
screen,html.Screen,0_4_1_0_1_15,2021-11-19T15:32:56.330Z,,,,,,,,,,,,,,,,51,,,,,,,,,,,,,,666.6759999523056,,response,,,13,A,,,,,Space,keypress(Space),,,,silence,-------- -------- --- --- ---- --- --- ------ -- --------<br>---- --------- --- ------- ------------ regulatory ---------<br>--- ---------- ------- ---------- ------- -- -------- ----<br>---- --- ------ ----- ------ -- ---- --- ----- -- - -------<br>-------- -- --- --- -- ----- ----------- ----- -----------<br>---- --- ---------- --- ---- --- -- ----------,145124.20000004768,145123.29999995232,144439.954,144444.29999995232,144456.624,145140.168,,15,regulatory
screen,html.Screen,0_4_1_0_1_16,2021-11-19T15:32:56.722Z,,,,,,,,,,,,,,,,51,,,,,,,,,,,,,,375.13199995231116,,response,,,13,A,,,,,Space,keypress(Space),,,,silence,-------- -------- --- --- ---- --- --- ------ -- --------<br>---- --------- --- ------- ------------ ---------- apparatus<br>--- ---------- ------- ---------- ------- -- -------- ----<br>---- --- ------ ----- ------ -- ---- --- ----- -- - -------<br>-------- -- --- --- -- ----- ----------- ----- -----------<br>---- --- ---------- --- ---- --- -- ----------,145516.09999990463,145515.29999995232,145123.497,145124.39999985695,145140.168,145523.645,,16,apparatus
screen,html.Screen,0_4_1_0_1_17,2021-11-19T15:32:57.066Z,,,,,,,,,,,,,,,,51,,,,,,,,,,,,,,335.65499995232676,,response,,,13,A,,,,,Space,keypress(Space),,,,silence,-------- -------- --- --- ---- --- --- ------ -- --------<br>---- --------- --- ------- ------------ ---------- ---------<br>may ---------- ------- ---------- ------- -- -------- ----<br>---- --- ------ ----- ------ -- ---- --- ----- -- - -------<br>-------- -- --- --- -- ----- ----------- ----- -----------<br>---- --- ---------- --- ---- --- -- ----------,145860.09999990463,145859.29999995232,145506.974,145516.29999995232,145523.645,145873.588,,17,may
screen,html.Screen,0_4_1_0_1_18,2021-11-19T15:32:57.786Z,,,,,,,,,,,,,,,,51,,,,,,,,,,,,,,705.6120000476949,,response,,,13,A,,,,,Space,keypress(Space),,,,silence,-------- -------- --- --- ---- --- --- ------ -- --------<br>---- --------- --- ------- ------------ ---------- ---------<br>--- profoundly ------- ---------- ------- -- -------- ----<br>---- --- ------ ----- ------ -- ---- --- ----- -- - -------<br>-------- -- --- --- -- ----- ----------- ----- -----------<br>---- --- ---------- --- ---- --- -- ----------,146580,146579.20000004768,145856.919,145860.39999985695,145873.588,146590.629,,18,profoundly
screen,html.Screen,0_4_1_0_1_19,2021-11-19T15:32:58.130Z,,,,,,,,,,,,,,,,51,,,,,,,,,,,,,,332.67099995233,,response,,,13,A,,,,,Space,keypress(Space),,,,silence,-------- -------- --- --- ---- --- --- ------ -- --------<br>---- --------- --- ------- ------------ ---------- ---------<br>--- ---------- improve ---------- ------- -- -------- ----<br>---- --- ------ ----- ------ -- ---- --- ----- -- - -------<br>-------- -- --- --- -- ----- ----------- ----- -----------<br>---- --- ---------- --- ---- --- -- ----------,146924.09999990463,146923.29999995232,146573.957,146580.20000004768,146590.629,146940.691,,19,improve
screen,html.Screen,0_4_1_0_1_20,2021-11-19T15:32:58.530Z,,,,,,,,,,,,,,,,51,,,,,,,,,,,,,,382.40899990464095,,response,,,13,A,,,,,Space,keypress(Space),,,,silence,-------- -------- --- --- ---- --- --- ------ -- --------<br>---- --------- --- ------- ------------ ---------- ---------<br>--- ---------- ------- companies' ------- -- -------- ----<br>---- --- ------ ----- ------ -- ---- --- ----- -- - -------<br>-------- -- --- --- -- ----- ----------- ----- -----------<br>---- --- ---------- --- ---- --- -- ----------,147323.89999985695,147323.09999990463,146924.02,146924.39999985695,146940.691,147340.739,,20,companies'
screen,html.Screen,0_4_1_0_1_21,2021-11-19T15:32:58.970Z,,,,,,,,,,,,,,,,51,,,,,,,,,,,,,,422.4610000476823,,response,,,13,A,,,,,Space,keypress(Space),,,,silence,-------- -------- --- --- ---- --- --- ------ -- --------<br>---- --------- --- ------- ------------ ---------- ---------<br>--- ---------- ------- ---------- ability -- -------- ----<br>---- --- ------ ----- ------ -- ---- --- ----- -- - -------<br>-------- -- --- --- -- ----- ----------- ----- -----------<br>---- --- ---------- --- ---- --- -- ----------,147764,147763.20000004768,147324.069,147324.29999995232,147340.739,147774.233,,21,ability
screen,html.Screen,0_4_1_0_1_22,2021-11-19T15:32:59.378Z,,,,,,,,,,,,,,,,51,,,,,,,,,,,,,,396.96700004767627,,response,,,13,A,,,,,Space,keypress(Space),,,,silence,-------- -------- --- --- ---- --- --- ------ -- --------<br>---- --------- --- ------- ------------ ---------- ---------<br>--- ---------- ------- ---------- ------- to -------- ----<br>---- --- ------ ----- ------ -- ---- --- ----- -- - -------<br>-------- -- --- --- -- ----- ----------- ----- -----------<br>---- --- ---------- --- ---- --- -- ----------,148171.89999985695,148171.20000004768,147757.562,147764.29999995232,147774.233,148174.282,,22,to
screen,html.Screen,0_4_1_0_1_23,2021-11-19T15:33:00.090Z,,,,,,,,,,,,,,,,51,,,,,,,,,,,,,,709.317999904626,,response,,,13,A,,,,,Space,keypress(Space),,,,silence,-------- -------- --- --- ---- --- --- ------ -- --------<br>---- --------- --- ------- ------------ ---------- ---------<br>--- ---------- ------- ---------- ------- -- survive. ----<br>---- --- ------ ----- ------ -- ---- --- ----- -- - -------<br>-------- -- --- --- -- ----- ----------- ----- -----------<br>---- --- ---------- --- ---- --- -- ----------,148884.29999995232,148883.59999990463,148157.612,148172.09999990463,148174.282,148891.121,,23,survive.
screen,html.Screen,0_4_1_0_1_24,2021-11-19T15:33:00.522Z,,,,,,,,,,,,,,,,51,,,,,,,,,,,,,,423.97899990461883,,response,,,13,A,,,,,Space,keypress(Space),,,,silence,-------- -------- --- --- ---- --- --- ------ -- --------<br>---- --------- --- ------- ------------ ---------- ---------<br>--- ---------- ------- ---------- ------- -- -------- This<br>---- --- ------ ----- ------ -- ---- --- ----- -- - -------<br>-------- -- --- --- -- ----- ----------- ----- -----------<br>---- --- ---------- --- ---- --- -- ----------,149315.79999995232,149315.09999990463,148874.451,148884.59999990463,148891.121,149324.66,,24,This
screen,html.Screen,0_4_1_0_1_25,2021-11-19T15:33:00.858Z,,,,,,,,,,,,,,,,51,,,,,,,,,,,,,,326.4399999046291,,response,,,13,A,,,,,Space,keypress(Space),,,,silence,-------- -------- --- --- ---- --- --- ------ -- --------<br>---- --------- --- ------- ------------ ---------- ---------<br>--- ---------- ------- ---------- ------- -- -------- ----<br>week --- ------ ----- ------ -- ---- --- ----- -- - -------<br>-------- -- --- --- -- ----- ----------- ----- -----------<br>---- --- ---------- --- ---- --- -- ----------,149651.89999985695,149651.09999990463,149307.989,149316.09999990463,149324.66,149658.062,,25,week
screen,html.Screen,0_4_1_0_1_26,2021-11-19T15:33:01.250Z,,,,,,,,,,,,,,,,51,,,,,,,,,,,,,,385.0379999046272,,response,,,13,A,,,,,Space,keypress(Space),,,,silence,-------- -------- --- --- ---- --- --- ------ -- --------<br>---- --------- --- ------- ------------ ---------- ---------<br>--- ---------- ------- ---------- ------- -- -------- ----<br>---- the ------ ----- ------ -- ---- --- ----- -- - -------<br>-------- -- --- --- -- ----- ----------- ----- -----------<br>---- --- ---------- --- ---- --- -- ----------,150043.79999995232,150043.09999990463,149641.391,149652.20000004768,149658.062,150058.172,,26,the
screen,html.Screen,0_4_1_0_1_27,2021-11-19T15:33:01.746Z,,,,,,,,,,,,,,,,51,,,,,,,,,,,,,,480.72799985695747,,response,,,13,A,,,,,Space,keypress(Space),,,,silence,-------- -------- --- --- ---- --- --- ------ -- --------<br>---- --------- --- ------- ------------ ---------- ---------<br>--- ---------- ------- ---------- ------- -- -------- ----<br>---- --- Senate ----- ------ -- ---- --- ----- -- - -------<br>-------- -- --- --- -- ----- ----------- ----- -----------<br>---- --- ---------- --- ---- --- -- ----------,150539.79999995232,150538.89999985695,150041.501,150044.20000004768,150058.172,150541.584,,27,Senate
screen,html.Screen,0_4_1_0_1_28,2021-11-19T15:33:02.074Z,,,,,,,,,,,,,,,,51,,,,,,,,,,,,,,325.51599990463,,response,,,13,A,,,,,Space,keypress(Space),,,,silence,-------- -------- --- --- ---- --- --- ------ -- --------<br>---- --------- --- ------- ------------ ---------- ---------<br>--- ---------- ------- ---------- ------- -- -------- ----<br>---- --- ------ seems ------ -- ---- --- ----- -- - -------<br>-------- -- --- --- -- ----- ----------- ----- -----------<br>---- --- ---------- --- ---- --- -- ----------,150867.79999995232,150867.09999990463,150524.914,150540.09999990463,150541.584,150874.987,,28,seems
screen,html.Screen,0_4_1_0_1_29,2021-11-19T15:33:02.490Z,,,,,,,,,,,,,,,,51,,,,,,,,,,,,,,408.0130000000063,,response,,,13,A,,,,,Space,keypress(Space),,,,silence,-------- -------- --- --- ---- --- --- ------ -- --------<br>---- --------- --- ------- ------------ ---------- ---------<br>--- ---------- ------- ---------- ------- -- -------- ----<br>---- --- ------ ----- poised -- ---- --- ----- -- - -------<br>-------- -- --- --- -- ----- ----------- ----- -----------<br>---- --- ---------- --- ---- --- -- ----------,151283.79999995232,151283,150858.317,150868,150874.987,151291.825,,29,poised
screen,html.Screen,0_4_1_0_1_30,2021-11-19T15:33:03.018Z,,,,,,,,,,,,,,,,51,,,,,,,,,,,,,,519.1749999999884,,response,,,13,A,,,,,Space,keypress(Space),,,,silence,-------- -------- --- --- ---- --- --- ------ -- --------<br>---- --------- --- ------- ------------ ---------- ---------<br>--- ---------- ------- ---------- ------- -- -------- ----<br>---- --- ------ ----- ------ to ---- --- ----- -- - -------<br>-------- -- --- --- -- ----- ----------- ----- -----------<br>---- --- ---------- --- ---- --- -- ----------,151811.79999995232,151811,151275.154,151284,151291.825,151825.321,,30,to
screen,html.Screen,0_4_1_0_1_31,2021-11-19T15:33:03.458Z,,,,,,,,,,,,,,,,51,,,,,,,,,,,,,,425.6790000000037,,response,,,13,A,,,,,Space,keypress(Space),,,,silence,-------- -------- --- --- ---- --- --- ------ -- --------<br>---- --------- --- ------- ------------ ---------- ---------<br>--- ---------- ------- ---------- ------- -- -------- ----<br>---- --- ------ ----- ------ -- join --- ----- -- - -------<br>-------- -- --- --- -- ----- ----------- ----- -----------<br>---- --- ---------- --- ---- --- -- ----------,152251.79999995232,152251,151808.65,151812,151825.321,152258.718,,31,join
screen,html.Screen,0_4_1_0_1_32,2021-11-19T15:33:03.842Z,,,,,,,,,,,,,,,,51,,,,,,,,,,,,,,376.2820000000065,,response,,,13,A,,,,,Space,keypress(Space),,,,silence,-------- -------- --- --- ---- --- --- ------ -- --------<br>---- --------- --- ------- ------------ ---------- ---------<br>--- ---------- ------- ---------- ------- -- -------- ----<br>---- --- ------ ----- ------ -- ---- the ----- -- - -------<br>-------- -- --- --- -- ----- ----------- ----- -----------<br>---- --- ---------- --- ---- --- -- ----------,152635.79999995232,152635,152242.048,152252,152258.718,152642.067,,32,the
screen,html.Screen,0_4_1_0_1_33,2021-11-19T15:33:04.258Z,,,,,,,,,,,,,,,,51,,,,,,,,,,,,,,408.83299985693884,,response,,,13,A,,,,,Space,keypress(Space),,,,silence,-------- -------- --- --- ---- --- --- ------ -- --------<br>---- --------- --- ------- ------------ ---------- ---------<br>--- ---------- ------- ---------- ------- -- -------- ----<br>---- --- ------ ----- ------ -- ---- --- House -- - -------<br>-------- -- --- --- -- ----- ----------- ----- -----------<br>---- --- ---------- --- ---- --- -- ----------,153051.79999995232,153050.89999985695,152625.398,152635.89999985695,152642.067,153058.927,,33,House
screen,html.Screen,0_4_1_0_1_34,2021-11-19T15:33:04.634Z,,,,,,,,,,,,,,,,51,,,,,,,,,,,,,,368.07300000000396,,response,,,13,A,,,,,Space,keypress(Space),,,,silence,-------- -------- --- --- ---- --- --- ------ -- --------<br>---- --------- --- ------- ------------ ---------- ---------<br>--- ---------- ------- ---------- ------- -- -------- ----<br>---- --- ------ ----- ------ -- ---- --- ----- in - -------<br>-------- -- --- --- -- ----- ----------- ----- -----------<br>---- --- ---------- --- ---- --- -- ----------,153427.70000004768,153427,153042.256,153052,153058.927,153442.52,,34,in
screen,html.Screen,0_4_1_0_1_35,2021-11-19T15:33:04.946Z,,,,,,,,,,,,,,,,51,,,,,,,,,,,,,,296.37999985695933,,response,,,13,A,,,,,Space,keypress(Space),,,,silence,-------- -------- --- --- ---- --- --- ------ -- --------<br>---- --------- --- ------- ------------ ---------- ---------<br>--- ---------- ------- ---------- ------- -- -------- ----<br>---- --- ------ ----- ------ -- ---- --- ----- -- a -------<br>-------- -- --- --- -- ----- ----------- ----- -----------<br>---- --- ---------- --- ---- --- -- ----------,153739.70000004768,153738.89999985695,153425.847,153427.89999985695,153442.52,153742.455,,35,a
screen,html.Screen,0_4_1_0_1_36,2021-11-19T15:33:05.385Z,,,,,,,,,,,,,,,,51,,,,,,,,,,,,,,436.44499985696166,,response,,,13,A,,,,,Space,keypress(Space),,,,silence,-------- -------- --- --- ---- --- --- ------ -- --------<br>---- --------- --- ------- ------------ ---------- ---------<br>--- ---------- ------- ---------- ------- -- -------- ----<br>---- --- ------ ----- ------ -- ---- --- ----- -- - massive<br>-------- -- --- --- -- ----- ----------- ----- -----------<br>---- --- ---------- --- ---- --- -- ----------,154179.70000004768,154178.89999985695,153725.785,153739.89999985695,153742.455,154192.606,,36,massive
screen,html.Screen,0_4_1_0_1_37,2021-11-19T15:33:05.825Z,,,,,,,,,,,,,,,,51,,,,,,,,,,,,,,426.2939998569491,,response,,,13,A,,,,,Space,keypress(Space),,,,silence,-------- -------- --- --- ---- --- --- ------ -- --------<br>---- --------- --- ------- ------------ ---------- ---------<br>--- ---------- ------- ---------- ------- -- -------- ----<br>---- --- ------ ----- ------ -- ---- --- ----- -- - -------<br>overhaul -- --- --- -- ----- ----------- ----- -----------<br>---- --- ---------- --- ---- --- -- ----------,154619.70000004768,154618.89999985695,154175.935,154179.89999985695,154192.606,154626.07,,37,overhaul
screen,html.Screen,0_4_1_0_1_38,2021-11-19T15:33:06.193Z,,,,,,,,,,,,,,,,51,,,,,,,,,,,,,,360.82999985694187,,response,,,13,A,,,,,Space,keypress(Space),,,,silence,-------- -------- --- --- ---- --- --- ------ -- --------<br>---- --------- --- ------- ------------ ---------- ---------<br>--- ---------- ------- ---------- ------- -- -------- ----<br>---- --- ------ ----- ------ -- ---- --- ----- -- - -------<br>-------- of --- --- -- ----- ----------- ----- -----------<br>---- --- ---------- --- ---- --- -- ----------,154987.59999990463,154986.89999985695,154609.399,154620,154626.07,154992.794,,38,of
screen,html.Screen,0_4_1_0_1_39,2021-11-19T15:33:06.521Z,,,,,,,,,,,,,,,,51,,,,,,,,,,,,,,322.10599985695444,,response,,,13,A,,,,,Space,keypress(Space),,,,silence,-------- -------- --- --- ---- --- --- ------ -- --------<br>---- --------- --- ------- ------------ ---------- ---------<br>--- ---------- ------- ---------- ------- -- -------- ----<br>---- --- ------ ----- ------ -- ---- --- ----- -- - -------<br>-------- -- the --- -- ----- ----------- ----- -----------<br>---- --- ---------- --- ---- --- -- ----------,155315.70000004768,155314.89999985695,154976.124,154987.89999985695,154992.794,155326.244,,39,the
screen,html.Screen,0_4_1_0_1_40,2021-11-19T15:33:06.937Z,,,,,,,,,,,,,,,,51,,,,,,,,,,,,,,404.55599995231023,,response,,,13,A,,,,,Space,keypress(Space),,,,silence,-------- -------- --- --- ---- --- --- ------ -- --------<br>---- --------- --- ------- ------------ ---------- ---------<br>--- ---------- ------- ---------- ------- -- -------- ----<br>---- --- ------ ----- ------ -- ---- --- ----- -- - -------<br>-------- -- --- way -- ----- ----------- ----- -----------<br>---- --- ---------- --- ---- --- -- ----------,155731.59999990463,155730.79999995232,155309.573,155315.89999985695,155326.244,155743.022,,40,way
screen,html.Screen,0_4_1_0_1_41,2021-11-19T15:33:07.281Z,,,,,,,,,,,,,,,,51,,,,,,,,,,,,,,331.7779999523191,,response,,,13,A,,,,,Space,keypress(Space),,,,silence,-------- -------- --- --- ---- --- --- ------ -- --------<br>---- --------- --- ------- ------------ ---------- ---------<br>--- ---------- ------- ---------- ------- -- -------- ----<br>---- --- ------ ----- ------ -- ---- --- ----- -- - -------<br>-------- -- --- --- in ----- ----------- ----- -----------<br>---- --- ---------- --- ---- --- -- ----------,156075.59999990463,156074.79999995232,155726.351,155731.79999995232,155743.022,156093.01,,41,in
screen,html.Screen,0_4_1_0_1_42,2021-11-19T15:33:07.585Z,,,,,,,,,,,,,,,,51,,,,,,,,,,,,,,285.78999995230697,,response,,,13,A,,,,,Space,keypress(Space),,,,silence,-------- -------- --- --- ---- --- --- ------ -- --------<br>---- --------- --- ------- ------------ ---------- ---------<br>--- ---------- ------- ---------- ------- -- -------- ----<br>---- --- ------ ----- ------ -- ---- --- ----- -- - -------<br>-------- -- --- --- -- which ----------- ----- -----------<br>---- --- ---------- --- ---- --- -- ----------,156379.59999990463,156378.79999995232,156076.341,156075.89999985695,156093.01,156393.252,,42,which
screen,html.Screen,0_4_1_0_1_43,2021-11-19T15:33:08.393Z,,,,,,,,,,,,,,,,51,,,,,,,,,,,,,,793.5479999523086,,response,,,13,A,,,,,Space,keypress(Space),,,,silence,-------- -------- --- --- ---- --- --- ------ -- --------<br>---- --------- --- ------- ------------ ---------- ---------<br>--- ---------- ------- ---------- ------- -- -------- ----<br>---- --- ------ ----- ------ -- ---- --- ----- -- - -------<br>-------- -- --- --- -- ----- bureaucrats ----- -----------<br>---- --- ---------- --- ---- --- -- ----------,157187.5,157186.79999995232,156376.58,156379.79999995232,156393.252,157193.419,,43,bureaucrats
screen,html.Screen,0_4_1_0_1_44,2021-11-19T15:33:08.777Z,,,,,,,,,,,,,,,,51,,,,,,,,,,,,,,377.2810000476893,,response,,,13,A,,,,,Space,keypress(Space),,,,silence,-------- -------- --- --- ---- --- --- ------ -- --------<br>---- --------- --- ------- ------------ ---------- ---------<br>--- ---------- ------- ---------- ------- -- -------- ----<br>---- --- ------ ----- ------ -- ---- --- ----- -- - -------<br>-------- -- --- --- -- ----- ----------- enact -----------<br>---- --- ---------- --- ---- --- -- ----------,157571.5,157570.70000004768,157176.748,157187.79999995232,157193.419,157576.894,,44,enact
screen,html.Screen,0_4_1_0_1_45,2021-11-19T15:33:09.281Z,,,,,,,,,,,,,,,,51,,,,,,,,,,,,,,497.8060000476835,,response,,,13,A,,,,,Space,keypress(Space),,,,silence,-------- -------- --- --- ---- --- --- ------ -- --------<br>---- --------- --- ------- ------------ ---------- ---------<br>--- ---------- ------- ---------- ------- -- -------- ----<br>---- --- ------ ----- ------ -- ---- --- ----- -- - -------<br>-------- -- --- --- -- ----- ----------- ----- regulations<br>---- --- ---------- --- ---- --- -- ----------,158075.59999990463,158074.70000004768,157560.223,157571.79999995232,157576.894,158076.953,,45,regulations
screen,html.Screen,0_4_1_0_1_46,2021-11-19T15:33:09.681Z,,,,,,,,,,,,,,,,51,,,,,,,,,,,,,,397.7470000476751,,response,,,13,A,,,,,Space,keypress(Space),,,,silence,-------- -------- --- --- ---- --- --- ------ -- --------<br>---- --------- --- ------- ------------ ---------- ---------<br>--- ---------- ------- ---------- ------- -- -------- ----<br>---- --- ------ ----- ------ -- ---- --- ----- -- - -------<br>-------- -- --- --- -- ----- ----------- ----- -----------<br>that --- ---------- --- ---- --- -- ----------,158475.5,158474.70000004768,158060.283,158075.70000004768,158076.953,158477.059,,46,that
screen,html.Screen,0_4_1_0_1_47,2021-11-19T15:33:10.146Z,,,,,,,,,,,,,,,,51,,,,,,,,,,,,,,462.0409999046242,,response,,,13,A,,,,,Space,keypress(Space),,,,silence,-------- -------- --- --- ---- --- --- ------ -- --------<br>---- --------- --- ------- ------------ ---------- ---------<br>--- ---------- ------- ---------- ------- -- -------- ----<br>---- --- ------ ----- ------ -- ---- --- ----- -- - -------<br>-------- -- --- --- -- ----- ----------- ----- -----------<br>---- are ---------- --- ---- --- -- ----------,158939.89999985695,158939.09999990463,158460.389,158475.70000004768,158477.059,158943.882,,47,are
screen,html.Screen,0_4_1_0_1_48,2021-11-19T15:33:10.585Z,,,,,,,,,,,,,,,,51,,,,,,,,,,,,,,434.7179999046202,,response,,,13,A,,,,,Space,keypress(Space),,,,silence,-------- -------- --- --- ---- --- --- ------ -- --------<br>---- --------- --- ------- ------------ ---------- ---------<br>--- ---------- ------- ---------- ------- -- -------- ----<br>---- --- ------ ----- ------ -- ---- --- ----- -- - -------<br>-------- -- --- --- -- ----- ----------- ----- -----------<br>---- --- strangling --- ---- --- -- ----------,159379.39999985695,159378.59999990463,158927.211,158940.09999990463,158943.882,159394.015,,48,strangling
screen,html.Screen,0_4_1_0_1_49,2021-11-19T15:33:10.929Z,,,,,,,,,,,,,,,,51,,,,,,,,,,,,,,328.5849999046186,,response,,,13,A,,,,,Space,keypress(Space),,,,silence,-------- -------- --- --- ---- --- --- ------ -- --------<br>---- --------- --- ------- ------------ ---------- ---------<br>--- ---------- ------- ---------- ------- -- -------- ----<br>---- --- ------ ----- ------ -- ---- --- ----- -- - -------<br>-------- -- --- --- -- ----- ----------- ----- -----------<br>---- --- ---------- the ---- --- -- ----------,159723.29999995232,159722.59999990463,159377.344,159379.59999990463,159394.015,159727.432,,49,the
screen,html.Screen,0_4_1_0_1_50,2021-11-19T15:33:11.353Z,,,,,,,,,,,,,,,,51,,,,,,,,,,,,,,419.16799990463187,,response,,,13,A,,,,,Space,keypress(Space),,,,silence,-------- -------- --- --- ---- --- --- ------ -- --------<br>---- --------- --- ------- ------------ ---------- ---------<br>--- ---------- ------- ---------- ------- -- -------- ----<br>---- --- ------ ----- ------ -- ---- --- ----- -- - -------<br>-------- -- --- --- -- ----- ----------- ----- -----------<br>---- --- ---------- --- life --- -- ----------,160147.39999985695,160146.59999990463,159710.761,159723.5,159727.432,160160.886,,50,life
