sender,sender_type,sender_id,timestamp,meta,,Blues,Classical,Country,Dance,Electronic,Folk,Gospel,Hip-Hop,Jazz,Latin,Musical/Film,New-age,Pop,Provo_ID,R&B,Rap,Reggae,Religious,Rock,Soul,Swing,Traditional,age,artist_name,correct,correctResponse,distraction,duration,education,ended_on,familiarity,gender,item,list,music_frequency,offensiveness,pleasantness,preference,response,response_action,snippet_file,song_name,song_rating,sound,text,time_commit,time_end,time_render,time_run,time_show,time_switch,url,word,word_ID
Instructions,html.Page,0_0,2021-11-05T11:41:28.344Z,"{""labjs_version"":""20.2.3"",""labjs_build"":{""flavor"":""production"",""commit"":""7ea907d66ca8aeef8054924ca5d82ffbe11e34e5""},""location"":""https://run.pavlovia.org/mvasilev/lab_music_b/"",""userAgent"":""Mozilla/5.0 (Windows NT 6.1; Win64; x64) AppleWebKit/537.36 (KHTML, like Gecko) Chrome/95.0.4638.69 Safari/537.36"",""platform"":""Win32"",""language"":""en-US"",""locale"":""en-US"",""timeZone"":""Europe/London"",""timezoneOffset"":0,""screen_width"":1920,""screen_height"":1080,""scroll_width"":1920,""scroll_height"":959,""window_innerWidth"":1920,""window_innerHeight"":1007,""devicePixelRatio"":1}",,,,,,,,,,,,,,,,,,,,,,,,,,,,,14110.992,,form submission,,,,,,,,,,,,,,,,29698.89999999106,29698,15553.678,15565.29999999702,15587.008,29707.306,{},,
Headphones,html.Page,0_1,2021-11-05T11:41:32.760Z,,,,,,,,,,,,,,,,,,,,,,,,,,,,,,4406.893999988079,,form submission,,,,,,,,,,,,,,,,34114.59999999404,34114.19999998808,29690.603,29699.29999999702,29707.306,34119.601,,,
Holding screen,html.Screen,0_2_0_0,2021-11-05T11:41:42.752Z,,,,,,,,,,,,,,,,,,,,,,,,,,,,,,9999.648999999998,,timeout,,,,,,,,,,,,,,,,44106.59999999404,44102.585,34102.936,34115,34119.601,44119.25,,,
screen,html.Screen,0_2_0_1_0,2021-11-05T11:41:43.039Z,,,,,,,,,,,,,,,,53,,,,,,,,,,,,,,272.94999998807907,,response,,,99,,,,,,Space,keypress(Space),,,,,When -- ----- -- ------ - ------- --- ----------<br>------------- ------ ------ ---- ---- ------- ----- -- ----<br>-------- ------- -- ---------- --- - --- ----- ----- ----<br>---- --- --- ----- --- ---- ---- ------- ----- ---- -------<br>--- --- -- ----- -- --- ---- -- --- ---- -- ------ ------<br>--- ----- -- ----,44393.29999999702,44392.19999998808,44102.585,44107,44119.25,44402.599,,0,When
screen,html.Screen,0_2_0_1_1,2021-11-05T11:41:46.934Z,,,,,,,,,,,,,,,,53,,,,,,,,,,,,,,3885.200999997018,,response,,,99,,,,,,Space,keypress(Space),,,,,---- it ----- -- ------ - ------- --- ----------<br>------------- ------ ------ ---- ---- ------- ----- -- ----<br>-------- ------- -- ---------- --- - --- ----- ----- ----<br>---- --- --- ----- --- ---- ---- ------- ----- ---- -------<br>--- --- -- ----- -- --- ---- -- --- ---- -- ------ ------<br>--- ----- -- ----,48288.5,48287.79999999702,44385.934,44393.59999999404,44402.599,48301.948,,1,it
screen,html.Screen,0_2_0_1_2,2021-11-05T11:41:48.390Z,,,,,,,,,,,,,,,,53,,,,,,,,,,,,,,1441.7519999880824,,response,,,99,,,,,,Space,keypress(Space),,,,,---- -- comes -- ------ - ------- --- ----------<br>------------- ------ ------ ---- ---- ------- ----- -- ----<br>-------- ------- -- ---------- --- - --- ----- ----- ----<br>---- --- --- ----- --- ---- ---- ------- ----- ---- -------<br>--- --- -- ----- -- --- ---- -- --- ---- -- ------ ------<br>--- ----- -- ----,49744.39999999106,49743.69999998808,48285.284,48288.69999998808,48301.948,49752.364,,2,comes
screen,html.Screen,0_2_0_1_3,2021-11-05T11:41:48.926Z,,,,,,,,,,,,,,,,53,,,,,,,,,,,,,,527.6359999999986,,response,,,99,,,,,,Space,keypress(Space),,,,,---- -- ----- to ------ - ------- --- ----------<br>------------- ------ ------ ---- ---- ------- ----- -- ----<br>-------- ------- -- ---------- --- - --- ----- ----- ----<br>---- --- --- ----- --- ---- ---- ------- ----- ---- -------<br>--- --- -- ----- -- --- ---- -- --- ---- -- ------ ------<br>--- ----- -- ----,50280.79999999702,50280,49735.698,49744.59999999404,49752.364,50285.555,,3,to
screen,html.Screen,0_2_0_1_4,2021-11-05T11:41:49.470Z,,,,,,,,,,,,,,,,53,,,,,,,,,,,,,,538.5449999940392,,response,,,99,,,,,,Space,keypress(Space),,,,,---- -- ----- -- having - ------- --- ----------<br>------------- ------ ------ ---- ---- ------- ----- -- ----<br>-------- ------- -- ---------- --- - --- ----- ----- ----<br>---- --- --- ----- --- ---- ---- ------- ----- ---- -------<br>--- --- -- ----- -- --- ---- -- --- ---- -- ------ ------<br>--- ----- -- ----,50824.69999998808,50824.09999999404,50268.89,50281.09999999404,50285.555,50835.561,,4,having
screen,html.Screen,0_2_0_1_5,2021-11-05T11:41:49.949Z,,,,,,,,,,,,,,,,53,,,,,,,,,,,,,,467.9389999999985,,response,,,99,,,,,,Space,keypress(Space),,,,,---- -- ----- -- ------ a ------- --- ----------<br>------------- ------ ------ ---- ---- ------- ----- -- ----<br>-------- ------- -- ---------- --- - --- ----- ----- ----<br>---- --- --- ----- --- ---- ---- ------- ----- ---- -------<br>--- --- -- ----- -- --- ---- -- --- ---- -- ------ ------<br>--- ----- -- ----,51304.19999998808,51303.5,50818.896,50825,50835.561,51318.855,,5,a
screen,html.Screen,0_2_0_1_6,2021-11-05T11:41:51.214Z,,,,,,,,,,,,,,,,53,,,,,,,,,,,,,,1248.6449999999968,,response,,,99,,,,,,Space,keypress(Space),,,,,---- -- ----- -- ------ - lasting --- ----------<br>------------- ------ ------ ---- ---- ------- ----- -- ----<br>-------- ------- -- ---------- --- - --- ----- ----- ----<br>---- --- --- ----- --- ---- ---- ------- ----- ---- -------<br>--- --- -- ----- -- --- ---- -- --- ---- -- ------ ------<br>--- ----- -- ----,52568.19999998808,52567.5,51302.19,51304.5,51318.855,52585.542,,6,lasting
screen,html.Screen,0_2_0_1_7,2021-11-05T11:41:51.645Z,,,,,,,,,,,,,,,,53,,,,,,,,,,,,,,413.857999991058,,response,,,99,,,,,,Space,keypress(Space),,,,,---- -- ----- -- ------ - ------- and ----------<br>------------- ------ ------ ---- ---- ------- ----- -- ----<br>-------- ------- -- ---------- --- - --- ----- ----- ----<br>---- --- --- ----- --- ---- ---- ------- ----- ---- -------<br>--- --- -- ----- -- --- ---- -- --- ---- -- ------ ------<br>--- ----- -- ----,53000.19999998808,52999.39999999106,52568.876,52568.5,52585.542,53001.994,,7,and
screen,html.Screen,0_2_0_1_8,2021-11-05T11:41:52.190Z,,,,,,,,,,,,,,,,53,,,,,,,,,,,,,,541.5060000000012,,response,,,99,,,,,,Space,keypress(Space),,,,,---- -- ----- -- ------ - ------- --- fulfilling<br>------------- ------ ------ ---- ---- ------- ----- -- ----<br>-------- ------- -- ---------- --- - --- ----- ----- ----<br>---- --- --- ----- --- ---- ---- ------- ----- ---- -------<br>--- --- -- ----- -- --- ---- -- --- ---- -- ------ ------<br>--- ----- -- ----,53544.29999999702,53543.5,52985.33,53000.5,53001.994,53552.098,,8,fulfilling
screen,html.Screen,0_2_0_1_9,2021-11-05T11:41:52.725Z,,,,,,,,,,,,,,,,53,,,,,,,,,,,,,,527.4020000000019,,response,,,99,,,,,,Space,keypress(Space),,,,,"---- -- ----- -- ------ - ------- --- ----------<br>relationship, ------ ------ ---- ---- ------- ----- -- ----<br>-------- ------- -- ---------- --- - --- ----- ----- ----<br>---- --- --- ----- --- ---- ---- ------- ----- ---- -------<br>--- --- -- ----- -- --- ---- -- --- ---- -- ------ ------<br>--- ----- -- ----",54080.19999998808,54079.5,53535.433,53544.5,53552.098,54085.453,,9,"relationship,"
screen,html.Screen,0_2_0_1_10,2021-11-05T11:41:53.166Z,,,,,,,,,,,,,,,,53,,,,,,,,,,,,,,434.24699998807773,,response,,,99,,,,,,Space,keypress(Space),,,,,---- -- ----- -- ------ - ------- --- ----------<br>------------- common ------ ---- ---- ------- ----- -- ----<br>-------- ------- -- ---------- --- - --- ----- ----- ----<br>---- --- --- ----- --- ---- ---- ------- ----- ---- -------<br>--- --- -- ----- -- --- ---- -- --- ---- -- ------ ------<br>--- ----- -- ----,54520.29999999702,54519.69999998808,54068.787,54080.39999999106,54085.453,54535.309,,10,common
screen,html.Screen,0_2_0_1_11,2021-11-05T11:41:53.637Z,,,,,,,,,,,,,,,,53,,,,,,,,,,,,,,456.0909999910582,,response,,,99,,,,,,Space,keypress(Space),,,,,---- -- ----- -- ------ - ------- --- ----------<br>------------- ------ wisdom ---- ---- ------- ----- -- ----<br>-------- ------- -- ---------- --- - --- ----- ----- ----<br>---- --- --- ----- --- ---- ---- ------- ----- ---- -------<br>--- --- -- ----- -- --- ---- -- --- ---- -- ------ ------<br>--- ----- -- ----,54992.09999999404,54991.39999999106,54518.645,54520.5,54535.309,55001.978,,11,wisdom
screen,html.Screen,0_2_0_1_12,2021-11-05T11:41:54.061Z,,,,,,,,,,,,,,,,53,,,,,,,,,,,,,,413.4219999910565,,response,,,99,,,,,,Space,keypress(Space),,,,,---- -- ----- -- ------ - ------- --- ----------<br>------------- ------ ------ says ---- ------- ----- -- ----<br>-------- ------- -- ---------- --- - --- ----- ----- ----<br>---- --- --- ----- --- ---- ---- ------- ----- ---- -------<br>--- --- -- ----- -- --- ---- -- --- ---- -- ------ ------<br>--- ----- -- ----,55415.89999999106,55415.39999999106,54985.313,54992.29999999702,55001.978,55418.715,,12,says
screen,html.Screen,0_2_0_1_13,2021-11-05T11:41:54.421Z,,,,,,,,,,,,,,,,53,,,,,,,,,,,,,,356.58499999702326,,response,,,99,,,,,,Space,keypress(Space),,,,,---- -- ----- -- ------ - ------- --- ----------<br>------------- ------ ------ ---- that ------- ----- -- ----<br>-------- ------- -- ---------- --- - --- ----- ----- ----<br>---- --- --- ----- --- ---- ---- ------- ----- ---- -------<br>--- --- -- ----- -- --- ---- -- --- ---- -- ------ ------<br>--- ----- -- ----,55775.89999999106,55775.29999999702,55402.049,55416.09999999404,55418.715,55785.253,,13,that
screen,html.Screen,0_2_0_1_14,2021-11-05T11:41:54.829Z,,,,,,,,,,,,,,,,53,,,,,,,,,,,,,,398.0469999970228,,response,,,99,,,,,,Space,keypress(Space),,,,,---- -- ----- -- ------ - ------- --- ----------<br>------------- ------ ------ ---- ---- feeling ----- -- ----<br>-------- ------- -- ---------- --- - --- ----- ----- ----<br>---- --- --- ----- --- ---- ---- ------- ----- ---- -------<br>--- --- -- ----- -- --- ---- -- --- ---- -- ------ ------<br>--- ----- -- ----,56183.79999999702,56183.29999999702,55768.589,55776.09999999404,55785.253,56185.327,,14,feeling
screen,html.Screen,0_2_0_1_15,2021-11-05T11:41:55.245Z,,,,,,,,,,,,,,,,53,,,,,,,,,,,,,,413.8729999880816,,response,,,99,,,,,,Space,keypress(Space),,,,,---- -- ----- -- ------ - ------- --- ----------<br>------------- ------ ------ ---- ---- ------- close -- ----<br>-------- ------- -- ---------- --- - --- ----- ----- ----<br>---- --- --- ----- --- ---- ---- ------- ----- ---- -------<br>--- --- -- ----- -- --- ---- -- --- ---- -- ------ ------<br>--- ----- -- ----,56599.89999999106,56599.19999998808,56168.661,56184,56185.327,56601.856,,15,close
screen,html.Screen,0_2_0_1_16,2021-11-05T11:41:55.789Z,,,,,,,,,,,,,,,,53,,,,,,,,,,,,,,541.44399999702,,response,,,99,,,,,,Space,keypress(Space),,,,,---- -- ----- -- ------ - ------- --- ----------<br>------------- ------ ------ ---- ---- ------- ----- to ----<br>-------- ------- -- ---------- --- - --- ----- ----- ----<br>---- --- --- ----- --- ---- ---- ------- ----- ---- -------<br>--- --- -- ----- -- --- ---- -- --- ---- -- ------ ------<br>--- ----- -- ----,57143.89999999106,57143.29999999702,56585.192,56600.09999999404,56601.856,57151.865,,16,to
screen,html.Screen,0_2_0_1_17,2021-11-05T11:41:56.333Z,,,,,,,,,,,,,,,,53,,,,,,,,,,,,,,535.3349999880811,,response,,,99,,,,,,Space,keypress(Space),,,,,---- -- ----- -- ------ - ------- --- ----------<br>------------- ------ ------ ---- ---- ------- ----- -- your<br>-------- ------- -- ---------- --- - --- ----- ----- ----<br>---- --- --- ----- --- ---- ---- ------- ----- ---- -------<br>--- --- -- ----- -- --- ---- -- --- ---- -- ------ ------<br>--- ----- -- ----,57687.89999999106,57687.19999998808,57135.2,57144.09999999404,57151.865,57701.848,,17,your
screen,html.Screen,0_2_0_1_18,2021-11-05T11:41:56.797Z,,,,,,,,,,,,,,,,53,,,,,,,,,,,,,,449.35199998808093,,response,,,99,,,,,,Space,keypress(Space),,,,,---- -- ----- -- ------ - ------- --- ----------<br>------------- ------ ------ ---- ---- ------- ----- -- ----<br>romantic ------- -- ---------- --- - --- ----- ----- ----<br>---- --- --- ----- --- ---- ---- ------- ----- ---- -------<br>--- --- -- ----- -- --- ---- -- --- ---- -- ------ ------<br>--- ----- -- ----,58151.79999999702,58151.19999998808,57685.183,57688.09999999404,57701.848,58168.482,,18,romantic
screen,html.Screen,0_2_0_1_19,2021-11-05T11:41:57.157Z,,,,,,,,,,,,,,,,53,,,,,,,,,,,,,,342.71799998807546,,response,,,99,,,,,,Space,keypress(Space),,,,,---- -- ----- -- ------ - ------- --- ----------<br>------------- ------ ------ ---- ---- ------- ----- -- ----<br>-------- partner -- ---------- --- - --- ----- ----- ----<br>---- --- --- ----- --- ---- ---- ------- ----- ---- -------<br>--- --- -- ----- -- --- ---- -- --- ---- -- ------ ------<br>--- ----- -- ----,58511.79999999702,58511.19999998808,58151.817,58152,58168.482,58518.469,,19,partner
screen,html.Screen,0_2_0_1_20,2021-11-05T11:41:57.549Z,,,,,,,,,,,,,,,,53,,,,,,,,,,,,,,384.6309999940422,,response,,,99,,,,,,Space,keypress(Space),,,,,---- -- ----- -- ------ - ------- --- ----------<br>------------- ------ ------ ---- ---- ------- ----- -- ----<br>-------- ------- is ---------- --- - --- ----- ----- ----<br>---- --- --- ----- --- ---- ---- ------- ----- ---- -------<br>--- --- -- ----- -- --- ---- -- --- ---- -- ------ ------<br>--- ----- -- ----,58903.79999999702,58903.09999999404,58501.804,58512,58518.469,58918.447,,20,is
screen,html.Screen,0_2_0_1_21,2021-11-05T11:41:58.029Z,,,,,,,,,,,,,,,,53,,,,,,,,,,,,,,464.75299998807895,,response,,,99,,,,,,Space,keypress(Space),,,,,---- -- ----- -- ------ - ------- --- ----------<br>------------- ------ ------ ---- ---- ------- ----- -- ----<br>-------- ------- -- paramount. --- - --- ----- ----- ----<br>---- --- --- ----- --- ---- ---- ------- ----- ---- -------<br>--- --- -- ----- -- --- ---- -- --- ---- -- ------ ------<br>--- ----- -- ----,59383.89999999106,59383.19999998808,58901.782,58904,58918.447,59385.153,,21,paramount.
screen,html.Screen,0_2_0_1_22,2021-11-05T11:41:58.509Z,,,,,,,,,,,,,,,,53,,,,,,,,,,,,,,477.8470000000016,,response,,,99,,,,,,Space,keypress(Space),,,,,---- -- ----- -- ------ - ------- --- ----------<br>------------- ------ ------ ---- ---- ------- ----- -- ----<br>-------- ------- -- ---------- But - --- ----- ----- ----<br>---- --- --- ----- --- ---- ---- ------- ----- ---- -------<br>--- --- -- ----- -- --- ---- -- --- ---- -- ------ ------<br>--- ----- -- ----,59863.59999999404,59863,59368.487,59384.19999998808,59385.153,59868.41,,22,But
screen,html.Screen,0_2_0_1_23,2021-11-05T11:41:58.944Z,,,,,,,,,,,,,,,,53,,,,,,,,,,,,,,426.5899999999965,,response,,,99,,,,,,Space,keypress(Space),,,,,---- -- ----- -- ------ - ------- --- ----------<br>------------- ------ ------ ---- ---- ------- ----- -- ----<br>-------- ------- -- ---------- --- a --- ----- ----- ----<br>---- --- --- ----- --- ---- ---- ------- ----- ---- -------<br>--- --- -- ----- -- --- ---- -- --- ---- -- ------ ------<br>--- ----- -- ----,60295.59999999404,60295,59851.745,59863.79999999702,59868.41,60301.655,,23,a
screen,html.Screen,0_2_0_1_24,2021-11-05T11:41:59.424Z,,,,,,,,,,,,,,,,53,,,,,,,,,,,,,,473.34500000000116,,response,,,99,,,,,,Space,keypress(Space),,,,,---- -- ----- -- ------ - ------- --- ----------<br>------------- ------ ------ ---- ---- ------- ----- -- ----<br>-------- ------- -- ---------- --- - new ----- ----- ----<br>---- --- --- ----- --- ---- ---- ------- ----- ---- -------<br>--- --- -- ----- -- --- ---- -- --- ---- -- ------ ------<br>--- ----- -- ----,60775.59999999404,60775,60284.991,60295.79999999702,60301.655,60785.06,,24,new
screen,html.Screen,0_2_0_1_25,2021-11-05T11:41:59.944Z,,,,,,,,,,,,,,,,53,,,,,,,,,,,,,,509.9400000000023,,response,,,99,,,,,,Space,keypress(Space),,,,,---- -- ----- -- ------ - ------- --- ----------<br>------------- ------ ------ ---- ---- ------- ----- -- ----<br>-------- ------- -- ---------- --- - --- study ----- ----<br>---- --- --- ----- --- ---- ---- ------- ----- ---- -------<br>--- --- -- ----- -- --- ---- -- --- ---- -- ------ ------<br>--- ----- -- ----,61295.5,61295,60768.394,60775.79999999702,60785.06,61301.595,,25,study
screen,html.Screen,0_2_0_1_26,2021-11-05T11:42:00.408Z,,,,,,,,,,,,,,,,53,,,,,,,,,,,,,,457.30499999105814,,response,,,99,,,,,,Space,keypress(Space),,,,,---- -- ----- -- ------ - ------- --- ----------<br>------------- ------ ------ ---- ---- ------- ----- -- ----<br>-------- ------- -- ---------- --- - --- ----- finds ----<br>---- --- --- ----- --- ---- ---- ------- ----- ---- -------<br>--- --- -- ----- -- --- ---- -- --- ---- -- ------ ------<br>--- ----- -- ----,61759.59999999404,61758.89999999106,61284.931,61295.69999998808,61301.595,61768.301,,26,finds
screen,html.Screen,0_2_0_1_27,2021-11-05T11:42:01.000Z,,,,,,,,,,,,,,,,53,,,,,,,,,,,,,,582.5989999910598,,response,,,99,,,,,,Space,keypress(Space),,,,,---- -- ----- -- ------ - ------- --- ----------<br>------------- ------ ------ ---- ---- ------- ----- -- ----<br>-------- ------- -- ---------- --- - --- ----- ----- that<br>---- --- --- ----- --- ---- ---- ------- ----- ---- -------<br>--- --- -- ----- -- --- ---- -- --- ---- -- ------ ------<br>--- ----- -- ----,62351.39999999106,62350.89999999106,61751.636,61759.89999999106,61768.301,62368.246,,27,that
screen,html.Screen,0_2_0_1_28,2021-11-05T11:42:01.376Z,,,,,,,,,,,,,,,,53,,,,,,,,,,,,,,358.5539999970206,,response,,,99,,,,,,Space,keypress(Space),,,,,---- -- ----- -- ------ - ------- --- ----------<br>------------- ------ ------ ---- ---- ------- ----- -- ----<br>-------- ------- -- ---------- --- - --- ----- ----- ----<br>it's --- --- ----- --- ---- ---- ------- ----- ---- -------<br>--- --- -- ----- -- --- ---- -- --- ---- -- ------ ------<br>--- ----- -- ----,62727.39999999106,62726.79999999702,62351.581,62351.59999999404,62368.246,62734.961,,28,it's
screen,html.Screen,0_2_0_1_29,2021-11-05T11:42:01.680Z,,,,,,,,,,,,,,,,53,,,,,,,,,,,,,,295.8389999970168,,response,,,99,,,,,,Space,keypress(Space),,,,,---- -- ----- -- ------ - ------- --- ----------<br>------------- ------ ------ ---- ---- ------- ----- -- ----<br>-------- ------- -- ---------- --- - --- ----- ----- ----<br>---- not --- ----- --- ---- ---- ------- ----- ---- -------<br>--- --- -- ----- -- --- ---- -- --- ---- -- ------ ------<br>--- ----- -- ----,63031.39999999106,63030.79999999702,62718.295,62727.59999999404,62734.961,63034.92,,29,not
screen,html.Screen,0_2_0_1_30,2021-11-05T11:42:01.976Z,,,,,,,,,,,,,,,,53,,,,,,,,,,,,,,291.8799999970215,,response,,,99,,,,,,Space,keypress(Space),,,,,---- -- ----- -- ------ - ------- --- ----------<br>------------- ------ ------ ---- ---- ------- ----- -- ----<br>-------- ------- -- ---------- --- - --- ----- ----- ----<br>---- --- how ----- --- ---- ---- ------- ----- ---- -------<br>--- --- -- ----- -- --- ---- -- --- ---- -- ------ ------<br>--- ----- -- ----,63327.39999999106,63326.79999999702,63018.255,63031.59999999404,63034.92,63334.906,,30,how
screen,html.Screen,0_2_0_1_31,2021-11-05T11:42:02.248Z,,,,,,,,,,,,,,,,53,,,,,,,,,,,,,,263.8939999970171,,response,,,99,,,,,,Space,keypress(Space),,,,,---- -- ----- -- ------ - ------- --- ----------<br>------------- ------ ------ ---- ---- ------- ----- -- ----<br>-------- ------- -- ---------- --- - --- ----- ----- ----<br>---- --- --- close --- ---- ---- ------- ----- ---- -------<br>--- --- -- ----- -- --- ---- -- --- ---- -- ------ ------<br>--- ----- -- ----,63599.39999999106,63598.79999999702,63318.241,63327.59999999404,63334.906,63601.561,,31,close
screen,html.Screen,0_2_0_1_32,2021-11-05T11:42:02.528Z,,,,,,,,,,,,,,,,53,,,,,,,,,,,,,,277.3389999910578,,response,,,99,,,,,,Space,keypress(Space),,,,,---- -- ----- -- ------ - ------- --- ----------<br>------------- ------ ------ ---- ---- ------- ----- -- ----<br>-------- ------- -- ---------- --- - --- ----- ----- ----<br>---- --- --- ----- you ---- ---- ------- ----- ---- -------<br>--- --- -- ----- -- --- ---- -- --- ---- -- ------ ------<br>--- ----- -- ----,63879.39999999106,63878.89999999106,63584.896,63599.59999999404,63601.561,63884.789,,32,you
screen,html.Screen,0_2_0_1_33,2021-11-05T11:42:02.816Z,,,,,,,,,,,,,,,,53,,,,,,,,,,,,,,282.1109999910623,,response,,,99,,,,,,Space,keypress(Space),,,,,---- -- ----- -- ------ - ------- --- ----------<br>------------- ------ ------ ---- ---- ------- ----- -- ----<br>-------- ------- -- ---------- --- - --- ----- ----- ----<br>---- --- --- ----- --- feel ---- ------- ----- ---- -------<br>--- --- -- ----- -- --- ---- -- --- ---- -- ------ ------<br>--- ----- -- ----,64167.39999999106,64166.89999999106,63868.126,63879.59999999404,63884.789,64168.169,,33,feel
screen,html.Screen,0_2_0_1_34,2021-11-05T11:42:03.112Z,,,,,,,,,,,,,,,,53,,,,,,,,,,,,,,294.6309999970181,,response,,,99,,,,,,Space,keypress(Space),,,,,---- -- ----- -- ------ - ------- --- ----------<br>------------- ------ ------ ---- ---- ------- ----- -- ----<br>-------- ------- -- ---------- --- - --- ----- ----- ----<br>---- --- --- ----- --- ---- that ------- ----- ---- -------<br>--- --- -- ----- -- --- ---- -- --- ---- -- ------ ------<br>--- ----- -- ----,64463.5,64462.79999999702,64151.504,64167.59999999404,64168.169,64468.136,,34,that
screen,html.Screen,0_2_0_1_35,2021-11-05T11:42:03.424Z,,,,,,,,,,,,,,,,53,,,,,,,,,,,,,,306.8640000000014,,response,,,99,,,,,,Space,keypress(Space),,,,,---- -- ----- -- ------ - ------- --- ----------<br>------------- ------ ------ ---- ---- ------- ----- -- ----<br>-------- ------- -- ---------- --- - --- ----- ----- ----<br>---- --- --- ----- --- ---- ---- matters ----- ---- -------<br>--- --- -- ----- -- --- ---- -- --- ---- -- ------ ------<br>--- ----- -- ----,64775.5,64775,64451.471,64463.59999999404,64468.136,64784.796,,35,matters
screen,html.Screen,0_2_0_1_36,2021-11-05T11:42:03.832Z,,,,,,,,,,,,,,,,53,,,,,,,,,,,,,,398.0039999970177,,response,,,99,,,,,,Space,keypress(Space),,,,,"---- -- ----- -- ------ - ------- --- ----------<br>------------- ------ ------ ---- ---- ------- ----- -- ----<br>-------- ------- -- ---------- --- - --- ----- ----- ----<br>---- --- --- ----- --- ---- ---- ------- most, ---- -------<br>--- --- -- ----- -- --- ---- -- --- ---- -- ------ ------<br>--- ----- -- ----",65183.29999999702,65182.79999999702,64768.131,64775.79999999702,64784.796,65184.765,,36,"most,"
screen,html.Screen,0_2_0_1_37,2021-11-05T11:42:04.248Z,,,,,,,,,,,,,,,,53,,,,,,,,,,,,,,414.03499999702035,,response,,,99,,,,,,Space,keypress(Space),,,,,---- -- ----- -- ------ - ------- --- ----------<br>------------- ------ ------ ---- ---- ------- ----- -- ----<br>-------- ------- -- ---------- --- - --- ----- ----- ----<br>---- --- --- ----- --- ---- ---- ------- ----- it's -------<br>--- --- -- ----- -- --- ---- -- --- ---- -- ------ ------<br>--- ----- -- ----,65599.39999999106,65598.79999999702,65168.1,65183.5,65184.765,65601.516,,37,it's
screen,html.Screen,0_2_0_1_38,2021-11-05T11:42:04.720Z,,,,,,,,,,,,,,,,53,,,,,,,,,,,,,,469.1839999880758,,response,,,99,,,,,,Space,keypress(Space),,,,,---- -- ----- -- ------ - ------- --- ----------<br>------------- ------ ------ ---- ---- ------- ----- -- ----<br>-------- ------- -- ---------- --- - --- ----- ----- ----<br>---- --- --- ----- --- ---- ---- ------- ----- ---- whether<br>--- --- -- ----- -- --- ---- -- --- ---- -- ------ ------<br>--- ----- -- ----,66071.29999999702,66070.69999998808,65584.849,65599.59999999404,65601.516,66084.735,,38,whether
screen,html.Screen,0_2_0_1_39,2021-11-05T11:42:05.136Z,,,,,,,,,,,,,,,,53,,,,,,,,,,,,,,402.0649999970192,,response,,,99,,,,,,Space,keypress(Space),,,,,---- -- ----- -- ------ - ------- --- ----------<br>------------- ------ ------ ---- ---- ------- ----- -- ----<br>-------- ------- -- ---------- --- - --- ----- ----- ----<br>---- --- --- ----- --- ---- ---- ------- ----- ---- -------<br>you --- -- ----- -- --- ---- -- --- ---- -- ------ ------<br>--- ----- -- ----,66487.29999999702,66486.79999999702,66068.07,66071.39999999106,66084.735,66501.318,,39,you
screen,html.Screen,0_2_0_1_40,2021-11-05T11:42:05.416Z,,,,,,,,,,,,,,,,53,,,,,,,,,,,,,,265.28199999404023,,response,,,99,,,,,,Space,keypress(Space),,,,,---- -- ----- -- ------ - ------- --- ----------<br>------------- ------ ------ ---- ---- ------- ----- -- ----<br>-------- ------- -- ---------- --- - --- ----- ----- ----<br>---- --- --- ----- --- ---- ---- ------- ----- ---- -------<br>--- are -- ----- -- --- ---- -- --- ---- -- ------ ------<br>--- ----- -- ----,66767.39999999106,66766.59999999404,66484.654,66487.5,66501.318,66768.013,,40,are
screen,html.Screen,0_2_0_1_41,2021-11-05T11:42:05.640Z,,,,,,,,,,,,,,,,53,,,,,,,,,,,,,,222.58699999403325,,response,,,99,,,,,,Space,keypress(Space),,,,,---- -- ----- -- ------ - ------- --- ----------<br>------------- ------ ------ ---- ---- ------- ----- -- ----<br>-------- ------- -- ---------- --- - --- ----- ----- ----<br>---- --- --- ----- --- ---- ---- ------- ----- ---- -------<br>--- --- as ----- -- --- ---- -- --- ---- -- ------ ------<br>--- ----- -- ----,66991.39999999106,66990.59999999404,66751.348,66767.5,66768.013,67001.348,,41,as
screen,html.Screen,0_2_0_1_42,2021-11-05T11:42:05.824Z,,,,,,,,,,,,,,,,53,,,,,,,,,,,,,,173.35199998808093,,response,,,99,,,,,,Space,keypress(Space),,,,,---- -- ----- -- ------ - ------- --- ----------<br>------------- ------ ------ ---- ---- ------- ----- -- ----<br>-------- ------- -- ---------- --- - --- ----- ----- ----<br>---- --- --- ----- --- ---- ---- ------- ----- ---- -------<br>--- --- -- close -- --- ---- -- --- ---- -- ------ ------<br>--- ----- -- ----,67175.19999998808,67174.69999998808,66984.683,66991.5,67001.348,67184.716,,42,close
screen,html.Screen,0_2_0_1_43,2021-11-05T11:42:06.024Z,,,,,,,,,,,,,,,,53,,,,,,,,,,,,,,189.8839999940392,,response,,,99,,,,,,Space,keypress(Space),,,,,---- -- ----- -- ------ - ------- --- ----------<br>------------- ------ ------ ---- ---- ------- ----- -- ----<br>-------- ------- -- ---------- --- - --- ----- ----- ----<br>---- --- --- ----- --- ---- ---- ------- ----- ---- -------<br>--- --- -- ----- as --- ---- -- --- ---- -- ------ ------<br>--- ----- -- ----,67375.29999999702,67374.59999999404,67168.05,67175.39999999106,67184.716,67384.62,,43,as
screen,html.Screen,0_2_0_1_44,2021-11-05T11:42:06.296Z,,,,,,,,,,,,,,,,53,,,,,,,,,,,,,,261.9799999940442,,response,,,99,,,,,,Space,keypress(Space),,,,,---- -- ----- -- ------ - ------- --- ----------<br>------------- ------ ------ ---- ---- ------- ----- -- ----<br>-------- ------- -- ---------- --- - --- ----- ----- ----<br>---- --- --- ----- --- ---- ---- ------- ----- ---- -------<br>--- --- -- ----- -- you ---- -- --- ---- -- ------ ------<br>--- ----- -- ----,67647.19999998808,67646.59999999404,67367.957,67375.39999999106,67384.62,67651.382,,44,you
screen,html.Screen,0_2_0_1_45,2021-11-05T11:42:06.560Z,,,,,,,,,,,,,,,,53,,,,,,,,,,,,,,259.21799999404175,,response,,,99,,,,,,Space,keypress(Space),,,,,---- -- ----- -- ------ - ------- --- ----------<br>------------- ------ ------ ---- ---- ------- ----- -- ----<br>-------- ------- -- ---------- --- - --- ----- ----- ----<br>---- --- --- ----- --- ---- ---- ------- ----- ---- -------<br>--- --- -- ----- -- --- want -- --- ---- -- ------ ------<br>--- ----- -- ----,67911.19999998808,67910.59999999404,67634.715,67647.39999999106,67651.382,67917.98,,45,want
screen,html.Screen,0_2_0_1_46,2021-11-05T11:42:06.832Z,,,,,,,,,,,,,,,,53,,,,,,,,,,,,,,264.6199999940436,,response,,,99,,,,,,Space,keypress(Space),,,,,---- -- ----- -- ------ - ------- --- ----------<br>------------- ------ ------ ---- ---- ------- ----- -- ----<br>-------- ------- -- ---------- --- - --- ----- ----- ----<br>---- --- --- ----- --- ---- ---- ------- ----- ---- -------<br>--- --- -- ----- -- --- ---- to --- ---- -- ------ ------<br>--- ----- -- ----,68183.19999998808,68182.59999999404,67901.315,67911.29999999702,67917.98,68184.576,,46,to
screen,html.Screen,0_2_0_1_47,2021-11-05T11:42:07.178Z,,,,,,,,,,,,,,,,53,,,,,,,,,,,,,,342.12399998807814,,response,,,99,,,,,,Space,keypress(Space),,,,,"---- -- ----- -- ------ - ------- --- ----------<br>------------- ------ ------ ---- ---- ------- ----- -- ----<br>-------- ------- -- ---------- --- - --- ----- ----- ----<br>---- --- --- ----- --- ---- ---- ------- ----- ---- -------<br>--- --- -- ----- -- --- ---- -- be, ---- -- ------ ------<br>--- ----- -- ----",68528.89999999106,68526.69999998808,68167.912,68183.29999999702,68184.576,68534.651,,47,"be,"
screen,html.Screen,0_2_0_1_48,2021-11-05T11:42:07.488Z,,,,,,,,,,,,,,,,53,,,,,,,,,,,,,,303.9489999940415,,response,,,99,,,,,,Space,keypress(Space),,,,,---- -- ----- -- ------ - ------- --- ----------<br>------------- ------ ------ ---- ---- ------- ----- -- ----<br>-------- ------- -- ---------- --- - --- ----- ----- ----<br>---- --- --- ----- --- ---- ---- ------- ----- ---- -------<br>--- --- -- ----- -- --- ---- -- --- even -- ------ ------<br>--- ----- -- ----,68839.29999999702,68838.59999999404,68517.984,68529.09999999404,68534.651,68851.173,,48,even
screen,html.Screen,0_2_0_1_49,2021-11-05T11:42:07.872Z,,,,,,,,,,,,,,,,53,,,,,,,,,,,,,,371.3270000000048,,response,,,99,,,,,,Space,keypress(Space),,,,,---- -- ----- -- ------ - ------- --- ----------<br>------------- ------ ------ ---- ---- ------- ----- -- ----<br>-------- ------- -- ---------- --- - --- ----- ----- ----<br>---- --- --- ----- --- ---- ---- ------- ----- ---- -------<br>--- --- -- ----- -- --- ---- -- --- ---- if ------ ------<br>--- ----- -- ----,69223.09999999404,69222.5,68834.51,68839.5,68851.173,69234.546,,49,if
screen,html.Screen,0_2_0_1_50,2021-11-05T11:42:08.344Z,,,,,,,,,,,,,,,,53,,,,,,,,,,,,,,459.9539999999979,,response,,,99,,,,,,Space,keypress(Space),,,,,---- -- ----- -- ------ - ------- --- ----------<br>------------- ------ ------ ---- ---- ------- ----- -- ----<br>-------- ------- -- ---------- --- - --- ----- ----- ----<br>---- --- --- ----- --- ---- ---- ------- ----- ---- -------<br>--- --- -- ----- -- --- ---- -- --- ---- -- that's ------<br>--- ----- -- ----,69695.09999999404,69694.5,69217.881,69223.19999998808,69234.546,69701.183,,50,that's
screen,html.Screen,0_2_0_1_51,2021-11-05T11:42:08.872Z,,,,,,,,,,,,,,,,53,,,,,,,,,,,,,,521.3169999999955,,response,,,99,,,,,,Space,keypress(Space),,,,,---- -- ----- -- ------ - ------- --- ----------<br>------------- ------ ------ ---- ---- ------- ----- -- ----<br>-------- ------- -- ---------- --- - --- ----- ----- ----<br>---- --- --- ----- --- ---- ---- ------- ----- ---- -------<br>--- --- -- ----- -- --- ---- -- --- ---- -- ------ really<br>--- ----- -- ----,70223.09999999404,70222.5,69684.518,69695.29999999702,69701.183,70234.571,,51,really
screen,html.Screen,0_2_0_1_52,2021-11-05T11:42:09.312Z,,,,,,,,,,,,,,,,53,,,,,,,,,,,,,,427.9290000000037,,response,,,99,,,,,,Space,keypress(Space),,,,,---- -- ----- -- ------ - ------- --- ----------<br>------------- ------ ------ ---- ---- ------- ----- -- ----<br>-------- ------- -- ---------- --- - --- ----- ----- ----<br>---- --- --- ----- --- ---- ---- ------- ----- ---- -------<br>--- --- -- ----- -- --- ---- -- --- ---- -- ------ ------<br>not ----- -- ----,70663,70662.5,70217.905,70223.29999999702,70234.571,70667.737,,52,not
screen,html.Screen,0_2_0_1_53,2021-11-05T11:42:09.704Z,,,,,,,,,,,,,,,,53,,,,,,,,,,,,,,386.7630000000063,,response,,,99,,,,,,Space,keypress(Space),,,,,---- -- ----- -- ------ - ------- --- ----------<br>------------- ------ ------ ---- ---- ------- ----- -- ----<br>-------- ------- -- ---------- --- - --- ----- ----- ----<br>---- --- --- ----- --- ---- ---- ------- ----- ---- -------<br>--- --- -- ----- -- --- ---- -- --- ---- -- ------ ------<br>--- close -- ----,71055.09999999404,71054.5,70651.073,70663.19999998808,70667.737,71067.768,,53,close
screen,html.Screen,0_2_0_1_54,2021-11-05T11:42:10.160Z,,,,,,,,,,,,,,,,53,,,,,,,,,,,,,,442.6319999910629,,response,,,99,,,,,,Space,keypress(Space),,,,,---- -- ----- -- ------ - ------- --- ----------<br>------------- ------ ------ ---- ---- ------- ----- -- ----<br>-------- ------- -- ---------- --- - --- ----- ----- ----<br>---- --- --- ----- --- ---- ---- ------- ----- ---- -------<br>--- --- -- ----- -- --- ---- -- --- ---- -- ------ ------<br>--- ----- at ----,71511.09999999404,71510.39999999106,71051.103,71055.29999999702,71067.768,71517.81,,54,at
screen,html.Screen,0_2_0_1_55,2021-11-05T11:42:11.488Z,,,,,,,,,,,,,,,,53,,,,,,,,,,,,,,1320.7899999940419,,response,,,99,,,,,,Space,keypress(Space),,,,,---- -- ----- -- ------ - ------- --- ----------<br>------------- ------ ------ ---- ---- ------- ----- -- ----<br>-------- ------- -- ---------- --- - --- ----- ----- ----<br>---- --- --- ----- --- ---- ---- ------- ----- ---- -------<br>--- --- -- ----- -- --- ---- -- --- ---- -- ------ ------<br>--- ----- -- all.,72839.29999999702,72838.59999999404,71501.144,71511.19999998808,71517.81,72850.988,,55,all.
Item 99,flow.Loop,0_2_0_1,2021-11-05T11:42:11.491Z,,,,,,,,,,,,,,,,,,,,,,,,,,,,,,28719.34999999404,,completion,,,,B,,,,,,,,,,silence,,72842.29999999702,72838.59999999404,44102.585,44106.89999999106,44119.25,72850.988,,,
Question 1,html.Screen,0_2_0_2,2021-11-05T11:42:23.225Z,,,,,,,,,,,,,,,,,,,,,,,,,,,true,FALSE,,11723.811999997022,,response,,,99,B,,,,,FALSE,click #choice-2,,,,silence,,84575.89999999106,84574.79999999702,72834.323,72842.39999999106,72850.988,84583.656,,,
Question 2,html.Screen,0_2_0_3,2021-11-05T11:42:29.332Z,,,,,,,,,,,,,,,,,,,,,,,,,,,true,TRUE,,6098.543999988076,,response,,,99,B,,,,,TRUE,click #choice-1,,,,silence,,90683.09999999404,90682.19999998808,84566.991,84576.09999999404,84583.656,90683.436,,,
Item 99,flow.Sequence,0_2_0,2021-11-05T11:42:29.332Z,,,,,,,,,,,,,,,,,,,,,,,,,,,,,,56562.59899998808,,completion,,,,,,,,,,,,,,,,90683.5,90682.19999998808,34102.936,34114.89999999106,34119.601,90683.436,,,
Holding screen,html.Screen,0_2_1_0,2021-11-05T11:42:39.316Z,,,,,,,,,,,,,,,,,,,,,,,,,,,,,,9999.330000000002,,timeout,,,,,,,,,,,,,,,,100667.29999999702,100666.101,90666.769,90683.79999999702,90683.436,100682.766,,,
screen,html.Screen,0_2_1_1_0,2021-11-05T11:42:41.846Z,,,,,,,,,,,,,,,,54,,,,,,,,,,,,,,2513.933999988076,,response,,,100,,,,,,Space,keypress(Space),,,,,At --- ---- --- ------ ----- ------- ---- -- --- ------- --<br>------- ---------- ------ -- ----- -- ----- -- ---- ------<br>--- ----- --- --- ------ -------- ----- --- ------ ----- --<br>----- ----- ---------- --- --- ------ ------ ---- -- ------<br>------- --- ------ ----- --- ---- ------- -- ---- --- --<br>------- ------,103197.19999998808,103196.69999998808,100666.101,100667.59999999404,100682.766,103199.225,,0,At
screen,html.Screen,0_2_1_1_1,2021-11-05T11:42:42.294Z,,,,,,,,,,,,,,,,54,,,,,,,,,,,,,,445.47499998807325,,response,,,100,,,,,,Space,keypress(Space),,,,,-- the ---- --- ------ ----- ------- ---- -- --- ------- --<br>------- ---------- ------ -- ----- -- ----- -- ---- ------<br>--- ----- --- --- ------ -------- ----- --- ------ ----- --<br>----- ----- ---------- --- --- ------ ------ ---- -- ------<br>------- --- ------ ----- --- ---- ------- -- ---- --- --<br>------- ------,103645.29999999702,103644.69999998808,103182.56,103197.29999999702,103199.225,103649.272,,1,the
screen,html.Screen,0_2_1_1_2,2021-11-05T11:42:42.598Z,,,,,,,,,,,,,,,,54,,,,,,,,,,,,,,299.42799998808187,,response,,,100,,,,,,Space,keypress(Space),,,,,-- --- time --- ------ ----- ------- ---- -- --- ------- --<br>------- ---------- ------ -- ----- -- ----- -- ---- ------<br>--- ----- --- --- ------ -------- ----- --- ------ ----- --<br>----- ----- ---------- --- --- ------ ------ ---- -- ------<br>------- --- ------ ----- --- ---- ------- -- ---- --- --<br>------- ------,103949.29999999702,103948.69999998808,103632.607,103645.5,103649.272,103965.953,,2,time
screen,html.Screen,0_2_1_1_3,2021-11-05T11:42:42.879Z,,,,,,,,,,,,,,,,54,,,,,,,,,,,,,,262.6469999940455,,response,,,100,,,,,,Space,keypress(Space),,,,,-- --- ---- the ------ ----- ------- ---- -- --- ------- --<br>------- ---------- ------ -- ----- -- ----- -- ---- ------<br>--- ----- --- --- ------ -------- ----- --- ------ ----- --<br>----- ----- ---------- --- --- ------ ------ ---- -- ------<br>------- --- ------ ----- --- ---- ------- -- ---- --- --<br>------- ------,104230,104228.59999999404,103949.288,103949.5,103965.953,104232.647,,3,the
screen,html.Screen,0_2_1_1_4,2021-11-05T11:42:43.222Z,,,,,,,,,,,,,,,,54,,,,,,,,,,,,,,340.05299998808187,,response,,,100,,,,,,Space,keypress(Space),,,,,-- --- ---- --- French ----- ------- ---- -- --- ------- --<br>------- ---------- ------ -- ----- -- ----- -- ---- ------<br>--- ----- --- --- ------ -------- ----- --- ------ ----- --<br>----- ----- ---------- --- --- ------ ------ ---- -- ------<br>------- --- ------ ----- --- ---- ------- -- ---- --- --<br>------- ------,104573.29999999702,104572.69999998808,104215.981,104230.09999999404,104232.647,104582.66,,4,French
screen,html.Screen,0_2_1_1_5,2021-11-05T11:42:43.486Z,,,,,,,,,,,,,,,,54,,,,,,,,,,,,,,253.8399999999965,,response,,,100,,,,,,Space,keypress(Space),,,,,-- --- ---- --- ------ crown ------- ---- -- --- ------- --<br>------- ---------- ------ -- ----- -- ----- -- ---- ------<br>--- ----- --- --- ------ -------- ----- --- ------ ----- --<br>----- ----- ---------- --- --- ------ ------ ---- -- ------<br>------- --- ------ ----- --- ---- ------- -- ---- --- --<br>------- ------,104837.19999998808,104836.5,104565.994,104573.39999999106,104582.66,104849.186,,5,crown
screen,html.Screen,0_2_1_1_6,2021-11-05T11:42:43.750Z,,,,,,,,,,,,,,,,54,,,,,,,,,,,,,,251.41399999403802,,response,,,100,,,,,,Space,keypress(Space),,,,,-- --- ---- --- ------ ----- secured ---- -- --- ------- --<br>------- ---------- ------ -- ----- -- ----- -- ---- ------<br>--- ----- --- --- ------ -------- ----- --- ------ ----- --<br>----- ----- ---------- --- --- ------ ------ ---- -- ------<br>------- --- ------ ----- --- ---- ------- -- ---- --- --<br>------- ------,105101.09999999404,105100.59999999404,104832.523,104837.5,104849.186,105115.901,,6,secured
screen,html.Screen,0_2_1_1_7,2021-11-05T11:42:44.230Z,,,,,,,,,,,,,,,,54,,,,,,,,,,,,,,464.6989999940415,,response,,,100,,,,,,Space,keypress(Space),,,,,-- --- ---- --- ------ ----- ------- much -- --- ------- --<br>------- ---------- ------ -- ----- -- ----- -- ---- ------<br>--- ----- --- --- ------ -------- ----- --- ------ ----- --<br>----- ----- ---------- --- --- ------ ------ ---- -- ------<br>------- --- ------ ----- --- ---- ------- -- ---- --- --<br>------- ------,105581.29999999702,105580.59999999404,105099.236,105101.29999999702,105115.901,105582.576,,7,much
screen,html.Screen,0_2_1_1_8,2021-11-05T11:42:44.654Z,,,,,,,,,,,,,,,,54,,,,,,,,,,,,,,421.92399999999907,,response,,,100,,,,,,Space,keypress(Space),,,,,-- --- ---- --- ------ ----- ------- ---- of --- ------- --<br>------- ---------- ------ -- ----- -- ----- -- ---- ------<br>--- ----- --- --- ------ -------- ----- --- ------ ----- --<br>----- ----- ---------- --- --- ------ ------ ---- -- ------<br>------- --- ------ ----- --- ---- ------- -- ---- --- --<br>------- ------,106005.19999998808,106004.5,105565.91,105581.59999999404,105582.576,106015.922,,8,of
screen,html.Screen,0_2_1_1_9,2021-11-05T11:42:45.070Z,,,,,,,,,,,,,,,,54,,,,,,,,,,,,,,404.57799999999406,,response,,,100,,,,,,Space,keypress(Space),,,,,-- --- ---- --- ------ ----- ------- ---- -- its ------- --<br>------- ---------- ------ -- ----- -- ----- -- ---- ------<br>--- ----- --- --- ------ -------- ----- --- ------ ----- --<br>----- ----- ---------- --- --- ------ ------ ---- -- ------<br>------- --- ------ ----- --- ---- ------- -- ---- --- --<br>------- ------,106421.09999999404,106420.5,105999.256,106005.39999999106,106015.922,106432.486,,9,its
screen,html.Screen,0_2_1_1_10,2021-11-05T11:42:45.590Z,,,,,,,,,,,,,,,,54,,,,,,,,,,,,,,508.0139999999956,,response,,,100,,,,,,Space,keypress(Space),,,,,-- --- ---- --- ------ ----- ------- ---- -- --- revenue --<br>------- ---------- ------ -- ----- -- ----- -- ---- ------<br>--- ----- --- --- ------ -------- ----- --- ------ ----- --<br>----- ----- ---------- --- --- ------ ------ ---- -- ------<br>------- --- ------ ----- --- ---- ------- -- ---- --- --<br>------- ------,106941.19999998808,106940.5,106415.821,106421.19999998808,106432.486,106949.198,,10,revenue
screen,html.Screen,0_2_1_1_11,2021-11-05T11:42:46.166Z,,,,,,,,,,,,,,,,54,,,,,,,,,,,,,,567.301999999996,,response,,,100,,,,,,Space,keypress(Space),,,,,-- --- ---- --- ------ ----- ------- ---- -- --- ------- by<br>------- ---------- ------ -- ----- -- ----- -- ---- ------<br>--- ----- --- --- ------ -------- ----- --- ------ ----- --<br>----- ----- ---------- --- --- ------ ------ ---- -- ------<br>------- --- ------ ----- --- ---- ------- -- ---- --- --<br>------- ------,107517.09999999404,107516.5,106932.532,106941.39999999106,106949.198,107532.355,,11,by
screen,html.Screen,0_2_1_1_12,2021-11-05T11:42:47.086Z,,,,,,,,,,,,,,,,54,,,,,,,,,,,,,,904.0449999910634,,response,,,100,,,,,,Space,keypress(Space),,,,,-- --- ---- --- ------ ----- ------- ---- -- --- ------- --<br>issuing ---------- ------ -- ----- -- ----- -- ---- ------<br>--- ----- --- --- ------ -------- ----- --- ------ ----- --<br>----- ----- ---------- --- --- ------ ------ ---- -- ------<br>------- --- ------ ----- --- ---- ------- -- ---- --- --<br>------- ------,108437.19999998808,108436.39999999106,107515.691,107517.39999999106,107532.355,108449.032,,12,issuing
screen,html.Screen,0_2_1_1_13,2021-11-05T11:42:47.550Z,,,,,,,,,,,,,,,,54,,,,,,,,,,,,,,451.26799999701325,,response,,,100,,,,,,Space,keypress(Space),,,,,-- --- ---- --- ------ ----- ------- ---- -- --- ------- --<br>------- government ------ -- ----- -- ----- -- ---- ------<br>--- ----- --- --- ------ -------- ----- --- ------ ----- --<br>----- ----- ---------- --- --- ------ ------ ---- -- ------<br>------- --- ------ ----- --- ---- ------- -- ---- --- --<br>------- ------,108901,108900.29999999702,108432.367,108437.39999999106,108449.032,108915.752,,13,government
screen,html.Screen,0_2_1_1_14,2021-11-05T11:42:48.262Z,,,,,,,,,,,,,,,,54,,,,,,,,,,,,,,696.6479999910662,,response,,,100,,,,,,Space,keypress(Space),,,,,-- --- ---- --- ------ ----- ------- ---- -- --- ------- --<br>------- ---------- bonds. -- ----- -- ----- -- ---- ------<br>--- ----- --- --- ------ -------- ----- --- ------ ----- --<br>----- ----- ---------- --- --- ------ ------ ---- -- ------<br>------- --- ------ ----- --- ---- ------- -- ---- --- --<br>------- ------,109612.89999999106,109612.39999999106,108899.086,108901.29999999702,108915.752,109615.636,,14,bonds.
screen,html.Screen,0_2_1_1_15,2021-11-05T11:42:48.862Z,,,,,,,,,,,,,,,,54,,,,,,,,,,,,,,596.6639999970212,,response,,,100,,,,,,Space,keypress(Space),,,,,-- --- ---- --- ------ ----- ------- ---- -- --- ------- --<br>------- ---------- ------ In ----- -- ----- -- ---- ------<br>--- ----- --- --- ------ -------- ----- --- ------ ----- --<br>----- ----- ---------- --- --- ------ ------ ---- -- ------<br>------- --- ------ ----- --- ---- ------- -- ---- --- --<br>------- ------,110212.89999999106,110212.29999999702,109598.971,109613.09999999404,109615.636,110215.702,,15,In
screen,html.Screen,0_2_1_1_16,2021-11-05T11:42:49.766Z,,,,,,,,,,,,,,,,54,,,,,,,,,,,,,,900.597999997015,,response,,,100,,,,,,Space,keypress(Space),,,,,"-- --- ---- --- ------ ----- ------- ---- -- --- ------- --<br>------- ---------- ------ -- 1727, -- ----- -- ---- ------<br>--- ----- --- --- ------ -------- ----- --- ------ ----- --<br>----- ----- ---------- --- --- ------ ------ ---- -- ------<br>------- --- ------ ----- --- ---- ------- -- ---- --- --<br>------- ------",111116.89999999106,111116.29999999702,110199.036,110213.19999998808,110215.702,111132.228,,16,"1727,"
screen,html.Screen,0_2_1_1_17,2021-11-05T11:42:50.382Z,,,,,,,,,,,,,,,,54,,,,,,,,,,,,,,599.9719999880763,,response,,,100,,,,,,Space,keypress(Space),,,,,-- --- ---- --- ------ ----- ------- ---- -- --- ------- --<br>------- ---------- ------ -- ----- in ----- -- ---- ------<br>--- ----- --- --- ------ -------- ----- --- ------ ----- --<br>----- ----- ---------- --- --- ------ ------ ---- -- ------<br>------- --- ------ ----- --- ---- ------- -- ---- --- --<br>------- ------,111732.89999999106,111732.19999998808,111115.563,111117.09999999404,111132.228,111748.868,,17,in
screen,html.Screen,0_2_1_1_18,2021-11-05T11:42:50.893Z,,,,,,,,,,,,,,,,54,,,,,,,,,,,,,,495.43199999701756,,response,,,100,,,,,,Space,keypress(Space),,,,,-- --- ---- --- ------ ----- ------- ---- -- --- ------- --<br>------- ---------- ------ -- ----- -- order -- ---- ------<br>--- ----- --- --- ------ -------- ----- --- ------ ----- --<br>----- ----- ---------- --- --- ------ ------ ---- -- ------<br>------- --- ------ ----- --- ---- ------- -- ---- --- --<br>------- ------,112244.89999999106,112244.29999999702,111732.203,111733,111748.868,112248.867,,18,order
screen,html.Screen,0_2_1_1_19,2021-11-05T11:42:51.301Z,,,,,,,,,,,,,,,,54,,,,,,,,,,,,,,403.3329999880807,,response,,,100,,,,,,Space,keypress(Space),,,,,-- --- ---- --- ------ ----- ------- ---- -- --- ------- --<br>------- ---------- ------ -- ----- -- ----- to ---- ------<br>--- ----- --- --- ------ -------- ----- --- ------ ----- --<br>----- ----- ---------- --- --- ------ ------ ---- -- ------<br>------- --- ------ ----- --- ---- ------- -- ---- --- --<br>------- ------,112652.79999999702,112652.19999998808,112232.202,112245,112248.867,112665.439,,19,to
screen,html.Screen,0_2_1_1_20,2021-11-05T11:42:51.789Z,,,,,,,,,,,,,,,,54,,,,,,,,,,,,,,474.66099999404105,,response,,,100,,,,,,Space,keypress(Space),,,,,-- --- ---- --- ------ ----- ------- ---- -- --- ------- --<br>------- ---------- ------ -- ----- -- ----- -- save ------<br>--- ----- --- --- ------ -------- ----- --- ------ ----- --<br>----- ----- ---------- --- --- ------ ------ ---- -- ------<br>------- --- ------ ----- --- ---- ------- -- ---- --- --<br>------- ------,113140.79999999702,113140.09999999404,112648.775,112652.89999999106,112665.439,113148.785,,20,save
screen,html.Screen,0_2_1_1_21,2021-11-05T11:42:52.294Z,,,,,,,,,,,,,,,,54,,,,,,,,,,,,,,495.6149999910558,,response,,,100,,,,,,Space,keypress(Space),,,,,"-- --- ---- --- ------ ----- ------- ---- -- --- ------- --<br>------- ---------- ------ -- ----- -- ----- -- ---- money,<br>--- ----- --- --- ------ -------- ----- --- ------ ----- --<br>----- ----- ---------- --- --- ------ ------ ---- -- ------<br>------- --- ------ ----- --- ---- ------- -- ---- --- --<br>------- ------",113645,113644.39999999106,113132.12,113140.89999999106,113148.785,113648.827,,21,"money,"
screen,html.Screen,0_2_1_1_22,2021-11-05T11:42:52.757Z,,,,,,,,,,,,,,,,54,,,,,,,,,,,,,,459.3729999880743,,response,,,100,,,,,,Space,keypress(Space),,,,,-- --- ---- --- ------ ----- ------- ---- -- --- ------- --<br>------- ---------- ------ -- ----- -- ----- -- ---- ------<br>the ----- --- --- ------ -------- ----- --- ------ ----- --<br>----- ----- ---------- --- --- ------ ------ ---- -- ------<br>------- --- ------ ----- --- ---- ------- -- ---- --- --<br>------- ------,114108.69999998808,114108.19999998808,113632.161,113645.09999999404,113648.827,114115.389,,22,the
screen,html.Screen,0_2_1_1_23,2021-11-05T11:42:53.085Z,,,,,,,,,,,,,,,,54,,,,,,,,,,,,,,320.8109999880835,,response,,,100,,,,,,Space,keypress(Space),,,,,-- --- ---- --- ------ ----- ------- ---- -- --- ------- --<br>------- ---------- ------ -- ----- -- ----- -- ---- ------<br>--- state --- --- ------ -------- ----- --- ------ ----- --<br>----- ----- ---------- --- --- ------ ------ ---- -- ------<br>------- --- ------ ----- --- ---- ------- -- ---- --- --<br>------- ------,114436.69999998808,114436.19999998808,114098.724,114108.89999999106,114115.389,114448.719,,23,state
screen,html.Screen,0_2_1_1_24,2021-11-05T11:42:53.701Z,,,,,,,,,,,,,,,,54,,,,,,,,,,,,,,603.3809999940422,,response,,,100,,,,,,Space,keypress(Space),,,,,-- --- ---- --- ------ ----- ------- ---- -- --- ------- --<br>------- ---------- ------ -- ----- -- ----- -- ---- ------<br>--- ----- cut --- ------ -------- ----- --- ------ ----- --<br>----- ----- ---------- --- --- ------ ------ ---- -- ------<br>------- --- ------ ----- --- ---- ------- -- ---- --- --<br>------- ------,115052.59999999404,115052.09999999404,114432.054,114437,114448.719,115065.432,,24,cut
screen,html.Screen,0_2_1_1_25,2021-11-05T11:42:54.109Z,,,,,,,,,,,,,,,,54,,,,,,,,,,,,,,394.66799999403884,,response,,,100,,,,,,Space,keypress(Space),,,,,-- --- ---- --- ------ ----- ------- ---- -- --- ------- --<br>------- ---------- ------ -- ----- -- ----- -- ---- ------<br>--- ----- --- the ------ -------- ----- --- ------ ----- --<br>----- ----- ---------- --- --- ------ ------ ---- -- ------<br>------- --- ------ ----- --- ---- ------- -- ---- --- --<br>------- ------,115460.59999999404,115460.09999999404,115048.766,115052.79999999702,115065.432,115465.222,,25,the
screen,html.Screen,0_2_1_1_26,2021-11-05T11:42:54.549Z,,,,,,,,,,,,,,,,54,,,,,,,,,,,,,,434.7780000000057,,response,,,100,,,,,,Space,keypress(Space),,,,,-- --- ---- --- ------ ----- ------- ---- -- --- ------- --<br>------- ---------- ------ -- ----- -- ----- -- ---- ------<br>--- ----- --- --- bonds' -------- ----- --- ------ ----- --<br>----- ----- ---------- --- --- ------ ------ ---- -- ------<br>------- --- ------ ----- --- ---- ------- -- ---- --- --<br>------- ------,115900.59999999404,115900,115448.559,115460.69999998808,115465.222,115915.368,,26,bonds'
screen,html.Screen,0_2_1_1_27,2021-11-05T11:42:55.077Z,,,,,,,,,,,,,,,,54,,,,,,,,,,,,,,512.5319999910571,,response,,,100,,,,,,Space,keypress(Space),,,,,-- --- ---- --- ------ ----- ------- ---- -- --- ------- --<br>------- ---------- ------ -- ----- -- ----- -- ---- ------<br>--- ----- --- --- ------ interest ----- --- ------ ----- --<br>----- ----- ---------- --- --- ------ ------ ---- -- ------<br>------- --- ------ ----- --- ---- ------- -- ---- --- --<br>------- ------,116428.5,116427.89999999106,115898.702,115900.79999999702,115915.368,116431.966,,27,interest
screen,html.Screen,0_2_1_1_28,2021-11-05T11:42:56.077Z,,,,,,,,,,,,,,,,54,,,,,,,,,,,,,,995.933999991059,,response,,,100,,,,,,Space,keypress(Space),,,,,-- --- ---- --- ------ ----- ------- ---- -- --- ------- --<br>------- ---------- ------ -- ----- -- ----- -- ---- ------<br>--- ----- --- --- ------ -------- rate. --- ------ ----- --<br>----- ----- ---------- --- --- ------ ------ ---- -- ------<br>------- --- ------ ----- --- ---- ------- -- ---- --- --<br>------- ------,117428.59999999404,117427.89999999106,116415.301,116428.59999999404,116431.966,117431.888,,28,rate.
screen,html.Screen,0_2_1_1_29,2021-11-05T11:42:56.773Z,,,,,,,,,,,,,,,,54,,,,,,,,,,,,,,692.011999991053,,response,,,100,,,,,,Space,keypress(Space),,,,,-- --- ---- --- ------ ----- ------- ---- -- --- ------- --<br>------- ---------- ------ -- ----- -- ----- -- ---- ------<br>--- ----- --- --- ------ -------- ----- The ------ ----- --<br>----- ----- ---------- --- --- ------ ------ ---- -- ------<br>------- --- ------ ----- --- ---- ------- -- ---- --- --<br>------- ------,118124.5,118123.89999999106,117415.223,117428.79999999702,117431.888,118131.849,,29,The
screen,html.Screen,0_2_1_1_30,2021-11-05T11:42:57.309Z,,,,,,,,,,,,,,,,54,,,,,,,,,,,,,,528.0509999910573,,response,,,100,,,,,,Space,keypress(Space),,,,,-- --- ---- --- ------ ----- ------- ---- -- --- ------- --<br>------- ---------- ------ -- ----- -- ----- -- ---- ------<br>--- ----- --- --- ------ -------- ----- --- market ----- --<br>----- ----- ---------- --- --- ------ ------ ---- -- ------<br>------- --- ------ ----- --- ---- ------- -- ---- --- --<br>------- ------,118660.5,118659.89999999106,118115.184,118124.69999998808,118131.849,118665.058,,30,market
screen,html.Screen,0_2_1_1_31,2021-11-05T11:42:57.869Z,,,,,,,,,,,,,,,,54,,,,,,,,,,,,,,554.7419999970152,,response,,,100,,,,,,Space,keypress(Space),,,,,-- --- ---- --- ------ ----- ------- ---- -- --- ------- --<br>------- ---------- ------ -- ----- -- ----- -- ---- ------<br>--- ----- --- --- ------ -------- ----- --- ------ value --<br>----- ----- ---------- --- --- ------ ------ ---- -- ------<br>------- --- ------ ----- --- ---- ------- -- ---- --- --<br>------- ------,119220.39999999106,119219.79999999702,118648.394,118660.59999999404,118665.058,119231.824,,31,value
screen,html.Screen,0_2_1_1_32,2021-11-05T11:42:58.421Z,,,,,,,,,,,,,,,,54,,,,,,,,,,,,,,539.9759999970265,,response,,,100,,,,,,Space,keypress(Space),,,,,-- --- ---- --- ------ ----- ------- ---- -- --- ------- --<br>------- ---------- ------ -- ----- -- ----- -- ---- ------<br>--- ----- --- --- ------ -------- ----- --- ------ ----- of<br>----- ----- ---------- --- --- ------ ------ ---- -- ------<br>------- --- ------ ----- --- ---- ------- -- ---- --- --<br>------- ------,119772.5,119771.79999999702,119215.158,119220.59999999404,119231.824,119781.832,,32,of
screen,html.Screen,0_2_1_1_33,2021-11-05T11:42:58.853Z,,,,,,,,,,,,,,,,54,,,,,,,,,,,,,,421.8679999880842,,response,,,100,,,,,,Space,keypress(Space),,,,,-- --- ---- --- ------ ----- ------- ---- -- --- ------- --<br>------- ---------- ------ -- ----- -- ----- -- ---- ------<br>--- ----- --- --- ------ -------- ----- --- ------ ----- --<br>these ----- ---------- --- --- ------ ------ ---- -- ------<br>------- --- ------ ----- --- ---- ------- -- ---- --- --<br>------- ------,120204.29999999702,120203.69999998808,119765.166,119772.59999999404,119781.832,120215.011,,33,these
screen,html.Screen,0_2_1_1_34,2021-11-05T11:42:59.224Z,,,,,,,,,,,,,,,,54,,,,,,,,,,,,,,356.78899999702116,,response,,,100,,,,,,Space,keypress(Space),,,,,-- --- ---- --- ------ ----- ------- ---- -- --- ------- --<br>------- ---------- ------ -- ----- -- ----- -- ---- ------<br>--- ----- --- --- ------ -------- ----- --- ------ ----- --<br>----- bonds ---------- --- --- ------ ------ ---- -- ------<br>------- --- ------ ----- --- ---- ------- -- ---- --- --<br>------- ------,120572.29999999702,120571.79999999702,120198.347,120204.39999999106,120215.011,120581.705,,34,bonds
screen,html.Screen,0_2_1_1_35,2021-11-05T11:42:59.664Z,,,,,,,,,,,,,,,,54,,,,,,,,,,,,,,429.9949999880773,,response,,,100,,,,,,Space,keypress(Space),,,,,"-- --- ---- --- ------ ----- ------- ---- -- --- ------- --<br>------- ---------- ------ -- ----- -- ----- -- ---- ------<br>--- ----- --- --- ------ -------- ----- --- ------ ----- --<br>----- ----- plummeted, --- --- ------ ------ ---- -- ------<br>------- --- ------ ----- --- ---- ------- -- ---- --- --<br>------- ------",121012.29999999702,121011.69999998808,120565.04,120572.5,120581.705,121015.092,,35,"plummeted,"
screen,html.Screen,0_2_1_1_36,2021-11-05T11:43:01.264Z,,,,,,,,,,,,,,,,54,,,,,,,,,,,,,,1596.5079999940353,,response,,,100,,,,,,Space,keypress(Space),,,,,-- --- ---- --- ------ ----- ------- ---- -- --- ------- --<br>------- ---------- ------ -- ----- -- ----- -- ---- ------<br>--- ----- --- --- ------ -------- ----- --- ------ ----- --<br>----- ----- ---------- and --- ------ ------ ---- -- ------<br>------- --- ------ ----- --- ---- ------- -- ---- --- --<br>------- ------,122612.29999999702,122611.59999999404,120998.426,121012.59999999404,121015.092,122614.773,,36,and
screen,html.Screen,0_2_1_1_37,2021-11-05T11:43:01.768Z,,,,,,,,,,,,,,,,54,,,,,,,,,,,,,,500.926999988078,,response,,,100,,,,,,Space,keypress(Space),,,,,-- --- ---- --- ------ ----- ------- ---- -- --- ------- --<br>------- ---------- ------ -- ----- -- ----- -- ---- ------<br>--- ----- --- --- ------ -------- ----- --- ------ ----- --<br>----- ----- ---------- --- the ------ ------ ---- -- ------<br>------- --- ------ ----- --- ---- ------- -- ---- --- --<br>------- ------,123116.29999999702,123115.69999998808,122598.109,122612.5,122614.773,123131.652,,37,the
screen,html.Screen,0_2_1_1_38,2021-11-05T11:43:02.552Z,,,,,,,,,,,,,,,,54,,,,,,,,,,,,,,768.1479999970179,,response,,,100,,,,,,Space,keypress(Space),,,,,-- --- ---- --- ------ ----- ------- ---- -- --- ------- --<br>------- ---------- ------ -- ----- -- ----- -- ---- ------<br>--- ----- --- --- ------ -------- ----- --- ------ ----- --<br>----- ----- ---------- --- --- market ------ ---- -- ------<br>------- --- ------ ----- --- ---- ------- -- ---- --- --<br>------- ------,123900.39999999106,123899.79999999702,123114.986,123116.5,123131.652,123914.817,,38,market
screen,html.Screen,0_2_1_1_39,2021-11-05T11:43:03.184Z,,,,,,,,,,,,,,,,54,,,,,,,,,,,,,,616.6830000000045,,response,,,100,,,,,,Space,keypress(Space),,,,,-- --- ---- --- ------ ----- ------- ---- -- --- ------- --<br>------- ---------- ------ -- ----- -- ----- -- ---- ------<br>--- ----- --- --- ------ -------- ----- --- ------ ----- --<br>----- ----- ---------- --- --- ------ became ---- -- ------<br>------- --- ------ ----- --- ---- ------- -- ---- --- --<br>------- ------,124532.19999998808,124531.5,123898.152,123900.59999999404,123914.817,124548.257,,39,became
screen,html.Screen,0_2_1_1_40,2021-11-05T11:43:03.608Z,,,,,,,,,,,,,,,,54,,,,,,,,,,,,,,407.2430000000022,,response,,,100,,,,,,Space,keypress(Space),,,,,-- --- ---- --- ------ ----- ------- ---- -- --- ------- --<br>------- ---------- ------ -- ----- -- ----- -- ---- ------<br>--- ----- --- --- ------ -------- ----- --- ------ ----- --<br>----- ----- ---------- --- --- ------ ------ wary -- ------<br>------- --- ------ ----- --- ---- ------- -- ---- --- --<br>------- ------,124956.19999998808,124955.5,124531.591,124532.29999999702,124548.257,124964.835,,40,wary
screen,html.Screen,0_2_1_1_41,2021-11-05T11:43:04.095Z,,,,,,,,,,,,,,,,54,,,,,,,,,,,,,,478.5649999910529,,response,,,100,,,,,,Space,keypress(Space),,,,,-- --- ---- --- ------ ----- ------- ---- -- --- ------- --<br>------- ---------- ------ -- ----- -- ----- -- ---- ------<br>--- ----- --- --- ------ -------- ----- --- ------ ----- --<br>----- ----- ---------- --- --- ------ ------ ---- of ------<br>------- --- ------ ----- --- ---- ------- -- ---- --- --<br>------- ------,125444.09999999404,125443.39999999106,124948.17,124956.39999999106,124964.835,125448.063,,41,of
screen,html.Screen,0_2_1_1_42,2021-11-05T11:43:04.759Z,,,,,,,,,,,,,,,,54,,,,,,,,,,,,,,659.3369999910647,,response,,,100,,,,,,Space,keypress(Space),,,,,-- --- ---- --- ------ ----- ------- ---- -- --- ------- --<br>------- ---------- ------ -- ----- -- ----- -- ---- ------<br>--- ----- --- --- ------ -------- ----- --- ------ ----- --<br>----- ----- ---------- --- --- ------ ------ ---- -- French<br>------- --- ------ ----- --- ---- ------- -- ---- --- --<br>------- ------,126108,126107.39999999106,125431.399,125444.19999998808,125448.063,126114.813,,42,French
screen,html.Screen,0_2_1_1_43,2021-11-05T11:43:05.743Z,,,,,,,,,,,,,,,,54,,,,,,,,,,,,,,976.5869999910647,,response,,,100,,,,,,Space,keypress(Space),,,,,-- --- ---- --- ------ ----- ------- ---- -- --- ------- --<br>------- ---------- ------ -- ----- -- ----- -- ---- ------<br>--- ----- --- --- ------ -------- ----- --- ------ ----- --<br>----- ----- ---------- --- --- ------ ------ ---- -- ------<br>credit. --- ------ ----- --- ---- ------- -- ---- --- --<br>------- ------,127092.09999999404,127091.39999999106,126098.147,126108.19999998808,126114.813,127097.908,,43,credit.
screen,html.Screen,0_2_1_1_44,2021-11-05T11:43:06.127Z,,,,,,,,,,,,,,,,54,,,,,,,,,,,,,,377.4919999910635,,response,,,100,,,,,,Space,keypress(Space),,,,,-- --- ---- --- ------ ----- ------- ---- -- --- ------- --<br>------- ---------- ------ -- ----- -- ----- -- ---- ------<br>--- ----- --- --- ------ -------- ----- --- ------ ----- --<br>----- ----- ---------- --- --- ------ ------ ---- -- ------<br>------- The ------ ----- --- ---- ------- -- ---- --- --<br>------- ------,127476,127475.39999999106,127081.244,127092.19999998808,127097.908,127481.402,,44,The
screen,html.Screen,0_2_1_1_45,2021-11-05T11:43:06.511Z,,,,,,,,,,,,,,,,54,,,,,,,,,,,,,,377.8979999970179,,response,,,100,,,,,,Space,keypress(Space),,,,,-- --- ---- --- ------ ----- ------- ---- -- --- ------- --<br>------- ---------- ------ -- ----- -- ----- -- ---- ------<br>--- ----- --- --- ------ -------- ----- --- ------ ----- --<br>----- ----- ---------- --- --- ------ ------ ---- -- ------<br>------- --- French ----- --- ---- ------- -- ---- --- --<br>------- ------,127859.89999999106,127859.29999999702,127464.736,127476.09999999404,127481.402,127864.639,,45,French
screen,html.Screen,0_2_1_1_46,2021-11-05T11:43:06.831Z,,,,,,,,,,,,,,,,54,,,,,,,,,,,,,,314.6609999970242,,response,,,100,,,,,,Space,keypress(Space),,,,,-- --- ---- --- ------ ----- ------- ---- -- --- ------- --<br>------- ---------- ------ -- ----- -- ----- -- ---- ------<br>--- ----- --- --- ------ -------- ----- --- ------ ----- --<br>----- ----- ---------- --- --- ------ ------ ---- -- ------<br>------- --- ------ state --- ---- ------- -- ---- --- --<br>------- ------,128179.89999999106,128179.29999999702,127847.974,127860.09999999404,127864.639,128181.284,,46,state
screen,html.Screen,0_2_1_1_47,2021-11-05T11:43:07.247Z,,,,,,,,,,,,,,,,54,,,,,,,,,,,,,,414.11599999105965,,response,,,100,,,,,,Space,keypress(Space),,,,,-- --- ---- --- ------ ----- ------- ---- -- --- ------- --<br>------- ---------- ------ -- ----- -- ----- -- ---- ------<br>--- ----- --- --- ------ -------- ----- --- ------ ----- --<br>----- ----- ---------- --- --- ------ ------ ---- -- ------<br>------- --- ------ ----- was ---- ------- -- ---- --- --<br>------- ------,128596,128595.39999999106,128164.619,128180,128181.284,128597.93,,47,was
screen,html.Screen,0_2_1_1_48,2021-11-05T11:43:07.687Z,,,,,,,,,,,,,,,,54,,,,,,,,,,,,,,437.36999999702675,,response,,,100,,,,,,Space,keypress(Space),,,,,-- --- ---- --- ------ ----- ------- ---- -- --- ------- --<br>------- ---------- ------ -- ----- -- ----- -- ---- ------<br>--- ----- --- --- ------ -------- ----- --- ------ ----- --<br>----- ----- ---------- --- --- ------ ------ ---- -- ------<br>------- --- ------ ----- --- left ------- -- ---- --- --<br>------- ------,129035.89999999106,129035.29999999702,128581.265,128596.09999999404,128597.93,129048.02,,48,left
screen,html.Screen,0_2_1_1_49,2021-11-05T11:43:08.095Z,,,,,,,,,,,,,,,,54,,,,,,,,,,,,,,395.2799999970157,,response,,,100,,,,,,Space,keypress(Space),,,,,-- --- ---- --- ------ ----- ------- ---- -- --- ------- --<br>------- ---------- ------ -- ----- -- ----- -- ---- ------<br>--- ----- --- --- ------ -------- ----- --- ------ ----- --<br>----- ----- ---------- --- --- ------ ------ ---- -- ------<br>------- --- ------ ----- --- ---- without -- ---- --- --<br>------- ------,129443.89999999106,129443.29999999702,129031.353,129036,129048.02,129447.849,,49,without
screen,html.Screen,0_2_1_1_50,2021-11-05T11:43:08.495Z,,,,,,,,,,,,,,,,54,,,,,,,,,,,,,,395.3509999880771,,response,,,100,,,,,,Space,keypress(Space),,,,,-- --- ---- --- ------ ----- ------- ---- -- --- ------- --<br>------- ---------- ------ -- ----- -- ----- -- ---- ------<br>--- ----- --- --- ------ -------- ----- --- ------ ----- --<br>----- ----- ---------- --- --- ------ ------ ---- -- ------<br>------- --- ------ ----- --- ---- ------- an ---- --- --<br>------- ------,129843.89999999106,129843.19999998808,129431.185,129444.09999999404,129447.849,129847.867,,50,an
screen,html.Screen,0_2_1_1_51,2021-11-05T11:43:08.975Z,,,,,,,,,,,,,,,,54,,,,,,,,,,,,,,475.3329999880807,,response,,,100,,,,,,Space,keypress(Space),,,,,-- --- ---- --- ------ ----- ------- ---- -- --- ------- --<br>------- ---------- ------ -- ----- -- ----- -- ---- ------<br>--- ----- --- --- ------ -------- ----- --- ------ ----- --<br>----- ----- ---------- --- --- ------ ------ ---- -- ------<br>------- --- ------ ----- --- ---- ------- -- easy --- --<br>------- ------,130323.69999998808,130323.19999998808,129831.202,129844,129847.867,130331.179,,51,easy
screen,html.Screen,0_2_1_1_52,2021-11-05T11:43:09.463Z,,,,,,,,,,,,,,,,54,,,,,,,,,,,,,,480.02099998807535,,response,,,100,,,,,,Space,keypress(Space),,,,,-- --- ---- --- ------ ----- ------- ---- -- --- ------- --<br>------- ---------- ------ -- ----- -- ----- -- ---- ------<br>--- ----- --- --- ------ -------- ----- --- ------ ----- --<br>----- ----- ---------- --- --- ------ ------ ---- -- ------<br>------- --- ------ ----- --- ---- ------- -- ---- way --<br>------- ------,130811.69999998808,130811.19999998808,130314.514,130323.89999999106,130331.179,130814.476,,52,way
screen,html.Screen,0_2_1_1_53,2021-11-05T11:43:10.007Z,,,,,,,,,,,,,,,,54,,,,,,,,,,,,,,540.723999988084,,response,,,100,,,,,,Space,keypress(Space),,,,,-- --- ---- --- ------ ----- ------- ---- -- --- ------- --<br>------- ---------- ------ -- ----- -- ----- -- ---- ------<br>--- ----- --- --- ------ -------- ----- --- ------ ----- --<br>----- ----- ---------- --- --- ------ ------ ---- -- ------<br>------- --- ------ ----- --- ---- ------- -- ---- --- of<br>------- ------,131355.69999998808,131355.19999998808,130797.811,130811.89999999106,130814.476,131364.527,,53,of
screen,html.Screen,0_2_1_1_54,2021-11-05T11:43:10.495Z,,,,,,,,,,,,,,,,54,,,,,,,,,,,,,,478.5729999940377,,response,,,100,,,,,,Space,keypress(Space),,,,,-- --- ---- --- ------ ----- ------- ---- -- --- ------- --<br>------- ---------- ------ -- ----- -- ----- -- ---- ------<br>--- ----- --- --- ------ -------- ----- --- ------ ----- --<br>----- ----- ---------- --- --- ------ ------ ---- -- ------<br>------- --- ------ ----- --- ---- ------- -- ---- --- --<br>raising ------,131843.69999998808,131843.09999999404,131347.861,131355.89999999106,131364.527,131847.793,,54,raising
screen,html.Screen,0_2_1_1_55,2021-11-05T11:43:11.231Z,,,,,,,,,,,,,,,,54,,,,,,,,,,,,,,731.3069999940344,,response,,,100,,,,,,Space,keypress(Space),,,,,-- --- ---- --- ------ ----- ------- ---- -- --- ------- --<br>------- ---------- ------ -- ----- -- ----- -- ---- ------<br>--- ----- --- --- ------ -------- ----- --- ------ ----- --<br>----- ----- ---------- --- --- ------ ------ ---- -- ------<br>------- --- ------ ----- --- ---- ------- -- ---- --- --<br>------- money.,132579.69999998808,132579.09999999404,131831.128,131843.89999999106,131847.793,132581.064,,55,money.
Item 100,flow.Loop,0_2_1_1,2021-11-05T11:43:11.231Z,,,,,,,,,,,,,,,,,,,,,,,,,,,,,,31896.333999994036,,completion,,,,B,,,,,,,,,,silence,,132580,132579.09999999404,100666.101,100667.39999999106,100682.766,132581.064,,,
Question 1,html.Screen,0_2_1_2,2021-11-05T11:43:14.198Z,,,,,,,,,,,,,,,,,,,,,,,,,,,true,TRUE,,2964.3359999910463,,response,,,100,B,,,,,TRUE,click #choice-1,,,,silence,,135546.39999999106,135545.39999999106,132564.399,132580.09999999404,132581.064,135547.628,,,
Question 2,html.Screen,0_2_1_3,2021-11-05T11:43:17.531Z,,,,,,,,,,,,,,,,,,,,,,,,,,,false,FALSE,,3331.372000000003,,response,,,100,B,,,,,TRUE,click #choice-1,,,,silence,,138879.89999999106,138879,135530.961,135546.5,135547.628,138880.696,,,
Item 100,flow.Sequence,0_2_1,2021-11-05T11:43:17.532Z,,,,,,,,,,,,,,,,,,,,,,,,,,,,,,48195.564,,completion,,,,,,,,,,,,,,,,138880.09999999404,138879,90666.769,90683.69999998808,90683.436,138880.696,,,
End of Practice,html.Page,0_2_2,2021-11-05T11:43:25.334Z,,,,,,,,,,,,,,,,,,,,,,,,,,,,,,7801.804000000004,,form submission,,,,,,,,,,,,,,,,146683,146682.5,138864.031,138880.39999999106,138880.696,146696.823,,,
Practice,flow.Sequence,0_2,2021-11-05T11:43:25.335Z,,,,,,,,,,,,,,,,,,,,,,,,,,,,,,112562.899,,completion,,,,,,,,,,,,,,,,146683.29999999702,146682.5,34102.936,34114.79999999702,34119.601,146696.823,,,
Trap_instruction,html.Page,0_3_0,2021-11-05T11:43:29.021Z,,,,,,,,,,,,,,,,,,,,,,,,,,,,,,3671.976999997016,,form submission,,,,,,,,,,,,,,,,150369.19999998808,150368.79999999702,146680.158,146683.39999999106,146696.823,150379.895,,,
trap_trial,html.Screen,0_3_1,2021-11-05T11:43:35.237Z,,,,,,,,,,,,,,,,,,,,,,,,,,,true,1,,6204.40499999703,,response,,,,,,,,,1,click #choice-1,,,,,,156585.29999999702,156584.29999999702,150363.23,150369.39999999106,150379.895,156596.156,,,
end of trap trial,html.Page,0_3_2,2021-11-05T11:43:38.967Z,,,,,,,,,,,,,,,,,,,,,,,,,,,,,,3719.543999988091,,form submission,,,,,,,,,,,,,,,,160316,160315.69999998808,156579.491,156585.5,156596.156,160329.474,,,
Trap 1,flow.Sequence,0_3,2021-11-05T11:43:38.968Z,,,,,,,,,,,,,,,,,,,,,,,,,,,,,,13618.876999988075,,completion,,,,,,,,,,,,,,,,160316.29999999702,160315.69999998808,146680.158,146683.39999999106,146696.823,160329.474,,,
Standby,html.Page,0_4_0,2021-11-05T11:43:46.964Z,,,,,,,,,,,,,,,,,,,,,,,,,,,,,,7999.270000000019,,timeout,,,,,,,,,,,,,,,,168313,168312.079,160312.809,160316.5,160329.474,168328.744,,,
Holding screen,html.Screen,0_4_1_0_0,2021-11-05T11:43:53.964Z,,,,,,,,,,,,,,,,,,,,,,,,,,,,,,6999.867999999988,,timeout,,,,,,,,,,,,,,,,175313,175311.947,168312.079,168313.19999998808,168328.744,175328.612,,,
screen,html.Screen,0_4_1_0_1_0,2021-11-05T11:43:55.981Z,,,,,,,,,,,,,,,,15,,,,,,,,,,,,,,2000.2879999910656,,response,,,7,B,,,,,Space,keypress(Space),,,,lyrical,Greg --------- ---------- - --- ------- -- --- ------------<br>----- -- -------- ------- ---- ------ - -------- ---- -----<br>--- ------- ---- -- --- -------- --- - ----- ------ ---- --<br>-------- --- -------- -------- --- -------- ---- -- ----- -<br>-------- ---- --- ---------- --------- -- ------- ------ -<br>--------- ----- -----,177329.59999999404,177328.89999999106,175311.947,175313.29999999702,175328.612,177345.174,,0,Greg
screen,html.Screen,0_4_1_0_1_1,2021-11-05T11:43:56.397Z,,,,,,,,,,,,,,,,15,,,,,,,,,,,,,,399.42599999404047,,response,,,7,B,,,,,Space,keypress(Space),,,,lyrical,"---- Anderson, ---------- - --- ------- -- --- ------------<br>----- -- -------- ------- ---- ------ - -------- ---- -----<br>--- ------- ---- -- --- -------- --- - ----- ------ ---- --<br>-------- --- -------- -------- --- -------- ---- -- ----- -<br>-------- ---- --- ---------- --------- -- ------- ------ -<br>--------- ----- -----",177745.29999999702,177744.59999999404,177328.509,177329.79999999702,177345.174,177761.98,,1,"Anderson,"
screen,html.Screen,0_4_1_0_1_2,2021-11-05T11:43:56.892Z,,,,,,,,,,,,,,,,15,,,,,,,,,,,,,,478.61999999402906,,response,,,7,B,,,,,Space,keypress(Space),,,,lyrical,---- --------- considered - --- ------- -- --- ------------<br>----- -- -------- ------- ---- ------ - -------- ---- -----<br>--- ------- ---- -- --- -------- --- - ----- ------ ---- --<br>-------- --- -------- -------- --- -------- ---- -- ----- -<br>-------- ---- --- ---------- --------- -- ------- ------ -<br>--------- ----- -----,178241.09999999404,178240.59999999404,177745.314,177745.39999999106,177761.98,178245.196,,2,considered
screen,html.Screen,0_4_1_0_1_3,2021-11-05T11:43:57.389Z,,,,,,,,,,,,,,,,15,,,,,,,,,,,,,,491.3040000000037,,response,,,7,B,,,,,Space,keypress(Space),,,,lyrical,---- --------- ---------- a --- ------- -- --- ------------<br>----- -- -------- ------- ---- ------ - -------- ---- -----<br>--- ------- ---- -- --- -------- --- - ----- ------ ---- --<br>-------- --- -------- -------- --- -------- ---- -- ----- -<br>-------- ---- --- ---------- --------- -- ------- ------ -<br>--------- ----- -----,178737.19999998808,178736.5,178228.531,178241.19999998808,178245.196,178745.179,,3,a
screen,html.Screen,0_4_1_0_1_4,2021-11-05T11:43:57.820Z,,,,,,,,,,,,,,,,15,,,,,,,,,,,,,,423.3209999999963,,response,,,7,B,,,,,Space,keypress(Space),,,,lyrical,---- --------- ---------- - key ------- -- --- ------------<br>----- -- -------- ------- ---- ------ - -------- ---- -----<br>--- ------- ---- -- --- -------- --- - ----- ------ ---- --<br>-------- --- -------- -------- --- -------- ---- -- ----- -<br>-------- ---- --- ---------- --------- -- ------- ------ -<br>--------- ----- -----,179169.09999999404,179168.5,178728.514,178737.29999999702,178745.179,179178.495,,4,key
screen,html.Screen,0_4_1_0_1_5,2021-11-05T11:43:58.301Z,,,,,,,,,,,,,,,,15,,,,,,,,,,,,,,470.00500000000466,,response,,,7,B,,,,,Space,keypress(Space),,,,lyrical,---- --------- ---------- - --- witness -- --- ------------<br>----- -- -------- ------- ---- ------ - -------- ---- -----<br>--- ------- ---- -- --- -------- --- - ----- ------ ---- --<br>-------- --- -------- -------- --- -------- ---- -- ----- -<br>-------- ---- --- ---------- --------- -- ------- ------ -<br>--------- ----- -----,179649.09999999404,179648.5,179161.83,179169.19999998808,179178.495,179661.711,,5,witness
screen,html.Screen,0_4_1_0_1_6,2021-11-05T11:43:58.772Z,,,,,,,,,,,,,,,,15,,,,,,,,,,,,,,458.68899999104906,,response,,,7,B,,,,,Space,keypress(Space),,,,lyrical,---- --------- ---------- - --- ------- by --- ------------<br>----- -- -------- ------- ---- ------ - -------- ---- -----<br>--- ------- ---- -- --- -------- --- - ----- ------ ---- --<br>-------- --- -------- -------- --- -------- ---- -- ----- -<br>-------- ---- --- ---------- --------- -- ------- ------ -<br>--------- ----- -----,180121,180120.39999999106,179645.047,179649.39999999106,179661.711,180128.461,,6,by
screen,html.Screen,0_4_1_0_1_7,2021-11-05T11:43:59.204Z,,,,,,,,,,,,,,,,15,,,,,,,,,,,,,,423.93899999104906,,response,,,7,B,,,,,Space,keypress(Space),,,,lyrical,---- --------- ---------- - --- ------- -- the ------------<br>----- -- -------- ------- ---- ------ - -------- ---- -----<br>--- ------- ---- -- --- -------- --- - ----- ------ ---- --<br>-------- --- -------- -------- --- -------- ---- -- ----- -<br>-------- ---- --- ---------- --------- -- ------- ------ -<br>--------- ----- -----,180553.09999999404,180552.39999999106,180111.795,180121.19999998808,180128.461,180561.816,,7,the
screen,html.Screen,0_4_1_0_1_8,2021-11-05T11:43:59.815Z,,,,,,,,,,,,,,,,15,,,,,,,,,,,,,,598.5839999910677,,response,,,7,B,,,,,Space,keypress(Space),,,,lyrical,"---- --------- ---------- - --- ------- -- --- prosecution,<br>----- -- -------- ------- ---- ------ - -------- ---- -----<br>--- ------- ---- -- --- -------- --- - ----- ------ ---- --<br>-------- --- -------- -------- --- -------- ---- -- ----- -<br>-------- ---- --- ---------- --------- -- ------- ------ -<br>--------- ----- -----",181161,181160.39999999106,180545.15,180553.19999998808,180561.816,181178.294,,8,"prosecution,"
screen,html.Screen,0_4_1_0_1_9,2021-11-05T11:44:00.319Z,,,,,,,,,,,,,,,,15,,,,,,,,,,,,,,486.1059999910649,,response,,,7,B,,,,,Space,keypress(Space),,,,lyrical,---- --------- ---------- - --- ------- -- --- ------------<br>vowed -- -------- ------- ---- ------ - -------- ---- -----<br>--- ------- ---- -- --- -------- --- - ----- ------ ---- --<br>-------- --- -------- -------- --- -------- ---- -- ----- -<br>-------- ---- --- ---------- --------- -- ------- ------ -<br>--------- ----- -----,181665,181664.39999999106,181161.63,181161.19999998808,181178.294,181678.392,,9,vowed
screen,html.Screen,0_4_1_0_1_10,2021-11-05T11:44:00.759Z,,,,,,,,,,,,,,,,15,,,,,,,,,,,,,,425.9079999970272,,response,,,7,B,,,,,Space,keypress(Space),,,,lyrical,---- --------- ---------- - --- ------- -- --- ------------<br>----- he -------- ------- ---- ------ - -------- ---- -----<br>--- ------- ---- -- --- -------- --- - ----- ------ ---- --<br>-------- --- -------- -------- --- -------- ---- -- ----- -<br>-------- ---- --- ---------- --------- -- ------- ------ -<br>--------- ----- -----,182105,182104.29999999702,181661.726,181665.19999998808,181678.392,182111.717,,10,he
screen,html.Screen,0_4_1_0_1_11,2021-11-05T11:44:01.167Z,,,,,,,,,,,,,,,,15,,,,,,,,,,,,,,400.5829999970156,,response,,,7,B,,,,,Space,keypress(Space),,,,lyrical,---- --------- ---------- - --- ------- -- --- ------------<br>----- -- wouldn't ------- ---- ------ - -------- ---- -----<br>--- ------- ---- -- --- -------- --- - ----- ------ ---- --<br>-------- --- -------- -------- --- -------- ---- -- ----- -<br>-------- ---- --- ---------- --------- -- ------- ------ -<br>--------- ----- -----,182512.89999999106,182512.29999999702,182095.051,182105.09999999404,182111.717,182528.242,,11,wouldn't
screen,html.Screen,0_4_1_0_1_12,2021-11-05T11:44:01.615Z,,,,,,,,,,,,,,,,15,,,,,,,,,,,,,,432.0579999970214,,response,,,7,B,,,,,Space,keypress(Space),,,,lyrical,---- --------- ---------- - --- ------- -- --- ------------<br>----- -- -------- testify ---- ------ - -------- ---- -----<br>--- ------- ---- -- --- -------- --- - ----- ------ ---- --<br>-------- --- -------- -------- --- -------- ---- -- ----- -<br>-------- ---- --- ---------- --------- -- ------- ------ -<br>--------- ----- -----,182961,182960.29999999702,182511.578,182513.09999999404,182528.242,182978.314,,12,testify
screen,html.Screen,0_4_1_0_1_13,2021-11-05T11:44:02.055Z,,,,,,,,,,,,,,,,15,,,,,,,,,,,,,,421.98599999700673,,response,,,7,B,,,,,Space,keypress(Space),,,,lyrical,---- --------- ---------- - --- ------- -- --- ------------<br>----- -- -------- ------- when ------ - -------- ---- -----<br>--- ------- ---- -- --- -------- --- - ----- ------ ---- --<br>-------- --- -------- -------- --- -------- ---- -- ----- -<br>-------- ---- --- ---------- --------- -- ------- ------ -<br>--------- ----- -----,183400.89999999106,183400.29999999702,182961.648,182961.19999998808,182978.314,183411.564,,13,when
screen,html.Screen,0_4_1_0_1_14,2021-11-05T11:44:02.463Z,,,,,,,,,,,,,,,,15,,,,,,,,,,,,,,396.63599998806603,,response,,,7,B,,,,,Space,keypress(Space),,,,lyrical,---- --------- ---------- - --- ------- -- --- ------------<br>----- -- -------- ------- ---- served - -------- ---- -----<br>--- ------- ---- -- --- -------- --- - ----- ------ ---- --<br>-------- --- -------- -------- --- -------- ---- -- ----- -<br>-------- ---- --- ---------- --------- -- ------- ------ -<br>--------- ----- -----,183808.79999999702,183808.19999998808,183394.899,183401.09999999404,183411.564,183811.602,,14,served
screen,html.Screen,0_4_1_0_1_15,2021-11-05T11:44:02.887Z,,,,,,,,,,,,,,,,15,,,,,,,,,,,,,,420.59799998806557,,response,,,7,B,,,,,Space,keypress(Space),,,,lyrical,---- --------- ---------- - --- ------- -- --- ------------<br>----- -- -------- ------- ---- ------ a -------- ---- -----<br>--- ------- ---- -- --- -------- --- - ----- ------ ---- --<br>-------- --- -------- -------- --- -------- ---- -- ----- -<br>-------- ---- --- ---------- --------- -- ------- ------ -<br>--------- ----- -----,184232.79999999702,184232.19999998808,183794.936,183809,183811.602,184244.881,,15,a
screen,html.Screen,0_4_1_0_1_16,2021-11-05T11:44:03.311Z,,,,,,,,,,,,,,,,15,,,,,,,,,,,,,,411.3189999880851,,response,,,7,B,,,,,Space,keypress(Space),,,,lyrical,---- --------- ---------- - --- ------- -- --- ------------<br>----- -- -------- ------- ---- ------ - subpoena ---- -----<br>--- ------- ---- -- --- -------- --- - ----- ------ ---- --<br>-------- --- -------- -------- --- -------- ---- -- ----- -<br>-------- ---- --- ---------- --------- -- ------- ------ -<br>--------- ----- -----,184656.79999999702,184656.19999998808,184228.216,184233,184244.881,184661.516,,16,subpoena
screen,html.Screen,0_4_1_0_1_17,2021-11-05T11:44:03.831Z,,,,,,,,,,,,,,,,15,,,,,,,,,,,,,,514.6839999880758,,response,,,7,B,,,,,Space,keypress(Space),,,,lyrical,---- --------- ---------- - --- ------- -- --- ------------<br>----- -- -------- ------- ---- ------ - -------- last -----<br>--- ------- ---- -- --- -------- --- - ----- ------ ---- --<br>-------- --- -------- -------- --- -------- ---- -- ----- -<br>-------- ---- --- ---------- --------- -- ------- ------ -<br>--------- ----- -----,185176.79999999702,185176.19999998808,184644.851,184656.89999999106,184661.516,185178.145,,17,last
screen,html.Screen,0_4_1_0_1_18,2021-11-05T11:44:04.295Z,,,,,,,,,,,,,,,,15,,,,,,,,,,,,,,462.05499998808955,,response,,,7,B,,,,,Space,keypress(Space),,,,lyrical,---- --------- ---------- - --- ------- -- --- ------------<br>----- -- -------- ------- ---- ------ - -------- ---- week.<br>--- ------- ---- -- --- -------- --- - ----- ------ ---- --<br>-------- --- -------- -------- --- -------- ---- -- ----- -<br>-------- ---- --- ---------- --------- -- ------- ------ -<br>--------- ----- -----,185640.79999999702,185640.19999998808,185161.48,185177.09999999404,185178.145,185644.862,,18,week.
screen,html.Screen,0_4_1_0_1_19,2021-11-05T11:44:04.727Z,,,,,,,,,,,,,,,,15,,,,,,,,,,,,,,427.2379999940458,,response,,,7,B,,,,,Space,keypress(Space),,,,lyrical,---- --------- ---------- - --- ------- -- --- ------------<br>----- -- -------- ------- ---- ------ - -------- ---- -----<br>His ------- ---- -- --- -------- --- - ----- ------ ---- --<br>-------- --- -------- -------- --- -------- ---- -- ----- -<br>-------- ---- --- ---------- --------- -- ------- ------ -<br>--------- ----- -----,186072.69999998808,186072.09999999404,185628.196,185641,185644.862,186078.056,,19,His
screen,html.Screen,0_4_1_0_1_20,2021-11-05T11:44:05.199Z,,,,,,,,,,,,,,,,15,,,,,,,,,,,,,,466.0439999940281,,response,,,7,B,,,,,Space,keypress(Space),,,,lyrical,---- --------- ---------- - --- ------- -- --- ------------<br>----- -- -------- ------- ---- ------ - -------- ---- -----<br>--- lawyers ---- -- --- -------- --- - ----- ------ ---- --<br>-------- --- -------- -------- --- -------- ---- -- ----- -<br>-------- ---- --- ---------- --------- -- ------- ------ -<br>--------- ----- -----,186544.69999998808,186544.09999999404,186061.392,186072.79999999702,186078.056,186561.382,,20,lawyers
screen,html.Screen,0_4_1_0_1_21,2021-11-05T11:44:05.847Z,,,,,,,,,,,,,,,,15,,,,,,,,,,,,,,630.6179999999877,,response,,,7,B,,,,,Space,keypress(Space),,,,lyrical,---- --------- ---------- - --- ------- -- --- ------------<br>----- -- -------- ------- ---- ------ - -------- ---- -----<br>--- ------- said -- --- -------- --- - ----- ------ ---- --<br>-------- --- -------- -------- --- -------- ---- -- ----- -<br>-------- ---- --- ---------- --------- -- ------- ------ -<br>--------- ----- -----,187192.69999998808,187192,186544.717,186544.89999999106,186561.382,187194.695,,21,said
screen,html.Screen,0_4_1_0_1_22,2021-11-05T11:44:06.199Z,,,,,,,,,,,,,,,,15,,,,,,,,,,,,,,349.6049999970128,,response,,,7,B,,,,,Space,keypress(Space),,,,lyrical,---- --------- ---------- - --- ------- -- --- ------------<br>----- -- -------- ------- ---- ------ - -------- ---- -----<br>--- ------- ---- he --- -------- --- - ----- ------ ---- --<br>-------- --- -------- -------- --- -------- ---- -- ----- -<br>-------- ---- --- ---------- --------- -- ------- ------ -<br>--------- ----- -----,187544.89999999106,187544.29999999702,187178.03,187192.89999999106,187194.695,187561.426,,22,he
screen,html.Screen,0_4_1_0_1_23,2021-11-05T11:44:06.543Z,,,,,,,,,,,,,,,,15,,,,,,,,,,,,,,326.57399999999325,,response,,,7,B,,,,,Space,keypress(Space),,,,lyrical,---- --------- ---------- - --- ------- -- --- ------------<br>----- -- -------- ------- ---- ------ - -------- ---- -----<br>--- ------- ---- -- was -------- --- - ----- ------ ---- --<br>-------- --- -------- -------- --- -------- ---- -- ----- -<br>-------- ---- --- ---------- --------- -- ------- ------ -<br>--------- ----- -----,187888.59999999404,187888,187544.76,187545.09999999404,187561.426,187894.664,,23,was
screen,html.Screen,0_4_1_0_1_24,2021-11-05T11:44:06.919Z,,,,,,,,,,,,,,,,15,,,,,,,,,,,,,,369.33600000001024,,response,,,7,B,,,,,Space,keypress(Space),,,,lyrical,---- --------- ---------- - --- ------- -- --- ------------<br>----- -- -------- ------- ---- ------ - -------- ---- -----<br>--- ------- ---- -- --- prepared --- - ----- ------ ---- --<br>-------- --- -------- -------- --- -------- ---- -- ----- -<br>-------- ---- --- ---------- --------- -- ------- ------ -<br>--------- ----- -----,188264.5,188264,187877.999,187888.69999998808,187894.664,188278.048,,24,prepared
screen,html.Screen,0_4_1_0_1_25,2021-11-05T11:44:07.335Z,,,,,,,,,,,,,,,,15,,,,,,,,,,,,,,401.9519999999902,,response,,,7,B,,,,,Space,keypress(Space),,,,lyrical,---- --------- ---------- - --- ------- -- --- ------------<br>----- -- -------- ------- ---- ------ - -------- ---- -----<br>--- ------- ---- -- --- -------- for - ----- ------ ---- --<br>-------- --- -------- -------- --- -------- ---- -- ----- -<br>-------- ---- --- ---------- --------- -- ------- ------ -<br>--------- ----- -----,188680.69999998808,188680,188261.382,188264.69999998808,188278.048,188694.577,,25,for
screen,html.Screen,0_4_1_0_1_26,2021-11-05T11:44:07.695Z,,,,,,,,,,,,,,,,15,,,,,,,,,,,,,,345.4230000000098,,response,,,7,B,,,,,Space,keypress(Space),,,,lyrical,---- --------- ---------- - --- ------- -- --- ------------<br>----- -- -------- ------- ---- ------ - -------- ---- -----<br>--- ------- ---- -- --- -------- --- a ----- ------ ---- --<br>-------- --- -------- -------- --- -------- ---- -- ----- -<br>-------- ---- --- ---------- --------- -- ------- ------ -<br>--------- ----- -----,189040.59999999404,189040,188677.913,188680.79999999702,188694.577,189044.589,,26,a
screen,html.Screen,0_4_1_0_1_27,2021-11-05T11:44:08.199Z,,,,,,,,,,,,,,,,15,,,,,,,,,,,,,,499.4109999999928,,response,,,7,B,,,,,Space,keypress(Space),,,,lyrical,---- --------- ---------- - --- ------- -- --- ------------<br>----- -- -------- ------- ---- ------ - -------- ---- -----<br>--- ------- ---- -- --- -------- --- - third ------ ---- --<br>-------- --- -------- -------- --- -------- ---- -- ----- -<br>-------- ---- --- ---------- --------- -- ------- ------ -<br>--------- ----- -----,189544.59999999404,189544,189027.924,189040.69999998808,189044.589,189561.281,,27,third
screen,html.Screen,0_4_1_0_1_28,2021-11-05T11:44:08.599Z,,,,,,,,,,,,,,,,15,,,,,,,,,,,,,,382.6189999910712,,response,,,7,B,,,,,Space,keypress(Space),,,,lyrical,---- --------- ---------- - --- ------- -- --- ------------<br>----- -- -------- ------- ---- ------ - -------- ---- -----<br>--- ------- ---- -- --- -------- --- - ----- prison ---- --<br>-------- --- -------- -------- --- -------- ---- -- ----- -<br>-------- ---- --- ---------- --------- -- ------- ------ -<br>--------- ----- -----,189944.5,189943.89999999106,189544.615,189544.79999999702,189561.281,189961.217,,28,prison
screen,html.Screen,0_4_1_0_1_29,2021-11-05T11:44:09.207Z,,,,,,,,,,,,,,,,15,,,,,,,,,,,,,,590.7829999999958,,response,,,7,B,,,,,Space,keypress(Space),,,,lyrical,---- --------- ---------- - --- ------- -- --- ------------<br>----- -- -------- ------- ---- ------ - -------- ---- -----<br>--- ------- ---- -- --- -------- --- - ----- ------ stay --<br>-------- --- -------- -------- --- -------- ---- -- ----- -<br>-------- ---- --- ---------- --------- -- ------- ------ -<br>--------- ----- -----,190552.69999998808,190552,189944.552,189944.69999998808,189961.217,190561.185,,29,stay
screen,html.Screen,0_4_1_0_1_30,2021-11-05T11:44:09.663Z,,,,,,,,,,,,,,,,15,,,,,,,,,,,,,,446.6149999970221,,response,,,7,B,,,,,Space,keypress(Space),,,,lyrical,---- --------- ---------- - --- ------- -- --- ------------<br>----- -- -------- ------- ---- ------ - -------- ---- -----<br>--- ------- ---- -- --- -------- --- - ----- ------ ---- to<br>-------- --- -------- -------- --- -------- ---- -- ----- -<br>-------- ---- --- ---------- --------- -- ------- ------ -<br>--------- ----- -----,191008.39999999106,191007.79999999702,190544.52,190552.79999999702,190561.185,191011.092,,30,to
screen,html.Screen,0_4_1_0_1_31,2021-11-05T11:44:10.103Z,,,,,,,,,,,,,,,,15,,,,,,,,,,,,,,436.8079999910551,,response,,,7,B,,,,,Space,keypress(Space),,,,lyrical,---- --------- ---------- - --- ------- -- --- ------------<br>----- -- -------- ------- ---- ------ - -------- ---- -----<br>--- ------- ---- -- --- -------- --- - ----- ------ ---- --<br>maintain --- -------- -------- --- -------- ---- -- ----- -<br>-------- ---- --- ---------- --------- -- ------- ------ -<br>--------- ----- -----,191448.5,191447.89999999106,190994.428,191008.59999999404,191011.092,191461.2,,31,maintain
screen,html.Screen,0_4_1_0_1_32,2021-11-05T11:44:10.519Z,,,,,,,,,,,,,,,,15,,,,,,,,,,,,,,402.5999999970081,,response,,,7,B,,,,,Space,keypress(Space),,,,lyrical,---- --------- ---------- - --- ------- -- --- ------------<br>----- -- -------- ------- ---- ------ - -------- ---- -----<br>--- ------- ---- -- --- -------- --- - ----- ------ ---- --<br>-------- his -------- -------- --- -------- ---- -- ----- -<br>-------- ---- --- ---------- --------- -- ------- ------ -<br>--------- ----- -----,191864.5,191863.79999999702,191444.534,191448.69999998808,191461.2,191877.852,,32,his
screen,html.Screen,0_4_1_0_1_33,2021-11-05T11:44:10.783Z,,,,,,,,,,,,,,,,15,,,,,,,,,,,,,,249.94799999700626,,response,,,7,B,,,,,Space,keypress(Space),,,,lyrical,---- --------- ---------- - --- ------- -- --- ------------<br>----- -- -------- ------- ---- ------ - -------- ---- -----<br>--- ------- ---- -- --- -------- --- - ----- ------ ---- --<br>-------- --- silence. -------- --- -------- ---- -- ----- -<br>-------- ---- --- ---------- --------- -- ------- ------ -<br>--------- ----- -----,192128.39999999106,192127.79999999702,191861.186,191864.59999999404,191877.852,192144.466,,33,silence.
screen,html.Screen,0_4_1_0_1_34,2021-11-05T11:44:11.407Z,,,,,,,,,,,,,,,,15,,,,,,,,,,,,,,607.2339999880933,,response,,,7,B,,,,,Space,keypress(Space),,,,lyrical,---- --------- ---------- - --- ------- -- --- ------------<br>----- -- -------- ------- ---- ------ - -------- ---- -----<br>--- ------- ---- -- --- -------- --- - ----- ------ ---- --<br>-------- --- -------- Anderson --- -------- ---- -- ----- -<br>-------- ---- --- ---------- --------- -- ------- ------ -<br>--------- ----- -----,192752.39999999106,192751.69999998808,192127.801,192128.59999999404,192144.466,192760.934,,34,Anderson
screen,html.Screen,0_4_1_0_1_35,2021-11-05T11:44:11.838Z,,,,,,,,,,,,,,,,15,,,,,,,,,,,,,,422.7659999880707,,response,,,7,B,,,,,Space,keypress(Space),,,,lyrical,---- --------- ---------- - --- ------- -- --- ------------<br>----- -- -------- ------- ---- ------ - -------- ---- -----<br>--- ------- ---- -- --- -------- --- - ----- ------ ---- --<br>-------- --- -------- -------- was -------- ---- -- ----- -<br>-------- ---- --- ---------- --------- -- ------- ------ -<br>--------- ----- -----,193184.29999999702,193183.69999998808,192744.271,192752.59999999404,192760.934,193194.437,,35,was
screen,html.Screen,0_4_1_0_1_36,2021-11-05T11:44:12.295Z,,,,,,,,,,,,,,,,15,,,,,,,,,,,,,,445.2629999880737,,response,,,7,B,,,,,Space,keypress(Space),,,,lyrical,---- --------- ---------- - --- ------- -- --- ------------<br>----- -- -------- ------- ---- ------ - -------- ---- -----<br>--- ------- ---- -- --- -------- --- - ----- ------ ---- --<br>-------- --- -------- -------- --- released ---- -- ----- -<br>-------- ---- --- ---------- --------- -- ------- ------ -<br>--------- ----- -----,193640.29999999702,193639.69999998808,193177.77,193184.39999999106,193194.437,193644.425,,36,released
screen,html.Screen,0_4_1_0_1_37,2021-11-05T11:44:13.039Z,,,,,,,,,,,,,,,,15,,,,,,,,,,,,,,739.2749999880907,,response,,,7,B,,,,,Space,keypress(Space),,,,lyrical,---- --------- ---------- - --- ------- -- --- ------------<br>----- -- -------- ------- ---- ------ - -------- ---- -----<br>--- ------- ---- -- --- -------- --- - ----- ------ ---- --<br>-------- --- -------- -------- --- -------- July -- ----- -<br>-------- ---- --- ---------- --------- -- ------- ------ -<br>--------- ----- -----,194384.29999999702,194383.69999998808,193627.759,193640.5,193644.425,194394.243,,37,July
screen,html.Screen,0_4_1_0_1_38,2021-11-05T11:44:13.446Z,,,,,,,,,,,,,,,,15,,,,,,,,,,,,,,397.3569999940519,,response,,,7,B,,,,,Space,keypress(Space),,,,lyrical,---- --------- ---------- - --- ------- -- --- ------------<br>----- -- -------- ------- ---- ------ - -------- ---- -----<br>--- ------- ---- -- --- -------- --- - ----- ------ ---- --<br>-------- --- -------- -------- --- -------- ---- 20 ----- -<br>-------- ---- --- ---------- --------- -- ------- ------ -<br>--------- ----- -----,194792.19999998808,194791.59999999404,194377.579,194384.5,194394.243,194794.263,,38,20
screen,html.Screen,0_4_1_0_1_39,2021-11-05T11:44:13.998Z,,,,,,,,,,,,,,,,15,,,,,,,,,,,,,,549.3369999940332,,response,,,7,B,,,,,Space,keypress(Space),,,,lyrical,---- --------- ---------- - --- ------- -- --- ------------<br>----- -- -------- ------- ---- ------ - -------- ---- -----<br>--- ------- ---- -- --- -------- --- - ----- ------ ---- --<br>-------- --- -------- -------- --- -------- ---- -- after -<br>-------- ---- --- ---------- --------- -- ------- ------ -<br>--------- ----- -----,195344.29999999702,195343.59999999404,194777.598,194792.39999999106,194794.263,195360.921,,39,after
screen,html.Screen,0_4_1_0_1_40,2021-11-05T11:44:14.567Z,,,,,,,,,,,,,,,,15,,,,,,,,,,,,,,550.6789999940374,,response,,,7,B,,,,,Space,keypress(Space),,,,lyrical,---- --------- ---------- - --- ------- -- --- ------------<br>----- -- -------- ------- ---- ------ - -------- ---- -----<br>--- ------- ---- -- --- -------- --- - ----- ------ ---- --<br>-------- --- -------- -------- --- -------- ---- -- ----- a<br>-------- ---- --- ---------- --------- -- ------- ------ -<br>--------- ----- -----,195912.29999999702,195911.59999999404,195344.256,195344.39999999106,195360.921,195927.524,,40,a
screen,html.Screen,0_4_1_0_1_41,2021-11-05T11:44:15.270Z,,,,,,,,,,,,,,,,15,,,,,,,,,,,,,,688.0759999940346,,response,,,7,B,,,,,Space,keypress(Space),,,,lyrical,---- --------- ---------- - --- ------- -- --- ------------<br>----- -- -------- ------- ---- ------ - -------- ---- -----<br>--- ------- ---- -- --- -------- --- - ----- ------ ---- --<br>-------- --- -------- -------- --- -------- ---- -- ----- -<br>two-week ---- --- ---------- --------- -- ------- ------ -<br>--------- ----- -----,196616.19999998808,196615.59999999404,195910.859,195912.5,195927.524,196627.569,,41,two-week
screen,html.Screen,0_4_1_0_1_42,2021-11-05T11:44:15.806Z,,,,,,,,,,,,,,,,15,,,,,,,,,,,,,,524.030999994051,,response,,,7,B,,,,,Space,keypress(Space),,,,lyrical,---- --------- ---------- - --- ------- -- --- ------------<br>----- -- -------- ------- ---- ------ - -------- ---- -----<br>--- ------- ---- -- --- -------- --- - ----- ------ ---- --<br>-------- --- -------- -------- --- -------- ---- -- ----- -<br>-------- stay --- ---------- --------- -- ------- ------ -<br>--------- ----- -----,197152.19999998808,197151.59999999404,196610.903,196616.29999999702,196627.569,197160.792,,42,stay
screen,html.Screen,0_4_1_0_1_43,2021-11-05T11:44:16.599Z,,,,,,,,,,,,,,,,15,,,,,,,,,,,,,,782.9079999880923,,response,,,7,B,,,,,Space,keypress(Space),,,,lyrical,---- --------- ---------- - --- ------- -- --- ------------<br>----- -- -------- ------- ---- ------ - -------- ---- -----<br>--- ------- ---- -- --- -------- --- - ----- ------ ---- --<br>-------- --- -------- -------- --- -------- ---- -- ----- -<br>-------- ---- for ---------- --------- -- ------- ------ -<br>--------- ----- -----,197944.5,197943.69999998808,197144.127,197152.5,197160.792,197960.752,,43,for
screen,html.Screen,0_4_1_0_1_44,2021-11-05T11:44:16.942Z,,,,,,,,,,,,,,,,15,,,,,,,,,,,,,,326.6479999910516,,response,,,7,B,,,,,Space,keypress(Space),,,,lyrical,---- --------- ---------- - --- ------- -- --- ------------<br>----- -- -------- ------- ---- ------ - -------- ---- -----<br>--- ------- ---- -- --- -------- --- - ----- ------ ---- --<br>-------- --- -------- -------- --- -------- ---- -- ----- -<br>-------- ---- --- previously --------- -- ------- ------ -<br>--------- ----- -----,198288.09999999404,198287.39999999106,197944.087,197944.69999998808,197960.752,198294.155,,44,previously
screen,html.Screen,0_4_1_0_1_45,2021-11-05T11:44:17.382Z,,,,,,,,,,,,,,,,15,,,,,,,,,,,,,,433.24499999106047,,response,,,7,B,,,,,Space,keypress(Space),,,,lyrical,---- --------- ---------- - --- ------- -- --- ------------<br>----- -- -------- ------- ---- ------ - -------- ---- -----<br>--- ------- ---- -- --- -------- --- - ----- ------ ---- --<br>-------- --- -------- -------- --- -------- ---- -- ----- -<br>-------- ---- --- ---------- declining -- ------- ------ -<br>--------- ----- -----,198728.09999999404,198727.39999999106,198277.489,198288.29999999702,198294.155,198744.088,,45,declining
screen,html.Screen,0_4_1_0_1_46,2021-11-05T11:44:17.822Z,,,,,,,,,,,,,,,,15,,,,,,,,,,,,,,423.4120000000112,,response,,,7,B,,,,,Space,keypress(Space),,,,lyrical,---- --------- ---------- - --- ------- -- --- ------------<br>----- -- -------- ------- ---- ------ - -------- ---- -----<br>--- ------- ---- -- --- -------- --- - ----- ------ ---- --<br>-------- --- -------- -------- --- -------- ---- -- ----- -<br>-------- ---- --- ---------- --------- to ------- ------ -<br>--------- ----- -----,199168.09999999404,199167.5,198727.423,198728.19999998808,198744.088,199177.326,,46,to
screen,html.Screen,0_4_1_0_1_47,2021-11-05T11:44:18.262Z,,,,,,,,,,,,,,,,15,,,,,,,,,,,,,,430.0739999910584,,response,,,7,B,,,,,Space,keypress(Space),,,,lyrical,---- --------- ---------- - --- ------- -- --- ------------<br>----- -- -------- ------- ---- ------ - -------- ---- -----<br>--- ------- ---- -- --- -------- --- - ----- ------ ---- --<br>-------- --- -------- -------- --- -------- ---- -- ----- -<br>-------- ---- --- ---------- --------- -- testify ------ -<br>--------- ----- -----,199608.09999999404,199607.39999999106,199160.662,199168.19999998808,199177.326,199610.685,,47,testify
screen,html.Screen,0_4_1_0_1_48,2021-11-05T11:44:18.710Z,,,,,,,,,,,,,,,,15,,,,,,,,,,,,,,444.71499999106163,,response,,,7,B,,,,,Space,keypress(Space),,,,lyrical,---- --------- ---------- - --- ------- -- --- ------------<br>----- -- -------- ------- ---- ------ - -------- ---- -----<br>--- ------- ---- -- --- -------- --- - ----- ------ ---- --<br>-------- --- -------- -------- --- -------- ---- -- ----- -<br>-------- ---- --- ---------- --------- -- ------- before -<br>--------- ----- -----,200056,200055.39999999106,199594.02,199608.19999998808,199610.685,200060.66,,48,before
screen,html.Screen,0_4_1_0_1_49,2021-11-05T11:44:19.190Z,,,,,,,,,,,,,,,,15,,,,,,,,,,,,,,474.7399999910558,,response,,,7,B,,,,,Space,keypress(Space),,,,lyrical,---- --------- ---------- - --- ------- -- --- ------------<br>----- -- -------- ------- ---- ------ - -------- ---- -----<br>--- ------- ---- -- --- -------- --- - ----- ------ ---- --<br>-------- --- -------- -------- --- -------- ---- -- ----- -<br>-------- ---- --- ---------- --------- -- ------- ------ a<br>--------- ----- -----,200535.89999999106,200535.39999999106,200043.995,200056.09999999404,200060.66,200544.04,,49,a
screen,html.Screen,0_4_1_0_1_50,2021-11-05T11:44:19.614Z,,,,,,,,,,,,,,,,15,,,,,,,,,,,,,,415.2599999970116,,response,,,7,B,,,,,Space,keypress(Space),,,,lyrical,---- --------- ---------- - --- ------- -- --- ------------<br>----- -- -------- ------- ---- ------ - -------- ---- -----<br>--- ------- ---- -- --- -------- --- - ----- ------ ---- --<br>-------- --- -------- -------- --- -------- ---- -- ----- -<br>-------- ---- --- ---------- --------- -- ------- ------ -<br>different ----- -----,200959.89999999106,200959.29999999702,200527.374,200536.19999998808,200544.04,200977.288,,50,different
screen,html.Screen,0_4_1_0_1_51,2021-11-05T11:44:20.222Z,,,,,,,,,,,,,,,,15,,,,,,,,,,,,,,590.0119999970193,,response,,,7,B,,,,,Space,keypress(Space),,,,lyrical,---- --------- ---------- - --- ------- -- --- ------------<br>----- -- -------- ------- ---- ------ - -------- ---- -----<br>--- ------- ---- -- --- -------- --- - ----- ------ ---- --<br>-------- --- -------- -------- --- -------- ---- -- ----- -<br>-------- ---- --- ---------- --------- -- ------- ------ -<br>--------- grand -----,201567.89999999106,201567.29999999702,200960.623,200960.19999998808,200977.288,201577.185,,51,grand
screen,html.Screen,0_4_1_0_1_52,2021-11-05T11:44:20.958Z,,,,,,,,,,,,,,,,15,,,,,,,,,,,,,,726.0149999880814,,response,,,7,B,,,,,Space,keypress(Space),,,,lyrical,---- --------- ---------- - --- ------- -- --- ------------<br>----- -- -------- ------- ---- ------ - -------- ---- -----<br>--- ------- ---- -- --- -------- --- - ----- ------ ---- --<br>-------- --- -------- -------- --- -------- ---- -- ----- -<br>-------- ---- --- ---------- --------- -- ------- ------ -<br>--------- ----- jury.,202303.89999999106,202303.19999998808,201560.521,201568.09999999404,201577.185,202310.618,,52,jury.
Item 7,flow.Loop,0_4_1_0_1,2021-11-05T11:44:20.958Z,,,,,,,,,,,,,,,,,,,,,,,,,,,,,,26974.587999988085,,completion,,,,,,,,,,,,,,,,202304.19999998808,202303.19999998808,175311.947,175313.29999999702,175328.612,202310.618,,,
