sender,sender_type,sender_id,timestamp,meta,,Blues,Classical,Country,Dance,Electronic,Folk,Gospel,Hip-Hop,Jazz,Latin,Musical/Film,New-age,Pop,Provo_ID,R&B,Rap,Reggae,Religious,Rock,Soul,Swing,Traditional,age,artist_name,correct,correctResponse,distraction,duration,education,ended_on,familiarity,gender,item,list,music_frequency,offensiveness,pleasantness,preference,response,response_action,snippet_file,song_name,song_rating,sound,text,time_commit,time_end,time_render,time_run,time_show,time_switch,url,word,word_ID
Instructions,html.Page,0_0,2021-11-12T13:20:41.169Z,"{""labjs_version"":""20.2.3"",""labjs_build"":{""flavor"":""production"",""commit"":""7ea907d66ca8aeef8054924ca5d82ffbe11e34e5""},""location"":""https://run.pavlovia.org/mvasilev/lab_music_d/"",""userAgent"":""Mozilla/5.0 (Windows NT 6.1; Win64; x64) AppleWebKit/537.36 (KHTML, like Gecko) Chrome/95.0.4638.69 Safari/537.36"",""platform"":""Win32"",""language"":""en-US"",""locale"":""en-US"",""timeZone"":""Europe/London"",""timezoneOffset"":0,""screen_width"":1920,""screen_height"":1080,""scroll_width"":1920,""scroll_height"":959,""window_innerWidth"":1920,""window_innerHeight"":1007,""devicePixelRatio"":1}",,,,,,,,,,,,,,,,,,,,,,,,,,,,,26160.09700002384,,form submission,,,,,,,,,,,,,,,,33061.5,33060.60000002384,6867.173,6884,6900.503,33066.24,{},,
Headphones,html.Page,0_1,2021-11-12T13:20:44.321Z,,,,,,,,,,,,,,,,,,,,,,,,,,,,,,3147.160000035765,,form submission,,,,,,,,,,,,,,,,36213.69999998808,36213.40000003576,33049.535,33061.90000003576,33066.24,36215.466,,,
Holding screen,html.Screen,0_2_0_0,2021-11-12T13:20:54.309Z,,,,,,,,,,,,,,,,,,,,,,,,,,,,,,9999.362999999998,,timeout,,,,,,,,,,,,,,,,46202.19999998808,46198.164,36198.801,36213.90000003576,36215.466,46214.829,,,
screen,html.Screen,0_2_0_1_0,2021-11-12T13:20:55.439Z,,,,,,,,,,,,,,,,53,,,,,,,,,,,,,,1115.771000023844,,response,,,99,,,,,,Space,keypress(Space),,,,,When -- ----- -- ------ - ------- --- ----------<br>------------- ------ ------ ---- ---- ------- ----- -- ----<br>-------- ------- -- ---------- --- - --- ----- ----- ----<br>---- --- --- ----- --- ---- ---- ------- ----- ---- -------<br>--- --- -- ----- -- --- ---- -- --- ---- -- ------ ------<br>--- ----- -- ----,47331.69999998808,47330.60000002384,46198.164,46202.5,46214.829,47348.087,,0,When
screen,html.Screen,0_2_0_1_1,2021-11-12T13:20:55.982Z,,,,,,,,,,,,,,,,53,,,,,,,,,,,,,,526.3130000357633,,response,,,99,,,,,,Space,keypress(Space),,,,,---- it ----- -- ------ - ------- --- ----------<br>------------- ------ ------ ---- ---- ------- ----- -- ----<br>-------- ------- -- ---------- --- - --- ----- ----- ----<br>---- --- --- ----- --- ---- ---- ------- ----- ---- -------<br>--- --- -- ----- -- --- ---- -- --- ---- -- ------ ------<br>--- ----- -- ----,47875.10000002384,47874.40000003576,47331.422,47331.90000003576,47348.087,47881.434,,1,it
screen,html.Screen,0_2_0_1_2,2021-11-12T13:20:56.630Z,,,,,,,,,,,,,,,,53,,,,,,,,,,,,,,640.9660000357617,,response,,,99,,,,,,Space,keypress(Space),,,,,---- -- comes -- ------ - ------- --- ----------<br>------------- ------ ------ ---- ---- ------- ----- -- ----<br>-------- ------- -- ---------- --- - --- ----- ----- ----<br>---- --- --- ----- --- ---- ---- ------- ----- ---- -------<br>--- --- -- ----- -- --- ---- -- --- ---- -- ------ ------<br>--- ----- -- ----,48523.10000002384,48522.40000003576,47864.769,47875.19999998808,47881.434,48531.377,,2,comes
screen,html.Screen,0_2_0_1_3,2021-11-12T13:20:57.126Z,,,,,,,,,,,,,,,,53,,,,,,,,,,,,,,486.9230000119205,,response,,,99,,,,,,Space,keypress(Space),,,,,---- -- ----- to ------ - ------- --- ----------<br>------------- ------ ------ ---- ---- ------- ----- -- ----<br>-------- ------- -- ---------- --- - --- ----- ----- ----<br>---- --- --- ----- --- ---- ---- ------- ----- ---- -------<br>--- --- -- ----- -- --- ---- -- --- ---- -- ------ ------<br>--- ----- -- ----,49019,49018.30000001192,48514.712,48523.19999998808,48531.377,49031.34,,3,to
screen,html.Screen,0_2_0_1_4,2021-11-12T13:20:57.710Z,,,,,,,,,,,,,,,,53,,,,,,,,,,,,,,570.9600000119244,,response,,,99,,,,,,Space,keypress(Space),,,,,---- -- ----- -- having - ------- --- ----------<br>------------- ------ ------ ---- ---- ------- ----- -- ----<br>-------- ------- -- ---------- --- - --- ----- ----- ----<br>---- --- --- ----- --- ---- ---- ------- ----- ---- -------<br>--- --- -- ----- -- --- ---- -- --- ---- -- ------ ------<br>--- ----- -- ----,49603.19999998808,49602.30000001192,49014.675,49019.40000003576,49031.34,49614.625,,4,having
screen,html.Screen,0_2_0_1_5,2021-11-12T13:20:58.238Z,,,,,,,,,,,,,,,,53,,,,,,,,,,,,,,515.6750000119209,,response,,,99,,,,,,Space,keypress(Space),,,,,---- -- ----- -- ------ a ------- --- ----------<br>------------- ------ ------ ---- ---- ------- ----- -- ----<br>-------- ------- -- ---------- --- - --- ----- ----- ----<br>---- --- --- ----- --- ---- ---- ------- ----- ---- -------<br>--- --- -- ----- -- --- ---- -- --- ---- -- ------ ------<br>--- ----- -- ----,50131,50130.30000001192,49597.96,49603.40000003576,49614.625,50147.99,,5,a
screen,html.Screen,0_2_0_1_6,2021-11-12T13:20:58.838Z,,,,,,,,,,,,,,,,53,,,,,,,,,,,,,,582.2099999880811,,response,,,99,,,,,,Space,keypress(Space),,,,,---- -- ----- -- ------ - lasting --- ----------<br>------------- ------ ------ ---- ---- ------- ----- -- ----<br>-------- ------- -- ---------- --- - --- ----- ----- ----<br>---- --- --- ----- --- ---- ---- ------- ----- ---- -------<br>--- --- -- ----- -- --- ---- -- --- ---- -- ------ ------<br>--- ----- -- ----,50730.90000003576,50730.19999998808,50131.324,50131.19999998808,50147.99,50747.886,,6,lasting
screen,html.Screen,0_2_0_1_7,2021-11-12T13:20:59.366Z,,,,,,,,,,,,,,,,53,,,,,,,,,,,,,,510.21400002384325,,response,,,99,,,,,,Space,keypress(Space),,,,,---- -- ----- -- ------ - ------- and ----------<br>------------- ------ ------ ---- ---- ------- ----- -- ----<br>-------- ------- -- ---------- --- - --- ----- ----- ----<br>---- --- --- ----- --- ---- ---- ------- ----- ---- -------<br>--- --- -- ----- -- --- ---- -- --- ---- -- ------ ------<br>--- ----- -- ----,51258.90000003576,51258.10000002384,50731.221,50731.19999998808,50747.886,51264.592,,7,and
screen,html.Screen,0_2_0_1_8,2021-11-12T13:20:59.838Z,,,,,,,,,,,,,,,,53,,,,,,,,,,,,,,465.50800002384494,,response,,,99,,,,,,Space,keypress(Space),,,,,---- -- ----- -- ------ - ------- --- fulfilling<br>------------- ------ ------ ---- ---- ------- ----- -- ----<br>-------- ------- -- ---------- --- - --- ----- ----- ----<br>---- --- --- ----- --- ---- ---- ------- ----- ---- -------<br>--- --- -- ----- -- --- ---- -- --- ---- -- ------ ------<br>--- ----- -- ----,51730.90000003576,51730.10000002384,51247.926,51259,51264.592,51747.851,,8,fulfilling
screen,html.Screen,0_2_0_1_9,2021-11-12T13:21:00.414Z,,,,,,,,,,,,,,,,53,,,,,,,,,,,,,,558.2490000238395,,response,,,99,,,,,,Space,keypress(Space),,,,,"---- -- ----- -- ------ - ------- --- ----------<br>relationship, ------ ------ ---- ---- ------- ----- -- ----<br>-------- ------- -- ---------- --- - --- ----- ----- ----<br>---- --- --- ----- --- ---- ---- ------- ----- ---- -------<br>--- --- -- ----- -- --- ---- -- --- ---- -- ------ ------<br>--- ----- -- ----",52306.80000001192,52306.10000002384,51731.186,51731.19999998808,51747.851,52314.39,,9,"relationship,"
screen,html.Screen,0_2_0_1_10,2021-11-12T13:21:00.934Z,,,,,,,,,,,,,,,,53,,,,,,,,,,,,,,511.6100000000006,,response,,,99,,,,,,Space,keypress(Space),,,,,---- -- ----- -- ------ - ------- --- ----------<br>------------- common ------ ---- ---- ------- ----- -- ----<br>-------- ------- -- ---------- --- - --- ----- ----- ----<br>---- --- --- ----- --- ---- ---- ------- ----- ---- -------<br>--- --- -- ----- -- --- ---- -- --- ---- -- ------ ------<br>--- ----- -- ----,52826.80000001192,52826,52297.726,52307,52314.39,52831.149,,10,common
screen,html.Screen,0_2_0_1_11,2021-11-12T13:21:01.518Z,,,,,,,,,,,,,,,,53,,,,,,,,,,,,,,578.9510000238442,,response,,,99,,,,,,Space,keypress(Space),,,,,---- -- ----- -- ------ - ------- --- ----------<br>------------- ------ wisdom ---- ---- ------- ----- -- ----<br>-------- ------- -- ---------- --- - --- ----- ----- ----<br>---- --- --- ----- --- ---- ---- ------- ----- ---- -------<br>--- --- -- ----- -- --- ---- -- --- ---- -- ------ ------<br>--- ----- -- ----,53410.69999998808,53410.10000002384,52814.483,52827,52831.149,53414.471,,11,wisdom
screen,html.Screen,0_2_0_1_12,2021-11-12T13:21:02.406Z,,,,,,,,,,,,,,,,53,,,,,,,,,,,,,,883.6290000238441,,response,,,99,,,,,,Space,keypress(Space),,,,,---- -- ----- -- ------ - ------- --- ----------<br>------------- ------ ------ says ---- ------- ----- -- ----<br>-------- ------- -- ---------- --- - --- ----- ----- ----<br>---- --- --- ----- --- ---- ---- ------- ----- ---- -------<br>--- --- -- ----- -- --- ---- -- --- ---- -- ------ ------<br>--- ----- -- ----,54298.80000001192,54298.10000002384,53397.805,53410.90000003576,53414.471,54314.35,,12,says
screen,html.Screen,0_2_0_1_13,2021-11-12T13:21:02.878Z,,,,,,,,,,,,,,,,53,,,,,,,,,,,,,,455.65000000000146,,response,,,99,,,,,,Space,keypress(Space),,,,,---- -- ----- -- ------ - ------- --- ----------<br>------------- ------ ------ ---- that ------- ----- -- ----<br>-------- ------- -- ---------- --- - --- ----- ----- ----<br>---- --- --- ----- --- ---- ---- ------- ----- ---- -------<br>--- --- -- ----- -- --- ---- -- --- ---- -- ------ ------<br>--- ----- -- ----,54770.60000002384,54770,54297.685,54299,54314.35,54781.012,,13,that
screen,html.Screen,0_2_0_1_14,2021-11-12T13:21:03.382Z,,,,,,,,,,,,,,,,53,,,,,,,,,,,,,,492.88800003576034,,response,,,99,,,,,,Space,keypress(Space),,,,,---- -- ----- -- ------ - ------- --- ----------<br>------------- ------ ------ ---- ---- feeling ----- -- ----<br>-------- ------- -- ---------- --- - --- ----- ----- ----<br>---- --- --- ----- --- ---- ---- ------- ----- ---- -------<br>--- --- -- ----- -- --- ---- -- --- ---- -- ------ ------<br>--- ----- -- ----,55274.5,55273.90000003576,54764.347,54770.80000001192,54781.012,55280.893,,14,feeling
screen,html.Screen,0_2_0_1_15,2021-11-12T13:21:04.062Z,,,,,,,,,,,,,,,,53,,,,,,,,,,,,,,673.0070000357664,,response,,,99,,,,,,Space,keypress(Space),,,,,---- -- ----- -- ------ - ------- --- ----------<br>------------- ------ ------ ---- ---- ------- close -- ----<br>-------- ------- -- ---------- --- - --- ----- ----- ----<br>---- --- --- ----- --- ---- ---- ------- ----- ---- -------<br>--- --- -- ----- -- --- ---- -- --- ---- -- ------ ------<br>--- ----- -- ----,55954.5,55953.90000003576,55264.229,55274.69999998808,55280.893,55964.312,,15,close
screen,html.Screen,0_2_0_1_16,2021-11-12T13:21:04.454Z,,,,,,,,,,,,,,,,53,,,,,,,,,,,,,,381.48800001192285,,response,,,99,,,,,,Space,keypress(Space),,,,,---- -- ----- -- ------ - ------- --- ----------<br>------------- ------ ------ ---- ---- ------- ----- to ----<br>-------- ------- -- ---------- --- - --- ----- ----- ----<br>---- --- --- ----- --- ---- ---- ------- ----- ---- -------<br>--- --- -- ----- -- --- ---- -- --- ---- -- ------ ------<br>--- ----- -- ----,56346.40000003576,56345.80000001192,55947.646,55954.69999998808,55964.312,56347.588,,16,to
screen,html.Screen,0_2_0_1_17,2021-11-12T13:21:04.982Z,,,,,,,,,,,,,,,,53,,,,,,,,,,,,,,526.3120000357594,,response,,,99,,,,,,Space,keypress(Space),,,,,---- -- ----- -- ------ - ------- --- ----------<br>------------- ------ ------ ---- ---- ------- ----- -- your<br>-------- ------- -- ---------- --- - --- ----- ----- ----<br>---- --- --- ----- --- ---- ---- ------- ----- ---- -------<br>--- --- -- ----- -- --- ---- -- --- ---- -- ------ ------<br>--- ----- -- ----,56874.5,56873.90000003576,56330.923,56346.60000002384,56347.588,56880.872,,17,your
screen,html.Screen,0_2_0_1_18,2021-11-12T13:21:05.494Z,,,,,,,,,,,,,,,,53,,,,,,,,,,,,,,505.127999999997,,response,,,99,,,,,,Space,keypress(Space),,,,,---- -- ----- -- ------ - ------- --- ----------<br>------------- ------ ------ ---- ---- ------- ----- -- ----<br>romantic ------- -- ---------- --- - --- ----- ----- ----<br>---- --- --- ----- --- ---- ---- ------- ----- ---- -------<br>--- --- -- ----- -- --- ---- -- --- ---- -- ------ ------<br>--- ----- -- ----,57386.60000002384,57386,56864.207,56874.69999998808,56880.872,57397.436,,18,romantic
screen,html.Screen,0_2_0_1_19,2021-11-12T13:21:06.053Z,,,,,,,,,,,,,,,,53,,,,,,,,,,,,,,548.3640000119194,,response,,,99,,,,,,Space,keypress(Space),,,,,---- -- ----- -- ------ - ------- --- ----------<br>------------- ------ ------ ---- ---- ------- ----- -- ----<br>-------- partner -- ---------- --- - --- ----- ----- ----<br>---- --- --- ----- --- ---- ---- ------- ----- ---- -------<br>--- --- -- ----- -- --- ---- -- --- ---- -- ------ ------<br>--- ----- -- ----,57946.30000001192,57945.80000001192,57380.772,57386.80000001192,57397.436,57947.521,,19,partner
screen,html.Screen,0_2_0_1_20,2021-11-12T13:21:06.533Z,,,,,,,,,,,,,,,,53,,,,,,,,,,,,,,478.17899998807843,,response,,,99,,,,,,Space,keypress(Space),,,,,---- -- ----- -- ------ - ------- --- ----------<br>------------- ------ ------ ---- ---- ------- ----- -- ----<br>-------- ------- is ---------- --- - --- ----- ----- ----<br>---- --- --- ----- --- ---- ---- ------- ----- ---- -------<br>--- --- -- ----- -- --- ---- -- --- ---- -- ------ ------<br>--- ----- -- ----,58426.30000001192,58425.69999998808,57930.855,57946.5,57947.521,58430.774,,20,is
screen,html.Screen,0_2_0_1_21,2021-11-12T13:21:07.733Z,,,,,,,,,,,,,,,,53,,,,,,,,,,,,,,1194.9259999880815,,response,,,99,,,,,,Space,keypress(Space),,,,,---- -- ----- -- ------ - ------- --- ----------<br>------------- ------ ------ ---- ---- ------- ----- -- ----<br>-------- ------- -- paramount. --- - --- ----- ----- ----<br>---- --- --- ----- --- ---- ---- ------- ----- ---- -------<br>--- --- -- ----- -- --- ---- -- --- ---- -- ------ ------<br>--- ----- -- ----,59626.30000001192,59625.69999998808,58414.109,58426.5,58430.774,59630.648,,21,paramount.
screen,html.Screen,0_2_0_1_22,2021-11-12T13:21:08.185Z,,,,,,,,,,,,,,,,53,,,,,,,,,,,,,,442.9520000238408,,response,,,99,,,,,,Space,keypress(Space),,,,,---- -- ----- -- ------ - ------- --- ----------<br>------------- ------ ------ ---- ---- ------- ----- -- ----<br>-------- ------- -- ---------- But - --- ----- ----- ----<br>---- --- --- ----- --- ---- ---- ------- ----- ---- -------<br>--- --- -- ----- -- --- ---- -- --- ---- -- ------ ------<br>--- ----- -- ----,60074.19999998808,60073.60000002384,59613.983,59626.69999998808,59630.648,60080.639,,22,But
screen,html.Screen,0_2_0_1_23,2021-11-12T13:21:09.601Z,,,,,,,,,,,,,,,,53,,,,,,,,,,,,,,1408.961000023839,,response,,,99,,,,,,Space,keypress(Space),,,,,---- -- ----- -- ------ - ------- --- ----------<br>------------- ------ ------ ---- ---- ------- ----- -- ----<br>-------- ------- -- ---------- --- a --- ----- ----- ----<br>---- --- --- ----- --- ---- ---- ------- ----- ---- -------<br>--- --- -- ----- -- --- ---- -- --- ---- -- ------ ------<br>--- ----- -- ----,61490.19999998808,61489.60000002384,60063.974,60074.40000003576,60080.639,61497.159,,23,a
screen,html.Screen,0_2_0_1_24,2021-11-12T13:21:10.041Z,,,,,,,,,,,,,,,,53,,,,,,,,,,,,,,432.34100000000035,,response,,,99,,,,,,Space,keypress(Space),,,,,---- -- ----- -- ------ - ------- --- ----------<br>------------- ------ ------ ---- ---- ------- ----- -- ----<br>-------- ------- -- ---------- --- - new ----- ----- ----<br>---- --- --- ----- --- ---- ---- ------- ----- ---- -------<br>--- --- -- ----- -- --- ---- -- --- ---- -- ------ ------<br>--- ----- -- ----,61930.19999998808,61929.5,61480.494,61490.40000003576,61497.159,61947.278,,24,new
screen,html.Screen,0_2_0_1_25,2021-11-12T13:21:10.561Z,,,,,,,,,,,,,,,,53,,,,,,,,,,,,,,502.12200003576436,,response,,,99,,,,,,Space,keypress(Space),,,,,---- -- ----- -- ------ - ------- --- ----------<br>------------- ------ ------ ---- ---- ------- ----- -- ----<br>-------- ------- -- ---------- --- - --- study ----- ----<br>---- --- --- ----- --- ---- ---- ------- ----- ---- -------<br>--- --- -- ----- -- --- ---- -- --- ---- -- ------ ------<br>--- ----- -- ----,62450,62449.40000003576,61930.612,61930.40000003576,61947.278,62463.866,,25,study
screen,html.Screen,0_2_0_1_26,2021-11-12T13:21:11.033Z,,,,,,,,,,,,,,,,53,,,,,,,,,,,,,,457.534000035761,,response,,,99,,,,,,Space,keypress(Space),,,,,---- -- ----- -- ------ - ------- --- ----------<br>------------- ------ ------ ---- ---- ------- ----- -- ----<br>-------- ------- -- ---------- --- - --- ----- finds ----<br>---- --- --- ----- --- ---- ---- ------- ----- ---- -------<br>--- --- -- ----- -- --- ---- -- --- ---- -- ------ ------<br>--- ----- -- ----,62922.10000002384,62921.40000003576,62447.201,62450.19999998808,62463.866,62930.498,,26,finds
screen,html.Screen,0_2_0_1_27,2021-11-12T13:21:11.745Z,,,,,,,,,,,,,,,,53,,,,,,,,,,,,,,702.9020000357632,,response,,,99,,,,,,Space,keypress(Space),,,,,---- -- ----- -- ------ - ------- --- ----------<br>------------- ------ ------ ---- ---- ------- ----- -- ----<br>-------- ------- -- ---------- --- - --- ----- ----- that<br>---- --- --- ----- --- ---- ---- ------- ----- ---- -------<br>--- --- -- ----- -- --- ---- -- --- ---- -- ------ ------<br>--- ----- -- ----,63633.90000003576,63633.40000003576,62913.833,62922.19999998808,62930.498,63647.126,,27,that
screen,html.Screen,0_2_0_1_28,2021-11-12T13:21:12.273Z,,,,,,,,,,,,,,,,53,,,,,,,,,,,,,,514.2740000357662,,response,,,99,,,,,,Space,keypress(Space),,,,,---- -- ----- -- ------ - ------- --- ----------<br>------------- ------ ------ ---- ---- ------- ----- -- ----<br>-------- ------- -- ---------- --- - --- ----- ----- ----<br>it's --- --- ----- --- ---- ---- ------- ----- ---- -------<br>--- --- -- ----- -- --- ---- -- --- ---- -- ------ ------<br>--- ----- -- ----,64162,64161.40000003576,63630.461,63634.10000002384,63647.126,64163.684,,28,it's
screen,html.Screen,0_2_0_1_29,2021-11-12T13:21:12.737Z,,,,,,,,,,,,,,,,53,,,,,,,,,,,,,,461.6160000119198,,response,,,99,,,,,,Space,keypress(Space),,,,,---- -- ----- -- ------ - ------- --- ----------<br>------------- ------ ------ ---- ---- ------- ----- -- ----<br>-------- ------- -- ---------- --- - --- ----- ----- ----<br>---- not --- ----- --- ---- ---- ------- ----- ---- -------<br>--- --- -- ----- -- --- ---- -- --- ---- -- ------ ------<br>--- ----- -- ----,64626,64625.30000001192,64147.02,64162.10000002384,64163.684,64630.405,,29,not
screen,html.Screen,0_2_0_1_30,2021-11-12T13:21:13.657Z,,,,,,,,,,,,,,,,53,,,,,,,,,,,,,,914.995000035764,,response,,,99,,,,,,Space,keypress(Space),,,,,---- -- ----- -- ------ - ------- --- ----------<br>------------- ------ ------ ---- ---- ------- ----- -- ----<br>-------- ------- -- ---------- --- - --- ----- ----- ----<br>---- --- how ----- --- ---- ---- ------- ----- ---- -------<br>--- --- -- ----- -- --- ---- -- --- ---- -- ------ ------<br>--- ----- -- ----,65545.90000003576,65545.40000003576,64613.74,64626.10000002384,64630.405,65546.79,,30,how
screen,html.Screen,0_2_0_1_31,2021-11-12T13:21:14.752Z,,,,,,,,,,,,,,,,53,,,,,,,,,,,,,,1094.5100000119273,,response,,,99,,,,,,Space,keypress(Space),,,,,---- -- ----- -- ------ - ------- --- ----------<br>------------- ------ ------ ---- ---- ------- ----- -- ----<br>-------- ------- -- ---------- --- - --- ----- ----- ----<br>---- --- --- close --- ---- ---- ------- ----- ---- -------<br>--- --- -- ----- -- --- ---- -- --- ---- -- ------ ------<br>--- ----- -- ----,66641.90000003576,66641.30000001192,65530.127,65546.10000002384,65546.79,66647.072,,31,close
screen,html.Screen,0_2_0_1_32,2021-11-12T13:21:15.328Z,,,,,,,,,,,,,,,,53,,,,,,,,,,,,,,570.127999988079,,response,,,99,,,,,,Space,keypress(Space),,,,,---- -- ----- -- ------ - ------- --- ----------<br>------------- ------ ------ ---- ---- ------- ----- -- ----<br>-------- ------- -- ---------- --- - --- ----- ----- ----<br>---- --- --- ----- you ---- ---- ------- ----- ---- -------<br>--- --- -- ----- -- --- ---- -- --- ---- -- ------ ------<br>--- ----- -- ----,67217.90000003576,67217.19999998808,66630.405,66642,66647.072,67230.222,,32,you
screen,html.Screen,0_2_0_1_33,2021-11-12T13:21:15.873Z,,,,,,,,,,,,,,,,53,,,,,,,,,,,,,,531.1780000357685,,response,,,99,,,,,,Space,keypress(Space),,,,,---- -- ----- -- ------ - ------- --- ----------<br>------------- ------ ------ ---- ---- ------- ----- -- ----<br>-------- ------- -- ---------- --- - --- ----- ----- ----<br>---- --- --- ----- --- feel ---- ------- ----- ---- -------<br>--- --- -- ----- -- --- ---- -- --- ---- -- ------ ------<br>--- ----- -- ----,67762.10000002384,67761.40000003576,67213.557,67218.10000002384,67230.222,67763.516,,33,feel
screen,html.Screen,0_2_0_1_34,2021-11-12T13:21:16.472Z,,,,,,,,,,,,,,,,53,,,,,,,,,,,,,,597.5840000238386,,response,,,99,,,,,,Space,keypress(Space),,,,,---- -- ----- -- ------ - ------- --- ----------<br>------------- ------ ------ ---- ---- ------- ----- -- ----<br>-------- ------- -- ---------- --- - --- ----- ----- ----<br>---- --- --- ----- --- ---- that ------- ----- ---- -------<br>--- --- -- ----- -- --- ---- -- --- ---- -- ------ ------<br>--- ----- -- ----,68361.80000001192,68361.10000002384,67746.851,67762.19999998808,67763.516,68363.552,,34,that
screen,html.Screen,0_2_0_1_35,2021-11-12T13:21:16.968Z,,,,,,,,,,,,,,,,53,,,,,,,,,,,,,,493.5480000238458,,response,,,99,,,,,,Space,keypress(Space),,,,,---- -- ----- -- ------ - ------- --- ----------<br>------------- ------ ------ ---- ---- ------- ----- -- ----<br>-------- ------- -- ---------- --- - --- ----- ----- ----<br>---- --- --- ----- --- ---- ---- matters ----- ---- -------<br>--- --- -- ----- -- --- ---- -- --- ---- -- ------ ------<br>--- ----- -- ----,68857.90000003576,68857.10000002384,68346.886,68362,68363.552,68863.444,,35,matters
screen,html.Screen,0_2_0_1_36,2021-11-12T13:21:17.720Z,,,,,,,,,,,,,,,,53,,,,,,,,,,,,,,745.5559999999969,,response,,,99,,,,,,Space,keypress(Space),,,,,"---- -- ----- -- ------ - ------- --- ----------<br>------------- ------ ------ ---- ---- ------- ----- -- ----<br>-------- ------- -- ---------- --- - --- ----- ----- ----<br>---- --- --- ----- --- ---- ---- ------- most, ---- -------<br>--- --- -- ----- -- --- ---- -- --- ---- -- ------ ------<br>--- ----- -- ----",69609.80000001192,69609,68846.779,68858.10000002384,68863.444,69613.402,,36,"most,"
screen,html.Screen,0_2_0_1_37,2021-11-12T13:21:18.224Z,,,,,,,,,,,,,,,,53,,,,,,,,,,,,,,499.59799999999814,,response,,,99,,,,,,Space,keypress(Space),,,,,---- -- ----- -- ------ - ------- --- ----------<br>------------- ------ ------ ---- ---- ------- ----- -- ----<br>-------- ------- -- ---------- --- - --- ----- ----- ----<br>---- --- --- ----- --- ---- ---- ------- ----- it's -------<br>--- --- -- ----- -- --- ---- -- --- ---- -- ------ ------<br>--- ----- -- ----,70113.60000002384,70113,69596.737,69609.90000003576,69613.402,70129.962,,37,it's
screen,html.Screen,0_2_0_1_38,2021-11-12T13:21:18.696Z,,,,,,,,,,,,,,,,53,,,,,,,,,,,,,,455.03800000000047,,response,,,99,,,,,,Space,keypress(Space),,,,,---- -- ----- -- ------ - ------- --- ----------<br>------------- ------ ------ ---- ---- ------- ----- -- ----<br>-------- ------- -- ---------- --- - --- ----- ----- ----<br>---- --- --- ----- --- ---- ---- ------- ----- ---- whether<br>--- --- -- ----- -- --- ---- -- --- ---- -- ------ ------<br>--- ----- -- ----,70585.60000002384,70585,70113.298,70113.80000001192,70129.962,70596.702,,38,whether
screen,html.Screen,0_2_0_1_39,2021-11-12T13:21:19.296Z,,,,,,,,,,,,,,,,53,,,,,,,,,,,,,,588.2979999999952,,response,,,99,,,,,,Space,keypress(Space),,,,,---- -- ----- -- ------ - ------- --- ----------<br>------------- ------ ------ ---- ---- ------- ----- -- ----<br>-------- ------- -- ---------- --- - --- ----- ----- ----<br>---- --- --- ----- --- ---- ---- ------- ----- ---- -------<br>you --- -- ----- -- --- ---- -- --- ---- -- ------ ------<br>--- ----- -- ----,71185.5,71185,70580.036,70585.69999998808,70596.702,71196.645,,39,you
screen,html.Screen,0_2_0_1_40,2021-11-12T13:21:19.944Z,,,,,,,,,,,,,,,,53,,,,,,,,,,,,,,636.2550000357587,,response,,,99,,,,,,Space,keypress(Space),,,,,---- -- ----- -- ------ - ------- --- ----------<br>------------- ------ ------ ---- ---- ------- ----- -- ----<br>-------- ------- -- ---------- --- - --- ----- ----- ----<br>---- --- --- ----- --- ---- ---- ------- ----- ---- -------<br>--- are -- ----- -- --- ---- -- --- ---- -- ------ ------<br>--- ----- -- ----,71833.5,71832.90000003576,71179.98,71185.69999998808,71196.645,71846.509,,40,are
screen,html.Screen,0_2_0_1_41,2021-11-12T13:21:20.560Z,,,,,,,,,,,,,,,,53,,,,,,,,,,,,,,602.3910000357573,,response,,,99,,,,,,Space,keypress(Space),,,,,---- -- ----- -- ------ - ------- --- ----------<br>------------- ------ ------ ---- ---- ------- ----- -- ----<br>-------- ------- -- ---------- --- - --- ----- ----- ----<br>---- --- --- ----- --- ---- ---- ------- ----- ---- -------<br>--- --- as ----- -- --- ---- -- --- ---- -- ------ ------<br>--- ----- -- ----,72449.69999998808,72448.90000003576,71829.845,71833.69999998808,71846.509,72463.301,,41,as
screen,html.Screen,0_2_0_1_42,2021-11-12T13:21:21.120Z,,,,,,,,,,,,,,,,53,,,,,,,,,,,,,,545.4990000119142,,response,,,99,,,,,,Space,keypress(Space),,,,,---- -- ----- -- ------ - ------- --- ----------<br>------------- ------ ------ ---- ---- ------- ----- -- ----<br>-------- ------- -- ---------- --- - --- ----- ----- ----<br>---- --- --- ----- --- ---- ---- ------- ----- ---- -------<br>--- --- -- close -- --- ---- -- --- ---- -- ------ ------<br>--- ----- -- ----,73009.40000003576,73008.80000001192,72446.635,72449.80000001192,72463.301,73013.182,,42,close
screen,html.Screen,0_2_0_1_43,2021-11-12T13:21:21.920Z,,,,,,,,,,,,,,,,53,,,,,,,,,,,,,,795.6180000119202,,response,,,99,,,,,,Space,keypress(Space),,,,,---- -- ----- -- ------ - ------- --- ----------<br>------------- ------ ------ ---- ---- ------- ----- -- ----<br>-------- ------- -- ---------- --- - --- ----- ----- ----<br>---- --- --- ----- --- ---- ---- ------- ----- ---- -------<br>--- --- -- ----- as --- ---- -- --- ---- -- ------ ------<br>--- ----- -- ----,73809.40000003576,73808.80000001192,72996.517,73009.69999998808,73013.182,73813.134,,43,as
screen,html.Screen,0_2_0_1_44,2021-11-12T13:21:22.336Z,,,,,,,,,,,,,,,,53,,,,,,,,,,,,,,411.66600001191546,,response,,,99,,,,,,Space,keypress(Space),,,,,---- -- ----- -- ------ - ------- --- ----------<br>------------- ------ ------ ---- ---- ------- ----- -- ----<br>-------- ------- -- ---------- --- - --- ----- ----- ----<br>---- --- --- ----- --- ---- ---- ------- ----- ---- -------<br>--- --- -- ----- -- you ---- -- --- ---- -- ------ ------<br>--- ----- -- ----,74225.30000001192,74224.80000001192,73796.469,73809.60000002384,73813.134,74229.786,,44,you
screen,html.Screen,0_2_0_1_45,2021-11-12T13:21:22.880Z,,,,,,,,,,,,,,,,53,,,,,,,,,,,,,,538.9139999880863,,response,,,99,,,,,,Space,keypress(Space),,,,,---- -- ----- -- ------ - ------- --- ----------<br>------------- ------ ------ ---- ---- ------- ----- -- ----<br>-------- ------- -- ---------- --- - --- ----- ----- ----<br>---- --- --- ----- --- ---- ---- ------- ----- ---- -------<br>--- --- -- ----- -- --- want -- --- ---- -- ------ ------<br>--- ----- -- ----,74769.40000003576,74768.69999998808,74213.121,74225.5,74229.786,74779.752,,45,want
screen,html.Screen,0_2_0_1_46,2021-11-12T13:21:23.368Z,,,,,,,,,,,,,,,,53,,,,,,,,,,,,,,477.0480000119278,,response,,,99,,,,,,Space,keypress(Space),,,,,---- -- ----- -- ------ - ------- --- ----------<br>------------- ------ ------ ---- ---- ------- ----- -- ----<br>-------- ------- -- ---------- --- - --- ----- ----- ----<br>---- --- --- ----- --- ---- ---- ------- ----- ---- -------<br>--- --- -- ----- -- --- ---- to --- ---- -- ------ ------<br>--- ----- -- ----,75257.40000003576,75256.80000001192,74763.087,74769.5,74779.752,75263.106,,46,to
screen,html.Screen,0_2_0_1_47,2021-11-12T13:21:24.448Z,,,,,,,,,,,,,,,,53,,,,,,,,,,,,,,1073.5939999880793,,response,,,99,,,,,,Space,keypress(Space),,,,,"---- -- ----- -- ------ - ------- --- ----------<br>------------- ------ ------ ---- ---- ------- ----- -- ----<br>-------- ------- -- ---------- --- - --- ----- ----- ----<br>---- --- --- ----- --- ---- ---- ------- ----- ---- -------<br>--- --- -- ----- -- --- ---- -- be, ---- -- ------ ------<br>--- ----- -- ----",76337.30000001192,76336.69999998808,75246.44,75257.5,75263.106,76346.33,,47,"be,"
screen,html.Screen,0_2_0_1_48,2021-11-12T13:21:25.136Z,,,,,,,,,,,,,,,,53,,,,,,,,,,,,,,678.2700000238401,,response,,,99,,,,,,Space,keypress(Space),,,,,---- -- ----- -- ------ - ------- --- ----------<br>------------- ------ ------ ---- ---- ------- ----- -- ----<br>-------- ------- -- ---------- --- - --- ----- ----- ----<br>---- --- --- ----- --- ---- ---- ------- ----- ---- -------<br>--- --- -- ----- -- --- ---- -- --- even -- ------ ------<br>--- ----- -- ----,77025.30000001192,77024.60000002384,76329.665,76337.40000003576,76346.33,77029.486,,48,even
screen,html.Screen,0_2_0_1_49,2021-11-12T13:21:25.688Z,,,,,,,,,,,,,,,,53,,,,,,,,,,,,,,547.0139999999956,,response,,,99,,,,,,Space,keypress(Space),,,,,---- -- ----- -- ------ - ------- --- ----------<br>------------- ------ ------ ---- ---- ------- ----- -- ----<br>-------- ------- -- ---------- --- - --- ----- ----- ----<br>---- --- --- ----- --- ---- ---- ------- ----- ---- -------<br>--- --- -- ----- -- --- ---- -- --- ---- if ------ ------<br>--- ----- -- ----,77577.30000001192,77576.5,77012.822,77025.60000002384,77029.486,77579.556,,49,if
screen,html.Screen,0_2_0_1_50,2021-11-12T13:21:26.576Z,,,,,,,,,,,,,,,,53,,,,,,,,,,,,,,885.2440000119241,,response,,,99,,,,,,Space,keypress(Space),,,,,---- -- ----- -- ------ - ------- --- ----------<br>------------- ------ ------ ---- ---- ------- ----- -- ----<br>-------- ------- -- ---------- --- - --- ----- ----- ----<br>---- --- --- ----- --- ---- ---- ------- ----- ---- -------<br>--- --- -- ----- -- --- ---- -- --- ---- -- that's ------<br>--- ----- -- ----,78465.5,78464.80000001192,77562.891,77577.60000002384,77579.556,78479.588,,50,that's
screen,html.Screen,0_2_0_1_51,2021-11-12T13:21:27.152Z,,,,,,,,,,,,,,,,53,,,,,,,,,,,,,,560.8120000357594,,response,,,99,,,,,,Space,keypress(Space),,,,,---- -- ----- -- ------ - ------- --- ----------<br>------------- ------ ------ ---- ---- ------- ----- -- ----<br>-------- ------- -- ---------- --- - --- ----- ----- ----<br>---- --- --- ----- --- ---- ---- ------- ----- ---- -------<br>--- --- -- ----- -- --- ---- -- --- ---- -- ------ really<br>--- ----- -- ----,79041.19999998808,79040.40000003576,78462.922,78465.69999998808,78479.588,79046.231,,51,really
screen,html.Screen,0_2_0_1_52,2021-11-12T13:21:27.904Z,,,,,,,,,,,,,,,,53,,,,,,,,,,,,,,746.2690000000002,,response,,,99,,,,,,Space,keypress(Space),,,,,---- -- ----- -- ------ - ------- --- ----------<br>------------- ------ ------ ---- ---- ------- ----- -- ----<br>-------- ------- -- ---------- --- - --- ----- ----- ----<br>---- --- --- ----- --- ---- ---- ------- ----- ---- -------<br>--- --- -- ----- -- --- ---- -- --- ---- -- ------ ------<br>not ----- -- ----,79793.10000002384,79792.5,79029.565,79041.40000003576,79046.231,79796.124,,52,not
screen,html.Screen,0_2_0_1_53,2021-11-12T13:21:28.488Z,,,,,,,,,,,,,,,,53,,,,,,,,,,,,,,580.2760000357666,,response,,,99,,,,,,Space,keypress(Space),,,,,---- -- ----- -- ------ - ------- --- ----------<br>------------- ------ ------ ---- ---- ------- ----- -- ----<br>-------- ------- -- ---------- --- - --- ----- ----- ----<br>---- --- --- ----- --- ---- ---- ------- ----- ---- -------<br>--- --- -- ----- -- --- ---- -- --- ---- -- ------ ------<br>--- close -- ----,80377.10000002384,80376.40000003576,79779.459,79793.40000003576,79796.124,80379.419,,53,close
screen,html.Screen,0_2_0_1_54,2021-11-12T13:21:29.208Z,,,,,,,,,,,,,,,,53,,,,,,,,,,,,,,716.9810000357684,,response,,,99,,,,,,Space,keypress(Space),,,,,---- -- ----- -- ------ - ------- --- ----------<br>------------- ------ ------ ---- ---- ------- ----- -- ----<br>-------- ------- -- ---------- --- - --- ----- ----- ----<br>---- --- --- ----- --- ---- ---- ------- ----- ---- -------<br>--- --- -- ----- -- --- ---- -- --- ---- -- ------ ------<br>--- ----- at ----,81097,81096.40000003576,80362.754,80377.30000001192,80379.419,81112.716,,54,at
screen,html.Screen,0_2_0_1_55,2021-11-12T13:21:30.991Z,,,,,,,,,,,,,,,,53,,,,,,,,,,,,,,1767.4839999880787,,response,,,99,,,,,,Space,keypress(Space),,,,,---- -- ----- -- ------ - ------- --- ----------<br>------------- ------ ------ ---- ---- ------- ----- -- ----<br>-------- ------- -- ---------- --- - --- ----- ----- ----<br>---- --- --- ----- --- ---- ---- ------- ----- ---- -------<br>--- --- -- ----- -- --- ---- -- --- ---- -- ------ ------<br>--- ----- -- all.,82880.80000001192,82880.19999998808,81096.051,81097.30000001192,81112.716,82895.885,,55,all.
Item 99,flow.Loop,0_2_0_1,2021-11-12T13:21:30.994Z,,,,,,,,,,,,,,,,,,,,,,,,,,,,,,36665.37099998808,,completion,,,,D,,,,,,,,,,silence,,82883.69999998808,82880.19999998808,46198.164,46202.40000003576,46214.829,82895.885,,,
Question 1,html.Screen,0_2_0_2,2021-11-12T13:21:44.083Z,,,,,,,,,,,,,,,,,,,,,,,,,,,true,FALSE,,13075.915000011926,,response,,,99,D,,,,,FALSE,click #choice-2,,,,silence,,95972.80000001192,95971.80000001192,82879.22,82884,82895.885,95978.384,,,
Question 2,html.Screen,0_2_0_3,2021-11-12T13:21:50.147Z,,,,,,,,,,,,,,,,,,,,,,,,,,,true,TRUE,,6056.9160000119155,,response,,,99,D,,,,,TRUE,click #choice-1,,,,silence,,102036.10000002384,102035.30000001192,95961.72,95973,95978.384,102044.793,,,
Item 99,flow.Sequence,0_2_0,2021-11-12T13:21:50.147Z,,,,,,,,,,,,,,,,,,,,,,,,,,,,,,65819.83400001192,,completion,,,,,,,,,,,,,,,,102036.40000003576,102035.30000001192,36198.801,36213.90000003576,36215.466,102044.793,,,
Holding screen,html.Screen,0_2_1_0,2021-11-12T13:22:00.139Z,,,,,,,,,,,,,,,,,,,,,,,,,,,,,,9999.327999999994,,timeout,,,,,,,,,,,,,,,,112028.60000002384,112027.456,102028.127,102036.60000002384,102044.793,112044.121,,,
screen,html.Screen,0_2_1_1_0,2021-11-12T13:22:00.902Z,,,,,,,,,,,,,,,,54,,,,,,,,,,,,,,746.5789999880799,,response,,,100,,,,,,Space,keypress(Space),,,,,At --- ---- --- ------ ----- ------- ---- -- --- ------- --<br>------- ---------- ------ -- ----- -- ----- -- ---- ------<br>--- ----- --- --- ------ -------- ----- --- ------ ----- --<br>----- ----- ---------- --- --- ------ ------ ---- -- ------<br>------- --- ------ ----- --- ---- ------- -- ---- --- --<br>------- ------,112791.40000003576,112790.69999998808,112027.456,112028.90000003576,112044.121,112794.11,,0,At
screen,html.Screen,0_2_1_1_1,2021-11-12T13:22:01.325Z,,,,,,,,,,,,,,,,54,,,,,,,,,,,,,,420.2900000357622,,response,,,100,,,,,,Space,keypress(Space),,,,,-- the ---- --- ------ ----- ------- ---- -- --- ------- --<br>------- ---------- ------ -- ----- -- ----- -- ---- ------<br>--- ----- --- --- ------ -------- ----- --- ------ ----- --<br>----- ----- ---------- --- --- ------ ------ ---- -- ------<br>------- --- ------ ----- --- ---- ------- -- ---- --- --<br>------- ------,113214.90000003576,113214.40000003576,112777.445,112791.5,112794.11,113227.411,,1,the
screen,html.Screen,0_2_1_1_2,2021-11-12T13:22:01.789Z,,,,,,,,,,,,,,,,54,,,,,,,,,,,,,,450.88900001192815,,response,,,100,,,,,,Space,keypress(Space),,,,,-- --- time --- ------ ----- ------- ---- -- --- ------- --<br>------- ---------- ------ -- ----- -- ----- -- ---- ------<br>--- ----- --- --- ------ -------- ----- --- ------ ----- --<br>----- ----- ---------- --- --- ------ ------ ---- -- ------<br>------- --- ------ ----- --- ---- ------- -- ---- --- --<br>------- ------,113679,113678.30000001192,113210.746,113215.10000002384,113227.411,113694.065,,2,time
screen,html.Screen,0_2_1_1_3,2021-11-12T13:22:02.373Z,,,,,,,,,,,,,,,,54,,,,,,,,,,,,,,568.2350000119186,,response,,,100,,,,,,Space,keypress(Space),,,,,-- --- ---- the ------ ----- ------- ---- -- --- ------- --<br>------- ---------- ------ -- ----- -- ----- -- ---- ------<br>--- ----- --- --- ------ -------- ----- --- ------ ----- --<br>----- ----- ---------- --- --- ------ ------ ---- -- ------<br>------- --- ------ ----- --- ---- ------- -- ---- --- --<br>------- ------,114262.90000003576,114262.30000001192,113677.4,113679.10000002384,113694.065,114277.349,,3,the
screen,html.Screen,0_2_1_1_4,2021-11-12T13:22:02.821Z,,,,,,,,,,,,,,,,54,,,,,,,,,,,,,,432.95100001191895,,response,,,100,,,,,,Space,keypress(Space),,,,,-- --- ---- --- French ----- ------- ---- -- --- ------- --<br>------- ---------- ------ -- ----- -- ----- -- ---- ------<br>--- ----- --- --- ------ -------- ----- --- ------ ----- --<br>----- ----- ---------- --- --- ------ ------ ---- -- ------<br>------- --- ------ ----- --- ---- ------- -- ---- --- --<br>------- ------,114710.90000003576,114710.30000001192,114260.684,114263,114277.349,114727.318,,4,French
screen,html.Screen,0_2_1_1_5,2021-11-12T13:22:03.317Z,,,,,,,,,,,,,,,,54,,,,,,,,,,,,,,478.9820000119216,,response,,,100,,,,,,Space,keypress(Space),,,,,-- --- ---- --- ------ crown ------- ---- -- --- ------- --<br>------- ---------- ------ -- ----- -- ----- -- ---- ------<br>--- ----- --- --- ------ -------- ----- --- ------ ----- --<br>----- ----- ---------- --- --- ------ ------ ---- -- ------<br>------- --- ------ ----- --- ---- ------- -- ---- --- --<br>------- ------,115206.90000003576,115206.30000001192,114710.653,114711.10000002384,114727.318,115210.637,,5,crown
screen,html.Screen,0_2_1_1_6,2021-11-12T13:22:03.909Z,,,,,,,,,,,,,,,,54,,,,,,,,,,,,,,587.6630000119185,,response,,,100,,,,,,Space,keypress(Space),,,,,-- --- ---- --- ------ ----- secured ---- -- --- ------- --<br>------- ---------- ------ -- ----- -- ----- -- ---- ------<br>--- ----- --- --- ------ -------- ----- --- ------ ----- --<br>----- ----- ---------- --- --- ------ ------ ---- -- ------<br>------- --- ------ ----- --- ---- ------- -- ---- --- --<br>------- ------,115798.80000001192,115798.30000001192,115193.972,115207,115210.637,115810.519,,6,secured
screen,html.Screen,0_2_1_1_7,2021-11-12T13:22:04.525Z,,,,,,,,,,,,,,,,54,,,,,,,,,,,,,,603.6809999880788,,response,,,100,,,,,,Space,keypress(Space),,,,,-- --- ---- --- ------ ----- ------- much -- --- ------- --<br>------- ---------- ------ -- ----- -- ----- -- ---- ------<br>--- ----- --- --- ------ -------- ----- --- ------ ----- --<br>----- ----- ---------- --- --- ------ ------ ---- -- ------<br>------- --- ------ ----- --- ---- ------- -- ---- --- --<br>------- ------,116414.90000003576,116414.19999998808,115793.855,115799,115810.519,116427.242,,7,much
screen,html.Screen,0_2_1_1_8,2021-11-12T13:22:05.053Z,,,,,,,,,,,,,,,,54,,,,,,,,,,,,,,514.9579999880807,,response,,,100,,,,,,Space,keypress(Space),,,,,-- --- ---- --- ------ ----- ------- ---- of --- ------- --<br>------- ---------- ------ -- ----- -- ----- -- ---- ------<br>--- ----- --- --- ------ -------- ----- --- ------ ----- --<br>----- ----- ---------- --- --- ------ ------ ---- -- ------<br>------- --- ------ ----- --- ---- ------- -- ---- --- --<br>------- ------,116942.80000001192,116942.19999998808,116410.576,116415,116427.242,116943.858,,8,of
screen,html.Screen,0_2_1_1_9,2021-11-12T13:22:05.565Z,,,,,,,,,,,,,,,,54,,,,,,,,,,,,,,510.1420000000071,,response,,,100,,,,,,Space,keypress(Space),,,,,-- --- ---- --- ------ ----- ------- ---- -- its ------- --<br>------- ---------- ------ -- ----- -- ----- -- ---- ------<br>--- ----- --- --- ------ -------- ----- --- ------ ----- --<br>----- ----- ---------- --- --- ------ ------ ---- -- ------<br>------- --- ------ ----- --- ---- ------- -- ---- --- --<br>------- ------,117454.69999998808,117454,116927.193,116942.90000003576,116943.858,117460.489,,9,its
screen,html.Screen,0_2_1_1_10,2021-11-12T13:22:06.237Z,,,,,,,,,,,,,,,,54,,,,,,,,,,,,,,665.6110000238405,,response,,,100,,,,,,Space,keypress(Space),,,,,-- --- ---- --- ------ ----- ------- ---- -- --- revenue --<br>------- ---------- ------ -- ----- -- ----- -- ---- ------<br>--- ----- --- --- ------ -------- ----- --- ------ ----- --<br>----- ----- ---------- --- --- ------ ------ ---- -- ------<br>------- --- ------ ----- --- ---- ------- -- ---- --- --<br>------- ------,118126.69999998808,118126.10000002384,117443.824,117454.80000001192,117460.489,118143.581,,10,revenue
screen,html.Screen,0_2_1_1_11,2021-11-12T13:22:06.805Z,,,,,,,,,,,,,,,,54,,,,,,,,,,,,,,550.5190000238363,,response,,,100,,,,,,Space,keypress(Space),,,,,-- --- ---- --- ------ ----- ------- ---- -- --- ------- by<br>------- ---------- ------ -- ----- -- ----- -- ---- ------<br>--- ----- --- --- ------ -------- ----- --- ------ ----- --<br>----- ----- ---------- --- --- ------ ------ ---- -- ------<br>------- --- ------ ----- --- ---- ------- -- ---- --- --<br>------- ------,118694.69999998808,118694.10000002384,118126.918,118126.80000001192,118143.581,118710.428,,11,by
screen,html.Screen,0_2_1_1_12,2021-11-12T13:22:07.517Z,,,,,,,,,,,,,,,,54,,,,,,,,,,,,,,695.5720000000001,,response,,,100,,,,,,Space,keypress(Space),,,,,-- --- ---- --- ------ ----- ------- ---- -- --- ------- --<br>issuing ---------- ------ -- ----- -- ----- -- ---- ------<br>--- ----- --- --- ------ -------- ----- --- ------ ----- --<br>----- ----- ---------- --- --- ------ ------ ---- -- ------<br>------- --- ------ ----- --- ---- ------- -- ---- --- --<br>------- ------,119406.60000002384,119406,118693.762,118694.90000003576,118710.428,119410.404,,12,issuing
screen,html.Screen,0_2_1_1_13,2021-11-12T13:22:08.109Z,,,,,,,,,,,,,,,,54,,,,,,,,,,,,,,587.4960000357678,,response,,,100,,,,,,Space,keypress(Space),,,,,-- --- ---- --- ------ ----- ------- ---- -- --- ------- --<br>------- government ------ -- ----- -- ----- -- ---- ------<br>--- ----- --- --- ------ -------- ----- --- ------ ----- --<br>----- ----- ---------- --- --- ------ ------ ---- -- ------<br>------- --- ------ ----- --- ---- ------- -- ---- --- --<br>------- ------,119998.5,119997.90000003576,119393.738,119406.80000001192,119410.404,120010.303,,13,government
screen,html.Screen,0_2_1_1_14,2021-11-12T13:22:09.520Z,,,,,,,,,,,,,,,,54,,,,,,,,,,,,,,1395.597000035763,,response,,,100,,,,,,Space,keypress(Space),,,,,-- --- ---- --- ------ ----- ------- ---- -- --- ------- --<br>------- ---------- bonds. -- ----- -- ----- -- ---- ------<br>--- ----- --- --- ------ -------- ----- --- ------ ----- --<br>----- ----- ---------- --- --- ------ ------ ---- -- ------<br>------- --- ------ ----- --- ---- ------- -- ---- --- --<br>------- ------,121406.60000002384,121405.90000003576,119993.638,119998.69999998808,120010.303,121410.188,,14,bonds.
screen,html.Screen,0_2_1_1_15,2021-11-12T13:22:10.136Z,,,,,,,,,,,,,,,,54,,,,,,,,,,,,,,611.7120000357681,,response,,,100,,,,,,Space,keypress(Space),,,,,-- --- ---- --- ------ ----- ------- ---- -- --- ------- --<br>------- ---------- ------ In ----- -- ----- -- ---- ------<br>--- ----- --- --- ------ -------- ----- --- ------ ----- --<br>----- ----- ---------- --- --- ------ ------ ---- -- ------<br>------- --- ------ ----- --- ---- ------- -- ---- --- --<br>------- ------,122022.40000003576,122021.90000003576,121393.523,121406.69999998808,121410.188,122026.923,,15,In
screen,html.Screen,0_2_1_1_16,2021-11-12T13:22:11.064Z,,,,,,,,,,,,,,,,54,,,,,,,,,,,,,,923.0770000000048,,response,,,100,,,,,,Space,keypress(Space),,,,,"-- --- ---- --- ------ ----- ------- ---- -- --- ------- --<br>------- ---------- ------ -- 1727, -- ----- -- ---- ------<br>--- ----- --- --- ------ -------- ----- --- ------ ----- --<br>----- ----- ---------- --- --- ------ ------ ---- -- ------<br>------- --- ------ ----- --- ---- ------- -- ---- --- --<br>------- ------",122950.69999998808,122950,122010.257,122022.69999998808,122026.923,122960.127,,16,"1727,"
screen,html.Screen,0_2_1_1_17,2021-11-12T13:22:11.832Z,,,,,,,,,,,,,,,,54,,,,,,,,,,,,,,757.5729999880859,,response,,,100,,,,,,Space,keypress(Space),,,,,-- --- ---- --- ------ ----- ------- ---- -- --- ------- --<br>------- ---------- ------ -- ----- in ----- -- ---- ------<br>--- ----- --- --- ------ -------- ----- --- ------ ----- --<br>----- ----- ---------- --- --- ------ ------ ---- -- ------<br>------- --- ------ ----- --- ---- ------- -- ---- --- --<br>------- ------,123718.30000001192,123717.69999998808,122943.462,122950.80000001192,122960.127,123726.639,,17,in
screen,html.Screen,0_2_1_1_18,2021-11-12T13:22:12.360Z,,,,,,,,,,,,,,,,54,,,,,,,,,,,,,,519.0609999880835,,response,,,100,,,,,,Space,keypress(Space),,,,,-- --- ---- --- ------ ----- ------- ---- -- --- ------- --<br>------- ---------- ------ -- ----- -- order -- ---- ------<br>--- ----- --- --- ------ -------- ----- --- ------ ----- --<br>----- ----- ---------- --- --- ------ ------ ---- -- ------<br>------- --- ------ ----- --- ---- ------- -- ---- --- --<br>------- ------,124246.30000001192,124245.69999998808,123709.975,123718.5,123726.639,124260.059,,18,order
screen,html.Screen,0_2_1_1_19,2021-11-12T13:22:12.800Z,,,,,,,,,,,,,,,,54,,,,,,,,,,,,,,425.64099998808524,,response,,,100,,,,,,Space,keypress(Space),,,,,-- --- ---- --- ------ ----- ------- ---- -- --- ------- --<br>------- ---------- ------ -- ----- -- ----- to ---- ------<br>--- ----- --- --- ------ -------- ----- --- ------ ----- --<br>----- ----- ---------- --- --- ------ ------ ---- -- ------<br>------- --- ------ ----- --- ---- ------- -- ---- --- --<br>------- ------,124686.30000001192,124685.69999998808,124243.394,124246.40000003576,124260.059,124693.412,,19,to
screen,html.Screen,0_2_1_1_20,2021-11-12T13:22:13.624Z,,,,,,,,,,,,,,,,54,,,,,,,,,,,,,,816.2879999880824,,response,,,100,,,,,,Space,keypress(Space),,,,,-- --- ---- --- ------ ----- ------- ---- -- --- ------- --<br>------- ---------- ------ -- ----- -- ----- -- save ------<br>--- ----- --- --- ------ -------- ----- --- ------ ----- --<br>----- ----- ---------- --- --- ------ ------ ---- -- ------<br>------- --- ------ ----- --- ---- ------- -- ---- --- --<br>------- ------,125510.30000001192,125509.69999998808,124676.746,124686.5,124693.412,125526.565,,20,save
screen,html.Screen,0_2_1_1_21,2021-11-12T13:22:14.040Z,,,,,,,,,,,,,,,,54,,,,,,,,,,,,,,398.9349999999977,,response,,,100,,,,,,Space,keypress(Space),,,,,"-- --- ---- --- ------ ----- ------- ---- -- --- ------- --<br>------- ---------- ------ -- ----- -- ----- -- ---- money,<br>--- ----- --- --- ------ -------- ----- --- ------ ----- --<br>----- ----- ---------- --- --- ------ ------ ---- -- ------<br>------- --- ------ ----- --- ---- ------- -- ---- --- --<br>------- ------",125926.10000002384,125925.5,125509.901,125510.40000003576,125526.565,125943.348,,21,"money,"
screen,html.Screen,0_2_1_1_22,2021-11-12T13:22:14.528Z,,,,,,,,,,,,,,,,54,,,,,,,,,,,,,,470.15200000000186,,response,,,100,,,,,,Space,keypress(Space),,,,,-- --- ---- --- ------ ----- ------- ---- -- --- ------- --<br>------- ---------- ------ -- ----- -- ----- -- ---- ------<br>the ----- --- --- ------ -------- ----- --- ------ ----- --<br>----- ----- ---------- --- --- ------ ------ ---- -- ------<br>------- --- ------ ----- --- ---- ------- -- ---- --- --<br>------- ------,126414.10000002384,126413.5,125926.682,125926.30000001192,125943.348,126426.589,,22,the
screen,html.Screen,0_2_1_1_23,2021-11-12T13:22:15.272Z,,,,,,,,,,,,,,,,54,,,,,,,,,,,,,,730.9109999999928,,response,,,100,,,,,,Space,keypress(Space),,,,,-- --- ---- --- ------ ----- ------- ---- -- --- ------- --<br>------- ---------- ------ -- ----- -- ----- -- ---- ------<br>--- state --- --- ------ -------- ----- --- ------ ----- --<br>----- ----- ---------- --- --- ------ ------ ---- -- ------<br>------- --- ------ ----- --- ---- ------- -- ---- --- --<br>------- ------,127158.10000002384,127157.5,126409.924,126414.19999998808,126426.589,127159.864,,23,state
screen,html.Screen,0_2_1_1_24,2021-11-12T13:22:15.736Z,,,,,,,,,,,,,,,,54,,,,,,,,,,,,,,461.6359999999986,,response,,,100,,,,,,Space,keypress(Space),,,,,-- --- ---- --- ------ ----- ------- ---- -- --- ------- --<br>------- ---------- ------ -- ----- -- ----- -- ---- ------<br>--- ----- cut --- ------ -------- ----- --- ------ ----- --<br>----- ----- ---------- --- --- ------ ------ ---- -- ------<br>------- --- ------ ----- --- ---- ------- -- ---- --- --<br>------- ------,127622.19999998808,127621.5,127143.199,127158.40000003576,127159.864,127626.513,,24,cut
screen,html.Screen,0_2_1_1_25,2021-11-12T13:22:16.224Z,,,,,,,,,,,,,,,,54,,,,,,,,,,,,,,482.9869999999937,,response,,,100,,,,,,Space,keypress(Space),,,,,-- --- ---- --- ------ ----- ------- ---- -- --- ------- --<br>------- ---------- ------ -- ----- -- ----- -- ---- ------<br>--- ----- --- the ------ -------- ----- --- ------ ----- --<br>----- ----- ---------- --- --- ------ ------ ---- -- ------<br>------- --- ------ ----- --- ---- ------- -- ---- --- --<br>------- ------,128110.10000002384,128109.5,127609.848,127622.30000001192,127626.513,128126.391,,25,the
screen,html.Screen,0_2_1_1_26,2021-11-12T13:22:16.872Z,,,,,,,,,,,,,,,,54,,,,,,,,,,,,,,631.1089999999967,,response,,,100,,,,,,Space,keypress(Space),,,,,-- --- ---- --- ------ ----- ------- ---- -- --- ------- --<br>------- ---------- ------ -- ----- -- ----- -- ---- ------<br>--- ----- --- --- bonds' -------- ----- --- ------ ----- --<br>----- ----- ---------- --- --- ------ ------ ---- -- ------<br>------- --- ------ ----- --- ---- ------- -- ---- --- --<br>------- ------,128758.10000002384,128757.5,128109.727,128110.19999998808,128126.391,128759.887,,26,bonds'
screen,html.Screen,0_2_1_1_27,2021-11-12T13:22:17.496Z,,,,,,,,,,,,,,,,54,,,,,,,,,,,,,,621.5130000357603,,response,,,100,,,,,,Space,keypress(Space),,,,,-- --- ---- --- ------ ----- ------- ---- -- --- ------- --<br>------- ---------- ------ -- ----- -- ----- -- ---- ------<br>--- ----- --- --- ------ interest ----- --- ------ ----- --<br>----- ----- ---------- --- --- ------ ------ ---- -- ------<br>------- --- ------ ----- --- ---- ------- -- ---- --- --<br>------- ------,129382,129381.40000003576,128743.22,128758.30000001192,128759.887,129393.098,,27,interest
screen,html.Screen,0_2_1_1_28,2021-11-12T13:22:18.632Z,,,,,,,,,,,,,,,,54,,,,,,,,,,,,,,1124.2020000119228,,response,,,100,,,,,,Space,keypress(Space),,,,,-- --- ---- --- ------ ----- ------- ---- -- --- ------- --<br>------- ---------- ------ -- ----- -- ----- -- ---- ------<br>--- ----- --- --- ------ -------- rate. --- ------ ----- --<br>----- ----- ---------- --- --- ------ ------ ---- -- ------<br>------- --- ------ ----- --- ---- ------- -- ---- --- --<br>------- ------,130517.90000003576,130517.30000001192,129376.433,129382.10000002384,129393.098,130526.22,,28,rate.
screen,html.Screen,0_2_1_1_29,2021-11-12T13:22:19.080Z,,,,,,,,,,,,,,,,54,,,,,,,,,,,,,,438.9799999880779,,response,,,100,,,,,,Space,keypress(Space),,,,,-- --- ---- --- ------ ----- ------- ---- -- --- ------- --<br>------- ---------- ------ -- ----- -- ----- -- ---- ------<br>--- ----- --- --- ------ -------- ----- The ------ ----- --<br>----- ----- ---------- --- --- ------ ------ ---- -- ------<br>------- --- ------ ----- --- ---- ------- -- ---- --- --<br>------- ------,130965.90000003576,130965.19999998808,130509.556,130518.10000002384,130526.22,130976.296,,29,The
screen,html.Screen,0_2_1_1_30,2021-11-12T13:22:19.672Z,,,,,,,,,,,,,,,,54,,,,,,,,,,,,,,580.903999988077,,response,,,100,,,,,,Space,keypress(Space),,,,,-- --- ---- --- ------ ----- ------- ---- -- --- ------- --<br>------- ---------- ------ -- ----- -- ----- -- ---- ------<br>--- ----- --- --- ------ -------- ----- --- market ----- --<br>----- ----- ---------- --- --- ------ ------ ---- -- ------<br>------- --- ------ ----- --- ---- ------- -- ---- --- --<br>------- ------,131557.90000003576,131557.19999998808,130959.631,130966.10000002384,130976.296,131559.668,,30,market
screen,html.Screen,0_2_1_1_31,2021-11-12T13:22:20.296Z,,,,,,,,,,,,,,,,54,,,,,,,,,,,,,,621.531999988074,,response,,,100,,,,,,Space,keypress(Space),,,,,-- --- ---- --- ------ ----- ------- ---- -- --- ------- --<br>------- ---------- ------ -- ----- -- ----- -- ---- ------<br>--- ----- --- --- ------ -------- ----- --- ------ value --<br>----- ----- ---------- --- --- ------ ------ ---- -- ------<br>------- --- ------ ----- --- ---- ------- -- ---- --- --<br>------- ------,132181.80000001192,132181.19999998808,131543.002,131558.10000002384,131559.668,132192.917,,31,value
screen,html.Screen,0_2_1_1_32,2021-11-12T13:22:20.736Z,,,,,,,,,,,,,,,,54,,,,,,,,,,,,,,428.18300002385513,,response,,,100,,,,,,Space,keypress(Space),,,,,-- --- ---- --- ------ ----- ------- ---- -- --- ------- --<br>------- ---------- ------ -- ----- -- ----- -- ---- ------<br>--- ----- --- --- ------ -------- ----- --- ------ ----- of<br>----- ----- ---------- --- --- ------ ------ ---- -- ------<br>------- --- ------ ----- --- ---- ------- -- ---- --- --<br>------- ------,132621.80000001192,132621.10000002384,132176.252,132182,132192.917,132626.227,,32,of
screen,html.Screen,0_2_1_1_33,2021-11-12T13:22:21.256Z,,,,,,,,,,,,,,,,54,,,,,,,,,,,,,,515.1730000357493,,response,,,100,,,,,,Space,keypress(Space),,,,,-- --- ---- --- ------ ----- ------- ---- -- --- ------- --<br>------- ---------- ------ -- ----- -- ----- -- ---- ------<br>--- ----- --- --- ------ -------- ----- --- ------ ----- --<br>these ----- ---------- --- --- ------ ------ ---- -- ------<br>------- --- ------ ----- --- ---- ------- -- ---- --- --<br>------- ------,133142,133141.40000003576,132609.562,132622,132626.227,133142.766,,33,these
screen,html.Screen,0_2_1_1_34,2021-11-12T13:22:21.816Z,,,,,,,,,,,,,,,,54,,,,,,,,,,,,,,558.4339999880758,,response,,,100,,,,,,Space,keypress(Space),,,,,-- --- ---- --- ------ ----- ------- ---- -- --- ------- --<br>------- ---------- ------ -- ----- -- ----- -- ---- ------<br>--- ----- --- --- ------ -------- ----- --- ------ ----- --<br>----- bonds ---------- --- --- ------ ------ ---- -- ------<br>------- --- ------ ----- --- ---- ------- -- ---- --- --<br>------- ------,133701.90000003576,133701.19999998808,133126.102,133142.19999998808,133142.766,133709.542,,34,bonds
screen,html.Screen,0_2_1_1_35,2021-11-12T13:22:22.504Z,,,,,,,,,,,,,,,,54,,,,,,,,,,,,,,679.4580000000133,,response,,,100,,,,,,Space,keypress(Space),,,,,"-- --- ---- --- ------ ----- ------- ---- -- --- ------- --<br>------- ---------- ------ -- ----- -- ----- -- ---- ------<br>--- ----- --- --- ------ -------- ----- --- ------ ----- --<br>----- ----- plummeted, --- --- ------ ------ ---- -- ------<br>------- --- ------ ----- --- ---- ------- -- ---- --- --<br>------- ------",134389.69999998808,134389,133692.876,133702.10000002384,133709.542,134392.746,,35,"plummeted,"
screen,html.Screen,0_2_1_1_36,2021-11-12T13:22:23.136Z,,,,,,,,,,,,,,,,54,,,,,,,,,,,,,,628.3540000238281,,response,,,100,,,,,,Space,keypress(Space),,,,,-- --- ---- --- ------ ----- ------- ---- -- --- ------- --<br>------- ---------- ------ -- ----- -- ----- -- ---- ------<br>--- ----- --- --- ------ -------- ----- --- ------ ----- --<br>----- ----- ---------- and --- ------ ------ ---- -- ------<br>------- --- ------ ----- --- ---- ------- -- ---- --- --<br>------- ------,135021.80000001192,135021.10000002384,134376.081,134390.10000002384,134392.746,135026.128,,36,and
screen,html.Screen,0_2_1_1_37,2021-11-12T13:22:23.711Z,,,,,,,,,,,,,,,,54,,,,,,,,,,,,,,570.872000000003,,response,,,100,,,,,,Space,keypress(Space),,,,,-- --- ---- --- ------ ----- ------- ---- -- --- ------- --<br>------- ---------- ------ -- ----- -- ----- -- ---- ------<br>--- ----- --- --- ------ -------- ----- --- ------ ----- --<br>----- ----- ---------- --- the ------ ------ ---- -- ------<br>------- --- ------ ----- --- ---- ------- -- ---- --- --<br>------- ------,135597.69999998808,135597,135009.462,135022.10000002384,135026.128,135609.365,,37,the
screen,html.Screen,0_2_1_1_38,2021-11-12T13:22:24.191Z,,,,,,,,,,,,,,,,54,,,,,,,,,,,,,,467.5350000357721,,response,,,100,,,,,,Space,keypress(Space),,,,,-- --- ---- --- ------ ----- ------- ---- -- --- ------- --<br>------- ---------- ------ -- ----- -- ----- -- ---- ------<br>--- ----- --- --- ------ -------- ----- --- ------ ----- --<br>----- ----- ---------- --- --- market ------ ---- -- ------<br>------- --- ------ ----- --- ---- ------- -- ---- --- --<br>------- ------,136077.60000002384,136076.90000003576,135592.7,135597.90000003576,135609.365,136092.569,,38,market
screen,html.Screen,0_2_1_1_39,2021-11-12T13:22:24.823Z,,,,,,,,,,,,,,,,54,,,,,,,,,,,,,,616.3310000357742,,response,,,100,,,,,,Space,keypress(Space),,,,,-- --- ---- --- ------ ----- ------- ---- -- --- ------- --<br>------- ---------- ------ -- ----- -- ----- -- ---- ------<br>--- ----- --- --- ------ -------- ----- --- ------ ----- --<br>----- ----- ---------- --- --- ------ became ---- -- ------<br>------- --- ------ ----- --- ---- ------- -- ---- --- --<br>------- ------,136709.60000002384,136708.90000003576,136075.905,136077.80000001192,136092.569,136726.01,,39,became
screen,html.Screen,0_2_1_1_40,2021-11-12T13:22:25.463Z,,,,,,,,,,,,,,,,54,,,,,,,,,,,,,,622.7900000119116,,response,,,100,,,,,,Space,keypress(Space),,,,,-- --- ---- --- ------ ----- ------- ---- -- --- ------- --<br>------- ---------- ------ -- ----- -- ----- -- ---- ------<br>--- ----- --- --- ------ -------- ----- --- ------ ----- --<br>----- ----- ---------- --- --- ------ ------ wary -- ------<br>------- --- ------ ----- --- ---- ------- -- ---- --- --<br>------- ------,137349.5,137348.80000001192,136709.344,136709.69999998808,136726.01,137359.304,,40,wary
screen,html.Screen,0_2_1_1_41,2021-11-12T13:22:25.871Z,,,,,,,,,,,,,,,,54,,,,,,,,,,,,,,397.4960000119172,,response,,,100,,,,,,Space,keypress(Space),,,,,-- --- ---- --- ------ ----- ------- ---- -- --- ------- --<br>------- ---------- ------ -- ----- -- ----- -- ---- ------<br>--- ----- --- --- ------ -------- ----- --- ------ ----- --<br>----- ----- ---------- --- --- ------ ------ ---- of ------<br>------- --- ------ ----- --- ---- ------- -- ---- --- --<br>------- ------,137757.40000003576,137756.80000001192,137342.638,137349.69999998808,137359.304,137775.834,,41,of
screen,html.Screen,0_2_1_1_42,2021-11-12T13:22:26.343Z,,,,,,,,,,,,,,,,54,,,,,,,,,,,,,,452.96600001191837,,response,,,100,,,,,,Space,keypress(Space),,,,,-- --- ---- --- ------ ----- ------- ---- -- --- ------- --<br>------- ---------- ------ -- ----- -- ----- -- ---- ------<br>--- ----- --- --- ------ -------- ----- --- ------ ----- --<br>----- ----- ---------- --- --- ------ ------ ---- -- French<br>------- --- ------ ----- --- ---- ------- -- ---- --- --<br>------- ------,138229.40000003576,138228.80000001192,137759.17,137758.5,137775.834,138242.592,,42,French
screen,html.Screen,0_2_1_1_43,2021-11-12T13:22:27.015Z,,,,,,,,,,,,,,,,54,,,,,,,,,,,,,,658.2080000119167,,response,,,100,,,,,,Space,keypress(Space),,,,,-- --- ---- --- ------ ----- ------- ---- -- --- ------- --<br>------- ---------- ------ -- ----- -- ----- -- ---- ------<br>--- ----- --- --- ------ -------- ----- --- ------ ----- --<br>----- ----- ---------- --- --- ------ ------ ---- -- ------<br>credit. --- ------ ----- --- ---- ------- -- ---- --- --<br>------- ------,138901.40000003576,138900.80000001192,138225.926,138229.60000002384,138242.592,138909.093,,43,credit.
screen,html.Screen,0_2_1_1_44,2021-11-12T13:22:27.447Z,,,,,,,,,,,,,,,,54,,,,,,,,,,,,,,423.6069999880856,,response,,,100,,,,,,Space,keypress(Space),,,,,-- --- ---- --- ------ ----- ------- ---- -- --- ------- --<br>------- ---------- ------ -- ----- -- ----- -- ---- ------<br>--- ----- --- --- ------ -------- ----- --- ------ ----- --<br>----- ----- ---------- --- --- ------ ------ ---- -- ------<br>------- The ------ ----- --- ---- ------- -- ---- --- --<br>------- ------,139333.30000001192,139332.69999998808,138892.429,138901.60000002384,138909.093,139342.517,,44,The
screen,html.Screen,0_2_1_1_45,2021-11-12T13:22:27.903Z,,,,,,,,,,,,,,,,54,,,,,,,,,,,,,,446.1829999880865,,response,,,100,,,,,,Space,keypress(Space),,,,,-- --- ---- --- ------ ----- ------- ---- -- --- ------- --<br>------- ---------- ------ -- ----- -- ----- -- ---- ------<br>--- ----- --- --- ------ -------- ----- --- ------ ----- --<br>----- ----- ---------- --- --- ------ ------ ---- -- ------<br>------- --- French ----- --- ---- ------- -- ---- --- --<br>------- ------,139789.30000001192,139788.69999998808,139325.851,139333.5,139342.517,139792.456,,45,French
screen,html.Screen,0_2_1_1_46,2021-11-12T13:22:28.327Z,,,,,,,,,,,,,,,,54,,,,,,,,,,,,,,420.2439999880735,,response,,,100,,,,,,Space,keypress(Space),,,,,-- --- ---- --- ------ ----- ------- ---- -- --- ------- --<br>------- ---------- ------ -- ----- -- ----- -- ---- ------<br>--- ----- --- --- ------ -------- ----- --- ------ ----- --<br>----- ----- ---------- --- --- ------ ------ ---- -- ------<br>------- --- ------ state --- ---- ------- -- ---- --- --<br>------- ------,140213.30000001192,140212.69999998808,139775.791,139789.5,139792.456,140225.746,,46,state
screen,html.Screen,0_2_1_1_47,2021-11-12T13:22:28.791Z,,,,,,,,,,,,,,,,54,,,,,,,,,,,,,,451.0540000119072,,response,,,100,,,,,,Space,keypress(Space),,,,,-- --- ---- --- ------ ----- ------- ---- -- --- ------- --<br>------- ---------- ------ -- ----- -- ----- -- ---- ------<br>--- ----- --- --- ------ -------- ----- --- ------ ----- --<br>----- ----- ---------- --- --- ------ ------ ---- -- ------<br>------- --- ------ ----- was ---- ------- -- ---- --- --<br>------- ------,140677.40000003576,140676.80000001192,140209.081,140213.5,140225.746,140692.402,,47,was
screen,html.Screen,0_2_1_1_48,2021-11-12T13:22:29.375Z,,,,,,,,,,,,,,,,54,,,,,,,,,,,,,,568.2979999880772,,response,,,100,,,,,,Space,keypress(Space),,,,,-- --- ---- --- ------ ----- ------- ---- -- --- ------- --<br>------- ---------- ------ -- ----- -- ----- -- ---- ------<br>--- ----- --- --- ------ -------- ----- --- ------ ----- --<br>----- ----- ---------- --- --- ------ ------ ---- -- ------<br>------- --- ------ ----- --- left ------- -- ---- --- --<br>------- ------,141261.30000001192,141260.69999998808,140675.737,140677.5,140692.402,141275.696,,48,left
screen,html.Screen,0_2_1_1_49,2021-11-12T13:22:29.775Z,,,,,,,,,,,,,,,,54,,,,,,,,,,,,,,384.9040000238456,,response,,,100,,,,,,Space,keypress(Space),,,,,-- --- ---- --- ------ ----- ------- ---- -- --- ------- --<br>------- ---------- ------ -- ----- -- ----- -- ---- ------<br>--- ----- --- --- ------ -------- ----- --- ------ ----- --<br>----- ----- ---------- --- --- ------ ------ ---- -- ------<br>------- --- ------ ----- --- ---- without -- ---- --- --<br>------- ------,141661.19999998808,141660.60000002384,141259.031,141261.5,141275.696,141675.667,,49,without
screen,html.Screen,0_2_1_1_50,2021-11-12T13:22:30.183Z,,,,,,,,,,,,,,,,54,,,,,,,,,,,,,,392.93300002385513,,response,,,100,,,,,,Space,keypress(Space),,,,,-- --- ---- --- ------ ----- ------- ---- -- --- ------- --<br>------- ---------- ------ -- ----- -- ----- -- ---- ------<br>--- ----- --- --- ------ -------- ----- --- ------ ----- --<br>----- ----- ---------- --- --- ------ ------ ---- -- ------<br>------- --- ------ ----- --- ---- ------- an ---- --- --<br>------- ------,142069.30000001192,142068.60000002384,141659.002,141661.40000003576,141675.667,142075.656,,50,an
screen,html.Screen,0_2_1_1_51,2021-11-12T13:22:30.543Z,,,,,,,,,,,,,,,,54,,,,,,,,,,,,,,352.94400002385373,,response,,,100,,,,,,Space,keypress(Space),,,,,-- --- ---- --- ------ ----- ------- ---- -- --- ------- --<br>------- ---------- ------ -- ----- -- ----- -- ---- ------<br>--- ----- --- --- ------ -------- ----- --- ------ ----- --<br>----- ----- ---------- --- --- ------ ------ ---- -- ------<br>------- --- ------ ----- --- ---- ------- -- easy --- --<br>------- ------,142429.19999998808,142428.60000002384,142058.991,142069.5,142075.656,142442.288,,51,easy
screen,html.Screen,0_2_1_1_52,2021-11-12T13:22:30.935Z,,,,,,,,,,,,,,,,54,,,,,,,,,,,,,,378.21199999999953,,response,,,100,,,,,,Space,keypress(Space),,,,,-- --- ---- --- ------ ----- ------- ---- -- --- ------- --<br>------- ---------- ------ -- ----- -- ----- -- ---- ------<br>--- ----- --- --- ------ -------- ----- --- ------ ----- --<br>----- ----- ---------- --- --- ------ ------ ---- -- ------<br>------- --- ------ ----- --- ---- ------- -- ---- way --<br>------- ------,142821.10000002384,142820.5,142425.623,142429.30000001192,142442.288,142825.606,,52,way
screen,html.Screen,0_2_1_1_53,2021-11-12T13:22:31.311Z,,,,,,,,,,,,,,,,54,,,,,,,,,,,,,,371.19400001192116,,response,,,100,,,,,,Space,keypress(Space),,,,,-- --- ---- --- ------ ----- ------- ---- -- --- ------- --<br>------- ---------- ------ -- ----- -- ----- -- ---- ------<br>--- ----- --- --- ------ -------- ----- --- ------ ----- --<br>----- ----- ---------- --- --- ------ ------ ---- -- ------<br>------- --- ------ ----- --- ---- ------- -- ---- --- of<br>------- ------,143197.30000001192,143196.80000001192,142808.941,142821.19999998808,142825.606,143208.902,,53,of
screen,html.Screen,0_2_1_1_54,2021-11-12T13:22:31.687Z,,,,,,,,,,,,,,,,54,,,,,,,,,,,,,,363.59799999999814,,response,,,100,,,,,,Space,keypress(Space),,,,,-- --- ---- --- ------ ----- ------- ---- -- --- ------- --<br>------- ---------- ------ -- ----- -- ----- -- ---- ------<br>--- ----- --- --- ------ -------- ----- --- ------ ----- --<br>----- ----- ---------- --- --- ------ ------ ---- -- ------<br>------- --- ------ ----- --- ---- ------- -- ---- --- --<br>raising ------,143573.19999998808,143572.5,143192.237,143197.5,143208.902,143575.565,,54,raising
screen,html.Screen,0_2_1_1_55,2021-11-12T13:22:32.095Z,,,,,,,,,,,,,,,,54,,,,,,,,,,,,,,404.9349999999977,,response,,,100,,,,,,Space,keypress(Space),,,,,-- --- ---- --- ------ ----- ------- ---- -- --- ------- --<br>------- ---------- ------ -- ----- -- ----- -- ---- ------<br>--- ----- --- --- ------ -------- ----- --- ------ ----- --<br>----- ----- ---------- --- --- ------ ------ ---- -- ------<br>------- --- ------ ----- --- ---- ------- -- ---- --- --<br>------- money.,143981.10000002384,143980.5,143558.9,143573.30000001192,143575.565,143992.196,,55,money.
Item 100,flow.Loop,0_2_1_1,2021-11-12T13:22:32.095Z,,,,,,,,,,,,,,,,,,,,,,,,,,,,,,31936.379,,completion,,,,D,,,,,,,,,,silence,,143981.40000003576,143980.5,112027.456,112028.80000001192,112044.121,143992.196,,,
Question 1,html.Screen,0_2_1_2,2021-11-12T13:22:35.549Z,,,,,,,,,,,,,,,,,,,,,,,,,,,true,TRUE,,3442.4040000238456,,response,,,100,D,,,,,TRUE,click #choice-1,,,,silence,,147435.5,147434.60000002384,143975.531,143981.5,143992.196,147442.086,,,
Question 2,html.Screen,0_2_1_3,2021-11-12T13:22:37.541Z,,,,,,,,,,,,,,,,,,,,,,,,,,,true,FALSE,,1984.0140000238316,,response,,,100,D,,,,,FALSE,click #choice-2,,,,silence,,149426.80000001192,149426.10000002384,147425.415,147435.60000002384,147442.086,149441.891,,,
Item 100,flow.Sequence,0_2_1,2021-11-12T13:22:37.541Z,,,,,,,,,,,,,,,,,,,,,,,,,,,,,,47381.30700002384,,completion,,,,,,,,,,,,,,,,149427.10000002384,149426.10000002384,102028.127,102036.60000002384,102044.793,149441.891,,,
End of Practice,html.Page,0_2_2,2021-11-12T13:22:43.692Z,,,,,,,,,,,,,,,,,,,,,,,,,,,,,,6135.709000023839,,form submission,,,,,,,,,,,,,,,,155578,155577.60000002384,149425.225,149427.30000001192,149441.891,155591.279,,,
Practice,flow.Sequence,0_2,2021-11-12T13:22:43.692Z,,,,,,,,,,,,,,,,,,,,,,,,,,,,,,119362.13400002384,,completion,,,,,,,,,,,,,,,,155578.30000001192,155577.60000002384,36198.801,36213.80000001192,36215.466,155591.279,,,
Trap_instruction,html.Page,0_3_0,2021-11-12T13:22:47.532Z,,,,,,,,,,,,,,,,,,,,,,,,,,,,,,3826.3210000238323,,form submission,,,,,,,,,,,,,,,,159417.90000003576,159417.60000002384,155574.614,155578.5,155591.279,159441.102,,,
trap_trial,html.Screen,0_3_1,2021-11-12T13:22:50.230Z,,,,,,,,,,,,,,,,,,,,,,,,,,,true,1,,2674.6980000119074,,response,,,,,,,,,1,click #choice-1,,,,,,162116.60000002384,162115.80000001192,159407.772,159418.10000002384,159441.102,162124.314,,,
end of trap trial,html.Page,0_3_2,2021-11-12T13:22:51.680Z,,,,,,,,,,,,,,,,,,,,,,,,,,,,,,1441.7860000238288,,form submission,,,,,,,,,,,,,,,,163566.40000003576,163566.10000002384,162107.649,162116.80000001192,162124.314,163574.308,,,
Trap 1,flow.Sequence,0_3,2021-11-12T13:22:51.680Z,,,,,,,,,,,,,,,,,,,,,,,,,,,,,,7974.821000023832,,completion,,,,,,,,,,,,,,,,163566.60000002384,163566.10000002384,155574.614,155578.5,155591.279,163574.308,,,
Standby,html.Page,0_4_0,2021-11-12T13:22:59.672Z,,,,,,,,,,,,,,,,,,,,,,,,,,,,,,7999.214000000007,,timeout,,,,,,,,,,,,,,,,171557.90000003576,171556.857,163557.643,163566.80000001192,163574.308,171573.522,,,
Holding screen,html.Screen,0_4_1_0_0,2021-11-12T13:23:06.672Z,,,,,,,,,,,,,,,,,,,,,,,,,,,,,,6999.860000000015,,timeout,,,,,,,,,,,,,,,,178557.90000003576,178556.717,171556.857,171558.19999998808,171573.522,178573.382,,,
screen,html.Screen,0_4_1_0_1_0,2021-11-12T13:23:07.661Z,,,,,,,,,,,,,,,,11,,,,,,,,,,,,,,973.1179999999877,,response,,,4,D,,,,,Space,keypress(Space),,,,silence,Known -- ---- --- -- --- -------- ------------ ---------- --<br>- ------- ------ --------- -- ------------ -- --- ---- -----<br>------ ---- ---- ------ ------ ------- --- ----- ---------<br>---- --- -------- -------- --- --- -- ------- --- --- -----<br>-- --- ------ ------- --- --- -------- ---- --------- --<br>---------- -- -------- ----------------,179547.30000001192,179546.5,178556.717,178558.19999998808,178573.382,179556.646,,0,Known
screen,html.Screen,0_4_1_0_1_1,2021-11-12T13:23:08.205Z,,,,,,,,,,,,,,,,11,,,,,,,,,,,,,,533.654000011913,,response,,,4,D,,,,,Space,keypress(Space),,,,silence,----- as ---- --- -- --- -------- ------------ ---------- --<br>- ------- ------ --------- -- ------------ -- --- ---- -----<br>------ ---- ---- ------ ------ ------- --- ----- ---------<br>---- --- -------- -------- --- --- -- ------- --- --- -----<br>-- --- ------ ------- --- --- -------- ---- --------- --<br>---------- -- -------- ----------------,180090.90000003576,180090.30000001192,179539.981,179547.60000002384,179556.646,180106.643,,1,as
screen,html.Screen,0_4_1_0_1_2,2021-11-12T13:23:08.869Z,,,,,,,,,,,,,,,,11,,,,,,,,,,,,,,647.5569999880681,,response,,,4,D,,,,,Space,keypress(Space),,,,silence,----- -- Rapa --- -- --- -------- ------------ ---------- --<br>- ------- ------ --------- -- ------------ -- --- ---- -----<br>------ ---- ---- ------ ------ ------- --- ----- ---------<br>---- --- -------- -------- --- --- -- ------- --- --- -----<br>-- --- ------ ------- --- --- -------- ---- --------- --<br>---------- -- -------- ----------------,180754.90000003576,180754.19999998808,180089.978,180091.10000002384,180106.643,180756.566,,2,Rapa
screen,html.Screen,0_4_1_0_1_3,2021-11-12T13:23:09.357Z,,,,,,,,,,,,,,,,11,,,,,,,,,,,,,,485.63399998808745,,response,,,4,D,,,,,Space,keypress(Space),,,,silence,----- -- ---- Nui -- --- -------- ------------ ---------- --<br>- ------- ------ --------- -- ------------ -- --- ---- -----<br>------ ---- ---- ------ ------ ------- --- ----- ---------<br>---- --- -------- -------- --- --- -- ------- --- --- -----<br>-- --- ------ ------- --- --- -------- ---- --------- --<br>---------- -- -------- ----------------,181242.80000001192,181242.19999998808,180739.901,180755,180756.566,181256.551,,3,Nui
screen,html.Screen,0_4_1_0_1_4,2021-11-12T13:23:09.840Z,,,,,,,,,,,,,,,,11,,,,,,,,,,,,,,465.6489999880723,,response,,,4,D,,,,,Space,keypress(Space),,,,silence,----- -- ---- --- to --- -------- ------------ ---------- --<br>- ------- ------ --------- -- ------------ -- --- ---- -----<br>------ ---- ---- ------ ------ ------- --- ----- ---------<br>---- --- -------- -------- --- --- -- ------- --- --- -----<br>-- --- ------ ------- --- --- -------- ---- --------- --<br>---------- -- -------- ----------------,181722.80000001192,181722.19999998808,181239.886,181242.90000003576,181256.551,181739.912,,4,to
screen,html.Screen,0_4_1_0_1_5,2021-11-12T13:23:10.280Z,,,,,,,,,,,,,,,,11,,,,,,,,,,,,,,422.2879999880679,,response,,,4,D,,,,,Space,keypress(Space),,,,silence,----- -- ---- --- -- the -------- ------------ ---------- --<br>- ------- ------ --------- -- ------------ -- --- ---- -----<br>------ ---- ---- ------ ------ ------- --- ----- ---------<br>---- --- -------- -------- --- --- -- ------- --- --- -----<br>-- --- ------ ------- --- --- -------- ---- --------- --<br>---------- -- -------- ----------------,182162.80000001192,182162.19999998808,181723.246,181723,181739.912,182173.163,,5,the
screen,html.Screen,0_4_1_0_1_6,2021-11-12T13:23:10.888Z,,,,,,,,,,,,,,,,11,,,,,,,,,,,,,,596.9370000238414,,response,,,4,D,,,,,Space,keypress(Space),,,,silence,----- -- ---- --- -- --- island's ------------ ---------- --<br>- ------- ------ --------- -- ------------ -- --- ---- -----<br>------ ---- ---- ------ ------ ------- --- ----- ---------<br>---- --- -------- -------- --- --- -- ------- --- --- -----<br>-- --- ------ ------- --- --- -------- ---- --------- --<br>---------- -- -------- ----------------,182770.69999998808,182770.10000002384,182156.498,182162.90000003576,182173.163,182773.129,,6,island's
screen,html.Screen,0_4_1_0_1_7,2021-11-12T13:23:11.848Z,,,,,,,,,,,,,,,,11,,,,,,,,,,,,,,956.9710000238556,,response,,,4,D,,,,,Space,keypress(Space),,,,silence,"----- -- ---- --- -- --- -------- inhabitants, ---------- --<br>- ------- ------ --------- -- ------------ -- --- ---- -----<br>------ ---- ---- ------ ------ ------- --- ----- ---------<br>---- --- -------- -------- --- --- -- ------- --- --- -----<br>-- --- ------ ------- --- --- -------- ---- --------- --<br>---------- -- -------- ----------------",183730.69999998808,183730.10000002384,182756.464,182770.90000003576,182773.129,183739.738,,7,"inhabitants,"
screen,html.Screen,0_4_1_0_1_8,2021-11-12T13:23:12.824Z,,,,,,,,,,,,,,,,11,,,,,,,,,,,,,,966.2619999999879,,response,,,4,D,,,,,Space,keypress(Space),,,,silence,----- -- ---- --- -- --- -------- ------------ Rongorongo --<br>- ------- ------ --------- -- ------------ -- --- ---- -----<br>------ ---- ---- ------ ------ ------- --- ----- ---------<br>---- --- -------- -------- --- --- -- ------- --- --- -----<br>-- --- ------ ------- --- --- -------- ---- --------- --<br>---------- -- -------- ----------------,184706.60000002384,184706,183723.073,183730.80000001192,183739.738,184722.96,,8,Rongorongo
screen,html.Screen,0_4_1_0_1_9,2021-11-12T13:23:13.264Z,,,,,,,,,,,,,,,,11,,,,,,,,,,,,,,423.04000000000815,,response,,,4,D,,,,,Space,keypress(Space),,,,silence,----- -- ---- --- -- --- -------- ------------ ---------- is<br>- ------- ------ --------- -- ------------ -- --- ---- -----<br>------ ---- ---- ------ ------ ------- --- ----- ---------<br>---- --- -------- -------- --- --- -- ------- --- --- -----<br>-- --- ------ ------- --- --- -------- ---- --------- --<br>---------- -- -------- ----------------,185146.60000002384,185146,184706.295,184706.80000001192,184722.96,185156.307,,9,is
screen,html.Screen,0_4_1_0_1_10,2021-11-12T13:23:13.984Z,,,,,,,,,,,,,,,,11,,,,,,,,,,,,,,709.5930000357621,,response,,,4,D,,,,,Space,keypress(Space),,,,silence,----- -- ---- --- -- --- -------- ------------ ---------- --<br>a ------- ------ --------- -- ------------ -- --- ---- -----<br>------ ---- ---- ------ ------ ------- --- ----- ---------<br>---- --- -------- -------- --- --- -- ------- --- --- -----<br>-- --- ------ ------- --- --- -------- ---- --------- --<br>---------- -- -------- ----------------,185866.5,185865.90000003576,185139.642,185146.80000001192,185156.307,185872.949,,10,a
screen,html.Screen,0_4_1_0_1_11,2021-11-12T13:23:14.447Z,,,,,,,,,,,,,,,,11,,,,,,,,,,,,,,456.8510000119277,,response,,,4,D,,,,,Space,keypress(Space),,,,silence,----- -- ---- --- -- --- -------- ------------ ---------- --<br>- writing ------ --------- -- ------------ -- --- ---- -----<br>------ ---- ---- ------ ------ ------- --- ----- ---------<br>---- --- -------- -------- --- --- -- ------- --- --- -----<br>-- --- ------ ------- --- --- -------- ---- --------- --<br>---------- -- -------- ----------------,186330.5,186329.80000001192,185856.284,185866.69999998808,185872.949,186339.557,,11,writing
screen,html.Screen,0_4_1_0_1_12,2021-11-12T13:23:15.103Z,,,,,,,,,,,,,,,,11,,,,,,,,,,,,,,646.2430000119202,,response,,,4,D,,,,,Space,keypress(Space),,,,silence,----- -- ---- --- -- --- -------- ------------ ---------- --<br>- ------- system --------- -- ------------ -- --- ---- -----<br>------ ---- ---- ------ ------ ------- --- ----- ---------<br>---- --- -------- -------- --- --- -- ------- --- --- -----<br>-- --- ------ ------- --- --- -------- ---- --------- --<br>---------- -- -------- ----------------,186986.5,186985.80000001192,186322.892,186330.60000002384,186339.557,186989.54,,12,system
screen,html.Screen,0_4_1_0_1_13,2021-11-12T13:23:15.959Z,,,,,,,,,,,,,,,,11,,,,,,,,,,,,,,852.2600000119128,,response,,,4,D,,,,,Space,keypress(Space),,,,silence,----- -- ---- --- -- --- -------- ------------ ---------- --<br>- ------- ------ comprised -- ------------ -- --- ---- -----<br>------ ---- ---- ------ ------ ------- --- ----- ---------<br>---- --- -------- -------- --- --- -- ------- --- --- -----<br>-- --- ------ ------- --- --- -------- ---- --------- --<br>---------- -- -------- ----------------,187842.40000003576,187841.80000001192,186972.875,186986.60000002384,186989.54,187856.224,,13,comprised
screen,html.Screen,0_4_1_0_1_14,2021-11-12T13:23:16.671Z,,,,,,,,,,,,,,,,11,,,,,,,,,,,,,,697.5760000119335,,response,,,4,D,,,,,Space,keypress(Space),,,,silence,----- -- ---- --- -- --- -------- ------------ ---------- --<br>- ------- ------ --------- of ------------ -- --- ---- -----<br>------ ---- ---- ------ ------ ------- --- ----- ---------<br>---- --- -------- -------- --- --- -- ------- --- --- -----<br>-- --- ------ ------- --- --- -------- ---- --------- --<br>---------- -- -------- ----------------,188554.40000003576,188553.80000001192,187839.558,187842.60000002384,187856.224,188556.11,,14,of
screen,html.Screen,0_4_1_0_1_15,2021-11-12T13:23:18.624Z,,,,,,,,,,,,,,,,11,,,,,,,,,,,,,,1949.7900000357768,,response,,,4,D,,,,,Space,keypress(Space),,,,silence,----- -- ---- --- -- --- -------- ------------ ---------- --<br>- ------- ------ --------- -- pictographs. -- --- ---- -----<br>------ ---- ---- ------ ------ ------- --- ----- ---------<br>---- --- -------- -------- --- --- -- ------- --- --- -----<br>-- --- ------ ------- --- --- -------- ---- --------- --<br>---------- -- -------- ----------------,190506.60000002384,190505.90000003576,188539.445,188554.60000002384,188556.11,190522.629,,15,pictographs.
screen,html.Screen,0_4_1_0_1_16,2021-11-12T13:23:19.071Z,,,,,,,,,,,,,,,,11,,,,,,,,,,,,,,430.9710000238556,,response,,,4,D,,,,,Space,keypress(Space),,,,silence,----- -- ---- --- -- --- -------- ------------ ---------- --<br>- ------- ------ --------- -- ------------ It --- ---- -----<br>------ ---- ---- ------ ------ ------- --- ----- ---------<br>---- --- -------- -------- --- --- -- ------- --- --- -----<br>-- --- ------ ------- --- --- -------- ---- --------- --<br>---------- -- -------- ----------------,190954.19999998808,190953.60000002384,190505.964,190506.69999998808,190522.629,190955.781,,16,It
screen,html.Screen,0_4_1_0_1_17,2021-11-12T13:23:19.639Z,,,,,,,,,,,,,,,,11,,,,,,,,,,,,,,565.7190000000119,,response,,,4,D,,,,,Space,keypress(Space),,,,silence,----- -- ---- --- -- --- -------- ------------ ---------- --<br>- ------- ------ --------- -- ------------ -- has ---- -----<br>------ ---- ---- ------ ------ ------- --- ----- ---------<br>---- --- -------- -------- --- --- -- ------- --- --- -----<br>-- --- ------ ------- --- --- -------- ---- --------- --<br>---------- -- -------- ----------------,191522.19999998808,191521.5,190939.117,190954.40000003576,190955.781,191539.311,,17,has
screen,html.Screen,0_4_1_0_1_18,2021-11-12T13:23:20.047Z,,,,,,,,,,,,,,,,11,,,,,,,,,,,,,,390.18900000001304,,response,,,4,D,,,,,Space,keypress(Space),,,,silence,----- -- ---- --- -- --- -------- ------------ ---------- --<br>- ------- ------ --------- -- ------------ -- --- been -----<br>------ ---- ---- ------ ------ ------- --- ----- ---------<br>---- --- -------- -------- --- --- -- ------- --- --- -----<br>-- --- ------ ------- --- --- -------- ---- --------- --<br>---------- -- -------- ----------------,191930.10000002384,191929.5,191522.645,191522.30000001192,191539.311,191939.254,,18,been
screen,html.Screen,0_4_1_0_1_19,2021-11-12T13:23:20.495Z,,,,,,,,,,,,,,,,11,,,,,,,,,,,,,,438.24600000001374,,response,,,4,D,,,,,Space,keypress(Space),,,,silence,----- -- ---- --- -- --- -------- ------------ ---------- --<br>- ------- ------ --------- -- ------------ -- --- ---- found<br>------ ---- ---- ------ ------ ------- --- ----- ---------<br>---- --- -------- -------- --- --- -- ------- --- --- -----<br>-- --- ------ ------- --- --- -------- ---- --------- --<br>---------- -- -------- ----------------,192378,192377.5,191922.589,191930.40000003576,191939.254,192389.225,,19,found
screen,html.Screen,0_4_1_0_1_20,2021-11-12T13:23:21.263Z,,,,,,,,,,,,,,,,11,,,,,,,,,,,,,,756.2749999999942,,response,,,4,D,,,,,Space,keypress(Space),,,,silence,----- -- ---- --- -- --- -------- ------------ ---------- --<br>- ------- ------ --------- -- ------------ -- --- ---- -----<br>carved ---- ---- ------ ------ ------- --- ----- ---------<br>---- --- -------- -------- --- --- -- ------- --- --- -----<br>-- --- ------ ------- --- --- -------- ---- --------- --<br>---------- -- -------- ----------------,193146.10000002384,193145.5,192372.56,192378.19999998808,192389.225,193155.829,,20,carved
screen,html.Screen,0_4_1_0_1_21,2021-11-12T13:23:21.751Z,,,,,,,,,,,,,,,,11,,,,,,,,,,,,,,477.5710000357649,,response,,,4,D,,,,,Space,keypress(Space),,,,silence,----- -- ---- --- -- --- -------- ------------ ---------- --<br>- ------- ------ --------- -- ------------ -- --- ---- -----<br>------ into ---- ------ ------ ------- --- ----- ---------<br>---- --- -------- -------- --- --- -- ------- --- --- -----<br>-- --- ------ ------- --- --- -------- ---- --------- --<br>---------- -- -------- ----------------,193634,193633.40000003576,193139.164,193146.30000001192,193155.829,193639.065,,21,into
screen,html.Screen,0_4_1_0_1_22,2021-11-12T13:23:22.351Z,,,,,,,,,,,,,,,,11,,,,,,,,,,,,,,594.3350000357605,,response,,,4,D,,,,,Space,keypress(Space),,,,silence,----- -- ---- --- -- --- -------- ------------ ---------- --<br>- ------- ------ --------- -- ------------ -- --- ---- -----<br>------ ---- many ------ ------ ------- --- ----- ---------<br>---- --- -------- -------- --- --- -- ------- --- --- -----<br>-- --- ------ ------- --- --- -------- ---- --------- --<br>---------- -- -------- ----------------,194234,194233.40000003576,193622.401,193634.19999998808,193639.065,194239.161,,22,many
screen,html.Screen,0_4_1_0_1_23,2021-11-12T13:23:22.983Z,,,,,,,,,,,,,,,,11,,,,,,,,,,,,,,626.1390000119281,,response,,,4,D,,,,,Space,keypress(Space),,,,silence,----- -- ---- --- -- --- -------- ------------ ---------- --<br>- ------- ------ --------- -- ------------ -- --- ---- -----<br>------ ---- ---- oblong ------ ------- --- ----- ---------<br>---- --- -------- -------- --- --- -- ------- --- --- -----<br>-- --- ------ ------- --- --- -------- ---- --------- --<br>---------- -- -------- ----------------,194865.90000003576,194865.30000001192,194222.495,194234.10000002384,194239.161,194872.228,,23,oblong
screen,html.Screen,0_4_1_0_1_24,2021-11-12T13:23:23.639Z,,,,,,,,,,,,,,,,11,,,,,,,,,,,,,,649.17200003576,,response,,,4,D,,,,,Space,keypress(Space),,,,silence,----- -- ---- --- -- --- -------- ------------ ---------- --<br>- ------- ------ --------- -- ------------ -- --- ---- -----<br>------ ---- ---- ------ wooden ------- --- ----- ---------<br>---- --- -------- -------- --- --- -- ------- --- --- -----<br>-- --- ------ ------- --- --- -------- ---- --------- --<br>---------- -- -------- ----------------,195522,195521.40000003576,194855.565,194866.10000002384,194872.228,195538.977,,24,wooden
screen,html.Screen,0_4_1_0_1_25,2021-11-12T13:23:24.319Z,,,,,,,,,,,,,,,,11,,,,,,,,,,,,,,662.3230000119074,,response,,,4,D,,,,,Space,keypress(Space),,,,silence,----- -- ---- --- -- --- -------- ------------ ---------- --<br>- ------- ------ --------- -- ------------ -- --- ---- -----<br>------ ---- ---- ------ ------ tablets --- ----- ---------<br>---- --- -------- -------- --- --- -- ------- --- --- -----<br>-- --- ------ ------- --- --- -------- ---- --------- --<br>---------- -- -------- ----------------,196201.90000003576,196201.30000001192,195522.312,195522.19999998808,195538.977,196205.71,,25,tablets
screen,html.Screen,0_4_1_0_1_26,2021-11-12T13:23:24.855Z,,,,,,,,,,,,,,,,11,,,,,,,,,,,,,,531.4899999880872,,response,,,4,D,,,,,Space,keypress(Space),,,,silence,----- -- ---- --- -- --- -------- ------------ ---------- --<br>- ------- ------ --------- -- ------------ -- --- ---- -----<br>------ ---- ---- ------ ------ ------- and ----- ---------<br>---- --- -------- -------- --- --- -- ------- --- --- -----<br>-- --- ------ ------- --- --- -------- ---- --------- --<br>---------- -- -------- ----------------,196737.90000003576,196737.19999998808,196189.044,196202,196205.71,196738.921,,26,and
screen,html.Screen,0_4_1_0_1_27,2021-11-12T13:23:25.407Z,,,,,,,,,,,,,,,,11,,,,,,,,,,,,,,550.278999988077,,response,,,4,D,,,,,Space,keypress(Space),,,,silence,----- -- ---- --- -- --- -------- ------------ ---------- --<br>- ------- ------ --------- -- ------------ -- --- ---- -----<br>------ ---- ---- ------ ------ ------- --- other ---------<br>---- --- -------- -------- --- --- -- ------- --- --- -----<br>-- --- ------ ------- --- --- -------- ---- --------- --<br>---------- -- -------- ----------------,197289.90000003576,197289.19999998808,196722.256,196738.10000002384,196738.921,197305.563,,27,other
screen,html.Screen,0_4_1_0_1_28,2021-11-12T13:23:26.135Z,,,,,,,,,,,,,,,,11,,,,,,,,,,,,,,711.6369999880844,,response,,,4,D,,,,,Space,keypress(Space),,,,silence,----- -- ---- --- -- --- -------- ------------ ---------- --<br>- ------- ------ --------- -- ------------ -- --- ---- -----<br>------ ---- ---- ------ ------ ------- --- ----- artifacts<br>---- --- -------- -------- --- --- -- ------- --- --- -----<br>-- --- ------ ------- --- --- -------- ---- --------- --<br>---------- -- -------- ----------------,198017.90000003576,198017.19999998808,197288.898,197290,197305.563,198022.253,,28,artifacts
screen,html.Screen,0_4_1_0_1_29,2021-11-12T13:23:26.799Z,,,,,,,,,,,,,,,,11,,,,,,,,,,,,,,658.9469999880821,,response,,,4,D,,,,,Space,keypress(Space),,,,silence,----- -- ---- --- -- --- -------- ------------ ---------- --<br>- ------- ------ --------- -- ------------ -- --- ---- -----<br>------ ---- ---- ------ ------ ------- --- ----- ---------<br>from --- -------- -------- --- --- -- ------- --- --- -----<br>-- --- ------ ------- --- --- -------- ---- --------- --<br>---------- -- -------- ----------------,198681.69999998808,198681.19999998808,198005.587,198018,198022.253,198688.739,,29,from
screen,html.Screen,0_4_1_0_1_30,2021-11-12T13:23:27.223Z,,,,,,,,,,,,,,,,11,,,,,,,,,,,,,,416.36100002384046,,response,,,4,D,,,,,Space,keypress(Space),,,,silence,----- -- ---- --- -- --- -------- ------------ ---------- --<br>- ------- ------ --------- -- ------------ -- --- ---- -----<br>------ ---- ---- ------ ------ ------- --- ----- ---------<br>---- the -------- -------- --- --- -- ------- --- --- -----<br>-- --- ------ ------- --- --- -------- ---- --------- --<br>---------- -- -------- ----------------,199105.80000001192,199105.10000002384,198672.075,198681.90000003576,198688.739,199122.139,,30,the
screen,html.Screen,0_4_1_0_1_31,2021-11-12T13:23:27.767Z,,,,,,,,,,,,,,,,11,,,,,,,,,,,,,,526.8610000000044,,response,,,4,D,,,,,Space,keypress(Space),,,,silence,----- -- ---- --- -- --- -------- ------------ ---------- --<br>- ------- ------ --------- -- ------------ -- --- ---- -----<br>------ ---- ---- ------ ------ ------- --- ----- ---------<br>---- --- island's -------- --- --- -- ------- --- --- -----<br>-- --- ------ ------- --- --- -------- ---- --------- --<br>---------- -- -------- ----------------,199649.69999998808,199649,199105.474,199105.90000003576,199122.139,199655.448,,31,island's
screen,html.Screen,0_4_1_0_1_32,2021-11-12T13:23:28.399Z,,,,,,,,,,,,,,,,11,,,,,,,,,,,,,,625.551999999996,,response,,,4,D,,,,,Space,keypress(Space),,,,silence,----- -- ---- --- -- --- -------- ------------ ---------- --<br>- ------- ------ --------- -- ------------ -- --- ---- -----<br>------ ---- ---- ------ ------ ------- --- ----- ---------<br>---- --- -------- history. --- --- -- ------- --- --- -----<br>-- --- ------ ------- --- --- -------- ---- --------- --<br>---------- -- -------- ----------------,200281.69999998808,200281,199638.783,199649.90000003576,199655.448,200288.64,,32,history.
screen,html.Screen,0_4_1_0_1_33,2021-11-12T13:23:28.831Z,,,,,,,,,,,,,,,,11,,,,,,,,,,,,,,424.66000001190696,,response,,,4,D,,,,,Space,keypress(Space),,,,silence,----- -- ---- --- -- --- -------- ------------ ---------- --<br>- ------- ------ --------- -- ------------ -- --- ---- -----<br>------ ---- ---- ------ ------ ------- --- ----- ---------<br>---- --- -------- -------- The --- -- ------- --- --- -----<br>-- --- ------ ------- --- --- -------- ---- --------- --<br>---------- -- -------- ----------------,200713.90000003576,200713.30000001192,200271.976,200281.80000001192,200288.64,200722.012,,33,The
screen,html.Screen,0_4_1_0_1_34,2021-11-12T13:23:29.359Z,,,,,,,,,,,,,,,,11,,,,,,,,,,,,,,518.9880000000121,,response,,,4,D,,,,,Space,keypress(Space),,,,silence,----- -- ---- --- -- --- -------- ------------ ---------- --<br>- ------- ------ --------- -- ------------ -- --- ---- -----<br>------ ---- ---- ------ ------ ------- --- ----- ---------<br>---- --- -------- -------- --- art -- ------- --- --- -----<br>-- --- ------ ------- --- --- -------- ---- --------- --<br>---------- -- -------- ----------------,201241.60000002384,201241,200705.347,200714.10000002384,200722.012,201255.371,,34,art
screen,html.Screen,0_4_1_0_1_35,2021-11-12T13:23:29.759Z,,,,,,,,,,,,,,,,11,,,,,,,,,,,,,,385.52900003574905,,response,,,4,D,,,,,Space,keypress(Space),,,,silence,----- -- ---- --- -- --- -------- ------------ ---------- --<br>- ------- ------ --------- -- ------------ -- --- ---- -----<br>------ ---- ---- ------ ------ ------- --- ----- ---------<br>---- --- -------- -------- --- --- of ------- --- --- -----<br>-- --- ------ ------- --- --- -------- ---- --------- --<br>---------- -- -------- ----------------,201641.60000002384,201640.90000003576,201238.705,201241.80000001192,201255.371,201655.333,,35,of
screen,html.Screen,0_4_1_0_1_36,2021-11-12T13:23:30.279Z,,,,,,,,,,,,,,,,11,,,,,,,,,,,,,,505.5670000357495,,response,,,4,D,,,,,Space,keypress(Space),,,,silence,----- -- ---- --- -- --- -------- ------------ ---------- --<br>- ------- ------ --------- -- ------------ -- --- ---- -----<br>------ ---- ---- ------ ------ ------- --- ----- ---------<br>---- --- -------- -------- --- --- -- writing --- --- -----<br>-- --- ------ ------- --- --- -------- ---- --------- --<br>---------- -- -------- ----------------,202161.69999998808,202160.90000003576,201638.668,201641.69999998808,201655.333,202171.87,,36,writing
screen,html.Screen,0_4_1_0_1_37,2021-11-12T13:23:30.686Z,,,,,,,,,,,,,,,,11,,,,,,,,,,,,,,397.03000003576744,,response,,,4,D,,,,,Space,keypress(Space),,,,silence,----- -- ---- --- -- --- -------- ------------ ---------- --<br>- ------- ------ --------- -- ------------ -- --- ---- -----<br>------ ---- ---- ------ ------ ------- --- ----- ---------<br>---- --- -------- -------- --- --- -- ------- was --- -----<br>-- --- ------ ------- --- --- -------- ---- --------- --<br>---------- -- -------- ----------------,202569.5,202568.90000003576,202155.206,202161.90000003576,202171.87,202571.95,,37,was
screen,html.Screen,0_4_1_0_1_38,2021-11-12T13:23:31.062Z,,,,,,,,,,,,,,,,11,,,,,,,,,,,,,,372.8500000119093,,response,,,4,D,,,,,Space,keypress(Space),,,,silence,----- -- ---- --- -- --- -------- ------------ ---------- --<br>- ------- ------ --------- -- ------------ -- --- ---- -----<br>------ ---- ---- ------ ------ ------- --- ----- ---------<br>---- --- -------- -------- --- --- -- ------- --- not -----<br>-- --- ------ ------- --- --- -------- ---- --------- --<br>---------- -- -------- ----------------,202945.40000003576,202944.80000001192,202555.284,202569.60000002384,202571.95,202955.289,,38,not
screen,html.Screen,0_4_1_0_1_39,2021-11-12T13:23:31.486Z,,,,,,,,,,,,,,,,11,,,,,,,,,,,,,,413.5110000119312,,response,,,4,D,,,,,Space,keypress(Space),,,,silence,----- -- ---- --- -- --- -------- ------------ ---------- --<br>- ------- ------ --------- -- ------------ -- --- ---- -----<br>------ ---- ---- ------ ------ ------- --- ----- ---------<br>---- --- -------- -------- --- --- -- ------- --- --- known<br>-- --- ------ ------- --- --- -------- ---- --------- --<br>---------- -- -------- ----------------,203369.40000003576,203368.80000001192,202938.623,202945.60000002384,202955.289,203371.836,,39,known
screen,html.Screen,0_4_1_0_1_40,2021-11-12T13:23:31.870Z,,,,,,,,,,,,,,,,11,,,,,,,,,,,,,,380.9640000119107,,response,,,4,D,,,,,Space,keypress(Space),,,,silence,----- -- ---- --- -- --- -------- ------------ ---------- --<br>- ------- ------ --------- -- ------------ -- --- ---- -----<br>------ ---- ---- ------ ------ ------- --- ----- ---------<br>---- --- -------- -------- --- --- -- ------- --- --- -----<br>in --- ------ ------- --- --- -------- ---- --------- --<br>---------- -- -------- ----------------,203753.30000001192,203752.80000001192,203355.172,203369.60000002384,203371.836,203755.182,,40,in
screen,html.Screen,0_4_1_0_1_41,2021-11-12T13:23:32.270Z,,,,,,,,,,,,,,,,11,,,,,,,,,,,,,,397.61800001192023,,response,,,4,D,,,,,Space,keypress(Space),,,,silence,----- -- ---- --- -- --- -------- ------------ ---------- --<br>- ------- ------ --------- -- ------------ -- --- ---- -----<br>------ ---- ---- ------ ------ ------- --- ----- ---------<br>---- --- -------- -------- --- --- -- ------- --- --- -----<br>-- any ------ ------- --- --- -------- ---- --------- --<br>---------- -- -------- ----------------,204153.30000001192,204152.80000001192,203738.517,203753.5,203755.182,204155.218,,41,any
screen,html.Screen,0_4_1_0_1_42,2021-11-12T13:23:32.718Z,,,,,,,,,,,,,,,,11,,,,,,,,,,,,,,445.58200001192745,,response,,,4,D,,,,,Space,keypress(Space),,,,silence,----- -- ---- --- -- --- -------- ------------ ---------- --<br>- ------- ------ --------- -- ------------ -- --- ---- -----<br>------ ---- ---- ------ ------ ------- --- ----- ---------<br>---- --- -------- -------- --- --- -- ------- --- --- -----<br>-- --- nearby ------- --- --- -------- ---- --------- --<br>---------- -- -------- ----------------,204601.30000001192,204600.80000001192,204138.552,204153.5,204155.218,204605.021,,42,nearby
screen,html.Screen,0_4_1_0_1_43,2021-11-12T13:23:33.158Z,,,,,,,,,,,,,,,,11,,,,,,,,,,,,,,435.67899998807115,,response,,,4,D,,,,,Space,keypress(Space),,,,silence,----- -- ---- --- -- --- -------- ------------ ---------- --<br>- ------- ------ --------- -- ------------ -- --- ---- -----<br>------ ---- ---- ------ ------ ------- --- ----- ---------<br>---- --- -------- -------- --- --- -- ------- --- --- -----<br>-- --- ------ islands --- --- -------- ---- --------- --<br>---------- -- -------- ----------------,205041.30000001192,205040.69999998808,204588.358,204601.5,204605.021,205055.024,,43,islands
screen,html.Screen,0_4_1_0_1_44,2021-11-12T13:23:33.598Z,,,,,,,,,,,,,,,,11,,,,,,,,,,,,,,425.6759999880742,,response,,,4,D,,,,,Space,keypress(Space),,,,silence,----- -- ---- --- -- --- -------- ------------ ---------- --<br>- ------- ------ --------- -- ------------ -- --- ---- -----<br>------ ---- ---- ------ ------ ------- --- ----- ---------<br>---- --- -------- -------- --- --- -- ------- --- --- -----<br>-- --- ------ ------- and --- -------- ---- --------- --<br>---------- -- -------- ----------------,205481.40000003576,205480.69999998808,205038.36,205041.5,205055.024,205488.372,,44,and
screen,html.Screen,0_4_1_0_1_45,2021-11-12T13:23:33.982Z,,,,,,,,,,,,,,,,11,,,,,,,,,,,,,,376.22800002383883,,response,,,4,D,,,,,Space,keypress(Space),,,,silence,----- -- ---- --- -- --- -------- ------------ ---------- --<br>- ------- ------ --------- -- ------------ -- --- ---- -----<br>------ ---- ---- ------ ------ ------- --- ----- ---------<br>---- --- -------- -------- --- --- -- ------- --- --- -----<br>-- --- ------ ------- --- the -------- ---- --------- --<br>---------- -- -------- ----------------,205865.30000001192,205864.60000002384,205471.707,205481.5,205488.372,205871.701,,45,the
screen,html.Screen,0_4_1_0_1_46,2021-11-12T13:23:34.438Z,,,,,,,,,,,,,,,,11,,,,,,,,,,,,,,448.99899998807814,,response,,,4,D,,,,,Space,keypress(Space),,,,silence,----- -- ---- --- -- --- -------- ------------ ---------- --<br>- ------- ------ --------- -- ------------ -- --- ---- -----<br>------ ---- ---- ------ ------ ------- --- ----- ---------<br>---- --- -------- -------- --- --- -- ------- --- --- -----<br>-- --- ------ ------- --- --- script's ---- --------- --<br>---------- -- -------- ----------------,206321.19999998808,206320.69999998808,205855.036,205865.40000003576,205871.701,206338.404,,46,script's
screen,html.Screen,0_4_1_0_1_47,2021-11-12T13:23:34.894Z,,,,,,,,,,,,,,,,11,,,,,,,,,,,,,,438.1960000238323,,response,,,4,D,,,,,Space,keypress(Space),,,,silence,----- -- ---- --- -- --- -------- ------------ ---------- --<br>- ------- ------ --------- -- ------------ -- --- ---- -----<br>------ ---- ---- ------ ------ ------- --- ----- ---------<br>---- --- -------- -------- --- --- -- ------- --- --- -----<br>-- --- ------ ------- --- --- -------- mere --------- --<br>---------- -- -------- ----------------,206777.30000001192,206776.60000002384,206321.738,206321.5,206338.404,206788.319,,47,mere
screen,html.Screen,0_4_1_0_1_48,2021-11-12T13:23:35.366Z,,,,,,,,,,,,,,,,11,,,,,,,,,,,,,,460.28100002385327,,response,,,4,D,,,,,Space,keypress(Space),,,,silence,----- -- ---- --- -- --- -------- ------------ ---------- --<br>- ------- ------ --------- -- ------------ -- --- ---- -----<br>------ ---- ---- ------ ------ ------- --- ----- ---------<br>---- --- -------- -------- --- --- -- ------- --- --- -----<br>-- --- ------ ------- --- --- -------- ---- existence --<br>---------- -- -------- ----------------,207249.19999998808,207248.60000002384,206771.654,206777.40000003576,206788.319,207255.018,,48,existence
screen,html.Screen,0_4_1_0_1_49,2021-11-12T13:23:35.806Z,,,,,,,,,,,,,,,,11,,,,,,,,,,,,,,433.5820000238309,,response,,,4,D,,,,,Space,keypress(Space),,,,silence,----- -- ---- --- -- --- -------- ------------ ---------- --<br>- ------- ------ --------- -- ------------ -- --- ---- -----<br>------ ---- ---- ------ ------ ------- --- ----- ---------<br>---- --- -------- -------- --- --- -- ------- --- --- -----<br>-- --- ------ ------- --- --- -------- ---- --------- is<br>---------- -- -------- ----------------,207689.19999998808,207688.60000002384,207238.352,207249.40000003576,207255.018,207704.939,,49,is
screen,html.Screen,0_4_1_0_1_50,2021-11-12T13:23:36.310Z,,,,,,,,,,,,,,,,11,,,,,,,,,,,,,,487.6610000238288,,response,,,4,D,,,,,Space,keypress(Space),,,,silence,----- -- ---- --- -- --- -------- ------------ ---------- --<br>- ------- ------ --------- -- ------------ -- --- ---- -----<br>------ ---- ---- ------ ------ ------- --- ----- ---------<br>---- --- -------- -------- --- --- -- ------- --- --- -----<br>-- --- ------ ------- --- --- -------- ---- --------- --<br>sufficient -- -------- ----------------,208193.10000002384,208192.60000002384,207688.274,207689.40000003576,207704.939,208204.896,,50,sufficient
screen,html.Screen,0_4_1_0_1_51,2021-11-12T13:23:36.998Z,,,,,,,,,,,,,,,,11,,,,,,,,,,,,,,675.6039999999921,,response,,,4,D,,,,,Space,keypress(Space),,,,silence,----- -- ---- --- -- --- -------- ------------ ---------- --<br>- ------- ------ --------- -- ------------ -- --- ---- -----<br>------ ---- ---- ------ ------ ------- --- ----- ---------<br>---- --- -------- -------- --- --- -- ------- --- --- -----<br>-- --- ------ ------- --- --- -------- ---- --------- --<br>---------- to -------- ----------------,208881.10000002384,208880.5,208188.231,208193.19999998808,208204.896,208888.245,,51,to
