sender,sender_type,sender_id,timestamp,meta,,Blues,Classical,Country,Dance,Electronic,Folk,Gospel,Hip-Hop,Jazz,Latin,Musical/Film,New-age,Pop,Provo_ID,R&B,Rap,Reggae,Religious,Rock,Soul,Swing,Traditional,age,artist_name,correct,correctResponse,distraction,duration,education,ended_on,familiarity,gender,item,list,music_frequency,offensiveness,pleasantness,preference,response,response_action,snippet_file,song_name,song_rating,sound,text,time_commit,time_end,time_render,time_run,time_show,time_switch,url,word,word_ID
Instructions,html.Page,0_0,2021-11-26T11:59:23.465Z,"{""labjs_version"":""20.2.3"",""labjs_build"":{""flavor"":""production"",""commit"":""7ea907d66ca8aeef8054924ca5d82ffbe11e34e5""},""location"":""https://run.pavlovia.org/mvasilev/lab_music_e/"",""userAgent"":""Mozilla/5.0 (Windows NT 6.1; Win64; x64) AppleWebKit/537.36 (KHTML, like Gecko) Chrome/96.0.4664.45 Safari/537.36"",""platform"":""Win32"",""language"":""en-US"",""locale"":""en-US"",""timeZone"":""Europe/London"",""timezoneOffset"":0,""screen_width"":1920,""screen_height"":1080,""scroll_width"":1920,""scroll_height"":959,""window_innerWidth"":1920,""window_innerHeight"":1007,""devicePixelRatio"":1}",,,,,,,,,,,,,,,,,,,,,,,,,,,,,2160.8709999046323,,form submission,,,,,,,,,,,,,,,,10123.200000047684,10122.099999904633,7944.559,7952.799999952316,7961.229,10125.89,{},,
Headphones,html.Page,0_1,2021-11-26T11:59:26.980Z,,,,,,,,,,,,,,,,,,,,,,,,,,,,,,3512.209999904633,,form submission,,,,,,,,,,,,,,,,13638.599999904633,13638.099999904633,10109.246,10123.899999856949,10125.89,13646.027,,,
Holding screen,html.Screen,0_2_0_0,2021-11-26T11:59:36.979Z,,,,,,,,,,,,,,,,,,,,,,,,,,,,,,10002.423,,timeout,,,,,,,,,,,,,,,,23637.89999985695,23631.781,13629.357,13639.099999904633,13646.027,23648.45,,,
screen,html.Screen,0_2_0_1_0,2021-11-26T11:59:38.699Z,,,,,,,,,,,,,,,,53,,,,,,,,,,,,,,1708.0499999999993,,response,,,99,,,,,,Space,keypress(Space),,,,,When -- ----- -- ------ - ------- --- ----------<br>------------- ------ ------ ---- ---- ------- ----- -- ----<br>-------- ------- -- ---------- --- - --- ----- ----- ----<br>---- --- --- ----- --- ---- ---- ------- ----- ---- -------<br>--- --- -- ----- -- --- ---- -- --- ---- -- ------ ------<br>--- ----- -- ----,25357.89999985695,25356.5,23631.781,23638.39999985695,23648.45,25365.758,,0,When
screen,html.Screen,0_2_0_1_1,2021-11-26T11:59:39.427Z,,,,,,,,,,,,,,,,53,,,,,,,,,,,,,,718.4420000476821,,response,,,99,,,,,,Space,keypress(Space),,,,,---- it ----- -- ------ - ------- --- ----------<br>------------- ------ ------ ---- ---- ------- ----- -- ----<br>-------- ------- -- ---------- --- - --- ----- ----- ----<br>---- --- --- ----- --- ---- ---- ------- ----- ---- -------<br>--- --- -- ----- -- --- ---- -- --- ---- -- ------ ------<br>--- ----- -- ----,26085,26084.200000047684,25349.087,25358.299999952316,25365.758,26099.211,,1,it
screen,html.Screen,0_2_0_1_2,2021-11-26T11:59:40.034Z,,,,,,,,,,,,,,,,53,,,,,,,,,,,,,,592.8889999046332,,response,,,99,,,,,,Space,keypress(Space),,,,,---- -- comes -- ------ - ------- --- ----------<br>------------- ------ ------ ---- ---- ------- ----- -- ----<br>-------- ------- -- ---------- --- - --- ----- ----- ----<br>---- --- --- ----- --- ---- ---- ------- ----- ---- -------<br>--- --- -- ----- -- --- ---- -- --- ---- -- ------ ------<br>--- ----- -- ----,26693,26692.099999904633,26082.541,26085.299999952316,26099.211,26699.299,,2,comes
screen,html.Screen,0_2_0_1_3,2021-11-26T11:59:40.683Z,,,,,,,,,,,,,,,,53,,,,,,,,,,,,,,640.8009999046335,,response,,,99,,,,,,Space,keypress(Space),,,,,---- -- ----- to ------ - ------- --- ----------<br>------------- ------ ------ ---- ---- ------- ----- -- ----<br>-------- ------- -- ---------- --- - --- ----- ----- ----<br>---- --- --- ----- --- ---- ---- ------- ----- ---- -------<br>--- --- -- ----- -- --- ---- -- --- ---- -- ------ ------<br>--- ----- -- ----,27341.099999904633,27340.099999904633,26682.629,26693.299999952316,26699.299,27349.48,,3,to
screen,html.Screen,0_2_0_1_4,2021-11-26T11:59:41.339Z,,,,,,,,,,,,,,,,53,,,,,,,,,,,,,,646.5200000000004,,response,,,99,,,,,,Space,keypress(Space),,,,,---- -- ----- -- having - ------- --- ----------<br>------------- ------ ------ ---- ---- ------- ----- -- ----<br>-------- ------- -- ---------- --- - --- ----- ----- ----<br>---- --- --- ----- --- ---- ---- ------- ----- ---- -------<br>--- --- -- ----- -- --- ---- -- --- ---- -- ------ ------<br>--- ----- -- ----,27997.099999904633,27996,27332.81,27341.5,27349.48,27999.795,,4,having
screen,html.Screen,0_2_0_1_5,2021-11-26T11:59:41.962Z,,,,,,,,,,,,,,,,53,,,,,,,,,,,,,,620.004999952318,,response,,,99,,,,,,Space,keypress(Space),,,,,---- -- ----- -- ------ a ------- --- ----------<br>------------- ------ ------ ---- ---- ------- ----- -- ----<br>-------- ------- -- ---------- --- - --- ----- ----- ----<br>---- --- --- ----- --- ---- ---- ------- ----- ---- -------<br>--- --- -- ----- -- --- ---- -- --- ---- -- ------ ------<br>--- ----- -- ----,28620.700000047684,28619.799999952316,27983.123,27997.39999985695,27999.795,28633.083,,5,a
screen,html.Screen,0_2_0_1_6,2021-11-26T11:59:42.578Z,,,,,,,,,,,,,,,,53,,,,,,,,,,,,,,602.9170000000013,,response,,,99,,,,,,Space,keypress(Space),,,,,---- -- ----- -- ------ - lasting --- ----------<br>------------- ------ ------ ---- ---- ------- ----- -- ----<br>-------- ------- -- ---------- --- - --- ----- ----- ----<br>---- --- --- ----- --- ---- ---- ------- ----- ---- -------<br>--- --- -- ----- -- --- ---- -- --- ---- -- ------ ------<br>--- ----- -- ----,29236.89999985695,29236,28616.414,28621.200000047684,28633.083,29249.994,,6,lasting
screen,html.Screen,0_2_0_1_7,2021-11-26T11:59:43.234Z,,,,,,,,,,,,,,,,53,,,,,,,,,,,,,,641.9059998569501,,response,,,99,,,,,,Space,keypress(Space),,,,,---- -- ----- -- ------ - ------- and ----------<br>------------- ------ ------ ---- ---- ------- ----- -- ----<br>-------- ------- -- ---------- --- - --- ----- ----- ----<br>---- --- --- ----- --- ---- ---- ------- ----- ---- -------<br>--- --- -- ----- -- --- ---- -- --- ---- -- ------ ------<br>--- ----- -- ----,29892.799999952316,29891.89999985695,29233.324,29237.099999904633,29249.994,29900.018,,7,and
screen,html.Screen,0_2_0_1_8,2021-11-26T11:59:43.874Z,,,,,,,,,,,,,,,,53,,,,,,,,,,,,,,631.7819999523163,,response,,,99,,,,,,Space,keypress(Space),,,,,---- -- ----- -- ------ - ------- --- fulfilling<br>------------- ------ ------ ---- ---- ------- ----- -- ----<br>-------- ------- -- ---------- --- - --- ----- ----- ----<br>---- --- --- ----- --- ---- ---- ------- ----- ---- -------<br>--- --- -- ----- -- --- ---- -- --- ---- -- ------ ------<br>--- ----- -- ----,30532.89999985695,30531.799999952316,29883.349,29893.099999904633,29900.018,30550.338,,8,fulfilling
screen,html.Screen,0_2_0_1_9,2021-11-26T11:59:44.714Z,,,,,,,,,,,,,,,,53,,,,,,,,,,,,,,821.362000047684,,response,,,99,,,,,,Space,keypress(Space),,,,,"---- -- ----- -- ------ - ------- --- ----------<br>relationship, ------ ------ ---- ---- ------- ----- -- ----<br>-------- ------- -- ---------- --- - --- ----- ----- ----<br>---- --- --- ----- --- ---- ---- ------- ----- ---- -------<br>--- --- -- ----- -- --- ---- -- --- ---- -- ------ ------<br>--- ----- -- ----",31372.700000047684,31371.700000047684,30533.667,30533.200000047684,30550.338,31383.922,,9,"relationship,"
screen,html.Screen,0_2_0_1_10,2021-11-26T11:59:45.362Z,,,,,,,,,,,,,,,,53,,,,,,,,,,,,,,635.778000047685,,response,,,99,,,,,,Space,keypress(Space),,,,,---- -- ----- -- ------ - ------- --- ----------<br>------------- common ------ ---- ---- ------- ----- -- ----<br>-------- ------- -- ---------- --- - --- ----- ----- ----<br>---- --- --- ----- --- ---- ---- ------- ----- ---- -------<br>--- --- -- ----- -- --- ---- -- --- ---- -- ------ ------<br>--- ----- -- ----,32020.599999904633,32019.700000047684,31367.251,31373,31383.922,32033.978,,10,common
screen,html.Screen,0_2_0_1_11,2021-11-26T11:59:46.010Z,,,,,,,,,,,,,,,,53,,,,,,,,,,,,,,633.7220000476846,,response,,,99,,,,,,Space,keypress(Space),,,,,---- -- ----- -- ------ - ------- --- ----------<br>------------- ------ wisdom ---- ---- ------- ----- -- ----<br>-------- ------- -- ---------- --- - --- ----- ----- ----<br>---- --- --- ----- --- ---- ---- ------- ----- ---- -------<br>--- --- -- ----- -- --- ---- -- --- ---- -- ------ ------<br>--- ----- -- ----,32668.700000047684,32667.700000047684,32017.308,32020.89999985695,32033.978,32684.161,,11,wisdom
screen,html.Screen,0_2_0_1_12,2021-11-26T11:59:46.818Z,,,,,,,,,,,,,,,,53,,,,,,,,,,,,,,791.4389999046325,,response,,,99,,,,,,Space,keypress(Space),,,,,---- -- ----- -- ------ - ------- --- ----------<br>------------- ------ ------ says ---- ------- ----- -- ----<br>-------- ------- -- ---------- --- - --- ----- ----- ----<br>---- --- --- ----- --- ---- ---- ------- ----- ---- -------<br>--- --- -- ----- -- --- ---- -- --- ---- -- ------ ------<br>--- ----- -- ----,33476.5,33475.59999990463,32667.491,32669,32684.161,33484.211,,12,says
screen,html.Screen,0_2_0_1_13,2021-11-26T11:59:47.626Z,,,,,,,,,,,,,,,,53,,,,,,,,,,,,,,799.3889999046296,,response,,,99,,,,,,Space,keypress(Space),,,,,---- -- ----- -- ------ - ------- --- ----------<br>------------- ------ ------ ---- that ------- ----- -- ----<br>-------- ------- -- ---------- --- - --- ----- ----- ----<br>---- --- --- ----- --- ---- ---- ------- ----- ---- -------<br>--- --- -- ----- -- --- ---- -- --- ---- -- ------ ------<br>--- ----- -- ----,34284.39999985695,34283.59999990463,33467.542,33476.700000047684,33484.211,34301.273,,13,that
screen,html.Screen,0_2_0_1_14,2021-11-26T11:59:48.546Z,,,,,,,,,,,,,,,,53,,,,,,,,,,,,,,902.226999999999,,response,,,99,,,,,,Space,keypress(Space),,,,,---- -- ----- -- ------ - ------- --- ----------<br>------------- ------ ------ ---- ---- feeling ----- -- ----<br>-------- ------- -- ---------- --- - --- ----- ----- ----<br>---- --- --- ----- --- ---- ---- ------- ----- ---- -------<br>--- --- -- ----- -- --- ---- -- --- ---- -- ------ ------<br>--- ----- -- ----,35204.299999952316,35203.5,34284.602,34284.700000047684,34301.273,35218.084,,14,feeling
screen,html.Screen,0_2_0_1_15,2021-11-26T11:59:49.250Z,,,,,,,,,,,,,,,,53,,,,,,,,,,,,,,689.9159999999974,,response,,,99,,,,,,Space,keypress(Space),,,,,---- -- ----- -- ------ - ------- --- ----------<br>------------- ------ ------ ---- ---- ------- close -- ----<br>-------- ------- -- ---------- --- - --- ----- ----- ----<br>---- --- --- ----- --- ---- ---- ------- ----- ---- -------<br>--- --- -- ----- -- --- ---- -- --- ---- -- ------ ------<br>--- ----- -- ----,35908.700000047684,35908,35201.414,35204.5,35218.084,35918.288,,15,close
screen,html.Screen,0_2_0_1_16,2021-11-26T11:59:49.922Z,,,,,,,,,,,,,,,,53,,,,,,,,,,,,,,661.1119998569484,,response,,,99,,,,,,Space,keypress(Space),,,,,---- -- ----- -- ------ - ------- --- ----------<br>------------- ------ ------ ---- ---- ------- ----- to ----<br>-------- ------- -- ---------- --- - --- ----- ----- ----<br>---- --- --- ----- --- ---- ---- ------- ----- ---- -------<br>--- --- -- ----- -- --- ---- -- --- ---- -- ------ ------<br>--- ----- -- ----,36580.200000047684,36579.39999985695,35901.618,35909,35918.288,36585.103,,16,to
screen,html.Screen,0_2_0_1_17,2021-11-26T11:59:50.538Z,,,,,,,,,,,,,,,,53,,,,,,,,,,,,,,610.2969998569461,,response,,,99,,,,,,Space,keypress(Space),,,,,---- -- ----- -- ------ - ------- --- ----------<br>------------- ------ ------ ---- ---- ------- ----- -- your<br>-------- ------- -- ---------- --- - --- ----- ----- ----<br>---- --- --- ----- --- ---- ---- ------- ----- ---- -------<br>--- --- -- ----- -- --- ---- -- --- ---- -- ------ ------<br>--- ----- -- ----,37196.200000047684,37195.39999985695,36568.433,36580.39999985695,36585.103,37201.929,,17,your
screen,html.Screen,0_2_0_1_18,2021-11-26T11:59:51.314Z,,,,,,,,,,,,,,,,53,,,,,,,,,,,,,,769.3709999523198,,response,,,99,,,,,,Space,keypress(Space),,,,,---- -- ----- -- ------ - ------- --- ----------<br>------------- ------ ------ ---- ---- ------- ----- -- ----<br>romantic ------- -- ---------- --- - --- ----- ----- ----<br>---- --- --- ----- --- ---- ---- ------- ----- ---- -------<br>--- --- -- ----- -- --- ---- -- --- ---- -- ------ ------<br>--- ----- -- ----,37972.09999990463,37971.299999952316,37185.259,37196.5,37201.929,37985.444,,18,romantic
screen,html.Screen,0_2_0_1_19,2021-11-26T11:59:52.034Z,,,,,,,,,,,,,,,,53,,,,,,,,,,,,,,705.8559999523131,,response,,,99,,,,,,Space,keypress(Space),,,,,---- -- ----- -- ------ - ------- --- ----------<br>------------- ------ ------ ---- ---- ------- ----- -- ----<br>-------- partner -- ---------- --- - --- ----- ----- ----<br>---- --- --- ----- --- ---- ---- ------- ----- ---- -------<br>--- --- -- ----- -- --- ---- -- --- ---- -- ------ ------<br>--- ----- -- ----,38692.09999990463,38691.299999952316,37968.774,37972.299999952316,37985.444,38702.267,,19,partner
screen,html.Screen,0_2_0_1_20,2021-11-26T11:59:52.618Z,,,,,,,,,,,,,,,,53,,,,,,,,,,,,,,573.0329999523165,,response,,,99,,,,,,Space,keypress(Space),,,,,---- -- ----- -- ------ - ------- --- ----------<br>------------- ------ ------ ---- ---- ------- ----- -- ----<br>-------- ------- is ---------- --- - --- ----- ----- ----<br>---- --- --- ----- --- ---- ---- ------- ----- ---- -------<br>--- --- -- ----- -- --- ---- -- --- ---- -- ------ ------<br>--- ----- -- ----,39276,39275.299999952316,38685.597,38692.299999952316,38702.267,39285.632,,20,is
screen,html.Screen,0_2_0_1_21,2021-11-26T11:59:53.290Z,,,,,,,,,,,,,,,,53,,,,,,,,,,,,,,661.5680000476859,,response,,,99,,,,,,Space,keypress(Space),,,,,---- -- ----- -- ------ - ------- --- ----------<br>------------- ------ ------ ---- ---- ------- ----- -- ----<br>-------- ------- -- paramount. --- - --- ----- ----- ----<br>---- --- --- ----- --- ---- ---- ------- ----- ---- -------<br>--- --- -- ----- -- --- ---- -- --- ---- -- ------ ------<br>--- ----- -- ----,39948,39947.200000047684,39268.963,39276.200000047684,39285.632,39952.68,,21,paramount.
screen,html.Screen,0_2_0_1_22,2021-11-26T11:59:53.873Z,,,,,,,,,,,,,,,,53,,,,,,,,,,,,,,578.4199999046323,,response,,,99,,,,,,Space,keypress(Space),,,,,---- -- ----- -- ------ - ------- --- ----------<br>------------- ------ ------ ---- ---- ------- ----- -- ----<br>-------- ------- -- ---------- But - --- ----- ----- ----<br>---- --- --- ----- --- ---- ---- ------- ----- ---- -------<br>--- --- -- ----- -- --- ---- -- --- ---- -- ------ ------<br>--- ----- -- ----,40531.89999985695,40531.09999990463,39936.009,39948.5,39952.68,40536.041,,22,But
screen,html.Screen,0_2_0_1_23,2021-11-26T11:59:54.441Z,,,,,,,,,,,,,,,,53,,,,,,,,,,,,,,563.0589999046351,,response,,,99,,,,,,Space,keypress(Space),,,,,---- -- ----- -- ------ - ------- --- ----------<br>------------- ------ ------ ---- ---- ------- ----- -- ----<br>-------- ------- -- ---------- --- a --- ----- ----- ----<br>---- --- --- ----- --- ---- ---- ------- ----- ---- -------<br>--- --- -- ----- -- --- ---- -- --- ---- -- ------ ------<br>--- ----- -- ----,41099.89999985695,41099.09999990463,40519.371,40532.200000047684,40536.041,41102.889,,23,a
screen,html.Screen,0_2_0_1_24,2021-11-26T11:59:55.217Z,,,,,,,,,,,,,,,,53,,,,,,,,,,,,,,772.2109999046297,,response,,,99,,,,,,Space,keypress(Space),,,,,---- -- ----- -- ------ - ------- --- ----------<br>------------- ------ ------ ---- ---- ------- ----- -- ----<br>-------- ------- -- ---------- --- - new ----- ----- ----<br>---- --- --- ----- --- ---- ---- ------- ----- ---- -------<br>--- --- -- ----- -- --- ---- -- --- ---- -- ------ ------<br>--- ----- -- ----,41875.799999952316,41875.09999990463,41086.219,41100.09999990463,41102.889,41886.373,,24,new
screen,html.Screen,0_2_0_1_25,2021-11-26T11:59:55.865Z,,,,,,,,,,,,,,,,53,,,,,,,,,,,,,,636.726999904633,,response,,,99,,,,,,Space,keypress(Space),,,,,---- -- ----- -- ------ - ------- --- ----------<br>------------- ------ ------ ---- ---- ------- ----- -- ----<br>-------- ------- -- ---------- --- - --- study ----- ----<br>---- --- --- ----- --- ---- ---- ------- ----- ---- -------<br>--- --- -- ----- -- --- ---- -- --- ---- -- ------ ------<br>--- ----- -- ----,42523.799999952316,42523.09999990463,41869.703,41876.09999990463,41886.373,42536.542,,25,study
screen,html.Screen,0_2_0_1_26,2021-11-26T11:59:56.465Z,,,,,,,,,,,,,,,,53,,,,,,,,,,,,,,586.4579999999987,,response,,,99,,,,,,Space,keypress(Space),,,,,---- -- ----- -- ------ - ------- --- ----------<br>------------- ------ ------ ---- ---- ------- ----- -- ----<br>-------- ------- -- ---------- --- - --- ----- finds ----<br>---- --- --- ----- --- ---- ---- ------- ----- ---- -------<br>--- --- -- ----- -- --- ---- -- --- ---- -- ------ ------<br>--- ----- -- ----,43123.700000047684,43123,42519.872,42524.09999990463,42536.542,43136.639,,26,finds
screen,html.Screen,0_2_0_1_27,2021-11-26T11:59:56.929Z,,,,,,,,,,,,,,,,53,,,,,,,,,,,,,,450.36099999999715,,response,,,99,,,,,,Space,keypress(Space),,,,,---- -- ----- -- ------ - ------- --- ----------<br>------------- ------ ------ ---- ---- ------- ----- -- ----<br>-------- ------- -- ---------- --- - --- ----- ----- that<br>---- --- --- ----- --- ---- ---- ------- ----- ---- -------<br>--- --- -- ----- -- --- ---- -- --- ---- -- ------ ------<br>--- ----- -- ----,43587.700000047684,43587,43119.969,43124,43136.639,43603.526,,27,that
screen,html.Screen,0_2_0_1_28,2021-11-26T11:59:57.513Z,,,,,,,,,,,,,,,,53,,,,,,,,,,,,,,567.3739998569508,,response,,,99,,,,,,Space,keypress(Space),,,,,---- -- ----- -- ------ - ------- --- ----------<br>------------- ------ ------ ---- ---- ------- ----- -- ----<br>-------- ------- -- ---------- --- - --- ----- ----- ----<br>it's --- --- ----- --- ---- ---- ------- ----- ---- -------<br>--- --- -- ----- -- --- ---- -- --- ---- -- ------ ------<br>--- ----- -- ----,44171.700000047684,44170.89999985695,43586.855,43588,43603.526,44186.964,,28,it's
screen,html.Screen,0_2_0_1_29,2021-11-26T11:59:58.073Z,,,,,,,,,,,,,,,,53,,,,,,,,,,,,,,543.9359998569489,,response,,,99,,,,,,Space,keypress(Space),,,,,---- -- ----- -- ------ - ------- --- ----------<br>------------- ------ ------ ---- ---- ------- ----- -- ----<br>-------- ------- -- ---------- --- - --- ----- ----- ----<br>---- not --- ----- --- ---- ---- ------- ----- ---- -------<br>--- --- -- ----- -- --- ---- -- --- ---- -- ------ ------<br>--- ----- -- ----,44731.700000047684,44730.89999985695,44170.294,44171.89999985695,44186.964,44737.072,,29,not
screen,html.Screen,0_2_0_1_30,2021-11-26T11:59:58.641Z,,,,,,,,,,,,,,,,53,,,,,,,,,,,,,,561.7279999523162,,response,,,99,,,,,,Space,keypress(Space),,,,,---- -- ----- -- ------ - ------- --- ----------<br>------------- ------ ------ ---- ---- ------- ----- -- ----<br>-------- ------- -- ---------- --- - --- ----- ----- ----<br>---- --- how ----- --- ---- ---- ------- ----- ---- -------<br>--- --- -- ----- -- --- ---- -- --- ---- -- ------ ------<br>--- ----- -- ----,45299.59999990463,45298.799999952316,44720.402,44732,44737.072,45303.956,,30,how
screen,html.Screen,0_2_0_1_31,2021-11-26T11:59:59.193Z,,,,,,,,,,,,,,,,53,,,,,,,,,,,,,,546.843999952318,,response,,,99,,,,,,Space,keypress(Space),,,,,---- -- ----- -- ------ - ------- --- ----------<br>------------- ------ ------ ---- ---- ------- ----- -- ----<br>-------- ------- -- ---------- --- - --- ----- ----- ----<br>---- --- --- close --- ---- ---- ------- ----- ---- -------<br>--- --- -- ----- -- --- ---- -- --- ---- -- ------ ------<br>--- ----- -- ----,45851.59999990463,45850.799999952316,45287.285,45299.799999952316,45303.956,45854.022,,31,close
screen,html.Screen,0_2_0_1_32,2021-11-26T11:59:59.625Z,,,,,,,,,,,,,,,,53,,,,,,,,,,,,,,429.07799990463536,,response,,,99,,,,,,Space,keypress(Space),,,,,---- -- ----- -- ------ - ------- --- ----------<br>------------- ------ ------ ---- ---- ------- ----- -- ----<br>-------- ------- -- ---------- --- - --- ----- ----- ----<br>---- --- --- ----- you ---- ---- ------- ----- ---- -------<br>--- --- -- ----- -- --- ---- -- --- ---- -- ------ ------<br>--- ----- -- ----,46283.89999985695,46283.09999990463,45837.352,45851.799999952316,45854.022,46287.473,,32,you
screen,html.Screen,0_2_0_1_33,2021-11-26T12:00:00.033Z,,,,,,,,,,,,,,,,53,,,,,,,,,,,,,,403.2270000476856,,response,,,99,,,,,,Space,keypress(Space),,,,,---- -- ----- -- ------ - ------- --- ----------<br>------------- ------ ------ ---- ---- ------- ----- -- ----<br>-------- ------- -- ---------- --- - --- ----- ----- ----<br>---- --- --- ----- --- feel ---- ------- ----- ---- -------<br>--- --- -- ----- -- --- ---- -- --- ---- -- ------ ------<br>--- ----- -- ----,46691.700000047684,46690.700000047684,46270.803,46284.299999952316,46287.473,46704.24,,33,feel
screen,html.Screen,0_2_0_1_34,2021-11-26T12:00:00.457Z,,,,,,,,,,,,,,,,53,,,,,,,,,,,,,,410.3599999046346,,response,,,99,,,,,,Space,keypress(Space),,,,,---- -- ----- -- ------ - ------- --- ----------<br>------------- ------ ------ ---- ---- ------- ----- -- ----<br>-------- ------- -- ---------- --- - --- ----- ----- ----<br>---- --- --- ----- --- ---- that ------- ----- ---- -------<br>--- --- -- ----- -- --- ---- -- --- ---- -- ------ ------<br>--- ----- -- ----,47115.39999985695,47114.59999990463,46687.57,46692,46704.24,47121.012,,34,that
screen,html.Screen,0_2_0_1_35,2021-11-26T12:00:00.897Z,,,,,,,,,,,,,,,,53,,,,,,,,,,,,,,433.5879999046301,,response,,,99,,,,,,Space,keypress(Space),,,,,---- -- ----- -- ------ - ------- --- ----------<br>------------- ------ ------ ---- ---- ------- ----- -- ----<br>-------- ------- -- ---------- --- - --- ----- ----- ----<br>---- --- --- ----- --- ---- ---- matters ----- ---- -------<br>--- --- -- ----- -- --- ---- -- --- ---- -- ------ ------<br>--- ----- -- ----,47555.39999985695,47554.59999990463,47104.342,47115.59999990463,47121.012,47571.109,,35,matters
screen,html.Screen,0_2_0_1_36,2021-11-26T12:00:01.265Z,,,,,,,,,,,,,,,,53,,,,,,,,,,,,,,351.4909999046358,,response,,,99,,,,,,Space,keypress(Space),,,,,"---- -- ----- -- ------ - ------- --- ----------<br>------------- ------ ------ ---- ---- ------- ----- -- ----<br>-------- ------- -- ---------- --- - --- ----- ----- ----<br>---- --- --- ----- --- ---- ---- ------- most, ---- -------<br>--- --- -- ----- -- --- ---- -- --- ---- -- ------ ------<br>--- ----- -- ----",47923.89999985695,47922.59999990463,47554.439,47555.700000047684,47571.109,47937.864,,36,"most,"
screen,html.Screen,0_2_0_1_37,2021-11-26T12:00:01.657Z,,,,,,,,,,,,,,,,53,,,,,,,,,,,,,,376.6359999999986,,response,,,99,,,,,,Space,keypress(Space),,,,,---- -- ----- -- ------ - ------- --- ----------<br>------------- ------ ------ ---- ---- ------- ----- -- ----<br>-------- ------- -- ---------- --- - --- ----- ----- ----<br>---- --- --- ----- --- ---- ---- ------- ----- it's -------<br>--- --- -- ----- -- --- ---- -- --- ---- -- ------ ------<br>--- ----- -- ----,48315.39999985695,48314.5,47921.194,47924.09999990463,47937.864,48321.301,,37,it's
screen,html.Screen,0_2_0_1_38,2021-11-26T12:00:02.025Z,,,,,,,,,,,,,,,,53,,,,,,,,,,,,,,361.1990000000005,,response,,,99,,,,,,Space,keypress(Space),,,,,---- -- ----- -- ------ - ------- --- ----------<br>------------- ------ ------ ---- ---- ------- ----- -- ----<br>-------- ------- -- ---------- --- - --- ----- ----- ----<br>---- --- --- ----- --- ---- ---- ------- ----- ---- whether<br>--- --- -- ----- -- --- ---- -- --- ---- -- ------ ------<br>--- ----- -- ----,48683.299999952316,48682.5,48304.631,48315.59999990463,48321.301,48688.058,,38,whether
screen,html.Screen,0_2_0_1_39,2021-11-26T12:00:02.385Z,,,,,,,,,,,,,,,,53,,,,,,,,,,,,,,354.44200000000274,,response,,,99,,,,,,Space,keypress(Space),,,,,---- -- ----- -- ------ - ------- --- ----------<br>------------- ------ ------ ---- ---- ------- ----- -- ----<br>-------- ------- -- ---------- --- - --- ----- ----- ----<br>---- --- --- ----- --- ---- ---- ------- ----- ---- -------<br>you --- -- ----- -- --- ---- -- --- ---- -- ------ ------<br>--- ----- -- ----,49043.299999952316,49042.5,48671.388,48683.59999990463,48688.058,49054.816,,39,you
screen,html.Screen,0_2_0_1_40,2021-11-26T12:00:02.713Z,,,,,,,,,,,,,,,,53,,,,,,,,,,,,,,315.58399985694996,,response,,,99,,,,,,Space,keypress(Space),,,,,---- -- ----- -- ------ - ------- --- ----------<br>------------- ------ ------ ---- ---- ------- ----- -- ----<br>-------- ------- -- ---------- --- - --- ----- ----- ----<br>---- --- --- ----- --- ---- ---- ------- ----- ---- -------<br>--- are -- ----- -- --- ---- -- --- ---- -- ------ ------<br>--- ----- -- ----,49371.299999952316,49370.39999985695,49038.146,49043.5,49054.816,49388.217,,40,are
screen,html.Screen,0_2_0_1_41,2021-11-26T12:00:03.081Z,,,,,,,,,,,,,,,,53,,,,,,,,,,,,,,350.38299990463565,,response,,,99,,,,,,Space,keypress(Space),,,,,---- -- ----- -- ------ - ------- --- ----------<br>------------- ------ ------ ---- ---- ------- ----- -- ----<br>-------- ------- -- ---------- --- - --- ----- ----- ----<br>---- --- --- ----- --- ---- ---- ------- ----- ---- -------<br>--- --- as ----- -- --- ---- -- --- ---- -- ------ ------<br>--- ----- -- ----,49739.39999985695,49738.59999990463,49371.547,49371.5,49388.217,49754.98,,41,as
screen,html.Screen,0_2_0_1_42,2021-11-26T12:00:03.417Z,,,,,,,,,,,,,,,,53,,,,,,,,,,,,,,319.5199999999968,,response,,,99,,,,,,Space,keypress(Space),,,,,---- -- ----- -- ------ - ------- --- ----------<br>------------- ------ ------ ---- ---- ------- ----- -- ----<br>-------- ------- -- ---------- --- - --- ----- ----- ----<br>---- --- --- ----- --- ---- ---- ------- ----- ---- -------<br>--- --- -- close -- --- ---- -- --- ---- -- ------ ------<br>--- ----- -- ----,50075.299999952316,50074.5,49738.31,49739.59999990463,49754.98,50088.386,,42,close
screen,html.Screen,0_2_0_1_43,2021-11-26T12:00:03.745Z,,,,,,,,,,,,,,,,53,,,,,,,,,,,,,,314.1140000000014,,response,,,99,,,,,,Space,keypress(Space),,,,,---- -- ----- -- ------ - ------- --- ----------<br>------------- ------ ------ ---- ---- ------- ----- -- ----<br>-------- ------- -- ---------- --- - --- ----- ----- ----<br>---- --- --- ----- --- ---- ---- ------- ----- ---- -------<br>--- --- -- ----- as --- ---- -- --- ---- -- ------ ------<br>--- ----- -- ----,50403.299999952316,50402.5,50071.716,50075.5,50088.386,50405.179,,43,as
screen,html.Screen,0_2_0_1_44,2021-11-26T12:00:04.081Z,,,,,,,,,,,,,,,,53,,,,,,,,,,,,,,333.32100000000355,,response,,,99,,,,,,Space,keypress(Space),,,,,---- -- ----- -- ------ - ------- --- ----------<br>------------- ------ ------ ---- ---- ------- ----- -- ----<br>-------- ------- -- ---------- --- - --- ----- ----- ----<br>---- --- --- ----- --- ---- ---- ------- ----- ---- -------<br>--- --- -- ----- -- you ---- -- --- ---- -- ------ ------<br>--- ----- -- ----,50739.299999952316,50738.5,50388.508,50403.5,50405.179,50755.071,,44,you
screen,html.Screen,0_2_0_1_45,2021-11-26T12:00:04.409Z,,,,,,,,,,,,,,,,53,,,,,,,,,,,,,,311.42899999999645,,response,,,99,,,,,,Space,keypress(Space),,,,,---- -- ----- -- ------ - ------- --- ----------<br>------------- ------ ------ ---- ---- ------- ----- -- ----<br>-------- ------- -- ---------- --- - --- ----- ----- ----<br>---- --- --- ----- --- ---- ---- ------- ----- ---- -------<br>--- --- -- ----- -- --- want -- --- ---- -- ------ ------<br>--- ----- -- ----,51067.200000047684,51066.5,50738.404,50739.59999990463,50755.071,51072.056,,45,want
screen,html.Screen,0_2_0_1_46,2021-11-26T12:00:04.745Z,,,,,,,,,,,,,,,,53,,,,,,,,,,,,,,330.2439999523194,,response,,,99,,,,,,Space,keypress(Space),,,,,---- -- ----- -- ------ - ------- --- ----------<br>------------- ------ ------ ---- ---- ------- ----- -- ----<br>-------- ------- -- ---------- --- - --- ----- ----- ----<br>---- --- --- ----- --- ---- ---- ------- ----- ---- -------<br>--- --- -- ----- -- --- ---- to --- ---- -- ------ ------<br>--- ----- -- ----,51403.09999990463,51402.299999952316,51055.384,51067.39999985695,51072.056,51405.326,,46,to
screen,html.Screen,0_2_0_1_47,2021-11-26T12:00:05.073Z,,,,,,,,,,,,,,,,53,,,,,,,,,,,,,,325.0739998569479,,response,,,99,,,,,,Space,keypress(Space),,,,,"---- -- ----- -- ------ - ------- --- ----------<br>------------- ------ ------ ---- ---- ------- ----- -- ----<br>-------- ------- -- ---------- --- - --- ----- ----- ----<br>---- --- --- ----- --- ---- ---- ------- ----- ---- -------<br>--- --- -- ----- -- --- ---- -- be, ---- -- ------ ------<br>--- ----- -- ----",51731.09999990463,51730.39999985695,51388.657,51403.39999985695,51405.326,51738.835,,47,"be,"
screen,html.Screen,0_2_0_1_48,2021-11-26T12:00:05.393Z,,,,,,,,,,,,,,,,53,,,,,,,,,,,,,,311.5649998569497,,response,,,99,,,,,,Space,keypress(Space),,,,,---- -- ----- -- ------ - ------- --- ----------<br>------------- ------ ------ ---- ---- ------- ----- -- ----<br>-------- ------- -- ---------- --- - --- ----- ----- ----<br>---- --- --- ----- --- ---- ---- ------- ----- ---- -------<br>--- --- -- ----- -- --- ---- -- --- even -- ------ ------<br>--- ----- -- ----,52051.200000047684,52050.39999985695,51722.164,51731.39999985695,51738.835,52055.546,,48,even
screen,html.Screen,0_2_0_1_49,2021-11-26T12:00:05.721Z,,,,,,,,,,,,,,,,53,,,,,,,,,,,,,,322.7539999523142,,response,,,99,,,,,,Space,keypress(Space),,,,,---- -- ----- -- ------ - ------- --- ----------<br>------------- ------ ------ ---- ---- ------- ----- -- ----<br>-------- ------- -- ---------- --- - --- ----- ----- ----<br>---- --- --- ----- --- ---- ---- ------- ----- ---- -------<br>--- --- -- ----- -- --- ---- -- --- ---- if ------ ------<br>--- ----- -- ----,52379.09999990463,52378.299999952316,52038.876,52051.39999985695,52055.546,52388.942,,49,if
screen,html.Screen,0_2_0_1_50,2021-11-26T12:00:06.073Z,,,,,,,,,,,,,,,,53,,,,,,,,,,,,,,341.35799995231355,,response,,,99,,,,,,Space,keypress(Space),,,,,---- -- ----- -- ------ - ------- --- ----------<br>------------- ------ ------ ---- ---- ------- ----- -- ----<br>-------- ------- -- ---------- --- - --- ----- ----- ----<br>---- --- --- ----- --- ---- ---- ------- ----- ---- -------<br>--- --- -- ----- -- --- ---- -- --- ---- -- that's ------<br>--- ----- -- ----,52731.09999990463,52730.299999952316,52372.272,52379.299999952316,52388.942,52738.964,,50,that's
screen,html.Screen,0_2_0_1_51,2021-11-26T12:00:06.449Z,,,,,,,,,,,,,,,,53,,,,,,,,,,,,,,367.33599995231634,,response,,,99,,,,,,Space,keypress(Space),,,,,---- -- ----- -- ------ - ------- --- ----------<br>------------- ------ ------ ---- ---- ------- ----- -- ----<br>-------- ------- -- ---------- --- - --- ----- ----- ----<br>---- --- --- ----- --- ---- ---- ------- ----- ---- -------<br>--- --- -- ----- -- --- ---- -- --- ---- -- ------ really<br>--- ----- -- ----,53107,53106.299999952316,52722.295,52731.299999952316,52738.964,53122.537,,51,really
screen,html.Screen,0_2_0_1_52,2021-11-26T12:00:06.825Z,,,,,,,,,,,,,,,,53,,,,,,,,,,,,,,359.76299995231966,,response,,,99,,,,,,Space,keypress(Space),,,,,---- -- ----- -- ------ - ------- --- ----------<br>------------- ------ ------ ---- ---- ------- ----- -- ----<br>-------- ------- -- ---------- --- - --- ----- ----- ----<br>---- --- --- ----- --- ---- ---- ------- ----- ---- -------<br>--- --- -- ----- -- --- ---- -- --- ---- -- ------ ------<br>not ----- -- ----,53483.09999990463,53482.299999952316,53105.865,53107.299999952316,53122.537,53489.233,,52,not
screen,html.Screen,0_2_0_1_53,2021-11-26T12:00:07.184Z,,,,,,,,,,,,,,,,53,,,,,,,,,,,,,,352.96700004768354,,response,,,99,,,,,,Space,keypress(Space),,,,,---- -- ----- -- ------ - ------- --- ----------<br>------------- ------ ------ ---- ---- ------- ----- -- ----<br>-------- ------- -- ---------- --- - --- ----- ----- ----<br>---- --- --- ----- --- ---- ---- ------- ----- ---- -------<br>--- --- -- ----- -- --- ---- -- --- ---- -- ------ ------<br>--- close -- ----,53842.89999985695,53842.200000047684,53472.563,53483.299999952316,53489.233,53855.961,,53,close
screen,html.Screen,0_2_0_1_54,2021-11-26T12:00:07.536Z,,,,,,,,,,,,,,,,53,,,,,,,,,,,,,,338.23900004768075,,response,,,99,,,,,,Space,keypress(Space),,,,,---- -- ----- -- ------ - ------- --- ----------<br>------------- ------ ------ ---- ---- ------- ----- -- ----<br>-------- ------- -- ---------- --- - --- ----- ----- ----<br>---- --- --- ----- --- ---- ---- ------- ----- ---- -------<br>--- --- -- ----- -- --- ---- -- --- ---- -- ------ ------<br>--- ----- at ----,54195,54194.200000047684,53839.291,53843.200000047684,53855.961,54206.063,,54,at
screen,html.Screen,0_2_0_1_55,2021-11-26T12:00:07.928Z,,,,,,,,,,,,,,,,53,,,,,,,,,,,,,,380.1370000476818,,response,,,99,,,,,,Space,keypress(Space),,,,,---- -- ----- -- ------ - ------- --- ----------<br>------------- ------ ------ ---- ---- ------- ----- -- ----<br>-------- ------- -- ---------- --- - --- ----- ----- ----<br>---- --- --- ----- --- ---- ---- ------- ----- ---- -------<br>--- --- -- ----- -- --- ---- -- --- ---- -- ------ ------<br>--- ----- -- all.,54587,54586.200000047684,54189.393,54195.200000047684,54206.063,54606.168,,55,all.
Item 99,flow.Loop,0_2_0_1,2021-11-26T12:00:07.933Z,,,,,,,,,,,,,,,,,,,,,,,,,,,,,,30937.750000047683,,completion,,,,E,,,,,,,,,,silence,,54591.5,54586.200000047684,23631.781,23638.299999952316,23648.45,54606.168,,,
Question 1,html.Screen,0_2_0_2,2021-11-26T12:00:13.073Z,,,,,,,,,,,,,,,,,,,,,,,,,,,true,FALSE,,5123.431999904635,,response,,,99,E,,,,,FALSE,click #choice-2,,,,silence,,59731,59729.59999990463,54589.498,54591.700000047684,54606.168,59740.479,,,
Question 2,html.Screen,0_2_0_3,2021-11-26T12:00:20.212Z,,,,,,,,,,,,,,,,,,,,,,,,,,,false,TRUE,,7124.620999904633,,response,,,99,E,,,,,FALSE,click #choice-2,,,,silence,,66866.20000004768,66865.09999990463,59723.813,59731.299999952316,59740.479,66875.594,,,
Item 99,flow.Sequence,0_2_0,2021-11-26T12:00:20.213Z,,,,,,,,,,,,,,,,,,,,,,,,,,,,,,53219.07299990463,,completion,,,,,,,,,,,,,,,,66866.59999990463,66865.09999990463,13629.357,13639,13646.027,66875.594,,,
Holding screen,html.Screen,0_2_1_0,2021-11-26T12:00:30.208Z,,,,,,,,,,,,,,,,,,,,,,,,,,,,,,10002.553,,timeout,,,,,,,,,,,,,,,,76862.39999985695,76861.477,66858.934,66867,66875.594,76878.147,,,
screen,html.Screen,0_2_1_1_0,2021-11-26T12:00:31.468Z,,,,,,,,,,,,,,,,54,,,,,,,,,,,,,,1242.8530000000028,,response,,,100,,,,,,Space,keypress(Space),,,,,At --- ---- --- ------ ----- ------- ---- -- --- ------- --<br>------- ---------- ------ -- ----- -- ----- -- ---- ------<br>--- ----- --- --- ------ -------- ----- --- ------ ----- --<br>----- ----- ---------- --- --- ------ ------ ---- -- ------<br>------- --- ------ ----- --- ---- ------- -- ---- --- --<br>------- ------,78122.09999990463,78121,76861.477,76862.89999985695,76878.147,78128.625,,0,At
screen,html.Screen,0_2_1_1_1,2021-11-26T12:00:32.027Z,,,,,,,,,,,,,,,,54,,,,,,,,,,,,,,551.875,,response,,,100,,,,,,Space,keypress(Space),,,,,-- the ---- --- ------ ----- ------- ---- -- --- ------- --<br>------- ---------- ------ -- ----- -- ----- -- ---- ------<br>--- ----- --- --- ------ -------- ----- --- ------ ----- --<br>----- ----- ---------- --- --- ------ ------ ---- -- ------<br>------- --- ------ ----- --- ---- ------- -- ---- --- --<br>------- ------,78681.29999995232,78680.5,78111.954,78122.39999985695,78128.625,78695.256,,1,the
screen,html.Screen,0_2_1_1_2,2021-11-26T12:00:32.531Z,,,,,,,,,,,,,,,,54,,,,,,,,,,,,,,489.1439998569549,,response,,,100,,,,,,Space,keypress(Space),,,,,-- --- time --- ------ ----- ------- ---- -- --- ------- --<br>------- ---------- ------ -- ----- -- ----- -- ---- ------<br>--- ----- --- --- ------ -------- ----- --- ------ ----- --<br>----- ----- ---------- --- --- ------ ------ ---- -- ------<br>------- --- ------ ----- --- ---- ------- -- ---- --- --<br>------- ------,79185.29999995232,79184.39999985695,78678.586,78681.70000004768,78695.256,79195.435,,2,time
screen,html.Screen,0_2_1_1_3,2021-11-26T12:00:32.995Z,,,,,,,,,,,,,,,,54,,,,,,,,,,,,,,452.9649998569512,,response,,,100,,,,,,Space,keypress(Space),,,,,-- --- ---- the ------ ----- ------- ---- -- --- ------- --<br>------- ---------- ------ -- ----- -- ----- -- ---- ------<br>--- ----- --- --- ------ -------- ----- --- ------ ----- --<br>----- ----- ---------- --- --- ------ ------ ---- -- ------<br>------- --- ------ ----- --- ---- ------- -- ---- --- --<br>------- ------,79649.20000004768,79648.39999985695,79178.765,79185.59999990463,79195.435,79662.312,,3,the
screen,html.Screen,0_2_1_1_4,2021-11-26T12:00:33.475Z,,,,,,,,,,,,,,,,54,,,,,,,,,,,,,,465.98799995231093,,response,,,100,,,,,,Space,keypress(Space),,,,,-- --- ---- --- French ----- ------- ---- -- --- ------- --<br>------- ---------- ------ -- ----- -- ----- -- ---- ------<br>--- ----- --- --- ------ -------- ----- --- ------ ----- --<br>----- ----- ---------- --- --- ------ ------ ---- -- ------<br>------- --- ------ ----- --- ---- ------- -- ---- --- --<br>------- ------,80129.20000004768,80128.29999995232,79645.64,79649.5,79662.312,80145.64,,4,French
screen,html.Screen,0_2_1_1_5,2021-11-26T12:00:33.867Z,,,,,,,,,,,,,,,,54,,,,,,,,,,,,,,374.65999995231687,,response,,,100,,,,,,Space,keypress(Space),,,,,-- --- ---- --- ------ crown ------- ---- -- --- ------- --<br>------- ---------- ------ -- ----- -- ----- -- ---- ------<br>--- ----- --- --- ------ -------- ----- --- ------ ----- --<br>----- ----- ---------- --- --- ------ ------ ---- -- ------<br>------- --- ------ ----- --- ---- ------- -- ---- --- --<br>------- ------,80521.29999995232,80520.29999995232,80128.971,80129.5,80145.64,80529.111,,5,crown
screen,html.Screen,0_2_1_1_6,2021-11-26T12:00:34.315Z,,,,,,,,,,,,,,,,54,,,,,,,,,,,,,,439.18899995231186,,response,,,100,,,,,,Space,keypress(Space),,,,,-- --- ---- --- ------ ----- secured ---- -- --- ------- --<br>------- ---------- ------ -- ----- -- ----- -- ---- ------<br>--- ----- --- --- ------ -------- ----- --- ------ ----- --<br>----- ----- ---------- --- --- ------ ------ ---- -- ------<br>------- --- ------ ----- --- ---- ------- -- ---- --- --<br>------- ------,80969.09999990463,80968.29999995232,80512.441,80521.59999990463,80529.111,80979.084,,6,secured
screen,html.Screen,0_2_1_1_7,2021-11-26T12:00:34.739Z,,,,,,,,,,,,,,,,54,,,,,,,,,,,,,,413.2159999523137,,response,,,100,,,,,,Space,keypress(Space),,,,,-- --- ---- --- ------ ----- ------- much -- --- ------- --<br>------- ---------- ------ -- ----- -- ----- -- ---- ------<br>--- ----- --- --- ------ -------- ----- --- ------ ----- --<br>----- ----- ---------- --- --- ------ ------ ---- -- ------<br>------- --- ------ ----- --- ---- ------- -- ---- --- --<br>------- ------,81393.09999990463,81392.29999995232,80962.416,80969.29999995232,80979.084,81396.086,,7,much
screen,html.Screen,0_2_1_1_8,2021-11-26T12:00:35.147Z,,,,,,,,,,,,,,,,54,,,,,,,,,,,,,,404.114000047688,,response,,,100,,,,,,Space,keypress(Space),,,,,-- --- ---- --- ------ ----- ------- ---- of --- ------- --<br>------- ---------- ------ -- ----- -- ----- -- ---- ------<br>--- ----- --- --- ------ -------- ----- --- ------ ----- --<br>----- ----- ---------- --- --- ------ ------ ---- -- ------<br>------- --- ------ ----- --- ---- ------- -- ---- --- --<br>------- ------,81801.09999990463,81800.20000004768,81379.414,81393.39999985695,81396.086,81812.776,,8,of
screen,html.Screen,0_2_1_1_9,2021-11-26T12:00:35.547Z,,,,,,,,,,,,,,,,54,,,,,,,,,,,,,,387.4240000476857,,response,,,100,,,,,,Space,keypress(Space),,,,,-- --- ---- --- ------ ----- ------- ---- -- its ------- --<br>------- ---------- ------ -- ----- -- ----- -- ---- ------<br>--- ----- --- --- ------ -------- ----- --- ------ ----- --<br>----- ----- ---------- --- --- ------ ------ ---- -- ------<br>------- --- ------ ----- --- ---- ------- -- ---- --- --<br>------- ------,82201,82200.20000004768,81796.106,81801.20000004768,81812.776,82212.733,,9,its
screen,html.Screen,0_2_1_1_10,2021-11-26T12:00:35.955Z,,,,,,,,,,,,,,,,54,,,,,,,,,,,,,,395.4670000476908,,response,,,100,,,,,,Space,keypress(Space),,,,,-- --- ---- --- ------ ----- ------- ---- -- --- revenue --<br>------- ---------- ------ -- ----- -- ----- -- ---- ------<br>--- ----- --- --- ------ -------- ----- --- ------ ----- --<br>----- ----- ---------- --- --- ------ ------ ---- -- ------<br>------- --- ------ ----- --- ---- ------- -- ---- --- --<br>------- ------,82609,82608.20000004768,82196.065,82201.29999995232,82212.733,82613.039,,10,revenue
screen,html.Screen,0_2_1_1_11,2021-11-26T12:00:36.355Z,,,,,,,,,,,,,,,,54,,,,,,,,,,,,,,395.1610000476794,,response,,,100,,,,,,Space,keypress(Space),,,,,-- --- ---- --- ------ ----- ------- ---- -- --- ------- by<br>------- ---------- ------ -- ----- -- ----- -- ---- ------<br>--- ----- --- --- ------ -------- ----- --- ------ ----- --<br>----- ----- ---------- --- --- ------ ------ ---- -- ------<br>------- --- ------ ----- --- ---- ------- -- ---- --- --<br>------- ------,83009,83008.20000004768,82596.367,82609.29999995232,82613.039,83013.07,,11,by
screen,html.Screen,0_2_1_1_12,2021-11-26T12:00:36.739Z,,,,,,,,,,,,,,,,54,,,,,,,,,,,,,,379.0299999046256,,response,,,100,,,,,,Space,keypress(Space),,,,,-- --- ---- --- ------ ----- ------- ---- -- --- ------- --<br>issuing ---------- ------ -- ----- -- ----- -- ---- ------<br>--- ----- --- --- ------ -------- ----- --- ------ ----- --<br>----- ----- ---------- --- --- ------ ------ ---- -- ------<br>------- --- ------ ----- --- ---- ------- -- ---- --- --<br>------- ------,83392.79999995232,83392.09999990463,82996.4,83009.20000004768,83013.07,83396.352,,12,issuing
screen,html.Screen,0_2_1_1_13,2021-11-26T12:00:37.179Z,,,,,,,,,,,,,,,,54,,,,,,,,,,,,,,435.7479999046336,,response,,,100,,,,,,Space,keypress(Space),,,,,-- --- ---- --- ------ ----- ------- ---- -- --- ------- --<br>------- government ------ -- ----- -- ----- -- ---- ------<br>--- ----- --- --- ------ -------- ----- --- ------ ----- --<br>----- ----- ---------- --- --- ------ ------ ---- -- ------<br>------- --- ------ ----- --- ---- ------- -- ---- --- --<br>------- ------,83832.79999995232,83832.09999990463,83379.684,83393.09999990463,83396.352,83846.667,,13,government
screen,html.Screen,0_2_1_1_14,2021-11-26T12:00:37.611Z,,,,,,,,,,,,,,,,54,,,,,,,,,,,,,,417.3329999999987,,response,,,100,,,,,,Space,keypress(Space),,,,,-- --- ---- --- ------ ----- ------- ---- -- --- ------- --<br>------- ---------- bonds. -- ----- -- ----- -- ---- ------<br>--- ----- --- --- ------ -------- ----- --- ------ ----- --<br>----- ----- ---------- --- --- ------ ------ ---- -- ------<br>------- --- ------ ----- --- ---- ------- -- ---- --- --<br>------- ------,84264.79999995232,84264,83829.995,83833,83846.667,84280.079,,14,bonds.
screen,html.Screen,0_2_1_1_15,2021-11-26T12:00:38.067Z,,,,,,,,,,,,,,,,54,,,,,,,,,,,,,,440.02099990463466,,response,,,100,,,,,,Space,keypress(Space),,,,,-- --- ---- --- ------ ----- ------- ---- -- --- ------- --<br>------- ---------- ------ In ----- -- ----- -- ---- ------<br>--- ----- --- --- ------ -------- ----- --- ------ ----- --<br>----- ----- ---------- --- --- ------ ------ ---- -- ------<br>------- --- ------ ----- --- ---- ------- -- ---- --- --<br>------- ------,84720.89999985695,84720.09999990463,84263.408,84265.09999990463,84280.079,84730.007,,15,In
screen,html.Screen,0_2_1_1_16,2021-11-26T12:00:38.563Z,,,,,,,,,,,,,,,,54,,,,,,,,,,,,,,486.0929999046348,,response,,,100,,,,,,Space,keypress(Space),,,,,"-- --- ---- --- ------ ----- ------- ---- -- --- ------- --<br>------- ---------- ------ -- 1727, -- ----- -- ---- ------<br>--- ----- --- --- ------ -------- ----- --- ------ ----- --<br>----- ----- ---------- --- --- ------ ------ ---- -- ------<br>------- --- ------ ----- --- ---- ------- -- ---- --- --<br>------- ------",85216.79999995232,85216.09999990463,84713.339,84721.20000004768,84730.007,85230.362,,16,"1727,"
screen,html.Screen,0_2_1_1_17,2021-11-26T12:00:39.147Z,,,,,,,,,,,,,,,,54,,,,,,,,,,,,,,569.5379998569551,,response,,,100,,,,,,Space,keypress(Space),,,,,-- --- ---- --- ------ ----- ------- ---- -- --- ------- --<br>------- ---------- ------ -- ----- in ----- -- ---- ------<br>--- ----- --- --- ------ -------- ----- --- ------ ----- --<br>----- ----- ---------- --- --- ------ ------ ---- -- ------<br>------- --- ------ ----- --- ---- ------- -- ---- --- --<br>------- ------,85800.70000004768,85799.89999985695,85213.69,85217.09999990463,85230.362,85813.719,,17,in
screen,html.Screen,0_2_1_1_18,2021-11-26T12:00:39.739Z,,,,,,,,,,,,,,,,54,,,,,,,,,,,,,,578.1809998569515,,response,,,100,,,,,,Space,keypress(Space),,,,,-- --- ---- --- ------ ----- ------- ---- -- --- ------- --<br>------- ---------- ------ -- ----- -- order -- ---- ------<br>--- ----- --- --- ------ -------- ----- --- ------ ----- --<br>----- ----- ---------- --- --- ------ ------ ---- -- ------<br>------- --- ------ ----- --- ---- ------- -- ---- --- --<br>------- ------,86392.59999990463,86391.89999985695,85797.049,85801,85813.719,86397.223,,18,order
screen,html.Screen,0_2_1_1_19,2021-11-26T12:00:40.779Z,,,,,,,,,,,,,,,,54,,,,,,,,,,,,,,1034.5769999523181,,response,,,100,,,,,,Space,keypress(Space),,,,,-- --- ---- --- ------ ----- ------- ---- -- --- ------- --<br>------- ---------- ------ -- ----- -- ----- to ---- ------<br>--- ----- --- --- ------ -------- ----- --- ------ ----- --<br>----- ----- ---------- --- --- ------ ------ ---- -- ------<br>------- --- ------ ----- --- ---- ------- -- ---- --- --<br>------- ------,87432.59999990463,87431.79999995232,86380.553,86392.89999985695,86397.223,87447.425,,19,to
screen,html.Screen,0_2_1_1_20,2021-11-26T12:00:41.355Z,,,,,,,,,,,,,,,,54,,,,,,,,,,,,,,560.3749999523134,,response,,,100,,,,,,Space,keypress(Space),,,,,-- --- ---- --- ------ ----- ------- ---- -- --- ------- --<br>------- ---------- ------ -- ----- -- ----- -- save ------<br>--- ----- --- --- ------ -------- ----- --- ------ ----- --<br>----- ----- ---------- --- --- ------ ------ ---- -- ------<br>------- --- ------ ----- --- ---- ------- -- ---- --- --<br>------- ------,88008.59999990463,88007.79999995232,87430.755,87432.89999985695,87447.425,88014.282,,20,save
screen,html.Screen,0_2_1_1_21,2021-11-26T12:00:41.899Z,,,,,,,,,,,,,,,,54,,,,,,,,,,,,,,537.817999904626,,response,,,100,,,,,,Space,keypress(Space),,,,,"-- --- ---- --- ------ ----- ------- ---- -- --- ------- --<br>------- ---------- ------ -- ----- -- ----- -- ---- money,<br>--- ----- --- --- ------ -------- ----- --- ------ ----- --<br>----- ----- ---------- --- --- ------ ------ ---- -- ------<br>------- --- ------ ----- --- ---- ------- -- ---- --- --<br>------- ------",88552.89999985695,88552.09999990463,87997.612,88008.79999995232,88014.282,88564.426,,21,"money,"
screen,html.Screen,0_2_1_1_22,2021-11-26T12:00:42.659Z,,,,,,,,,,,,,,,,54,,,,,,,,,,,,,,747.3739999523095,,response,,,100,,,,,,Space,keypress(Space),,,,,-- --- ---- --- ------ ----- ------- ---- -- --- ------- --<br>------- ---------- ------ -- ----- -- ----- -- ---- ------<br>the ----- --- --- ------ -------- ----- --- ------ ----- --<br>----- ----- ---------- --- --- ------ ------ ---- -- ------<br>------- --- ------ ----- --- ---- ------- -- ---- --- --<br>------- ------,89312.59999990463,89311.79999995232,88547.756,88553.20000004768,88564.426,89314.568,,22,the
screen,html.Screen,0_2_1_1_23,2021-11-26T12:00:43.267Z,,,,,,,,,,,,,,,,54,,,,,,,,,,,,,,605.1320000476844,,response,,,100,,,,,,Space,keypress(Space),,,,,-- --- ---- --- ------ ----- ------- ---- -- --- ------- --<br>------- ---------- ------ -- ----- -- ----- -- ---- ------<br>--- state --- --- ------ -------- ----- --- ------ ----- --<br>----- ----- ---------- --- --- ------ ------ ---- -- ------<br>------- --- ------ ----- --- ---- ------- -- ---- --- --<br>------- ------,89920.5,89919.70000004768,89297.898,89312.79999995232,89314.568,89931.401,,23,state
screen,html.Screen,0_2_1_1_24,2021-11-26T12:00:43.938Z,,,,,,,,,,,,,,,,54,,,,,,,,,,,,,,660.2990000476857,,response,,,100,,,,,,Space,keypress(Space),,,,,-- --- ---- --- ------ ----- ------- ---- -- --- ------- --<br>------- ---------- ------ -- ----- -- ----- -- ---- ------<br>--- ----- cut --- ------ -------- ----- --- ------ ----- --<br>----- ----- ---------- --- --- ------ ------ ---- -- ------<br>------- --- ------ ----- --- ---- ------- -- ---- --- --<br>------- ------,90592.5,90591.70000004768,89914.731,89920.79999995232,89931.401,90598.209,,24,cut
screen,html.Screen,0_2_1_1_25,2021-11-26T12:00:44.530Z,,,,,,,,,,,,,,,,54,,,,,,,,,,,,,,585.39099990463,,response,,,100,,,,,,Space,keypress(Space),,,,,-- --- ---- --- ------ ----- ------- ---- -- --- ------- --<br>------- ---------- ------ -- ----- -- ----- -- ---- ------<br>--- ----- --- the ------ -------- ----- --- ------ ----- --<br>----- ----- ---------- --- --- ------ ------ ---- -- ------<br>------- --- ------ ----- --- ---- ------- -- ---- --- --<br>------- ------,91184.39999985695,91183.59999990463,90581.539,90592.79999995232,90598.209,91198.392,,25,the
screen,html.Screen,0_2_1_1_26,2021-11-26T12:00:45.058Z,,,,,,,,,,,,,,,,54,,,,,,,,,,,,,,513.2079999046255,,response,,,100,,,,,,Space,keypress(Space),,,,,-- --- ---- --- ------ ----- ------- ---- -- --- ------- --<br>------- ---------- ------ -- ----- -- ----- -- ---- ------<br>--- ----- --- --- bonds' -------- ----- --- ------ ----- --<br>----- ----- ---------- --- --- ------ ------ ---- -- ------<br>------- --- ------ ----- --- ---- ------- -- ---- --- --<br>------- ------,91712.29999995232,91711.59999990463,91181.722,91184.70000004768,91198.392,91715.155,,26,bonds'
screen,html.Screen,0_2_1_1_27,2021-11-26T12:00:45.594Z,,,,,,,,,,,,,,,,54,,,,,,,,,,,,,,532.3450000000012,,response,,,100,,,,,,Space,keypress(Space),,,,,-- --- ---- --- ------ ----- ------- ---- -- --- ------- --<br>------- ---------- ------ -- ----- -- ----- -- ---- ------<br>--- ----- --- --- ------ interest ----- --- ------ ----- --<br>----- ----- ---------- --- --- ------ ------ ---- -- ------<br>------- --- ------ ----- --- ---- ------- -- ---- --- --<br>------- ------,92248.39999985695,92247.5,91698.485,91712.70000004768,91715.155,92265.319,,27,interest
screen,html.Screen,0_2_1_1_28,2021-11-26T12:00:46.034Z,,,,,,,,,,,,,,,,54,,,,,,,,,,,,,,422.18099999999686,,response,,,100,,,,,,Space,keypress(Space),,,,,-- --- ---- --- ------ ----- ------- ---- -- --- ------- --<br>------- ---------- ------ -- ----- -- ----- -- ---- ------<br>--- ----- --- --- ------ -------- rate. --- ------ ----- --<br>----- ----- ---------- --- --- ------ ------ ---- -- ------<br>------- --- ------ ----- --- ---- ------- -- ---- --- --<br>------- ------,92688.29999995232,92687.5,92248.649,92248.79999995232,92265.319,92698.749,,28,rate.
screen,html.Screen,0_2_1_1_29,2021-11-26T12:00:46.610Z,,,,,,,,,,,,,,,,54,,,,,,,,,,,,,,564.7510000000038,,response,,,100,,,,,,Space,keypress(Space),,,,,-- --- ---- --- ------ ----- ------- ---- -- --- ------- --<br>------- ---------- ------ -- ----- -- ----- -- ---- ------<br>--- ----- --- --- ------ -------- ----- The ------ ----- --<br>----- ----- ---------- --- --- ------ ------ ---- -- ------<br>------- --- ------ ----- --- ---- ------- -- ---- --- --<br>------- ------,93264.29999995232,93263.5,92682.079,92688.5,92698.749,93265.535,,29,The
screen,html.Screen,0_2_1_1_30,2021-11-26T12:00:47.218Z,,,,,,,,,,,,,,,,54,,,,,,,,,,,,,,606.0649999046291,,response,,,100,,,,,,Space,keypress(Space),,,,,-- --- ---- --- ------ ----- ------- ---- -- --- ------- --<br>------- ---------- ------ -- ----- -- ----- -- ---- ------<br>--- ----- --- --- ------ -------- ----- --- market ----- --<br>----- ----- ---------- --- --- ------ ------ ---- -- ------<br>------- --- ------ ----- --- ---- ------- -- ---- --- --<br>------- ------,93872.39999985695,93871.59999990463,93248.865,93264.59999990463,93265.535,93882.342,,30,market
screen,html.Screen,0_2_1_1_31,2021-11-26T12:00:47.762Z,,,,,,,,,,,,,,,,54,,,,,,,,,,,,,,533.0579998569447,,response,,,100,,,,,,Space,keypress(Space),,,,,-- --- ---- --- ------ ----- ------- ---- -- --- ------- --<br>------- ---------- ------ -- ----- -- ----- -- ---- ------<br>--- ----- --- --- ------ -------- ----- --- ------ value --<br>----- ----- ---------- --- --- ------ ------ ---- -- ------<br>------- --- ------ ----- --- ---- ------- -- ---- --- --<br>------- ------,94416.29999995232,94415.39999985695,93865.672,93872.70000004768,93882.342,94432.511,,31,value
screen,html.Screen,0_2_1_1_32,2021-11-26T12:00:48.282Z,,,,,,,,,,,,,,,,54,,,,,,,,,,,,,,502.88899985695025,,response,,,100,,,,,,Space,keypress(Space),,,,,-- --- ---- --- ------ ----- ------- ---- -- --- ------- --<br>------- ---------- ------ -- ----- -- ----- -- ---- ------<br>--- ----- --- --- ------ -------- ----- --- ------ ----- of<br>----- ----- ---------- --- --- ------ ------ ---- -- ------<br>------- --- ------ ----- --- ---- ------- -- ---- --- --<br>------- ------,94936.20000004768,94935.39999985695,94415.841,94416.39999985695,94432.511,94949.294,,32,of
screen,html.Screen,0_2_1_1_33,2021-11-26T12:00:48.754Z,,,,,,,,,,,,,,,,54,,,,,,,,,,,,,,458.0059999523219,,response,,,100,,,,,,Space,keypress(Space),,,,,-- --- ---- --- ------ ----- ------- ---- -- --- ------- --<br>------- ---------- ------ -- ----- -- ----- -- ---- ------<br>--- ----- --- --- ------ -------- ----- --- ------ ----- --<br>these ----- ---------- --- --- ------ ------ ---- -- ------<br>------- --- ------ ----- --- ---- ------- -- ---- --- --<br>------- ------,95408.09999990463,95407.29999995232,94932.624,94936.29999995232,94949.294,95415.915,,33,these
screen,html.Screen,0_2_1_1_34,2021-11-26T12:00:49.210Z,,,,,,,,,,,,,,,,54,,,,,,,,,,,,,,447.3849999523227,,response,,,100,,,,,,Space,keypress(Space),,,,,-- --- ---- --- ------ ----- ------- ---- -- --- ------- --<br>------- ---------- ------ -- ----- -- ----- -- ---- ------<br>--- ----- --- --- ------ -------- ----- --- ------ ----- --<br>----- bonds ---------- --- --- ------ ------ ---- -- ------<br>------- --- ------ ----- --- ---- ------- -- ---- --- --<br>------- ------,95864.09999990463,95863.29999995232,95399.247,95408.29999995232,95415.915,95866.274,,34,bonds
screen,html.Screen,0_2_1_1_35,2021-11-26T12:00:49.682Z,,,,,,,,,,,,,,,,54,,,,,,,,,,,,,,469.0259999523114,,response,,,100,,,,,,Space,keypress(Space),,,,,"-- --- ---- --- ------ ----- ------- ---- -- --- ------- --<br>------- ---------- ------ -- ----- -- ----- -- ---- ------<br>--- ----- --- --- ------ -------- ----- --- ------ ----- --<br>----- ----- plummeted, --- --- ------ ------ ---- -- ------<br>------- --- ------ ----- --- ---- ------- -- ---- --- --<br>------- ------",96336.09999990463,96335.29999995232,95849.602,95864.29999995232,95866.274,96349.619,,35,"plummeted,"
screen,html.Screen,0_2_1_1_36,2021-11-26T12:00:50.154Z,,,,,,,,,,,,,,,,54,,,,,,,,,,,,,,457.68099995231023,,response,,,100,,,,,,Space,keypress(Space),,,,,-- --- ---- --- ------ ----- ------- ---- -- --- ------- --<br>------- ---------- ------ -- ----- -- ----- -- ---- ------<br>--- ----- --- --- ------ -------- ----- --- ------ ----- --<br>----- ----- ---------- and --- ------ ------ ---- -- ------<br>------- --- ------ ----- --- ---- ------- -- ---- --- --<br>------- ------,96808,96807.29999995232,96332.949,96336.29999995232,96349.619,96816.422,,36,and
screen,html.Screen,0_2_1_1_37,2021-11-26T12:00:50.610Z,,,,,,,,,,,,,,,,54,,,,,,,,,,,,,,446.7780000476778,,response,,,100,,,,,,Space,keypress(Space),,,,,-- --- ---- --- ------ ----- ------- ---- -- --- ------- --<br>------- ---------- ------ -- ----- -- ----- -- ---- ------<br>--- ----- --- --- ------ -------- ----- --- ------ ----- --<br>----- ----- ---------- --- the ------ ------ ---- -- ------<br>------- --- ------ ----- --- ---- ------- -- ---- --- --<br>------- ------,97264,97263.20000004768,96799.752,96808.29999995232,96816.422,97266.51,,37,the
screen,html.Screen,0_2_1_1_38,2021-11-26T12:00:51.026Z,,,,,,,,,,,,,,,,54,,,,,,,,,,,,,,412.69000004768895,,response,,,100,,,,,,Space,keypress(Space),,,,,-- --- ---- --- ------ ----- ------- ---- -- --- ------- --<br>------- ---------- ------ -- ----- -- ----- -- ---- ------<br>--- ----- --- --- ------ -------- ----- --- ------ ----- --<br>----- ----- ---------- --- --- market ------ ---- -- ------<br>------- --- ------ ----- --- ---- ------- -- ---- --- --<br>------- ------,97680,97679.20000004768,97249.84,97264.20000004768,97266.51,97683.307,,38,market
screen,html.Screen,0_2_1_1_39,2021-11-26T12:00:51.506Z,,,,,,,,,,,,,,,,54,,,,,,,,,,,,,,475.893000047683,,response,,,100,,,,,,Space,keypress(Space),,,,,-- --- ---- --- ------ ----- ------- ---- -- --- ------- --<br>------- ---------- ------ -- ----- -- ----- -- ---- ------<br>--- ----- --- --- ------ -------- ----- --- ------ ----- --<br>----- ----- ---------- --- --- ------ became ---- -- ------<br>------- --- ------ ----- --- ---- ------- -- ---- --- --<br>------- ------,98159.89999985695,98159.20000004768,97666.637,97680.20000004768,97683.307,98166.72,,39,became
screen,html.Screen,0_2_1_1_40,2021-11-26T12:00:51.930Z,,,,,,,,,,,,,,,,54,,,,,,,,,,,,,,416.6799998569477,,response,,,100,,,,,,Space,keypress(Space),,,,,-- --- ---- --- ------ ----- ------- ---- -- --- ------- --<br>------- ---------- ------ -- ----- -- ----- -- ---- ------<br>--- ----- --- --- ------ -------- ----- --- ------ ----- --<br>----- ----- ---------- --- --- ------ ------ wary -- ------<br>------- --- ------ ----- --- ---- ------- -- ---- --- --<br>------- ------,98584.39999985695,98583.39999985695,98150.05,98160.20000004768,98166.72,98600.175,,40,wary
screen,html.Screen,0_2_1_1_41,2021-11-26T12:00:52.362Z,,,,,,,,,,,,,,,,54,,,,,,,,,,,,,,414.92499990462966,,response,,,100,,,,,,Space,keypress(Space),,,,,-- --- ---- --- ------ ----- ------- ---- -- --- ------- --<br>------- ---------- ------ -- ----- -- ----- -- ---- ------<br>--- ----- --- --- ------ -------- ----- --- ------ ----- --<br>----- ----- ---------- --- --- ------ ------ ---- of ------<br>------- --- ------ ----- --- ---- ------- -- ---- --- --<br>------- ------,99015.79999995232,99015.09999990463,98583.505,98584.59999990463,98600.175,99016.911,,41,of
screen,html.Screen,0_2_1_1_42,2021-11-26T12:00:52.826Z,,,,,,,,,,,,,,,,54,,,,,,,,,,,,,,462.1889999046398,,response,,,100,,,,,,Space,keypress(Space),,,,,-- --- ---- --- ------ ----- ------- ---- -- --- ------- --<br>------- ---------- ------ -- ----- -- ----- -- ---- ------<br>--- ----- --- --- ------ -------- ----- --- ------ ----- --<br>----- ----- ---------- --- --- ------ ------ ---- -- French<br>------- --- ------ ----- --- ---- ------- -- ---- --- --<br>------- ------,99479.79999995232,99479.09999990463,99000.241,99016.09999990463,99016.911,99483.774,,42,French
screen,html.Screen,0_2_1_1_43,2021-11-26T12:00:53.282Z,,,,,,,,,,,,,,,,54,,,,,,,,,,,,,,451.2259999999951,,response,,,100,,,,,,Space,keypress(Space),,,,,-- --- ---- --- ------ ----- ------- ---- -- --- ------- --<br>------- ---------- ------ -- ----- -- ----- -- ---- ------<br>--- ----- --- --- ------ -------- ----- --- ------ ----- --<br>----- ----- ---------- --- --- ------ ------ ---- -- ------<br>credit. --- ------ ----- --- ---- ------- -- ---- --- --<br>------- ------,99935.79999995232,99935,99467.103,99480.09999990463,99483.774,99950.493,,43,credit.
screen,html.Screen,0_2_1_1_44,2021-11-26T12:00:53.786Z,,,,,,,,,,,,,,,,54,,,,,,,,,,,,,,488.5069999999978,,response,,,100,,,,,,Space,keypress(Space),,,,,-- --- ---- --- ------ ----- ------- ---- -- --- ------- --<br>------- ---------- ------ -- ----- -- ----- -- ---- ------<br>--- ----- --- --- ------ -------- ----- --- ------ ----- --<br>----- ----- ---------- --- --- ------ ------ ---- -- ------<br>------- The ------ ----- --- ---- ------- -- ---- --- --<br>------- ------,100439.70000004768,100439,99933.823,99936.09999990463,99950.493,100450.532,,44,The
screen,html.Screen,0_2_1_1_45,2021-11-26T12:00:54.274Z,,,,,,,,,,,,,,,,54,,,,,,,,,,,,,,476.4679999999935,,response,,,100,,,,,,Space,keypress(Space),,,,,-- --- ---- --- ------ ----- ------- ---- -- --- ------- --<br>------- ---------- ------ -- ----- -- ----- -- ---- ------<br>--- ----- --- --- ------ -------- ----- --- ------ ----- --<br>----- ----- ---------- --- --- ------ ------ ---- -- ------<br>------- --- French ----- --- ---- ------- -- ---- --- --<br>------- ------,100927.70000004768,100927,100433.863,100440,100450.532,100934.12,,45,French
screen,html.Screen,0_2_1_1_46,2021-11-26T12:00:55.530Z,,,,,,,,,,,,,,,,54,,,,,,,,,,,,,,1248.7799998569535,,response,,,100,,,,,,Space,keypress(Space),,,,,-- --- ---- --- ------ ----- ------- ---- -- --- ------- --<br>------- ---------- ------ -- ----- -- ----- -- ---- ------<br>--- ----- --- --- ------ -------- ----- --- ------ ----- --<br>----- ----- ---------- --- --- ------ ------ ---- -- ------<br>------- --- ------ state --- ---- ------- -- ---- --- --<br>------- ------,102183.59999990463,102182.89999985695,100917.449,100927.89999985695,100934.12,102201.023,,46,state
screen,html.Screen,0_2_1_1_47,2021-11-26T12:00:56.178Z,,,,,,,,,,,,,,,,54,,,,,,,,,,,,,,629.7769999523152,,response,,,100,,,,,,Space,keypress(Space),,,,,-- --- ---- --- ------ ----- ------- ---- -- --- ------- --<br>------- ---------- ------ -- ----- -- ----- -- ---- ------<br>--- ----- --- --- ------ -------- ----- --- ------ ----- --<br>----- ----- ---------- --- --- ------ ------ ---- -- ------<br>------- --- ------ ----- was ---- ------- -- ---- --- --<br>------- ------,102831.59999990463,102830.79999995232,102184.353,102183.89999985695,102201.023,102834.523,,47,was
screen,html.Screen,0_2_1_1_48,2021-11-26T12:00:56.826Z,,,,,,,,,,,,,,,,54,,,,,,,,,,,,,,644.2769999523152,,response,,,100,,,,,,Space,keypress(Space),,,,,-- --- ---- --- ------ ----- ------- ---- -- --- ------- --<br>------- ---------- ------ -- ----- -- ----- -- ---- ------<br>--- ----- --- --- ------ -------- ----- --- ------ ----- --<br>----- ----- ---------- --- --- ------ ------ ---- -- ------<br>------- --- ------ ----- --- left ------- -- ---- --- --<br>------- ------,103479.5,103478.79999995232,102817.853,102831.89999985695,102834.523,103484.693,,48,left
screen,html.Screen,0_2_1_1_49,2021-11-26T12:00:57.505Z,,,,,,,,,,,,,,,,54,,,,,,,,,,,,,,674.0070000476844,,response,,,100,,,,,,Space,keypress(Space),,,,,-- --- ---- --- ------ ----- ------- ---- -- --- ------- --<br>------- ---------- ------ -- ----- -- ----- -- ---- ------<br>--- ----- --- --- ------ -------- ----- --- ------ ----- --<br>----- ----- ---------- --- --- ------ ------ ---- -- ------<br>------- --- ------ ----- --- ---- without -- ---- --- --<br>------- ------,104159.5,104158.70000004768,103468.023,103479.70000004768,103484.693,104168.174,,49,without
screen,html.Screen,0_2_1_1_50,2021-11-26T12:00:58.025Z,,,,,,,,,,,,,,,,54,,,,,,,,,,,,,,510.4259999046335,,response,,,100,,,,,,Space,keypress(Space),,,,,-- --- ---- --- ------ ----- ------- ---- -- --- ------- --<br>------- ---------- ------ -- ----- -- ----- -- ---- ------<br>--- ----- --- --- ------ -------- ----- --- ------ ----- --<br>----- ----- ---------- --- --- ------ ------ ---- -- ------<br>------- --- ------ ----- --- ---- ------- an ---- --- --<br>------- ------,104679.39999985695,104678.59999990463,104151.504,104159.70000004768,104168.174,104684.884,,50,an
screen,html.Screen,0_2_1_1_51,2021-11-26T12:00:58.521Z,,,,,,,,,,,,,,,,54,,,,,,,,,,,,,,489.7159999046271,,response,,,100,,,,,,Space,keypress(Space),,,,,-- --- ---- --- ------ ----- ------- ---- -- --- ------- --<br>------- ---------- ------ -- ----- -- ----- -- ---- ------<br>--- ----- --- --- ------ -------- ----- --- ------ ----- --<br>----- ----- ---------- --- --- ------ ------ ---- -- ------<br>------- --- ------ ----- --- ---- ------- -- easy --- --<br>------- ------,105175.39999985695,105174.59999990463,104668.215,104679.70000004768,104684.884,105185.16,,51,easy
screen,html.Screen,0_2_1_1_52,2021-11-26T12:00:58.953Z,,,,,,,,,,,,,,,,54,,,,,,,,,,,,,,421.4399999046291,,response,,,100,,,,,,Space,keypress(Space),,,,,-- --- ---- --- ------ ----- ------- ---- -- --- ------- --<br>------- ---------- ------ -- ----- -- ----- -- ---- ------<br>--- ----- --- --- ------ -------- ----- --- ------ ----- --<br>----- ----- ---------- --- --- ------ ------ ---- -- ------<br>------- --- ------ ----- --- ---- ------- -- ---- way --<br>------- ------,105607.39999985695,105606.59999990463,105168.489,105175.59999990463,105185.16,105618.546,,52,way
screen,html.Screen,0_2_1_1_53,2021-11-26T12:00:59.417Z,,,,,,,,,,,,,,,,54,,,,,,,,,,,,,,452.0539999046305,,response,,,100,,,,,,Space,keypress(Space),,,,,-- --- ---- --- ------ ----- ------- ---- -- --- ------- --<br>------- ---------- ------ -- ----- -- ----- -- ---- ------<br>--- ----- --- --- ------ -------- ----- --- ------ ----- --<br>----- ----- ---------- --- --- ------ ------ ---- -- ------<br>------- --- ------ ----- --- ---- ------- -- ---- --- of<br>------- ------,106071.29999995232,106070.59999990463,105601.876,105607.59999990463,105618.546,106085.324,,53,of
screen,html.Screen,0_2_1_1_54,2021-11-26T12:00:59.865Z,,,,,,,,,,,,,,,,54,,,,,,,,,,,,,,433.2759999046393,,response,,,100,,,,,,Space,keypress(Space),,,,,-- --- ---- --- ------ ----- ------- ---- -- --- ------- --<br>------- ---------- ------ -- ----- -- ----- -- ---- ------<br>--- ----- --- --- ------ -------- ----- --- ------ ----- --<br>----- ----- ---------- --- --- ------ ------ ---- -- ------<br>------- --- ------ ----- --- ---- ------- -- ---- --- --<br>raising ------,106519.39999985695,106518.59999990463,106068.654,106071.59999990463,106085.324,106535.434,,54,raising
screen,html.Screen,0_2_1_1_55,2021-11-26T12:01:00.297Z,,,,,,,,,,,,,,,,54,,,,,,,,,,,,,,415.06600000000617,,response,,,100,,,,,,Space,keypress(Space),,,,,-- --- ---- --- ------ ----- ------- ---- -- --- ------- --<br>------- ---------- ------ -- ----- -- ----- -- ---- ------<br>--- ----- --- --- ------ -------- ----- --- ------ ----- --<br>----- ----- ---------- --- --- ------ ------ ---- -- ------<br>------- --- ------ ----- --- ---- ------- -- ---- --- --<br>------- money.,106951.29999995232,106950.5,106518.764,106519.59999990463,106535.434,106968.8,,55,money.
Item 100,flow.Loop,0_2_1_1,2021-11-26T12:01:00.298Z,,,,,,,,,,,,,,,,,,,,,,,,,,,,,,30072.353000000003,,completion,,,,E,,,,,,,,,,silence,,106951.79999995232,106950.5,76861.477,76862.70000004768,76878.147,106968.8,,,
Question 1,html.Screen,0_2_1_2,2021-11-26T12:01:03.097Z,,,,,,,,,,,,,,,,,,,,,,,,,,,true,TRUE,,2781.2999999046297,,response,,,100,E,,,,,TRUE,click #choice-1,,,,silence,,109751.39999985695,109750.09999990463,106952.131,106951.89999985695,106968.8,109752.947,,,
Question 2,html.Screen,0_2_1_3,2021-11-26T12:01:05.129Z,,,,,,,,,,,,,,,,,,,,,,,,,,,true,FALSE,,2029.0529999999999,,response,,,100,E,,,,,FALSE,click #choice-2,,,,silence,,111783.09999990463,111782,109736.276,109751.59999990463,109752.947,111786.713,,,
Item 100,flow.Sequence,0_2_1,2021-11-26T12:01:05.129Z,,,,,,,,,,,,,,,,,,,,,,,,,,,,,,44906.406,,completion,,,,,,,,,,,,,,,,111783.5,111782,66858.934,66866.89999985695,66875.594,111786.713,,,
End of Practice,html.Page,0_2_2,2021-11-26T12:01:09.002Z,,,,,,,,,,,,,,,,,,,,,,,,,,,,,,3868.6869998569455,,form submission,,,,,,,,,,,,,,,,115655.89999985695,115655.39999985695,111770.043,111783.70000004768,111786.713,115655.01,,,
Practice,flow.Sequence,0_2,2021-11-26T12:01:09.002Z,,,,,,,,,,,,,,,,,,,,,,,,,,,,,,102009.37299985695,,completion,,,,,,,,,,,,,,,,115656.29999995232,115655.39999985695,13629.357,13639,13646.027,115655.01,,,
Trap_instruction,html.Page,0_3_0,2021-11-26T12:01:16.621Z,,,,,,,,,,,,,,,,,,,,,,,,,,,,,,7615.490000000005,,form submission,,,,,,,,,,,,,,,,123271,123270.5,115638.324,115656.70000004768,115655.01,123289.429,,,
trap_trial,html.Screen,0_3_1,2021-11-26T12:01:19.244Z,,,,,,,,,,,,,,,,,,,,,,,,,,,true,1,,2603.5709999999963,,response,,,,,,,,,1,click #choice-1,,,,,,125894.29999995232,125893,123256.089,123271.20000004768,123289.429,125905.903,,,
end of trap trial,html.Page,0_3_2,2021-11-26T12:01:21.252Z,,,,,,,,,,,,,,,,,,,,,,,,,,,,,,1996.3969999523106,,form submission,,,,,,,,,,,,,,,,127902.89999985695,127902.29999995232,125889.238,125894.5,125905.903,127907.243,,,
Trap 1,flow.Sequence,0_3,2021-11-26T12:01:21.253Z,,,,,,,,,,,,,,,,,,,,,,,,,,,,,,12247.289999952322,,completion,,,,,,,,,,,,,,,,127903.29999995232,127902.29999995232,115638.324,115656.59999990463,115655.01,127907.243,,,
Standby,html.Page,0_4_0,2021-11-26T12:01:29.243Z,,,,,,,,,,,,,,,,,,,,,,,,,,,,,,8001.601999999999,,timeout,,,,,,,,,,,,,,,,135893.29999995232,135892.175,127890.573,127903.59999990463,127907.243,135908.845,,,
Holding screen,html.Screen,0_4_1_0_0,2021-11-26T12:01:36.245Z,,,,,,,,,,,,,,,,,,,,,,,,,,,,,,7002.103000000003,,timeout,,,,,,,,,,,,,,,,142895.79999995232,142894.278,135892.175,135893.70000004768,135908.845,142910.948,,,
screen,html.Screen,0_4_1_0_1_0,2021-11-26T12:01:37.476Z,,,,,,,,,,,,,,,,51,,,,,,,,,,,,,,1213.8519999523123,,response,,,13,E,,,,,Space,keypress(Space),,,,lyrical,American -------- --- --- ---- --- --- ------ -- --------<br>---- --------- --- ------- ------------ ---------- ---------<br>--- ---------- ------- ---------- ------- -- -------- ----<br>---- --- ------ ----- ------ -- ---- --- ----- -- - -------<br>-------- -- --- --- -- ----- ----------- ----- -----------<br>---- --- ---------- --- ---- --- -- ----------,144126,144124.79999995232,142894.278,142896.20000004768,142910.948,144127.679,,0,American
screen,html.Screen,0_4_1_0_1_1,2021-11-26T12:01:40.458Z,,,,,,,,,,,,,,,,51,,,,,,,,,,,,,,2980.02100004768,,response,,,13,E,,,,,Space,keypress(Space),,,,lyrical,-------- industry --- --- ---- --- --- ------ -- --------<br>---- --------- --- ------- ------------ ---------- ---------<br>--- ---------- ------- ---------- ------- -- -------- ----<br>---- --- ------ ----- ------ -- ---- --- ----- -- - -------<br>-------- -- --- --- -- ----- ----------- ----- -----------<br>---- --- ---------- --- ---- --- -- ----------,147108.59999990463,147107.70000004768,144111.01,144126.20000004768,144127.679,147112.013,,1,industry
screen,html.Screen,0_4_1_0_1_2,2021-11-26T12:01:41.026Z,,,,,,,,,,,,,,,,51,,,,,,,,,,,,,,563.8869998569426,,response,,,13,E,,,,,Space,keypress(Space),,,,lyrical,-------- -------- may --- ---- --- --- ------ -- --------<br>---- --------- --- ------- ------------ ---------- ---------<br>--- ---------- ------- ---------- ------- -- -------- ----<br>---- --- ------ ----- ------ -- ---- --- ----- -- - -------<br>-------- -- --- --- -- ----- ----------- ----- -----------<br>---- --- ---------- --- ---- --- -- ----------,147676.79999995232,147675.89999985695,147095.342,147108.89999985695,147112.013,147678.596,,2,may
screen,html.Screen,0_4_1_0_1_3,2021-11-26T12:01:41.738Z,,,,,,,,,,,,,,,,51,,,,,,,,,,,,,,709.0039999046421,,response,,,13,E,,,,,Space,keypress(Space),,,,lyrical,-------- -------- --- not ---- --- --- ------ -- --------<br>---- --------- --- ------- ------------ ---------- ---------<br>--- ---------- ------- ---------- ------- -- -------- ----<br>---- --- ------ ----- ------ -- ---- --- ----- -- - -------<br>-------- -- --- --- -- ----- ----------- ----- -----------<br>---- --- ---------- --- ---- --- -- ----------,148388.5,148387.59999990463,147661.926,147677,147678.596,148395.609,,3,not
screen,html.Screen,0_4_1_0_1_4,2021-11-26T12:01:42.314Z,,,,,,,,,,,,,,,,51,,,,,,,,,,,,,,568.091000047687,,response,,,13,E,,,,,Space,keypress(Space),,,,lyrical,-------- -------- --- --- know --- --- ------ -- --------<br>---- --------- --- ------- ------------ ---------- ---------<br>--- ---------- ------- ---------- ------- -- -------- ----<br>---- --- ------ ----- ------ -- ---- --- ----- -- - -------<br>-------- -- --- --- -- ----- ----------- ----- -----------<br>---- --- ---------- --- ---- --- -- ----------,148964.5,148963.70000004768,148378.939,148388.79999995232,148395.609,148979.075,,4,know
screen,html.Screen,0_4_1_0_1_5,2021-11-26T12:01:42.930Z,,,,,,,,,,,,,,,,51,,,,,,,,,,,,,,600.5249999046209,,response,,,13,E,,,,,Space,keypress(Space),,,,lyrical,"-------- -------- --- --- ---- it, --- ------ -- --------<br>---- --------- --- ------- ------------ ---------- ---------<br>--- ---------- ------- ---------- ------- -- -------- ----<br>---- --- ------ ----- ------ -- ---- --- ----- -- - -------<br>-------- -- --- --- -- ----- ----------- ----- -----------<br>---- --- ---------- --- ---- --- -- ----------",149580.5,149579.59999990463,148962.405,148964.79999995232,148979.075,149595.893,,5,"it,"
screen,html.Screen,0_4_1_0_1_6,2021-11-26T12:01:43.402Z,,,,,,,,,,,,,,,,51,,,,,,,,,,,,,,455.60699999998906,,response,,,13,E,,,,,Space,keypress(Space),,,,lyrical,-------- -------- --- --- ---- --- but ------ -- --------<br>---- --------- --- ------- ------------ ---------- ---------<br>--- ---------- ------- ---------- ------- -- -------- ----<br>---- --- ------ ----- ------ -- ---- --- ----- -- - -------<br>-------- -- --- --- -- ----- ----------- ----- -----------<br>---- --- ---------- --- ---- --- -- ----------,150052.39999985695,150051.5,149579.223,149580.79999995232,149595.893,150062.679,,6,but
screen,html.Screen,0_4_1_0_1_7,2021-11-26T12:01:43.898Z,,,,,,,,,,,,,,,,51,,,,,,,,,,,,,,484.8209999999963,,response,,,13,E,,,,,Space,keypress(Space),,,,lyrical,-------- -------- --- --- ---- --- --- debate -- --------<br>---- --------- --- ------- ------------ ---------- ---------<br>--- ---------- ------- ---------- ------- -- -------- ----<br>---- --- ------ ----- ------ -- ---- --- ----- -- - -------<br>-------- -- --- --- -- ----- ----------- ----- -----------<br>---- --- ---------- --- ---- --- -- ----------,150548.29999995232,150547.5,150046.009,150052.70000004768,150062.679,150562.798,,7,debate
screen,html.Screen,0_4_1_0_1_8,2021-11-26T12:01:44.466Z,,,,,,,,,,,,,,,,51,,,,,,,,,,,,,,553.2019999999902,,response,,,13,E,,,,,Space,keypress(Space),,,,lyrical,-------- -------- --- --- ---- --- --- ------ in --------<br>---- --------- --- ------- ------------ ---------- ---------<br>--- ---------- ------- ---------- ------- -- -------- ----<br>---- --- ------ ----- ------ -- ---- --- ----- -- - -------<br>-------- -- --- --- -- ----- ----------- ----- -----------<br>---- --- ---------- --- ---- --- -- ----------,151116.79999995232,151116,150546.128,150548.59999990463,150562.798,151129.567,,8,in
screen,html.Screen,0_4_1_0_1_9,2021-11-26T12:01:45.154Z,,,,,,,,,,,,,,,,51,,,,,,,,,,,,,,673.8329998569388,,response,,,13,E,,,,,Space,keypress(Space),,,,lyrical,-------- -------- --- --- ---- --- --- ------ -- Congress<br>---- --------- --- ------- ------------ ---------- ---------<br>--- ---------- ------- ---------- ------- -- -------- ----<br>---- --- ------ ----- ------ -- ---- --- ----- -- - -------<br>-------- -- --- --- -- ----- ----------- ----- -----------<br>---- --- ---------- --- ---- --- -- ----------,151804.29999995232,151803.39999985695,151112.897,151117,151129.567,151813.158,,9,Congress
screen,html.Screen,0_4_1_0_1_10,2021-11-26T12:01:45.722Z,,,,,,,,,,,,,,,,51,,,,,,,,,,,,,,558.241999856953,,response,,,13,E,,,,,Space,keypress(Space),,,,lyrical,-------- -------- --- --- ---- --- --- ------ -- --------<br>over --------- --- ------- ------------ ---------- ---------<br>--- ---------- ------- ---------- ------- -- -------- ----<br>---- --- ------ ----- ------ -- ---- --- ----- -- - -------<br>-------- -- --- --- -- ----- ----------- ----- -----------<br>---- --- ---------- --- ---- --- -- ----------,152372.29999995232,152371.39999985695,151796.487,151804.5,151813.158,152379.766,,10,over
screen,html.Screen,0_4_1_0_1_11,2021-11-26T12:01:46.290Z,,,,,,,,,,,,,,,,51,,,,,,,,,,,,,,559.533999952313,,response,,,13,E,,,,,Space,keypress(Space),,,,lyrical,-------- -------- --- --- ---- --- --- ------ -- --------<br>---- reforming --- ------- ------------ ---------- ---------<br>--- ---------- ------- ---------- ------- -- -------- ----<br>---- --- ------ ----- ------ -- ---- --- ----- -- - -------<br>-------- -- --- --- -- ----- ----------- ----- -----------<br>---- --- ---------- --- ---- --- -- ----------,152940.29999995232,152939.29999995232,152363.097,152372.5,152379.766,152946.664,,11,reforming
screen,html.Screen,0_4_1_0_1_12,2021-11-26T12:01:49.146Z,,,,,,,,,,,,,,,,51,,,,,,,,,,,,,,2848.8360000000102,,response,,,13,E,,,,,Space,keypress(Space),,,,lyrical,-------- -------- --- --- ---- --- --- ------ -- --------<br>---- --------- the ------- ------------ ---------- ---------<br>--- ---------- ------- ---------- ------- -- -------- ----<br>---- --- ------ ----- ------ -- ---- --- ----- -- - -------<br>-------- -- --- --- -- ----- ----------- ----- -----------<br>---- --- ---------- --- ---- --- -- ----------,155796.29999995232,155795.5,152929.994,152940.5,152946.664,155797.5,,12,the
screen,html.Screen,0_4_1_0_1_13,2021-11-26T12:01:49.954Z,,,,,,,,,,,,,,,,51,,,,,,,,,,,,,,805.5999999046326,,response,,,13,E,,,,,Space,keypress(Space),,,,lyrical,-------- -------- --- --- ---- --- --- ------ -- --------<br>---- --------- --- federal ------------ ---------- ---------<br>--- ---------- ------- ---------- ------- -- -------- ----<br>---- --- ------ ----- ------ -- ---- --- ----- -- - -------<br>-------- -- --- --- -- ----- ----------- ----- -----------<br>---- --- ---------- --- ---- --- -- ----------,156603.89999985695,156603.09999990463,155780.829,155796.5,155797.5,156614.256,,13,federal
screen,html.Screen,0_4_1_0_1_14,2021-11-26T12:01:50.585Z,,,,,,,,,,,,,,,,51,,,,,,,,,,,,,,620.744000000006,,response,,,13,E,,,,,Space,keypress(Space),,,,lyrical,-------- -------- --- --- ---- --- --- ------ -- --------<br>---- --------- --- ------- government's ---------- ---------<br>--- ---------- ------- ---------- ------- -- -------- ----<br>---- --- ------ ----- ------ -- ---- --- ----- -- - -------<br>-------- -- --- --- -- ----- ----------- ----- -----------<br>---- --- ---------- --- ---- --- -- ----------,157235.79999995232,157235,156597.586,156604.20000004768,156614.256,157247.682,,14,government's
screen,html.Screen,0_4_1_0_1_15,2021-11-26T12:01:51.537Z,,,,,,,,,,,,,,,,51,,,,,,,,,,,,,,939.2179998569482,,response,,,13,E,,,,,Space,keypress(Space),,,,lyrical,-------- -------- --- --- ---- --- --- ------ -- --------<br>---- --------- --- ------- ------------ regulatory ---------<br>--- ---------- ------- ---------- ------- -- -------- ----<br>---- --- ------ ----- ------ -- ---- --- ----- -- - -------<br>-------- -- --- --- -- ----- ----------- ----- -----------<br>---- --- ---------- --- ---- --- -- ----------,158187.70000004768,158186.89999985695,157231.012,157236.20000004768,157247.682,158198.048,,15,regulatory
screen,html.Screen,0_4_1_0_1_16,2021-11-26T12:01:52.257Z,,,,,,,,,,,,,,,,51,,,,,,,,,,,,,,708.7519999523065,,response,,,13,E,,,,,Space,keypress(Space),,,,lyrical,-------- -------- --- --- ---- --- --- ------ -- --------<br>---- --------- --- ------- ------------ ---------- apparatus<br>--- ---------- ------- ---------- ------- -- -------- ----<br>---- --- ------ ----- ------ -- ---- --- ----- -- - -------<br>-------- -- --- --- -- ----- ----------- ----- -----------<br>---- --- ---------- --- ---- --- -- ----------,158907.70000004768,158906.79999995232,158181.377,158187.89999985695,158198.048,158914.838,,16,apparatus
screen,html.Screen,0_4_1_0_1_17,2021-11-26T12:01:52.849Z,,,,,,,,,,,,,,,,51,,,,,,,,,,,,,,584.06199985696,,response,,,13,E,,,,,Space,keypress(Space),,,,lyrical,-------- -------- --- --- ---- --- --- ------ -- --------<br>---- --------- --- ------- ------------ ---------- ---------<br>may ---------- ------- ---------- ------- -- -------- ----<br>---- --- ------ ----- ------ -- ---- --- ----- -- - -------<br>-------- -- --- --- -- ----- ----------- ----- -----------<br>---- --- ---------- --- ---- --- -- ----------,159499.79999995232,159498.89999985695,158898.168,158908,158914.838,159514.981,,17,may
screen,html.Screen,0_4_1_0_1_18,2021-11-26T12:01:53.457Z,,,,,,,,,,,,,,,,51,,,,,,,,,,,,,,591.8189999523165,,response,,,13,E,,,,,Space,keypress(Space),,,,lyrical,-------- -------- --- --- ---- --- --- ------ -- --------<br>---- --------- --- ------- ------------ ---------- ---------<br>--- profoundly ------- ---------- ------- -- -------- ----<br>---- --- ------ ----- ------ -- ---- --- ----- -- - -------<br>-------- -- --- --- -- ----- ----------- ----- -----------<br>---- --- ---------- --- ---- --- -- ----------,160107.59999990463,160106.79999995232,159498.311,159500.09999990463,159514.981,160115.103,,18,profoundly
screen,html.Screen,0_4_1_0_1_19,2021-11-26T12:01:54.113Z,,,,,,,,,,,,,,,,51,,,,,,,,,,,,,,647.6969999523135,,response,,,13,E,,,,,Space,keypress(Space),,,,lyrical,-------- -------- --- --- ---- --- --- ------ -- --------<br>---- --------- --- ------- ------------ ---------- ---------<br>--- ---------- improve ---------- ------- -- -------- ----<br>---- --- ------ ----- ------ -- ---- --- ----- -- - -------<br>-------- -- --- --- -- ----- ----------- ----- -----------<br>---- --- ---------- --- ---- --- -- ----------,160763.59999990463,160762.79999995232,160098.433,160107.79999995232,160115.103,160765.249,,19,improve
screen,html.Screen,0_4_1_0_1_20,2021-11-26T12:01:54.649Z,,,,,,,,,,,,,,,,51,,,,,,,,,,,,,,533.5509999523056,,response,,,13,E,,,,,Space,keypress(Space),,,,lyrical,-------- -------- --- --- ---- --- --- ------ -- --------<br>---- --------- --- ------- ------------ ---------- ---------<br>--- ---------- ------- companies' ------- -- -------- ----<br>---- --- ------ ----- ------ -- ---- --- ----- -- - -------<br>-------- -- --- --- -- ----- ----------- ----- -----------<br>---- --- ---------- --- ---- --- -- ----------,161299.70000004768,161298.79999995232,160748.579,160763.89999985695,160765.249,161315.419,,20,companies'
screen,html.Screen,0_4_1_0_1_21,2021-11-26T12:01:55.185Z,,,,,,,,,,,,,,,,51,,,,,,,,,,,,,,519.2810000476893,,response,,,13,E,,,,,Space,keypress(Space),,,,lyrical,-------- -------- --- --- ---- --- --- ------ -- --------<br>---- --------- --- ------- ------------ ---------- ---------<br>--- ---------- ------- ---------- ability -- -------- ----<br>---- --- ------ ----- ------ -- ---- --- ----- -- - -------<br>-------- -- --- --- -- ----- ----------- ----- -----------<br>---- --- ---------- --- ---- --- -- ----------,161835.59999990463,161834.70000004768,161298.749,161299.89999985695,161315.419,161848.76,,21,ability
screen,html.Screen,0_4_1_0_1_22,2021-11-26T12:01:55.609Z,,,,,,,,,,,,,,,,51,,,,,,,,,,,,,,409.9400000476744,,response,,,13,E,,,,,Space,keypress(Space),,,,lyrical,-------- -------- --- --- ---- --- --- ------ -- --------<br>---- --------- --- ------- ------------ ---------- ---------<br>--- ---------- ------- ---------- ------- to -------- ----<br>---- --- ------ ----- ------ -- ---- --- ----- -- - -------<br>-------- -- --- --- -- ----- ----------- ----- -----------<br>---- --- ---------- --- ---- --- -- ----------,162259.39999985695,162258.70000004768,161832.091,161835.89999985695,161848.76,162265.703,,22,to
screen,html.Screen,0_4_1_0_1_23,2021-11-26T12:01:56.001Z,,,,,,,,,,,,,,,,51,,,,,,,,,,,,,,384.7969999999914,,response,,,13,E,,,,,Space,keypress(Space),,,,lyrical,-------- -------- --- --- ---- --- --- ------ -- --------<br>---- --------- --- ------- ------------ ---------- ---------<br>--- ---------- ------- ---------- ------- -- survive. ----<br>---- --- ------ ----- ------ -- ---- --- ----- -- - -------<br>-------- -- --- --- -- ----- ----------- ----- -----------<br>---- --- ---------- --- ---- --- -- ----------,162651.39999985695,162650.5,162249.032,162259.79999995232,162265.703,162665.648,,23,survive.
screen,html.Screen,0_4_1_0_1_24,2021-11-26T12:01:56.481Z,,,,,,,,,,,,,,,,51,,,,,,,,,,,,,,464.9519999046461,,response,,,13,E,,,,,Space,keypress(Space),,,,lyrical,-------- -------- --- --- ---- --- --- ------ -- --------<br>---- --------- --- ------- ------------ ---------- ---------<br>--- ---------- ------- ---------- ------- -- -------- This<br>---- --- ------ ----- ------ -- ---- --- ----- -- - -------<br>-------- -- --- --- -- ----- ----------- ----- -----------<br>---- --- ---------- --- ---- --- -- ----------,163131.39999985695,163130.59999990463,162648.979,162651.70000004768,162665.648,163132.607,,24,This
screen,html.Screen,0_4_1_0_1_25,2021-11-26T12:01:57.097Z,,,,,,,,,,,,,,,,51,,,,,,,,,,,,,,613.8930000000109,,response,,,13,E,,,,,Space,keypress(Space),,,,lyrical,-------- -------- --- --- ---- --- --- ------ -- --------<br>---- --------- --- ------- ------------ ---------- ---------<br>--- ---------- ------- ---------- ------- -- -------- ----<br>week --- ------ ----- ------ -- ---- --- ----- -- - -------<br>-------- -- --- --- -- ----- ----------- ----- -----------<br>---- --- ---------- --- ---- --- -- ----------,163747.29999995232,163746.5,163115.935,163131.79999995232,163132.607,163749.333,,25,week
screen,html.Screen,0_4_1_0_1_26,2021-11-26T12:01:57.593Z,,,,,,,,,,,,,,,,51,,,,,,,,,,,,,,493.16699999998673,,response,,,13,E,,,,,Space,keypress(Space),,,,lyrical,-------- -------- --- --- ---- --- --- ------ -- --------<br>---- --------- --- ------- ------------ ---------- ---------<br>--- ---------- ------- ---------- ------- -- -------- ----<br>---- the ------ ----- ------ -- ---- --- ----- -- - -------<br>-------- -- --- --- -- ----- ----------- ----- -----------<br>---- --- ---------- --- ---- --- -- ----------,164243.39999985695,164242.5,163732.663,163747.59999990463,163749.333,164249.291,,26,the
screen,html.Screen,0_4_1_0_1_27,2021-11-26T12:01:58.465Z,,,,,,,,,,,,,,,,51,,,,,,,,,,,,,,865.2090000000026,,response,,,13,E,,,,,Space,keypress(Space),,,,lyrical,-------- -------- --- --- ---- --- --- ------ -- --------<br>---- --------- --- ------- ------------ ---------- ---------<br>--- ---------- ------- ---------- ------- -- -------- ----<br>---- --- Senate ----- ------ -- ---- --- ----- -- - -------<br>-------- -- --- --- -- ----- ----------- ----- -----------<br>---- --- ---------- --- ---- --- -- ----------,165115.29999995232,165114.5,164232.623,164243.59999990463,164249.291,165133.076,,27,Senate
screen,html.Screen,0_4_1_0_1_28,2021-11-26T12:01:58.865Z,,,,,,,,,,,,,,,,51,,,,,,,,,,,,,,381.42399999999907,,response,,,13,E,,,,,Space,keypress(Space),,,,lyrical,-------- -------- --- --- ---- --- --- ------ -- --------<br>---- --------- --- ------- ------------ ---------- ---------<br>--- ---------- ------- ---------- ------- -- -------- ----<br>---- --- ------ seems ------ -- ---- --- ----- -- - -------<br>-------- -- --- --- -- ----- ----------- ----- -----------<br>---- --- ---------- --- ---- --- -- ----------,165515.39999985695,165514.5,165116.405,165115.5,165133.076,165533.105,,28,seems
screen,html.Screen,0_4_1_0_1_29,2021-11-26T12:01:59.233Z,,,,,,,,,,,,,,,,51,,,,,,,,,,,,,,349.8949999999895,,response,,,13,E,,,,,Space,keypress(Space),,,,lyrical,-------- -------- --- --- ---- --- --- ------ -- --------<br>---- --------- --- ------- ------------ ---------- ---------<br>--- ---------- ------- ---------- ------- -- -------- ----<br>---- --- ------ ----- poised -- ---- --- ----- -- - -------<br>-------- -- --- --- -- ----- ----------- ----- -----------<br>---- --- ---------- --- ---- --- -- ----------,165883.89999985695,165883,165516.435,165515.59999990463,165533.105,165899.871,,29,poised
screen,html.Screen,0_4_1_0_1_30,2021-11-26T12:01:59.681Z,,,,,,,,,,,,,,,,51,,,,,,,,,,,,,,430.62899999998626,,response,,,13,E,,,,,Space,keypress(Space),,,,lyrical,-------- -------- --- --- ---- --- --- ------ -- --------<br>---- --------- --- ------- ------------ ---------- ---------<br>--- ---------- ------- ---------- ------- -- -------- ----<br>---- --- ------ ----- ------ to ---- --- ----- -- - -------<br>-------- -- --- --- -- ----- ----------- ----- -----------<br>---- --- ---------- --- ---- --- -- ----------,166331.20000004768,166330.5,165883.201,165884.20000004768,165899.871,166333.292,,30,to
screen,html.Screen,0_4_1_0_1_31,2021-11-26T12:02:00.056Z,,,,,,,,,,,,,,,,51,,,,,,,,,,,,,,372.80799990464584,,response,,,13,E,,,,,Space,keypress(Space),,,,lyrical,-------- -------- --- --- ---- --- --- ------ -- --------<br>---- --------- --- ------- ------------ ---------- ---------<br>--- ---------- ------- ---------- ------- -- -------- ----<br>---- --- ------ ----- ------ -- join --- ----- -- - -------<br>-------- -- --- --- -- ----- ----------- ----- -----------<br>---- --- ---------- --- ---- --- -- ----------,166706.70000004768,166706.09999990463,166316.622,166331.39999985695,166333.292,166716.587,,31,join
screen,html.Screen,0_4_1_0_1_32,2021-11-26T12:02:00.409Z,,,,,,,,,,,,,,,,51,,,,,,,,,,,,,,341.71299995231675,,response,,,13,E,,,,,Space,keypress(Space),,,,lyrical,-------- -------- --- --- ---- --- --- ------ -- --------<br>---- --------- --- ------- ------------ ---------- ---------<br>--- ---------- ------- ---------- ------- -- -------- ----<br>---- --- ------ ----- ------ -- ---- the ----- -- - -------<br>-------- -- --- --- -- ----- ----------- ----- -----------<br>---- --- ---------- --- ---- --- -- ----------,167059.09999990463,167058.29999995232,166699.919,166706.89999985695,166716.587,167066.851,,32,the
screen,html.Screen,0_4_1_0_1_33,2021-11-26T12:02:00.737Z,,,,,,,,,,,,,,,,51,,,,,,,,,,,,,,319.4489999523212,,response,,,13,E,,,,,Space,keypress(Space),,,,lyrical,-------- -------- --- --- ---- --- --- ------ -- --------<br>---- --------- --- ------- ------------ ---------- ---------<br>--- ---------- ------- ---------- ------- -- -------- ----<br>---- --- ------ ----- ------ -- ---- --- House -- - -------<br>-------- -- --- --- -- ----- ----------- ----- -----------<br>---- --- ---------- --- ---- --- -- ----------,167387.09999990463,167386.29999995232,167050.18,167059.29999995232,167066.851,167400.235,,33,House
screen,html.Screen,0_4_1_0_1_34,2021-11-26T12:02:01.089Z,,,,,,,,,,,,,,,,51,,,,,,,,,,,,,,338.06499995233025,,response,,,13,E,,,,,Space,keypress(Space),,,,lyrical,-------- -------- --- --- ---- --- --- ------ -- --------<br>---- --------- --- ------- ------------ ---------- ---------<br>--- ---------- ------- ---------- ------- -- -------- ----<br>---- --- ------ ----- ------ -- ---- --- ----- in - -------<br>-------- -- --- --- -- ----- ----------- ----- -----------<br>---- --- ---------- --- ---- --- -- ----------,167739.20000004768,167738.29999995232,167383.565,167387.39999985695,167400.235,167750.311,,34,in
screen,html.Screen,0_4_1_0_1_35,2021-11-26T12:02:01.433Z,,,,,,,,,,,,,,,,51,,,,,,,,,,,,,,331.9889999523293,,response,,,13,E,,,,,Space,keypress(Space),,,,lyrical,-------- -------- --- --- ---- --- --- ------ -- --------<br>---- --------- --- ------- ------------ ---------- ---------<br>--- ---------- ------- ---------- ------- -- -------- ----<br>---- --- ------ ----- ------ -- ---- --- ----- -- a -------<br>-------- -- --- --- -- ----- ----------- ----- -----------<br>---- --- ---------- --- ---- --- -- ----------,168083.09999990463,168082.29999995232,167733.641,167739.39999985695,167750.311,168100.385,,35,a
screen,html.Screen,0_4_1_0_1_36,2021-11-26T12:02:01.769Z,,,,,,,,,,,,,,,,51,,,,,,,,,,,,,,317.8150000476744,,response,,,13,E,,,,,Space,keypress(Space),,,,lyrical,-------- -------- --- --- ---- --- --- ------ -- --------<br>---- --------- --- ------- ------------ ---------- ---------<br>--- ---------- ------- ---------- ------- -- -------- ----<br>---- --- ------ ----- ------ -- ---- --- ----- -- - massive<br>-------- -- --- --- -- ----- ----------- ----- -----------<br>---- --- ---------- --- ---- --- -- ----------,168419,168418.20000004768,168083.715,168083.29999995232,168100.385,168433.853,,36,massive
screen,html.Screen,0_4_1_0_1_37,2021-11-26T12:02:02.137Z,,,,,,,,,,,,,,,,51,,,,,,,,,,,,,,352.3470000476809,,response,,,13,E,,,,,Space,keypress(Space),,,,lyrical,-------- -------- --- --- ---- --- --- ------ -- --------<br>---- --------- --- ------- ------------ ---------- ---------<br>--- ---------- ------- ---------- ------- -- -------- ----<br>---- --- ------ ----- ------ -- ---- --- ----- -- - -------<br>overhaul -- --- --- -- ----- ----------- ----- -----------<br>---- --- ---------- --- ---- --- -- ----------,168787,168786.20000004768,168417.182,168419.20000004768,168433.853,168800.565,,37,overhaul
screen,html.Screen,0_4_1_0_1_38,2021-11-26T12:02:02.521Z,,,,,,,,,,,,,,,,51,,,,,,,,,,,,,,369.6350000476814,,response,,,13,E,,,,,Space,keypress(Space),,,,lyrical,-------- -------- --- --- ---- --- --- ------ -- --------<br>---- --------- --- ------- ------------ ---------- ---------<br>--- ---------- ------- ---------- ------- -- -------- ----<br>---- --- ------ ----- ------ -- ---- --- ----- -- - -------<br>-------- of --- --- -- ----- ----------- ----- -----------<br>---- --- ---------- --- ---- --- -- ----------,169171,169170.20000004768,168783.895,168787.29999995232,168800.565,169183.987,,38,of
screen,html.Screen,0_4_1_0_1_39,2021-11-26T12:02:02.913Z,,,,,,,,,,,,,,,,51,,,,,,,,,,,,,,378.21300004769,,response,,,13,E,,,,,Space,keypress(Space),,,,lyrical,-------- -------- --- --- ---- --- --- ------ -- --------<br>---- --------- --- ------- ------------ ---------- ---------<br>--- ---------- ------- ---------- ------- -- -------- ----<br>---- --- ------ ----- ------ -- ---- --- ----- -- - -------<br>-------- -- the --- -- ----- ----------- ----- -----------<br>---- --- ---------- --- ---- --- -- ----------,169563,169562.20000004768,169167.317,169171.20000004768,169183.987,169567.41,,39,the
screen,html.Screen,0_4_1_0_1_40,2021-11-26T12:02:03.281Z,,,,,,,,,,,,,,,,51,,,,,,,,,,,,,,362.7900000476802,,response,,,13,E,,,,,Space,keypress(Space),,,,lyrical,-------- -------- --- --- ---- --- --- ------ -- --------<br>---- --------- --- ------- ------------ ---------- ---------<br>--- ---------- ------- ---------- ------- -- -------- ----<br>---- --- ------ ----- ------ -- ---- --- ----- -- - -------<br>-------- -- --- way -- ----- ----------- ----- -----------<br>---- --- ---------- --- ---- --- -- ----------,169930.89999985695,169930.20000004768,169550.74,169563.09999990463,169567.41,169934.19,,40,way
screen,html.Screen,0_4_1_0_1_41,2021-11-26T12:02:03.601Z,,,,,,,,,,,,,,,,51,,,,,,,,,,,,,,315.90999990463024,,response,,,13,E,,,,,Space,keypress(Space),,,,lyrical,-------- -------- --- --- ---- --- --- ------ -- --------<br>---- --------- --- ------- ------------ ---------- ---------<br>--- ---------- ------- ---------- ------- -- -------- ----<br>---- --- ------ ----- ------ -- ---- --- ----- -- - -------<br>-------- -- --- --- in ----- ----------- ----- -----------<br>---- --- ---------- --- ---- --- -- ----------,170251,170250.09999990463,169917.52,169931.20000004768,169934.19,170267.586,,41,in
screen,html.Screen,0_4_1_0_1_42,2021-11-26T12:02:03.936Z,,,,,,,,,,,,,,,,51,,,,,,,,,,,,,,318.41399999998976,,response,,,13,E,,,,,Space,keypress(Space),,,,lyrical,-------- -------- --- --- ---- --- --- ------ -- --------<br>---- --------- --- ------- ------------ ---------- ---------<br>--- ---------- ------- ---------- ------- -- -------- ----<br>---- --- ------ ----- ------ -- ---- --- ----- -- - -------<br>-------- -- --- --- -- which ----------- ----- -----------<br>---- --- ---------- --- ---- --- -- ----------,170586.79999995232,170586,170250.916,170251.20000004768,170267.586,170600.887,,42,which
screen,html.Screen,0_4_1_0_1_43,2021-11-26T12:02:04.296Z,,,,,,,,,,,,,,,,51,,,,,,,,,,,,,,345.1130000000121,,response,,,13,E,,,,,Space,keypress(Space),,,,lyrical,-------- -------- --- --- ---- --- --- ------ -- --------<br>---- --------- --- ------- ------------ ---------- ---------<br>--- ---------- ------- ---------- ------- -- -------- ----<br>---- --- ------ ----- ------ -- ---- --- ----- -- - -------<br>-------- -- --- --- -- ----- bureaucrats ----- -----------<br>---- --- ---------- --- ---- --- -- ----------,170946.89999985695,170946,170584.219,170587.09999990463,170600.887,170951.146,,43,bureaucrats
screen,html.Screen,0_4_1_0_1_44,2021-11-26T12:02:04.776Z,,,,,,,,,,,,,,,,51,,,,,,,,,,,,,,474.8539999999921,,response,,,13,E,,,,,Space,keypress(Space),,,,lyrical,-------- -------- --- --- ---- --- --- ------ -- --------<br>---- --------- --- ------- ------------ ---------- ---------<br>--- ---------- ------- ---------- ------- -- -------- ----<br>---- --- ------ ----- ------ -- ---- --- ----- -- - -------<br>-------- -- --- --- -- ----- ----------- enact -----------<br>---- --- ---------- --- ---- --- -- ----------,171426.79999995232,171426,170934.474,170947,170951.146,171434.324,,44,enact
screen,html.Screen,0_4_1_0_1_45,2021-11-26T12:02:05.296Z,,,,,,,,,,,,,,,,51,,,,,,,,,,,,,,511.67600000000675,,response,,,13,E,,,,,Space,keypress(Space),,,,lyrical,-------- -------- --- --- ---- --- --- ------ -- --------<br>---- --------- --- ------- ------------ ---------- ---------<br>--- ---------- ------- ---------- ------- -- -------- ----<br>---- --- ------ ----- ------ -- ---- --- ----- -- - -------<br>-------- -- --- --- -- ----- ----------- ----- regulations<br>---- --- ---------- --- ---- --- -- ----------,171946.79999995232,171946,171417.657,171427,171434.324,171951.353,,45,regulations
screen,html.Screen,0_4_1_0_1_46,2021-11-26T12:02:05.736Z,,,,,,,,,,,,,,,,51,,,,,,,,,,,,,,434.6469999999972,,response,,,13,E,,,,,Space,keypress(Space),,,,lyrical,-------- -------- --- --- ---- --- --- ------ -- --------<br>---- --------- --- ------- ------------ ---------- ---------<br>--- ---------- ------- ---------- ------- -- -------- ----<br>---- --- ------ ----- ------ -- ---- --- ----- -- - -------<br>-------- -- --- --- -- ----- ----------- ----- -----------<br>that --- ---------- --- ---- --- -- ----------,172386.70000004768,172386,171934.682,171947,171951.353,172401.503,,46,that
screen,html.Screen,0_4_1_0_1_47,2021-11-26T12:02:06.104Z,,,,,,,,,,,,,,,,51,,,,,,,,,,,,,,352.497000000003,,response,,,13,E,,,,,Space,keypress(Space),,,,lyrical,-------- -------- --- --- ---- --- --- ------ -- --------<br>---- --------- --- ------- ------------ ---------- ---------<br>--- ---------- ------- ---------- ------- -- -------- ----<br>---- --- ------ ----- ------ -- ---- --- ----- -- - -------<br>-------- -- --- --- -- ----- ----------- ----- -----------<br>---- are ---------- --- ---- --- -- ----------,172754.79999995232,172754,172384.832,172387,172401.503,172768.11,,47,are
screen,html.Screen,0_4_1_0_1_48,2021-11-26T12:02:06.400Z,,,,,,,,,,,,,,,,51,,,,,,,,,,,,,,281.7899998569628,,response,,,13,E,,,,,Space,keypress(Space),,,,lyrical,-------- -------- --- --- ---- --- --- ------ -- --------<br>---- --------- --- ------- ------------ ---------- ---------<br>--- ---------- ------- ---------- ------- -- -------- ----<br>---- --- ------ ----- ------ -- ---- --- ----- -- - -------<br>-------- -- --- --- -- ----- ----------- ----- -----------<br>---- --- strangling --- ---- --- -- ----------,173050.70000004768,173049.89999985695,172751.441,172755,172768.11,173068.347,,48,strangling
screen,html.Screen,0_4_1_0_1_49,2021-11-26T12:02:06.800Z,,,,,,,,,,,,,,,,51,,,,,,,,,,,,,,381.55299985694,,response,,,13,E,,,,,Space,keypress(Space),,,,lyrical,-------- -------- --- --- ---- --- --- ------ -- --------<br>---- --------- --- ------- ------------ ---------- ---------<br>--- ---------- ------- ---------- ------- -- -------- ----<br>---- --- ------ ----- ------ -- ---- --- ----- -- - -------<br>-------- -- --- --- -- ----- ----------- ----- -----------<br>---- --- ---------- the ---- --- -- ----------,173450.70000004768,173449.89999985695,173051.675,173051,173068.347,173468.237,,49,the
screen,html.Screen,0_4_1_0_1_50,2021-11-26T12:02:07.096Z,,,,,,,,,,,,,,,,51,,,,,,,,,,,,,,277.56299995232257,,response,,,13,E,,,,,Space,keypress(Space),,,,lyrical,-------- -------- --- --- ---- --- --- ------ -- --------<br>---- --------- --- ------- ------------ ---------- ---------<br>--- ---------- ------- ---------- ------- -- -------- ----<br>---- --- ------ ----- ------ -- ---- --- ----- -- - -------<br>-------- -- --- --- -- ----- ----------- ----- -----------<br>---- --- ---------- --- life --- -- ----------,173746.70000004768,173745.79999995232,173451.569,173450.89999985695,173468.237,173751.72,,50,life
