sender,sender_type,sender_id,timestamp,meta,,Blues,Classical,Country,Dance,Electronic,Folk,Gospel,Hip-Hop,Jazz,Latin,Musical/Film,New-age,Pop,Provo_ID,R&B,Rap,Reggae,Religious,Rock,Soul,Swing,Traditional,age,artist_name,correct,correctResponse,distraction,duration,education,ended_on,familiarity,gender,item,list,music_frequency,offensiveness,pleasantness,preference,response,response_action,snippet_file,song_name,song_rating,sound,text,time_commit,time_end,time_render,time_run,time_show,time_switch,url,word,word_ID
Instructions,html.Page,0_0,2021-12-03T12:06:28.474Z,"{""labjs_version"":""20.2.3"",""labjs_build"":{""flavor"":""production"",""commit"":""7ea907d66ca8aeef8054924ca5d82ffbe11e34e5""},""location"":""https://run.pavlovia.org/mvasilev/lab_music_e/"",""userAgent"":""Mozilla/5.0 (Windows NT 6.1; Win64; x64) AppleWebKit/537.36 (KHTML, like Gecko) Chrome/96.0.4664.45 Safari/537.36"",""platform"":""Win32"",""language"":""en-US"",""locale"":""en-US"",""timeZone"":""Europe/London"",""timezoneOffset"":0,""screen_width"":1920,""screen_height"":1080,""scroll_width"":1920,""scroll_height"":959,""window_innerWidth"":1920,""window_innerHeight"":1007,""devicePixelRatio"":1}",,,,,,,,,,,,,,,,,,,,,,,,,,,,,7939.408000002981,,form submission,,,,,,,,,,,,,,,,19199.90000000596,19198.70000000298,11225.95,11237.29999999702,11259.292,19207.968,{},,
Headphones,html.Page,0_1,2021-12-03T12:06:31.367Z,,,,,,,,,,,,,,,,,,,,,,,,,,,,,,2884.331999997019,,form submission,,,,,,,,,,,,,,,,22092.70000000298,22092.29999999702,19191.314,19200.70000000298,19207.968,22095.251,,,
Holding screen,html.Screen,0_2_0_0,2021-12-03T12:06:41.362Z,,,,,,,,,,,,,,,,,,,,,,,,,,,,,,10019.351999999999,,timeout,,,,,,,,,,,,,,,,32088.5,32081.263,22078.581,22093.20000000298,22095.251,32114.603,,,
screen,html.Screen,0_2_0_1_0,2021-12-03T12:06:42.340Z,,,,,,,,,,,,,,,,53,,,,,,,,,,,,,,949.7970000059613,,response,,,99,,,,,,Space,keypress(Space),,,,,When -- ----- -- ------ - ------- --- ----------<br>------------- ------ ------ ---- ---- ------- ----- -- ----<br>-------- ------- -- ---------- --- - --- ----- ----- ----<br>---- --- --- ----- --- ---- ---- ------- ----- ---- -------<br>--- --- -- ----- -- --- ---- -- --- ---- -- ------ ------<br>--- ----- -- ----,33065.79999999702,33064.40000000596,32081.263,32089,32114.603,33081.685,,0,When
screen,html.Screen,0_2_0_1_1,2021-12-03T12:06:42.963Z,,,,,,,,,,,,,,,,53,,,,,,,,,,,,,,606.2150000059628,,response,,,99,,,,,,Space,keypress(Space),,,,,---- it ----- -- ------ - ------- --- ----------<br>------------- ------ ------ ---- ---- ------- ----- -- ----<br>-------- ------- -- ---------- --- - --- ----- ----- ----<br>---- --- --- ----- --- ---- ---- ------- ----- ---- -------<br>--- --- -- ----- -- --- ---- -- --- ---- -- ------ ------<br>--- ----- -- ----,33688.90000000596,33687.90000000596,33065.014,33066.20000000298,33081.685,33698.426,,1,it
screen,html.Screen,0_2_0_1_2,2021-12-03T12:06:43.635Z,,,,,,,,,,,,,,,,53,,,,,,,,,,,,,,661.474000005961,,response,,,99,,,,,,Space,keypress(Space),,,,,---- -- comes -- ------ - ------- --- ----------<br>------------- ------ ------ ---- ---- ------- ----- -- ----<br>-------- ------- -- ---------- --- - --- ----- ----- ----<br>---- --- --- ----- --- ---- ---- ------- ----- ---- -------<br>--- --- -- ----- -- --- ---- -- --- ---- -- ------ ------<br>--- ----- -- ----,34360.90000000596,34359.90000000596,33681.756,33689.20000000298,33698.426,34365.262,,2,comes
screen,html.Screen,0_2_0_1_3,2021-12-03T12:06:44.235Z,,,,,,,,,,,,,,,,53,,,,,,,,,,,,,,594.5379999970173,,response,,,99,,,,,,Space,keypress(Space),,,,,---- -- ----- to ------ - ------- --- ----------<br>------------- ------ ------ ---- ---- ------- ----- -- ----<br>-------- ------- -- ---------- --- - --- ----- ----- ----<br>---- --- --- ----- --- ---- ---- ------- ----- ---- -------<br>--- --- -- ----- -- --- ---- -- --- ---- -- ------ ------<br>--- ----- -- ----,34960.79999999702,34959.79999999702,34348.592,34361.10000000894,34365.262,34965.426,,3,to
screen,html.Screen,0_2_0_1_4,2021-12-03T12:06:44.875Z,,,,,,,,,,,,,,,,53,,,,,,,,,,,,,,634.2740000029808,,response,,,99,,,,,,Space,keypress(Space),,,,,---- -- ----- -- having - ------- --- ----------<br>------------- ------ ------ ---- ---- ------- ----- -- ----<br>-------- ------- -- ---------- --- - --- ----- ----- ----<br>---- --- --- ----- --- ---- ---- ------- ----- ---- -------<br>--- --- -- ----- -- --- ---- -- --- ---- -- ------ ------<br>--- ----- -- ----,35600.90000000596,35599.70000000298,34948.756,34961.5,34965.426,35615.567,,4,having
screen,html.Screen,0_2_0_1_5,2021-12-03T12:06:45.483Z,,,,,,,,,,,,,,,,53,,,,,,,,,,,,,,592.1330000029775,,response,,,99,,,,,,Space,keypress(Space),,,,,---- -- ----- -- ------ a ------- --- ----------<br>------------- ------ ------ ---- ---- ------- ----- -- ----<br>-------- ------- -- ---------- --- - --- ----- ----- ----<br>---- --- --- ----- --- ---- ---- ------- ----- ---- -------<br>--- --- -- ----- -- --- ---- -- --- ---- -- ------ ------<br>--- ----- -- ----,36208.70000000298,36207.70000000298,35598.897,35601.20000000298,35615.567,36215.789,,5,a
screen,html.Screen,0_2_0_1_6,2021-12-03T12:06:46.179Z,,,,,,,,,,,,,,,,53,,,,,,,,,,,,,,687.9110000029832,,response,,,99,,,,,,Space,keypress(Space),,,,,---- -- ----- -- ------ - lasting --- ----------<br>------------- ------ ------ ---- ---- ------- ----- -- ----<br>-------- ------- -- ---------- --- - --- ----- ----- ----<br>---- --- --- ----- --- ---- ---- ------- ----- ---- -------<br>--- --- -- ----- -- --- ---- -- --- ---- -- ------ ------<br>--- ----- -- ----,36904.70000000298,36903.70000000298,36199.118,36209.20000000298,36215.789,36915.921,,6,lasting
screen,html.Screen,0_2_0_1_7,2021-12-03T12:06:46.787Z,,,,,,,,,,,,,,,,53,,,,,,,,,,,,,,595.7790000029781,,response,,,99,,,,,,Space,keypress(Space),,,,,---- -- ----- -- ------ - ------- and ----------<br>------------- ------ ------ ---- ---- ------- ----- -- ----<br>-------- ------- -- ---------- --- - --- ----- ----- ----<br>---- --- --- ----- --- ---- ---- ------- ----- ---- -------<br>--- --- -- ----- -- --- ---- -- --- ---- -- ------ ------<br>--- ----- -- ----,37512.60000000894,37511.70000000298,36899.251,36905,36915.921,37516.064,,7,and
screen,html.Screen,0_2_0_1_8,2021-12-03T12:06:47.731Z,,,,,,,,,,,,,,,,53,,,,,,,,,,,,,,939.5360000089422,,response,,,99,,,,,,Space,keypress(Space),,,,,---- -- ----- -- ------ - ------- --- fulfilling<br>------------- ------ ------ ---- ---- ------- ----- -- ----<br>-------- ------- -- ---------- --- - --- ----- ----- ----<br>---- --- --- ----- --- ---- ---- ------- ----- ---- -------<br>--- --- -- ----- -- --- ---- -- --- ---- -- ------ ------<br>--- ----- -- ----,38456.79999999702,38455.60000000894,37499.394,37513,37516.064,38466.28,,8,fulfilling
screen,html.Screen,0_2_0_1_9,2021-12-03T12:06:48.474Z,,,,,,,,,,,,,,,,53,,,,,,,,,,,,,,733.3200000089419,,response,,,99,,,,,,Space,keypress(Space),,,,,"---- -- ----- -- ------ - ------- --- ----------<br>relationship, ------ ------ ---- ---- ------- ----- -- ----<br>-------- ------- -- ---------- --- - --- ----- ----- ----<br>---- --- --- ----- --- ---- ---- ------- ----- ---- -------<br>--- --- -- ----- -- --- ---- -- --- ---- -- ------ ------<br>--- ----- -- ----",39200.60000000894,39199.60000000894,38449.61,38457.10000000894,38466.28,39216.492,,9,"relationship,"
screen,html.Screen,0_2_0_1_10,2021-12-03T12:06:49.066Z,,,,,,,,,,,,,,,,53,,,,,,,,,,,,,,575.1080000089423,,response,,,99,,,,,,Space,keypress(Space),,,,,---- -- ----- -- ------ - ------- --- ----------<br>------------- common ------ ---- ---- ------- ----- -- ----<br>-------- ------- -- ---------- --- - --- ----- ----- ----<br>---- --- --- ----- --- ---- ---- ------- ----- ---- -------<br>--- --- -- ----- -- --- ---- -- --- ---- -- ------ ------<br>--- ----- -- ----,39792.5,39791.60000000894,39199.822,39200.79999999702,39216.492,39799.966,,10,common
screen,html.Screen,0_2_0_1_11,2021-12-03T12:06:49.658Z,,,,,,,,,,,,,,,,53,,,,,,,,,,,,,,583.6340000089403,,response,,,99,,,,,,Space,keypress(Space),,,,,---- -- ----- -- ------ - ------- --- ----------<br>------------- ------ wisdom ---- ---- ------- ----- -- ----<br>-------- ------- -- ---------- --- - --- ----- ----- ----<br>---- --- --- ----- --- ---- ---- ------- ----- ---- -------<br>--- --- -- ----- -- --- ---- -- --- ---- -- ------ ------<br>--- ----- -- ----,40384.5,40383.60000000894,39783.296,39792.79999999702,39799.966,40400.192,,11,wisdom
screen,html.Screen,0_2_0_1_12,2021-12-03T12:06:50.202Z,,,,,,,,,,,,,,,,53,,,,,,,,,,,,,,527.3079999999973,,response,,,99,,,,,,Space,keypress(Space),,,,,---- -- ----- -- ------ - ------- --- ----------<br>------------- ------ ------ says ---- ------- ----- -- ----<br>-------- ------- -- ---------- --- - --- ----- ----- ----<br>---- --- --- ----- --- ---- ---- ------- ----- ---- -------<br>--- --- -- ----- -- --- ---- -- --- ---- -- ------ ------<br>--- ----- -- ----,40928.40000000596,40927.5,40383.521,40384.79999999702,40400.192,40933.677,,12,says
screen,html.Screen,0_2_0_1_13,2021-12-03T12:06:50.682Z,,,,,,,,,,,,,,,,53,,,,,,,,,,,,,,473.72300000595715,,response,,,99,,,,,,Space,keypress(Space),,,,,---- -- ----- -- ------ - ------- --- ----------<br>------------- ------ ------ ---- that ------- ----- -- ----<br>-------- ------- -- ---------- --- - --- ----- ----- ----<br>---- --- --- ----- --- ---- ---- ------- ----- ---- -------<br>--- --- -- ----- -- --- ---- -- --- ---- -- ------ ------<br>--- ----- -- ----,41408.29999999702,41407.40000000596,40917.006,40928.60000000894,40933.677,41416.967,,13,that
screen,html.Screen,0_2_0_1_14,2021-12-03T12:06:51.242Z,,,,,,,,,,,,,,,,53,,,,,,,,,,,,,,550.5330000000031,,response,,,99,,,,,,Space,keypress(Space),,,,,---- -- ----- -- ------ - ------- --- ----------<br>------------- ------ ------ ---- ---- feeling ----- -- ----<br>-------- ------- -- ---------- --- - --- ----- ----- ----<br>---- --- --- ----- --- ---- ---- ------- ----- ---- -------<br>--- --- -- ----- -- --- ---- -- --- ---- -- ------ ------<br>--- ----- -- ----,41968.40000000596,41967.5,41400.298,41408.60000000894,41416.967,41983.992,,14,feeling
screen,html.Screen,0_2_0_1_15,2021-12-03T12:06:51.874Z,,,,,,,,,,,,,,,,53,,,,,,,,,,,,,,615.4080000059621,,response,,,99,,,,,,Space,keypress(Space),,,,,---- -- ----- -- ------ - ------- --- ----------<br>------------- ------ ------ ---- ---- ------- close -- ----<br>-------- ------- -- ---------- --- - --- ----- ----- ----<br>---- --- --- ----- --- ---- ---- ------- ----- ---- -------<br>--- --- -- ----- -- --- ---- -- --- ---- -- ------ ------<br>--- ----- -- ----,42600.20000000298,42599.40000000596,41967.32,41968.60000000894,41983.992,42617.366,,15,close
screen,html.Screen,0_2_0_1_16,2021-12-03T12:06:52.346Z,,,,,,,,,,,,,,,,53,,,,,,,,,,,,,,454.43399999701796,,response,,,99,,,,,,Space,keypress(Space),,,,,---- -- ----- -- ------ - ------- --- ----------<br>------------- ------ ------ ---- ---- ------- ----- to ----<br>-------- ------- -- ---------- --- - --- ----- ----- ----<br>---- --- --- ----- --- ---- ---- ------- ----- ---- -------<br>--- --- -- ----- -- --- ---- -- --- ---- -- ------ ------<br>--- ----- -- ----,43072.5,43071.79999999702,42600.696,42600.5,42617.366,43084.175,,16,to
screen,html.Screen,0_2_0_1_17,2021-12-03T12:06:52.858Z,,,,,,,,,,,,,,,,53,,,,,,,,,,,,,,499.12499999701686,,response,,,99,,,,,,Space,keypress(Space),,,,,---- -- ----- -- ------ - ------- --- ----------<br>------------- ------ ------ ---- ---- ------- ----- -- your<br>-------- ------- -- ---------- --- - --- ----- ----- ----<br>---- --- --- ----- --- ---- ---- ------- ----- ---- -------<br>--- --- -- ----- -- --- ---- -- --- ---- -- ------ ------<br>--- ----- -- ----,43584.20000000298,43583.29999999702,43067.505,43072.79999999702,43084.175,43600.975,,17,your
screen,html.Screen,0_2_0_1_18,2021-12-03T12:06:53.394Z,,,,,,,,,,,,,,,,53,,,,,,,,,,,,,,518.3249999970212,,response,,,99,,,,,,Space,keypress(Space),,,,,---- -- ----- -- ------ - ------- --- ----------<br>------------- ------ ------ ---- ---- ------- ----- -- ----<br>romantic ------- -- ---------- --- - --- ----- ----- ----<br>---- --- --- ----- --- ---- ---- ------- ----- ---- -------<br>--- --- -- ----- -- --- ---- -- --- ---- -- ------ ------<br>--- ----- -- ----,44120.10000000894,44119.29999999702,43584.305,43584.5,43600.975,44134.494,,18,romantic
screen,html.Screen,0_2_0_1_19,2021-12-03T12:06:53.842Z,,,,,,,,,,,,,,,,53,,,,,,,,,,,,,,432.70600000298145,,response,,,99,,,,,,Space,keypress(Space),,,,,---- -- ----- -- ------ - ------- --- ----------<br>------------- ------ ------ ---- ---- ------- ----- -- ----<br>-------- partner -- ---------- --- - --- ----- ----- ----<br>---- --- --- ----- --- ---- ---- ------- ----- ---- -------<br>--- --- -- ----- -- --- ---- -- --- ---- -- ------ ------<br>--- ----- -- ----,44568.20000000298,44567.20000000298,44117.823,44120.40000000596,44134.494,44584.559,,19,partner
screen,html.Screen,0_2_0_1_20,2021-12-03T12:06:54.322Z,,,,,,,,,,,,,,,,53,,,,,,,,,,,,,,462.74099999701866,,response,,,99,,,,,,Space,keypress(Space),,,,,---- -- ----- -- ------ - ------- --- ----------<br>------------- ------ ------ ---- ---- ------- ----- -- ----<br>-------- ------- is ---------- --- - --- ----- ----- ----<br>---- --- --- ----- --- ---- ---- ------- ----- ---- -------<br>--- --- -- ----- -- --- ---- -- --- ---- -- ------ ------<br>--- ----- -- ----,45048.10000000894,45047.29999999702,44567.889,44568.40000000596,44584.559,45051.432,,20,is
screen,html.Screen,0_2_0_1_21,2021-12-03T12:06:55.234Z,,,,,,,,,,,,,,,,53,,,,,,,,,,,,,,907.7680000029795,,response,,,99,,,,,,Space,keypress(Space),,,,,---- -- ----- -- ------ - ------- --- ----------<br>------------- ------ ------ ---- ---- ------- ----- -- ----<br>-------- ------- -- paramount. --- - --- ----- ----- ----<br>---- --- --- ----- --- ---- ---- ------- ----- ---- -------<br>--- --- -- ----- -- --- ---- -- --- ---- -- ------ ------<br>--- ----- -- ----,45960,45959.20000000298,45034.761,45048.29999999702,45051.432,45968.144,,21,paramount.
screen,html.Screen,0_2_0_1_22,2021-12-03T12:06:55.754Z,,,,,,,,,,,,,,,,53,,,,,,,,,,,,,,511.05600000298,,response,,,99,,,,,,Space,keypress(Space),,,,,---- -- ----- -- ------ - ------- --- ----------<br>------------- ------ ------ ---- ---- ------- ----- -- ----<br>-------- ------- -- ---------- But - --- ----- ----- ----<br>---- --- --- ----- --- ---- ---- ------- ----- ---- -------<br>--- --- -- ----- -- --- ---- -- --- ---- -- ------ ------<br>--- ----- -- ----,46479.90000000596,46479.20000000298,45951.475,45960.60000000894,45968.144,46485.003,,22,But
screen,html.Screen,0_2_0_1_23,2021-12-03T12:06:56.290Z,,,,,,,,,,,,,,,,53,,,,,,,,,,,,,,530.1970000029833,,response,,,99,,,,,,Space,keypress(Space),,,,,---- -- ----- -- ------ - ------- --- ----------<br>------------- ------ ------ ---- ---- ------- ----- -- ----<br>-------- ------- -- ---------- --- a --- ----- ----- ----<br>---- --- --- ----- --- ---- ---- ------- ----- ---- -------<br>--- --- -- ----- -- --- ---- -- --- ---- -- ------ ------<br>--- ----- -- ----,47016,47015.20000000298,46468.333,46480.10000000894,46485.003,47018.569,,23,a
screen,html.Screen,0_2_0_1_24,2021-12-03T12:06:56.786Z,,,,,,,,,,,,,,,,53,,,,,,,,,,,,,,492.53100000893755,,response,,,99,,,,,,Space,keypress(Space),,,,,---- -- ----- -- ------ - ------- --- ----------<br>------------- ------ ------ ---- ---- ------- ----- -- ----<br>-------- ------- -- ---------- --- - new ----- ----- ----<br>---- --- --- ----- --- ---- ---- ------- ----- ---- -------<br>--- --- -- ----- -- --- ---- -- --- ---- -- ------ ------<br>--- ----- -- ----,47512,47511.10000000894,47001.898,47016.20000000298,47018.569,47518.647,,24,new
screen,html.Screen,0_2_0_1_25,2021-12-03T12:06:57.218Z,,,,,,,,,,,,,,,,53,,,,,,,,,,,,,,424.4530000089435,,response,,,99,,,,,,Space,keypress(Space),,,,,---- -- ----- -- ------ - ------- --- ----------<br>------------- ------ ------ ---- ---- ------- ----- -- ----<br>-------- ------- -- ---------- --- - --- study ----- ----<br>---- --- --- ----- --- ---- ---- ------- ----- ---- -------<br>--- --- -- ----- -- --- ---- -- --- ---- -- ------ ------<br>--- ----- -- ----,47943.90000000596,47943.10000000894,47501.977,47512.20000000298,47518.647,47952.111,,25,study
screen,html.Screen,0_2_0_1_26,2021-12-03T12:06:57.682Z,,,,,,,,,,,,,,,,53,,,,,,,,,,,,,,454.98900000894355,,response,,,99,,,,,,Space,keypress(Space),,,,,---- -- ----- -- ------ - ------- --- ----------<br>------------- ------ ------ ---- ---- ------- ----- -- ----<br>-------- ------- -- ---------- --- - --- ----- finds ----<br>---- --- --- ----- --- ---- ---- ------- ----- ---- -------<br>--- --- -- ----- -- --- ---- -- --- ---- -- ------ ------<br>--- ----- -- ----,48407.90000000596,48407.10000000894,47935.441,47944.20000000298,47952.111,48418.894,,26,finds
screen,html.Screen,0_2_0_1_27,2021-12-03T12:06:58.090Z,,,,,,,,,,,,,,,,53,,,,,,,,,,,,,,396.10599999999977,,response,,,99,,,,,,Space,keypress(Space),,,,,---- -- ----- -- ------ - ------- --- ----------<br>------------- ------ ------ ---- ---- ------- ----- -- ----<br>-------- ------- -- ---------- --- - --- ----- ----- that<br>---- --- --- ----- --- ---- ---- ------- ----- ---- -------<br>--- --- -- ----- -- --- ---- -- --- ---- -- ------ ------<br>--- ----- -- ----,48815.79999999702,48815,48402.224,48408.10000000894,48418.894,48819.004,,27,that
screen,html.Screen,0_2_0_1_28,2021-12-03T12:06:58.626Z,,,,,,,,,,,,,,,,53,,,,,,,,,,,,,,532.0960000089399,,response,,,99,,,,,,Space,keypress(Space),,,,,---- -- ----- -- ------ - ------- --- ----------<br>------------- ------ ------ ---- ---- ------- ----- -- ----<br>-------- ------- -- ---------- --- - --- ----- ----- ----<br>it's --- --- ----- --- ---- ---- ------- ----- ---- -------<br>--- --- -- ----- -- --- ---- -- --- ---- -- ------ ------<br>--- ----- -- ----,49351.90000000596,49351.10000000894,48802.334,48816.10000000894,48819.004,49369.138,,28,it's
screen,html.Screen,0_2_0_1_29,2021-12-03T12:06:59.042Z,,,,,,,,,,,,,,,,53,,,,,,,,,,,,,,397.862000000001,,response,,,99,,,,,,Space,keypress(Space),,,,,---- -- ----- -- ------ - ------- --- ----------<br>------------- ------ ------ ---- ---- ------- ----- -- ----<br>-------- ------- -- ---------- --- - --- ----- ----- ----<br>---- not --- ----- --- ---- ---- ------- ----- ---- -------<br>--- --- -- ----- -- --- ---- -- --- ---- -- ------ ------<br>--- ----- -- ----,49767.79999999702,49767,49352.468,49352.10000000894,49369.138,49769.235,,29,not
screen,html.Screen,0_2_0_1_30,2021-12-03T12:06:59.482Z,,,,,,,,,,,,,,,,53,,,,,,,,,,,,,,437.7649999999994,,response,,,99,,,,,,Space,keypress(Space),,,,,---- -- ----- -- ------ - ------- --- ----------<br>------------- ------ ------ ---- ---- ------- ----- -- ----<br>-------- ------- -- ---------- --- - --- ----- ----- ----<br>---- --- how ----- --- ---- ---- ------- ----- ---- -------<br>--- --- -- ----- -- --- ---- -- --- ---- -- ------ ------<br>--- ----- -- ----,50207.79999999702,50207,49752.565,49768.10000000894,49769.235,50219.342,,30,how
screen,html.Screen,0_2_0_1_31,2021-12-03T12:06:59.930Z,,,,,,,,,,,,,,,,53,,,,,,,,,,,,,,435.6580000000031,,response,,,99,,,,,,Space,keypress(Space),,,,,---- -- ----- -- ------ - ------- --- ----------<br>------------- ------ ------ ---- ---- ------- ----- -- ----<br>-------- ------- -- ---------- --- - --- ----- ----- ----<br>---- --- --- close --- ---- ---- ------- ----- ---- -------<br>--- --- -- ----- -- --- ---- -- --- ---- -- ------ ------<br>--- ----- -- ----,50655.70000000298,50655,50202.672,50208.10000000894,50219.342,50669.519,,31,close
screen,html.Screen,0_2_0_1_32,2021-12-03T12:07:00.322Z,,,,,,,,,,,,,,,,53,,,,,,,,,,,,,,377.38100000596023,,response,,,99,,,,,,Space,keypress(Space),,,,,---- -- ----- -- ------ - ------- --- ----------<br>------------- ------ ------ ---- ---- ------- ----- -- ----<br>-------- ------- -- ---------- --- - --- ----- ----- ----<br>---- --- --- ----- you ---- ---- ------- ----- ---- -------<br>--- --- -- ----- -- --- ---- -- --- ---- -- ------ ------<br>--- ----- -- ----,51047.70000000298,51046.90000000596,50652.848,50656,50669.519,51052.885,,32,you
screen,html.Screen,0_2_0_1_33,2021-12-03T12:07:00.746Z,,,,,,,,,,,,,,,,53,,,,,,,,,,,,,,418.11499999999796,,response,,,99,,,,,,Space,keypress(Space),,,,,---- -- ----- -- ------ - ------- --- ----------<br>------------- ------ ------ ---- ---- ------- ----- -- ----<br>-------- ------- -- ---------- --- - --- ----- ----- ----<br>---- --- --- ----- --- feel ---- ------- ----- ---- -------<br>--- --- -- ----- -- --- ---- -- --- ---- -- ------ ------<br>--- ----- -- ----,51471.79999999702,51471,51036.215,51048,51052.885,51486.261,,33,feel
screen,html.Screen,0_2_0_1_34,2021-12-03T12:07:01.914Z,,,,,,,,,,,,,,,,53,,,,,,,,,,,,,,1152.6390000059619,,response,,,99,,,,,,Space,keypress(Space),,,,,---- -- ----- -- ------ - ------- --- ----------<br>------------- ------ ------ ---- ---- ------- ----- -- ----<br>-------- ------- -- ---------- --- - --- ----- ----- ----<br>---- --- --- ----- --- ---- that ------- ----- ---- -------<br>--- --- -- ----- -- --- ---- -- --- ---- -- ------ ------<br>--- ----- -- ----,52639.70000000298,52638.90000000596,51469.592,51472,51486.261,52653.436,,34,that
screen,html.Screen,0_2_0_1_35,2021-12-03T12:07:02.434Z,,,,,,,,,,,,,,,,53,,,,,,,,,,,,,,505.86399999701825,,response,,,99,,,,,,Space,keypress(Space),,,,,---- -- ----- -- ------ - ------- --- ----------<br>------------- ------ ------ ---- ---- ------- ----- -- ----<br>-------- ------- -- ---------- --- - --- ----- ----- ----<br>---- --- --- ----- --- ---- ---- matters ----- ---- -------<br>--- --- -- ----- -- --- ---- -- --- ---- -- ------ ------<br>--- ----- -- ----,53160.10000000894,53159.29999999702,52636.764,52639.90000000596,52653.436,53170.099,,35,matters
screen,html.Screen,0_2_0_1_36,2021-12-03T12:07:03.210Z,,,,,,,,,,,,,,,,53,,,,,,,,,,,,,,764.7009999970178,,response,,,99,,,,,,Space,keypress(Space),,,,,"---- -- ----- -- ------ - ------- --- ----------<br>------------- ------ ------ ---- ---- ------- ----- -- ----<br>-------- ------- -- ---------- --- - --- ----- ----- ----<br>---- --- --- ----- --- ---- ---- ------- most, ---- -------<br>--- --- -- ----- -- --- ---- -- --- ---- -- ------ ------<br>--- ----- -- ----",53935.90000000596,53934.79999999702,53153.429,53160.40000000596,53170.099,53936.953,,36,"most,"
screen,html.Screen,0_2_0_1_37,2021-12-03T12:07:03.786Z,,,,,,,,,,,,,,,,53,,,,,,,,,,,,,,573.7470000029789,,response,,,99,,,,,,Space,keypress(Space),,,,,---- -- ----- -- ------ - ------- --- ----------<br>------------- ------ ------ ---- ---- ------- ----- -- ----<br>-------- ------- -- ---------- --- - --- ----- ----- ----<br>---- --- --- ----- --- ---- ---- ------- ----- it's -------<br>--- --- -- ----- -- --- ---- -- --- ---- -- ------ ------<br>--- ----- -- ----,54511.70000000298,54510.70000000298,53920.283,53936.20000000298,53936.953,54520.282,,37,it's
screen,html.Screen,0_2_0_1_38,2021-12-03T12:07:04.353Z,,,,,,,,,,,,,,,,53,,,,,,,,,,,,,,558.418000002981,,response,,,99,,,,,,Space,keypress(Space),,,,,---- -- ----- -- ------ - ------- --- ----------<br>------------- ------ ------ ---- ---- ------- ----- -- ----<br>-------- ------- -- ---------- --- - --- ----- ----- ----<br>---- --- --- ----- --- ---- ---- ------- ----- ---- whether<br>--- --- -- ----- -- --- ---- -- --- ---- -- ------ ------<br>--- ----- -- ----,55079.40000000596,55078.70000000298,54503.613,54511.90000000596,54520.282,55087.373,,38,whether
screen,html.Screen,0_2_0_1_39,2021-12-03T12:07:05.137Z,,,,,,,,,,,,,,,,53,,,,,,,,,,,,,,775.3270000029806,,response,,,99,,,,,,Space,keypress(Space),,,,,---- -- ----- -- ------ - ------- --- ----------<br>------------- ------ ------ ---- ---- ------- ----- -- ----<br>-------- ------- -- ---------- --- - --- ----- ----- ----<br>---- --- --- ----- --- ---- ---- ------- ----- ---- -------<br>you --- -- ----- -- --- ---- -- --- ---- -- ------ ------<br>--- ----- -- ----,55863.40000000596,55862.70000000298,55070.701,55079.70000000298,55087.373,55870.681,,39,you
screen,html.Screen,0_2_0_1_40,2021-12-03T12:07:05.849Z,,,,,,,,,,,,,,,,53,,,,,,,,,,,,,,703.9190000089438,,response,,,99,,,,,,Space,keypress(Space),,,,,---- -- ----- -- ------ - ------- --- ----------<br>------------- ------ ------ ---- ---- ------- ----- -- ----<br>-------- ------- -- ---------- --- - --- ----- ----- ----<br>---- --- --- ----- --- ---- ---- ------- ----- ---- -------<br>--- are -- ----- -- --- ---- -- --- ---- -- ------ ------<br>--- ----- -- ----,56575.5,56574.60000000894,55854.012,55863.70000000298,55870.681,56587.787,,40,are
screen,html.Screen,0_2_0_1_41,2021-12-03T12:07:06.481Z,,,,,,,,,,,,,,,,53,,,,,,,,,,,,,,618.7130000000034,,response,,,99,,,,,,Space,keypress(Space),,,,,---- -- ----- -- ------ - ------- --- ----------<br>------------- ------ ------ ---- ---- ------- ----- -- ----<br>-------- ------- -- ---------- --- - --- ----- ----- ----<br>---- --- --- ----- --- ---- ---- ------- ----- ---- -------<br>--- --- as ----- -- --- ---- -- --- ---- -- ------ ------<br>--- ----- -- ----,57207.29999999702,57206.5,56571.115,56575.70000000298,56587.787,57221.126,,41,as
screen,html.Screen,0_2_0_1_42,2021-12-03T12:07:06.953Z,,,,,,,,,,,,,,,,53,,,,,,,,,,,,,,457.47400000894413,,response,,,99,,,,,,Space,keypress(Space),,,,,---- -- ----- -- ------ - ------- --- ----------<br>------------- ------ ------ ---- ---- ------- ----- -- ----<br>-------- ------- -- ---------- --- - --- ----- ----- ----<br>---- --- --- ----- --- ---- ---- ------- ----- ---- -------<br>--- --- -- close -- --- ---- -- --- ---- -- ------ ------<br>--- ----- -- ----,57679.29999999702,57678.60000000894,57204.456,57207.60000000894,57221.126,57687.935,,42,close
screen,html.Screen,0_2_0_1_43,2021-12-03T12:07:07.433Z,,,,,,,,,,,,,,,,53,,,,,,,,,,,,,,470.665000008943,,response,,,99,,,,,,Space,keypress(Space),,,,,---- -- ----- -- ------ - ------- --- ----------<br>------------- ------ ------ ---- ---- ------- ----- -- ----<br>-------- ------- -- ---------- --- - --- ----- ----- ----<br>---- --- --- ----- --- ---- ---- ------- ----- ---- -------<br>--- --- -- ----- as --- ---- -- --- ---- -- ------ ------<br>--- ----- -- ----,58159.40000000596,58158.60000000894,57671.265,57679.60000000894,57687.935,58171.38,,43,as
screen,html.Screen,0_2_0_1_44,2021-12-03T12:07:07.857Z,,,,,,,,,,,,,,,,53,,,,,,,,,,,,,,411.2200000089433,,response,,,99,,,,,,Space,keypress(Space),,,,,---- -- ----- -- ------ - ------- --- ----------<br>------------- ------ ------ ---- ---- ------- ----- -- ----<br>-------- ------- -- ---------- --- - --- ----- ----- ----<br>---- --- --- ----- --- ---- ---- ------- ----- ---- -------<br>--- --- -- ----- -- you ---- -- --- ---- -- ------ ------<br>--- ----- -- ----,58583.29999999702,58582.60000000894,58154.71,58159.60000000894,58171.38,58588.213,,44,you
screen,html.Screen,0_2_0_1_45,2021-12-03T12:07:08.329Z,,,,,,,,,,,,,,,,53,,,,,,,,,,,,,,466.2869999999966,,response,,,99,,,,,,Space,keypress(Space),,,,,---- -- ----- -- ------ - ------- --- ----------<br>------------- ------ ------ ---- ---- ------- ----- -- ----<br>-------- ------- -- ---------- --- - --- ----- ----- ----<br>---- --- --- ----- --- ---- ---- ------- ----- ---- -------<br>--- --- -- ----- -- --- want -- --- ---- -- ------ ------<br>--- ----- -- ----,59055.20000000298,59054.5,58571.542,58583.5,58588.213,59071.621,,45,want
screen,html.Screen,0_2_0_1_46,2021-12-03T12:07:08.753Z,,,,,,,,,,,,,,,,53,,,,,,,,,,,,,,406.8790000000008,,response,,,99,,,,,,Space,keypress(Space),,,,,---- -- ----- -- ------ - ------- --- ----------<br>------------- ------ ------ ---- ---- ------- ----- -- ----<br>-------- ------- -- ---------- --- - --- ----- ----- ----<br>---- --- --- ----- --- ---- ---- ------- ----- ---- -------<br>--- --- -- ----- -- --- ---- to --- ---- -- ------ ------<br>--- ----- -- ----,59479.20000000298,59478.5,59054.951,59055.5,59071.621,59488.407,,46,to
screen,html.Screen,0_2_0_1_47,2021-12-03T12:07:09.201Z,,,,,,,,,,,,,,,,53,,,,,,,,,,,,,,437.9930000059612,,response,,,99,,,,,,Space,keypress(Space),,,,,"---- -- ----- -- ------ - ------- --- ----------<br>------------- ------ ------ ---- ---- ------- ----- -- ----<br>-------- ------- -- ---------- --- - --- ----- ----- ----<br>---- --- --- ----- --- ---- ---- ------- ----- ---- -------<br>--- --- -- ----- -- --- ---- -- be, ---- -- ------ ------<br>--- ----- -- ----",59927.20000000298,59926.40000000596,59471.737,59479.40000000596,59488.407,59938.562,,47,"be,"
screen,html.Screen,0_2_0_1_48,2021-12-03T12:07:09.685Z,,,,,,,,,,,,,,,,53,,,,,,,,,,,,,,467.7379999970217,,response,,,99,,,,,,Space,keypress(Space),,,,,---- -- ----- -- ------ - ------- --- ----------<br>------------- ------ ------ ---- ---- ------- ----- -- ----<br>-------- ------- -- ---------- --- - --- ----- ----- ----<br>---- --- --- ----- --- ---- ---- ------- ----- ---- -------<br>--- --- -- ----- -- --- ---- -- --- even -- ------ ------<br>--- ----- -- ----,60407.20000000298,60406.29999999702,59921.891,59927.40000000596,59938.562,60421.909,,48,even
screen,html.Screen,0_2_0_1_49,2021-12-03T12:07:10.181Z,,,,,,,,,,,,,,,,53,,,,,,,,,,,,,,480.3909999970201,,response,,,99,,,,,,Space,keypress(Space),,,,,---- -- ----- -- ------ - ------- --- ----------<br>------------- ------ ------ ---- ---- ------- ----- -- ----<br>-------- ------- -- ---------- --- - --- ----- ----- ----<br>---- --- --- ----- --- ---- ---- ------- ----- ---- -------<br>--- --- -- ----- -- --- ---- -- --- ---- if ------ ------<br>--- ----- -- ----,60903.10000000894,60902.29999999702,60405.24,60407.40000000596,60421.909,60905.491,,49,if
screen,html.Screen,0_2_0_1_50,2021-12-03T12:07:10.669Z,,,,,,,,,,,,,,,,53,,,,,,,,,,,,,,484.80899999701796,,response,,,99,,,,,,Space,keypress(Space),,,,,---- -- ----- -- ------ - ------- --- ----------<br>------------- ------ ------ ---- ---- ------- ----- -- ----<br>-------- ------- -- ---------- --- - --- ----- ----- ----<br>---- --- --- ----- --- ---- ---- ------- ----- ---- -------<br>--- --- -- ----- -- --- ---- -- --- ---- -- that's ------<br>--- ----- -- ----,61391,61390.29999999702,60888.82,60903.29999999702,60905.491,61405.548,,50,that's
screen,html.Screen,0_2_0_1_51,2021-12-03T12:07:11.141Z,,,,,,,,,,,,,,,,53,,,,,,,,,,,,,,456.75199999701726,,response,,,99,,,,,,Space,keypress(Space),,,,,---- -- ----- -- ------ - ------- --- ----------<br>------------- ------ ------ ---- ---- ------- ----- -- ----<br>-------- ------- -- ---------- --- - --- ----- ----- ----<br>---- --- --- ----- --- ---- ---- ------- ----- ---- -------<br>--- --- -- ----- -- --- ---- -- --- ---- -- ------ really<br>--- ----- -- ----,61863.10000000894,61862.29999999702,61388.878,61391.29999999702,61405.548,61872.236,,51,really
screen,html.Screen,0_2_0_1_52,2021-12-03T12:07:11.613Z,,,,,,,,,,,,,,,,53,,,,,,,,,,,,,,462.0639999970226,,response,,,99,,,,,,Space,keypress(Space),,,,,---- -- ----- -- ------ - ------- --- ----------<br>------------- ------ ------ ---- ---- ------- ----- -- ----<br>-------- ------- -- ---------- --- - --- ----- ----- ----<br>---- --- --- ----- --- ---- ---- ------- ----- ---- -------<br>--- --- -- ----- -- --- ---- -- --- ---- -- ------ ------<br>not ----- -- ----,62335.10000000894,62334.29999999702,61855.567,61863.29999999702,61872.236,62339.245,,52,not
screen,html.Screen,0_2_0_1_53,2021-12-03T12:07:12.141Z,,,,,,,,,,,,,,,,53,,,,,,,,,,,,,,522.9550000029776,,response,,,99,,,,,,Space,keypress(Space),,,,,---- -- ----- -- ------ - ------- --- ----------<br>------------- ------ ------ ---- ---- ------- ----- -- ----<br>-------- ------- -- ---------- --- - --- ----- ----- ----<br>---- --- --- ----- --- ---- ---- ------- ----- ---- -------<br>--- --- -- ----- -- --- ---- -- --- ---- -- ------ ------<br>--- close -- ----,62863.10000000894,62862.20000000298,62322.573,62335.29999999702,62339.245,62872.591,,53,close
screen,html.Screen,0_2_0_1_54,2021-12-03T12:07:12.645Z,,,,,,,,,,,,,,,,53,,,,,,,,,,,,,,494.1090000029799,,response,,,99,,,,,,Space,keypress(Space),,,,,---- -- ----- -- ------ - ------- --- ----------<br>------------- ------ ------ ---- ---- ------- ----- -- ----<br>-------- ------- -- ---------- --- - --- ----- ----- ----<br>---- --- --- ----- --- ---- ---- ------- ----- ---- -------<br>--- --- -- ----- -- --- ---- -- --- ---- -- ------ ------<br>--- ----- at ----,63367.5,63366.70000000298,62855.921,62863.29999999702,62872.591,63372.731,,54,at
screen,html.Screen,0_2_0_1_55,2021-12-03T12:07:14.052Z,,,,,,,,,,,,,,,,53,,,,,,,,,,,,,,1401.4690000029805,,response,,,99,,,,,,Space,keypress(Space),,,,,---- -- ----- -- ------ - ------- --- ----------<br>------------- ------ ------ ---- ---- ------- ----- -- ----<br>-------- ------- -- ---------- --- - --- ----- ----- ----<br>---- --- --- ----- --- ---- ---- ------- ----- ---- -------<br>--- --- -- ----- -- --- ---- -- --- ---- -- ------ ------<br>--- ----- -- all.,64775,64774.20000000298,63356.061,63367.70000000298,63372.731,64789.811,,55,all.
Item 99,flow.Loop,0_2_0_1,2021-12-03T12:07:14.057Z,,,,,,,,,,,,,,,,,,,,,,,,,,,,,,32659.59700000298,,completion,,,,E,,,,,,,,,,silence,,64779.5,64774.20000000298,32081.263,32088.79999999702,32114.603,64789.811,,,
Question 1,html.Screen,0_2_0_2,2021-12-03T12:07:20.927Z,,,,,,,,,,,,,,,,,,,,,,,,,,,true,FALSE,,6858.089000005959,,response,,,99,E,,,,,FALSE,click #choice-2,,,,silence,,71649.5,71647.90000000596,64773.14,64779.79999999702,64789.811,71658.113,,,
Question 2,html.Screen,0_2_0_3,2021-12-03T12:07:27.144Z,,,,,,,,,,,,,,,,,,,,,,,,,,,true,TRUE,,6207.487000008943,,response,,,99,E,,,,,TRUE,click #choice-1,,,,silence,,77867,77865.60000000894,71641.443,71649.79999999702,71658.113,77876.457,,,
Item 99,flow.Sequence,0_2_0,2021-12-03T12:07:27.145Z,,,,,,,,,,,,,,,,,,,,,,,,,,,,,,55770.34900000894,,completion,,,,,,,,,,,,,,,,77867.5,77865.60000000894,22078.581,22093.10000000894,22095.251,77876.457,,,
Holding screen,html.Screen,0_2_1_0,2021-12-03T12:07:37.141Z,,,,,,,,,,,,,,,,,,,,,,,,,,,,,,10002.493000000002,,timeout,,,,,,,,,,,,,,,,87863.5,87862.28,77859.787,77867.90000000596,77876.457,87878.95,,,
screen,html.Screen,0_2_1_1_0,2021-12-03T12:07:38.044Z,,,,,,,,,,,,,,,,54,,,,,,,,,,,,,,886.2500000029831,,response,,,100,,,,,,Space,keypress(Space),,,,,At --- ---- --- ------ ----- ------- ---- -- --- ------- --<br>------- ---------- ------ -- ----- -- ----- -- ---- ------<br>--- ----- --- --- ------ -------- ----- --- ------ ----- --<br>----- ----- ---------- --- --- ------ ------ ---- -- ------<br>------- --- ------ ----- --- ---- ------- -- ---- --- --<br>------- ------,88766.10000000894,88765.20000000298,87862.28,87864,87878.95,88796.003,,0,At
screen,html.Screen,0_2_1_1_1,2021-12-03T12:07:38.563Z,,,,,,,,,,,,,,,,54,,,,,,,,,,,,,,488.7969999970228,,response,,,100,,,,,,Space,keypress(Space),,,,,-- the ---- --- ------ ----- ------- ---- -- --- ------- --<br>------- ---------- ------ -- ----- -- ----- -- ---- ------<br>--- ----- --- --- ------ -------- ----- --- ------ ----- --<br>----- ----- ---------- --- --- ------ ------ ---- -- ------<br>------- --- ------ ----- --- ---- ------- -- ---- --- --<br>------- ------,89285.70000000298,89284.79999999702,88779.332,88766.40000000596,88796.003,89296.072,,1,the
screen,html.Screen,0_2_1_1_2,2021-12-03T12:07:38.947Z,,,,,,,,,,,,,,,,54,,,,,,,,,,,,,,372.72799999701965,,response,,,100,,,,,,Space,keypress(Space),,,,,-- --- time --- ------ ----- ------- ---- -- --- ------- --<br>------- ---------- ------ -- ----- -- ----- -- ---- ------<br>--- ----- --- --- ------ -------- ----- --- ------ ----- --<br>----- ----- ---------- --- --- ------ ------ ---- -- ------<br>------- --- ------ ----- --- ---- ------- -- ---- --- --<br>------- ------,89669.5,89668.79999999702,89279.402,89285.90000000596,89296.072,89679.52,,2,time
screen,html.Screen,0_2_1_1_3,2021-12-03T12:07:39.579Z,,,,,,,,,,,,,,,,54,,,,,,,,,,,,,,621.2799999970157,,response,,,100,,,,,,Space,keypress(Space),,,,,-- --- ---- the ------ ----- ------- ---- -- --- ------- --<br>------- ---------- ------ -- ----- -- ----- -- ---- ------<br>--- ----- --- --- ------ -------- ----- --- ------ ----- --<br>----- ----- ---------- --- --- ------ ------ ---- -- ------<br>------- --- ------ ----- --- ---- ------- -- ---- --- --<br>------- ------,90301.5,90300.79999999702,89662.85,89669.79999999702,89679.52,90312.892,,3,the
screen,html.Screen,0_2_1_1_4,2021-12-03T12:07:40.075Z,,,,,,,,,,,,,,,,54,,,,,,,,,,,,,,483.90799999701267,,response,,,100,,,,,,Space,keypress(Space),,,,,-- --- ---- --- French ----- ------- ---- -- --- ------- --<br>------- ---------- ------ -- ----- -- ----- -- ---- ------<br>--- ----- --- --- ------ -------- ----- --- ------ ----- --<br>----- ----- ---------- --- --- ------ ------ ---- -- ------<br>------- --- ------ ----- --- ---- ------- -- ---- --- --<br>------- ------,90797.60000000894,90796.79999999702,90296.223,90301.79999999702,90312.892,90813.245,,4,French
screen,html.Screen,0_2_1_1_5,2021-12-03T12:07:40.619Z,,,,,,,,,,,,,,,,54,,,,,,,,,,,,,,527.4550000029849,,response,,,100,,,,,,Space,keypress(Space),,,,,-- --- ---- --- ------ crown ------- ---- -- --- ------- --<br>------- ---------- ------ -- ----- -- ----- -- ---- ------<br>--- ----- --- --- ------ -------- ----- --- ------ ----- --<br>----- ----- ---------- --- --- ------ ------ ---- -- ------<br>------- --- ------ ----- --- ---- ------- -- ---- --- --<br>------- ------,91341.70000000298,91340.70000000298,90796.573,90797.79999999702,90813.245,91346.597,,5,crown
screen,html.Screen,0_2_1_1_6,2021-12-03T12:07:41.123Z,,,,,,,,,,,,,,,,54,,,,,,,,,,,,,,498.10300000298594,,response,,,100,,,,,,Space,keypress(Space),,,,,-- --- ---- --- ------ ----- secured ---- -- --- ------- --<br>------- ---------- ------ -- ----- -- ----- -- ---- ------<br>--- ----- --- --- ------ -------- ----- --- ------ ----- --<br>----- ----- ---------- --- --- ------ ------ ---- -- ------<br>------- --- ------ ----- --- ---- ------- -- ---- --- --<br>------- ------,91845.40000000596,91844.70000000298,91329.927,91341.90000000596,91346.597,91846.591,,6,secured
screen,html.Screen,0_2_1_1_7,2021-12-03T12:07:41.675Z,,,,,,,,,,,,,,,,54,,,,,,,,,,,,,,550.1090000029799,,response,,,100,,,,,,Space,keypress(Space),,,,,-- --- ---- --- ------ ----- ------- much -- --- ------- --<br>------- ---------- ------ -- ----- -- ----- -- ---- ------<br>--- ----- --- --- ------ -------- ----- --- ------ ----- --<br>----- ----- ---------- --- --- ------ ------ ---- -- ------<br>------- --- ------ ----- --- ---- ------- -- ---- --- --<br>------- ------,92397.5,92396.70000000298,91829.922,91845.70000000298,91846.591,92413.647,,7,much
screen,html.Screen,0_2_1_1_8,2021-12-03T12:07:42.139Z,,,,,,,,,,,,,,,,54,,,,,,,,,,,,,,446.9530000089435,,response,,,100,,,,,,Space,keypress(Space),,,,,-- --- ---- --- ------ ----- ------- ---- of --- ------- --<br>------- ---------- ------ -- ----- -- ----- -- ---- ------<br>--- ----- --- --- ------ -------- ----- --- ------ ----- --<br>----- ----- ---------- --- --- ------ ------ ---- -- ------<br>------- --- ------ ----- --- ---- ------- -- ---- --- --<br>------- ------,92861.40000000596,92860.60000000894,92396.975,92397.70000000298,92413.647,92863.66,,8,of
screen,html.Screen,0_2_1_1_9,2021-12-03T12:07:42.635Z,,,,,,,,,,,,,,,,54,,,,,,,,,,,,,,492.9400000089372,,response,,,100,,,,,,Space,keypress(Space),,,,,-- --- ---- --- ------ ----- ------- ---- -- its ------- --<br>------- ---------- ------ -- ----- -- ----- -- ---- ------<br>--- ----- --- --- ------ -------- ----- --- ------ ----- --<br>----- ----- ---------- --- --- ------ ------ ---- -- ------<br>------- --- ------ ----- --- ---- ------- -- ---- --- --<br>------- ------,93357.40000000596,93356.60000000894,92846.99,92861.70000000298,92863.66,93363.773,,9,its
screen,html.Screen,0_2_1_1_10,2021-12-03T12:07:43.115Z,,,,,,,,,,,,,,,,54,,,,,,,,,,,,,,472.82700000893965,,response,,,100,,,,,,Space,keypress(Space),,,,,-- --- ---- --- ------ ----- ------- ---- -- --- revenue --<br>------- ---------- ------ -- ----- -- ----- -- ---- ------<br>--- ----- --- --- ------ -------- ----- --- ------ ----- --<br>----- ----- ---------- --- --- ------ ------ ---- -- ------<br>------- --- ------ ----- --- ---- ------- -- ---- --- --<br>------- ------,93837.29999999702,93836.60000000894,93347.103,93357.70000000298,93363.773,93847.243,,10,revenue
screen,html.Screen,0_2_1_1_11,2021-12-03T12:07:43.587Z,,,,,,,,,,,,,,,,54,,,,,,,,,,,,,,461.3570000089385,,response,,,100,,,,,,Space,keypress(Space),,,,,-- --- ---- --- ------ ----- ------- ---- -- --- ------- by<br>------- ---------- ------ -- ----- -- ----- -- ---- ------<br>--- ----- --- --- ------ -------- ----- --- ------ ----- --<br>----- ----- ---------- --- --- ------ ------ ---- -- ------<br>------- --- ------ ----- --- ---- ------- -- ---- --- --<br>------- ------,94309.29999999702,94308.60000000894,93830.573,93837.60000000894,93847.243,94314.019,,11,by
screen,html.Screen,0_2_1_1_12,2021-12-03T12:07:44.187Z,,,,,,,,,,,,,,,,54,,,,,,,,,,,,,,594.4809999999998,,response,,,100,,,,,,Space,keypress(Space),,,,,-- --- ---- --- ------ ----- ------- ---- -- --- ------- --<br>issuing ---------- ------ -- ----- -- ----- -- ---- ------<br>--- ----- --- --- ------ -------- ----- --- ------ ----- --<br>----- ----- ---------- --- --- ------ ------ ---- -- ------<br>------- --- ------ ----- --- ---- ------- -- ---- --- --<br>------- ------,94909.40000000596,94908.5,94297.349,94309.5,94314.019,94914.162,,12,issuing
screen,html.Screen,0_2_1_1_13,2021-12-03T12:07:44.987Z,,,,,,,,,,,,,,,,54,,,,,,,,,,,,,,794.2380000059638,,response,,,100,,,,,,Space,keypress(Space),,,,,-- --- ---- --- ------ ----- ------- ---- -- --- ------- --<br>------- government ------ -- ----- -- ----- -- ---- ------<br>--- ----- --- --- ------ -------- ----- --- ------ ----- --<br>----- ----- ---------- --- --- ------ ------ ---- -- ------<br>------- --- ------ ----- --- ---- ------- -- ---- --- --<br>------- ------,95709.20000000298,95708.40000000596,94897.492,94909.60000000894,94914.162,95714.429,,13,government
screen,html.Screen,0_2_1_1_14,2021-12-03T12:07:45.747Z,,,,,,,,,,,,,,,,54,,,,,,,,,,,,,,753.9710000059567,,response,,,100,,,,,,Space,keypress(Space),,,,,-- --- ---- --- ------ ----- ------- ---- -- --- ------- --<br>------- ---------- bonds. -- ----- -- ----- -- ---- ------<br>--- ----- --- --- ------ -------- ----- --- ------ ----- --<br>----- ----- ---------- --- --- ------ ------ ---- -- ------<br>------- --- ------ ----- --- ---- ------- -- ---- --- --<br>------- ------,96469.20000000298,96468.40000000596,95697.758,95709.5,95714.429,96481.238,,14,bonds.
screen,html.Screen,0_2_1_1_15,2021-12-03T12:07:46.323Z,,,,,,,,,,,,,,,,54,,,,,,,,,,,,,,563.0619999970222,,response,,,100,,,,,,Space,keypress(Space),,,,,-- --- ---- --- ------ ----- ------- ---- -- --- ------- --<br>------- ---------- ------ In ----- -- ----- -- ---- ------<br>--- ----- --- --- ------ -------- ----- --- ------ ----- --<br>----- ----- ---------- --- --- ------ ------ ---- -- ------<br>------- --- ------ ----- --- ---- ------- -- ---- --- --<br>------- ------,97045.10000000894,97044.29999999702,96464.568,96469.40000000596,96481.238,97047.943,,15,In
screen,html.Screen,0_2_1_1_16,2021-12-03T12:07:48.139Z,,,,,,,,,,,,,,,,54,,,,,,,,,,,,,,1812.8569999970205,,response,,,100,,,,,,Space,keypress(Space),,,,,"-- --- ---- --- ------ ----- ------- ---- -- --- ------- --<br>------- ---------- ------ -- 1727, -- ----- -- ---- ------<br>--- ----- --- --- ------ -------- ----- --- ------ ----- --<br>----- ----- ---------- --- --- ------ ------ ---- -- ------<br>------- --- ------ ----- --- ---- ------- -- ---- --- --<br>------- ------",98861.60000000894,98860.79999999702,97031.274,97045.40000000596,97047.943,98865.259,,16,"1727,"
screen,html.Screen,0_2_1_1_17,2021-12-03T12:07:48.699Z,,,,,,,,,,,,,,,,54,,,,,,,,,,,,,,555.0409999970143,,response,,,100,,,,,,Space,keypress(Space),,,,,-- --- ---- --- ------ ----- ------- ---- -- --- ------- --<br>------- ---------- ------ -- ----- in ----- -- ---- ------<br>--- ----- --- --- ------ -------- ----- --- ------ ----- --<br>----- ----- ---------- --- --- ------ ------ ---- -- ------<br>------- --- ------ ----- --- ---- ------- -- ---- --- --<br>------- ------,99421.10000000894,99420.29999999702,98848.588,98861.79999999702,98865.259,99432.069,,17,in
screen,html.Screen,0_2_1_1_18,2021-12-03T12:07:49.411Z,,,,,,,,,,,,,,,,54,,,,,,,,,,,,,,700.1310000029771,,response,,,100,,,,,,Space,keypress(Space),,,,,-- --- ---- --- ------ ----- ------- ---- -- --- ------- --<br>------- ---------- ------ -- ----- -- order -- ---- ------<br>--- ----- --- --- ------ -------- ----- --- ------ ----- --<br>----- ----- ---------- --- --- ------ ------ ---- -- ------<br>------- --- ------ ----- --- ---- ------- -- ---- --- --<br>------- ------,100133.10000000894,100132.20000000298,99415.398,99421.29999999702,99432.069,100148.852,,18,order
screen,html.Screen,0_2_1_1_19,2021-12-03T12:07:49.851Z,,,,,,,,,,,,,,,,54,,,,,,,,,,,,,,423.3480000029813,,response,,,100,,,,,,Space,keypress(Space),,,,,-- --- ---- --- ------ ----- ------- ---- -- --- ------- --<br>------- ---------- ------ -- ----- -- ----- to ---- ------<br>--- ----- --- --- ------ -------- ----- --- ------ ----- --<br>----- ----- ---------- --- --- ------ ------ ---- -- ------<br>------- --- ------ ----- --- ---- ------- -- ---- --- --<br>------- ------,100573,100572.20000000298,100132.182,100133.29999999702,100148.852,100582.316,,19,to
screen,html.Screen,0_2_1_1_20,2021-12-03T12:07:50.299Z,,,,,,,,,,,,,,,,54,,,,,,,,,,,,,,437.7840000089345,,response,,,100,,,,,,Space,keypress(Space),,,,,-- --- ---- --- ------ ----- ------- ---- -- --- ------- --<br>------- ---------- ------ -- ----- -- ----- -- save ------<br>--- ----- --- --- ------ -------- ----- --- ------ ----- --<br>----- ----- ---------- --- --- ------ ------ ---- -- ------<br>------- --- ------ ----- --- ---- ------- -- ---- --- --<br>------- ------,101020.90000000596,101020.10000000894,100565.646,100573.20000000298,100582.316,101032.418,,20,save
screen,html.Screen,0_2_1_1_21,2021-12-03T12:07:50.939Z,,,,,,,,,,,,,,,,54,,,,,,,,,,,,,,627.7820000029751,,response,,,100,,,,,,Space,keypress(Space),,,,,"-- --- ---- --- ------ ----- ------- ---- -- --- ------- --<br>------- ---------- ------ -- ----- -- ----- -- ---- money,<br>--- ----- --- --- ------ -------- ----- --- ------ ----- --<br>----- ----- ---------- --- --- ------ ------ ---- -- ------<br>------- --- ------ ----- --- ---- ------- -- ---- --- --<br>------- ------",101661,101660.20000000298,101015.748,101021.20000000298,101032.418,101665.785,,21,"money,"
screen,html.Screen,0_2_1_1_22,2021-12-03T12:07:51.794Z,,,,,,,,,,,,,,,,54,,,,,,,,,,,,,,850.3150000089372,,response,,,100,,,,,,Space,keypress(Space),,,,,-- --- ---- --- ------ ----- ------- ---- -- --- ------- --<br>------- ---------- ------ -- ----- -- ----- -- ---- ------<br>the ----- --- --- ------ -------- ----- --- ------ ----- --<br>----- ----- ---------- --- --- ------ ------ ---- -- ------<br>------- --- ------ ----- --- ---- ------- -- ---- --- --<br>------- ------,102516.90000000596,102516.10000000894,101649.116,101661.29999999702,101665.785,102532.942,,22,the
screen,html.Screen,0_2_1_1_23,2021-12-03T12:07:52.298Z,,,,,,,,,,,,,,,,54,,,,,,,,,,,,,,487.15800000894524,,response,,,100,,,,,,Space,keypress(Space),,,,,-- --- ---- --- ------ ----- ------- ---- -- --- ------- --<br>------- ---------- ------ -- ----- -- ----- -- ---- ------<br>--- state --- --- ------ -------- ----- --- ------ ----- --<br>----- ----- ---------- --- --- ------ ------ ---- -- ------<br>------- --- ------ ----- --- ---- ------- -- ---- --- --<br>------- ------,103020.90000000596,103020.10000000894,102516.27,102517.20000000298,102532.942,103032.933,,23,state
screen,html.Screen,0_2_1_1_24,2021-12-03T12:07:52.850Z,,,,,,,,,,,,,,,,54,,,,,,,,,,,,,,539.0669999999955,,response,,,100,,,,,,Space,keypress(Space),,,,,-- --- ---- --- ------ ----- ------- ---- -- --- ------- --<br>------- ---------- ------ -- ----- -- ----- -- ---- ------<br>--- ----- cut --- ------ -------- ----- --- ------ ----- --<br>----- ----- ---------- --- --- ------ ------ ---- -- ------<br>------- --- ------ ----- --- ---- ------- -- ---- --- --<br>------- ------,103572.79999999702,103572,103016.263,103021,103032.933,103583.083,,24,cut
screen,html.Screen,0_2_1_1_25,2021-12-03T12:07:53.298Z,,,,,,,,,,,,,,,,54,,,,,,,,,,,,,,436.9170000000013,,response,,,100,,,,,,Space,keypress(Space),,,,,-- --- ---- --- ------ ----- ------- ---- -- --- ------- --<br>------- ---------- ------ -- ----- -- ----- -- ---- ------<br>--- ----- --- the ------ -------- ----- --- ------ ----- --<br>----- ----- ---------- --- --- ------ ------ ---- -- ------<br>------- --- ------ ----- --- ---- ------- -- ---- --- --<br>------- ------,104020.79999999702,104020,103566.413,103573.10000000894,103583.083,104033.248,,25,the
screen,html.Screen,0_2_1_1_26,2021-12-03T12:07:53.786Z,,,,,,,,,,,,,,,,54,,,,,,,,,,,,,,474.8520000089338,,response,,,100,,,,,,Space,keypress(Space),,,,,-- --- ---- --- ------ ----- ------- ---- -- --- ------- --<br>------- ---------- ------ -- ----- -- ----- -- ---- ------<br>--- ----- --- --- bonds' -------- ----- --- ------ ----- --<br>----- ----- ---------- --- --- ------ ------ ---- -- ------<br>------- --- ------ ----- --- ---- ------- -- ---- --- --<br>------- ------,104508.79999999702,104508.10000000894,104016.577,104021,104033.248,104516.537,,26,bonds'
screen,html.Screen,0_2_1_1_27,2021-12-03T12:07:54.314Z,,,,,,,,,,,,,,,,54,,,,,,,,,,,,,,519.4630000000034,,response,,,100,,,,,,Space,keypress(Space),,,,,-- --- ---- --- ------ ----- ------- ---- -- --- ------- --<br>------- ---------- ------ -- ----- -- ----- -- ---- ------<br>--- ----- --- --- ------ interest ----- --- ------ ----- --<br>----- ----- ---------- --- --- ------ ------ ---- -- ------<br>------- --- ------ ----- --- ---- ------- -- ---- --- --<br>------- ------,105036.70000000298,105036,104499.868,104509.10000000894,104516.537,105050.222,,27,interest
screen,html.Screen,0_2_1_1_28,2021-12-03T12:07:54.834Z,,,,,,,,,,,,,,,,54,,,,,,,,,,,,,,505.67800000596617,,response,,,100,,,,,,Space,keypress(Space),,,,,-- --- ---- --- ------ ----- ------- ---- -- --- ------- --<br>------- ---------- ------ -- ----- -- ----- -- ---- ------<br>--- ----- --- --- ------ -------- rate. --- ------ ----- --<br>----- ----- ---------- --- --- ------ ------ ---- -- ------<br>------- --- ------ ----- --- ---- ------- -- ---- --- --<br>------- ------,105556.79999999702,105555.90000000596,105033.55,105037.10000000894,105050.222,105566.923,,28,rate.
screen,html.Screen,0_2_1_1_29,2021-12-03T12:07:55.298Z,,,,,,,,,,,,,,,,54,,,,,,,,,,,,,,452.97700000596524,,response,,,100,,,,,,Space,keypress(Space),,,,,-- --- ---- --- ------ ----- ------- ---- -- --- ------- --<br>------- ---------- ------ -- ----- -- ----- -- ---- ------<br>--- ----- --- --- ------ -------- ----- The ------ ----- --<br>----- ----- ---------- --- --- ------ ------ ---- -- ------<br>------- --- ------ ----- --- ---- ------- -- ---- --- --<br>------- ------,106020.60000000894,106019.90000000596,105550.253,105557,105566.923,106033.678,,29,The
screen,html.Screen,0_2_1_1_30,2021-12-03T12:07:55.874Z,,,,,,,,,,,,,,,,54,,,,,,,,,,,,,,562.2220000059606,,response,,,100,,,,,,Space,keypress(Space),,,,,-- --- ---- --- ------ ----- ------- ---- -- --- ------- --<br>------- ---------- ------ -- ----- -- ----- -- ---- ------<br>--- ----- --- --- ------ -------- ----- --- market ----- --<br>----- ----- ---------- --- --- ------ ------ ---- -- ------<br>------- --- ------ ----- --- ---- ------- -- ---- --- --<br>------- ------,106596.60000000894,106595.90000000596,106017.008,106020.90000000596,106033.678,106600.568,,30,market
screen,html.Screen,0_2_1_1_31,2021-12-03T12:07:56.386Z,,,,,,,,,,,,,,,,54,,,,,,,,,,,,,,507.33200000596116,,response,,,100,,,,,,Space,keypress(Space),,,,,-- --- ---- --- ------ ----- ------- ---- -- --- ------- --<br>------- ---------- ------ -- ----- -- ----- -- ---- ------<br>--- ----- --- --- ------ -------- ----- --- ------ value --<br>----- ----- ---------- --- --- ------ ------ ---- -- ------<br>------- --- ------ ----- --- ---- ------- -- ---- --- --<br>------- ------,107108.70000000298,107107.90000000596,106583.897,106596.90000000596,106600.568,107117.367,,31,value
screen,html.Screen,0_2_1_1_32,2021-12-03T12:07:56.842Z,,,,,,,,,,,,,,,,54,,,,,,,,,,,,,,446.4329999970214,,response,,,100,,,,,,Space,keypress(Space),,,,,-- --- ---- --- ------ ----- ------- ---- -- --- ------- --<br>------- ---------- ------ -- ----- -- ----- -- ---- ------<br>--- ----- --- --- ------ -------- ----- --- ------ ----- of<br>----- ----- ---------- --- --- ------ ------ ---- -- ------<br>------- --- ------ ----- --- ---- ------- -- ---- --- --<br>------- ------,107564.60000000894,107563.79999999702,107100.696,107108.79999999702,107117.367,107567.428,,32,of
screen,html.Screen,0_2_1_1_33,2021-12-03T12:07:57.338Z,,,,,,,,,,,,,,,,54,,,,,,,,,,,,,,492.3719999970199,,response,,,100,,,,,,Space,keypress(Space),,,,,-- --- ---- --- ------ ----- ------- ---- -- --- ------- --<br>------- ---------- ------ -- ----- -- ----- -- ---- ------<br>--- ----- --- --- ------ -------- ----- --- ------ ----- --<br>these ----- ---------- --- --- ------ ------ ---- -- ------<br>------- --- ------ ----- --- ---- ------- -- ---- --- --<br>------- ------,108060.5,108059.79999999702,107550.758,107564.90000000596,107567.428,108067.624,,33,these
screen,html.Screen,0_2_1_1_34,2021-12-03T12:07:58.082Z,,,,,,,,,,,,,,,,54,,,,,,,,,,,,,,736.0760000029841,,response,,,100,,,,,,Space,keypress(Space),,,,,-- --- ---- --- ------ ----- ------- ---- -- --- ------- --<br>------- ---------- ------ -- ----- -- ----- -- ---- ------<br>--- ----- --- --- ------ -------- ----- --- ------ ----- --<br>----- bonds ---------- --- --- ------ ------ ---- -- ------<br>------- --- ------ ----- --- ---- ------- -- ---- --- --<br>------- ------,108804.60000000894,108803.70000000298,108050.953,108060.79999999702,108067.624,108817.614,,34,bonds
screen,html.Screen,0_2_1_1_35,2021-12-03T12:07:58.706Z,,,,,,,,,,,,,,,,54,,,,,,,,,,,,,,610.5860000029788,,response,,,100,,,,,,Space,keypress(Space),,,,,"-- --- ---- --- ------ ----- ------- ---- -- --- ------- --<br>------- ---------- ------ -- ----- -- ----- -- ---- ------<br>--- ----- --- --- ------ -------- ----- --- ------ ----- --<br>----- ----- plummeted, --- --- ------ ------ ---- -- ------<br>------- --- ------ ----- --- ---- ------- -- ---- --- --<br>------- ------",109429,109428.20000000298,108800.945,108804.79999999702,108817.614,109434.699,,35,"plummeted,"
screen,html.Screen,0_2_1_1_36,2021-12-03T12:07:59.218Z,,,,,,,,,,,,,,,,54,,,,,,,,,,,,,,505.001000002987,,response,,,100,,,,,,Space,keypress(Space),,,,,-- --- ---- --- ------ ----- ------- ---- -- --- ------- --<br>------- ---------- ------ -- ----- -- ----- -- ---- ------<br>--- ----- --- --- ------ -------- ----- --- ------ ----- --<br>----- ----- ---------- and --- ------ ------ ---- -- ------<br>------- --- ------ ----- --- ---- ------- -- ---- --- --<br>------- ------,109940.40000000596,109939.70000000298,109418.027,109429.20000000298,109434.699,109951.384,,36,and
screen,html.Screen,0_2_1_1_37,2021-12-03T12:07:59.690Z,,,,,,,,,,,,,,,,54,,,,,,,,,,,,,,460.2160000089352,,response,,,100,,,,,,Space,keypress(Space),,,,,-- --- ---- --- ------ ----- ------- ---- -- --- ------- --<br>------- ---------- ------ -- ----- -- ----- -- ---- ------<br>--- ----- --- --- ------ -------- ----- --- ------ ----- --<br>----- ----- ---------- --- the ------ ------ ---- -- ------<br>------- --- ------ ----- --- ---- ------- -- ---- --- --<br>------- ------,110412.29999999702,110411.60000000894,109934.714,109940.60000000894,109951.384,110418.17,,37,the
screen,html.Screen,0_2_1_1_38,2021-12-03T12:08:00.154Z,,,,,,,,,,,,,,,,54,,,,,,,,,,,,,,457.530000002982,,response,,,100,,,,,,Space,keypress(Space),,,,,-- --- ---- --- ------ ----- ------- ---- -- --- ------- --<br>------- ---------- ------ -- ----- -- ----- -- ---- ------<br>--- ----- --- --- ------ -------- ----- --- ------ ----- --<br>----- ----- ---------- --- --- market ------ ---- -- ------<br>------- --- ------ ----- --- ---- ------- -- ---- --- --<br>------- ------,110876.40000000596,110875.70000000298,110401.5,110412.5,110418.17,110884.958,,38,market
screen,html.Screen,0_2_1_1_39,2021-12-03T12:08:00.642Z,,,,,,,,,,,,,,,,54,,,,,,,,,,,,,,478.642000008942,,response,,,100,,,,,,Space,keypress(Space),,,,,-- --- ---- --- ------ ----- ------- ---- -- --- ------- --<br>------- ---------- ------ -- ----- -- ----- -- ---- ------<br>--- ----- --- --- ------ -------- ----- --- ------ ----- --<br>----- ----- ---------- --- --- ------ became ---- -- ------<br>------- --- ------ ----- --- ---- ------- -- ---- --- --<br>------- ------,111364.29999999702,111363.60000000894,110868.288,110876.70000000298,110884.958,111368.464,,39,became
screen,html.Screen,0_2_1_1_40,2021-12-03T12:08:01.146Z,,,,,,,,,,,,,,,,54,,,,,,,,,,,,,,499.1360000089335,,response,,,100,,,,,,Space,keypress(Space),,,,,-- --- ---- --- ------ ----- ------- ---- -- --- ------- --<br>------- ---------- ------ -- ----- -- ----- -- ---- ------<br>--- ----- --- --- ------ -------- ----- --- ------ ----- --<br>----- ----- ---------- --- --- ------ ------ wary -- ------<br>------- --- ------ ----- --- ---- ------- -- ---- --- --<br>------- ------,111868.40000000596,111867.60000000894,111351.793,111364.70000000298,111368.464,111885.226,,40,wary
screen,html.Screen,0_2_1_1_41,2021-12-03T12:08:01.610Z,,,,,,,,,,,,,,,,54,,,,,,,,,,,,,,446.2740000000049,,response,,,100,,,,,,Space,keypress(Space),,,,,-- --- ---- --- ------ ----- ------- ---- -- --- ------- --<br>------- ---------- ------ -- ----- -- ----- -- ---- ------<br>--- ----- --- --- ------ -------- ----- --- ------ ----- --<br>----- ----- ---------- --- --- ------ ------ ---- of ------<br>------- --- ------ ----- --- ---- ------- -- ---- --- --<br>------- ------,112332.40000000596,112331.5,111868.556,111868.60000000894,111885.226,112335.254,,41,of
screen,html.Screen,0_2_1_1_42,2021-12-03T12:08:02.162Z,,,,,,,,,,,,,,,,54,,,,,,,,,,,,,,548.1460000059596,,response,,,100,,,,,,Space,keypress(Space),,,,,-- --- ---- --- ------ ----- ------- ---- -- --- ------- --<br>------- ---------- ------ -- ----- -- ----- -- ---- ------<br>--- ----- --- --- ------ -------- ----- --- ------ ----- --<br>----- ----- ---------- --- --- ------ ------ ---- -- French<br>------- --- ------ ----- --- ---- ------- -- ---- --- --<br>------- ------,112884.29999999702,112883.40000000596,112318.585,112333.79999999702,112335.254,112885.503,,42,French
screen,html.Screen,0_2_1_1_43,2021-12-03T12:08:02.826Z,,,,,,,,,,,,,,,,54,,,,,,,,,,,,,,661.8970000059635,,response,,,100,,,,,,Space,keypress(Space),,,,,-- --- ---- --- ------ ----- ------- ---- -- --- ------- --<br>------- ---------- ------ -- ----- -- ----- -- ---- ------<br>--- ----- --- --- ------ -------- ----- --- ------ ----- --<br>----- ----- ---------- --- --- ------ ------ ---- -- ------<br>credit. --- ------ ----- --- ---- ------- -- ---- --- --<br>------- ------,113548.20000000298,113547.40000000596,112868.832,112884.5,112885.503,113552.332,,43,credit.
screen,html.Screen,0_2_1_1_44,2021-12-03T12:08:03.386Z,,,,,,,,,,,,,,,,54,,,,,,,,,,,,,,555.0680000059656,,response,,,100,,,,,,Space,keypress(Space),,,,,-- --- ---- --- ------ ----- ------- ---- -- --- ------- --<br>------- ---------- ------ -- ----- -- ----- -- ---- ------<br>--- ----- --- --- ------ -------- ----- --- ------ ----- --<br>----- ----- ---------- --- --- ------ ------ ---- -- ------<br>------- The ------ ----- --- ---- ------- -- ---- --- --<br>------- ------,114108.10000000894,114107.40000000596,113535.661,113548.5,113552.332,114118.962,,44,The
screen,html.Screen,0_2_1_1_45,2021-12-03T12:08:03.906Z,,,,,,,,,,,,,,,,54,,,,,,,,,,,,,,508.43800000596093,,response,,,100,,,,,,Space,keypress(Space),,,,,-- --- ---- --- ------ ----- ------- ---- -- --- ------- --<br>------- ---------- ------ -- ----- -- ----- -- ---- ------<br>--- ----- --- --- ------ -------- ----- --- ------ ----- --<br>----- ----- ---------- --- --- ------ ------ ---- -- ------<br>------- --- French ----- --- ---- ------- -- ---- --- --<br>------- ------,114628.20000000298,114627.40000000596,114102.293,114108.40000000596,114118.962,114636.037,,45,French
screen,html.Screen,0_2_1_1_46,2021-12-03T12:08:04.490Z,,,,,,,,,,,,,,,,54,,,,,,,,,,,,,,575.3630000059638,,response,,,100,,,,,,Space,keypress(Space),,,,,-- --- ---- --- ------ ----- ------- ---- -- --- ------- --<br>------- ---------- ------ -- ----- -- ----- -- ---- ------<br>--- ----- --- --- ------ -------- ----- --- ------ ----- --<br>----- ----- ---------- --- --- ------ ------ ---- -- ------<br>------- --- ------ state --- ---- ------- -- ---- --- --<br>------- ------,115212.10000000894,115211.40000000596,114619.365,114628.29999999702,114636.037,115219.287,,46,state
screen,html.Screen,0_2_1_1_47,2021-12-03T12:08:05.082Z,,,,,,,,,,,,,,,,54,,,,,,,,,,,,,,584.1130000059638,,response,,,100,,,,,,Space,keypress(Space),,,,,-- --- ---- --- ------ ----- ------- ---- -- --- ------- --<br>------- ---------- ------ -- ----- -- ----- -- ---- ------<br>--- ----- --- --- ------ -------- ----- --- ------ ----- --<br>----- ----- ---------- --- --- ------ ------ ---- -- ------<br>------- --- ------ ----- was ---- ------- -- ---- --- --<br>------- ------,115804.10000000894,115803.40000000596,115202.618,115212.40000000596,115219.287,115819.667,,47,was
screen,html.Screen,0_2_1_1_48,2021-12-03T12:08:06.274Z,,,,,,,,,,,,,,,,54,,,,,,,,,,,,,,1175.6329999970185,,response,,,100,,,,,,Space,keypress(Space),,,,,-- --- ---- --- ------ ----- ------- ---- -- --- ------- --<br>------- ---------- ------ -- ----- -- ----- -- ---- ------<br>--- ----- --- --- ------ -------- ----- --- ------ ----- --<br>----- ----- ---------- --- --- ------ ------ ---- -- ------<br>------- --- ------ ----- --- left ------- -- ---- --- --<br>------- ------,116996.20000000298,116995.29999999702,115802.995,115804.40000000596,115819.667,117003.015,,48,left
screen,html.Screen,0_2_1_1_49,2021-12-03T12:08:06.722Z,,,,,,,,,,,,,,,,54,,,,,,,,,,,,,,440.28499999702035,,response,,,100,,,,,,Space,keypress(Space),,,,,-- --- ---- --- ------ ----- ------- ---- -- --- ------- --<br>------- ---------- ------ -- ----- -- ----- -- ---- ------<br>--- ----- --- --- ------ -------- ----- --- ------ ----- --<br>----- ----- ---------- --- --- ------ ------ ---- -- ------<br>------- --- ------ ----- --- ---- without -- ---- --- --<br>------- ------,117444.10000000894,117443.29999999702,116986.346,116996.5,117003.015,117453.428,,49,without
screen,html.Screen,0_2_1_1_50,2021-12-03T12:08:07.106Z,,,,,,,,,,,,,,,,54,,,,,,,,,,,,,,373.77200000298035,,response,,,100,,,,,,Space,keypress(Space),,,,,-- --- ---- --- ------ ----- ------- ---- -- --- ------- --<br>------- ---------- ------ -- ----- -- ----- -- ---- ------<br>--- ----- --- --- ------ -------- ----- --- ------ ----- --<br>----- ----- ---------- --- --- ------ ------ ---- -- ------<br>------- --- ------ ----- --- ---- ------- an ---- --- --<br>------- ------,117828,117827.20000000298,117436.756,117444.29999999702,117453.428,117836.759,,50,an
screen,html.Screen,0_2_1_1_51,2021-12-03T12:08:07.578Z,,,,,,,,,,,,,,,,54,,,,,,,,,,,,,,462.44100000297476,,response,,,100,,,,,,Space,keypress(Space),,,,,-- --- ---- --- ------ ----- ------- ---- -- --- ------- --<br>------- ---------- ------ -- ----- -- ----- -- ---- ------<br>--- ----- --- --- ------ -------- ----- --- ------ ----- --<br>----- ----- ---------- --- --- ------ ------ ---- -- ------<br>------- --- ------ ----- --- ---- ------- -- easy --- --<br>------- ------,118300,118299.20000000298,117820.089,117828.29999999702,117836.759,118303.527,,51,easy
screen,html.Screen,0_2_1_1_52,2021-12-03T12:08:07.922Z,,,,,,,,,,,,,,,,54,,,,,,,,,,,,,,339.67300000297837,,response,,,100,,,,,,Space,keypress(Space),,,,,-- --- ---- --- ------ ----- ------- ---- -- --- ------- --<br>------- ---------- ------ -- ----- -- ----- -- ---- ------<br>--- ----- --- --- ------ -------- ----- --- ------ ----- --<br>----- ----- ---------- --- --- ------ ------ ---- -- ------<br>------- --- ------ ----- --- ---- ------- -- ---- way --<br>------- ------,118644,118643.20000000298,118286.857,118300.29999999702,118303.527,118653.667,,52,way
screen,html.Screen,0_2_1_1_53,2021-12-03T12:08:08.329Z,,,,,,,,,,,,,,,,54,,,,,,,,,,,,,,397.53300000297895,,response,,,100,,,,,,Space,keypress(Space),,,,,-- --- ---- --- ------ ----- ------- ---- -- --- ------- --<br>------- ---------- ------ -- ----- -- ----- -- ---- ------<br>--- ----- --- --- ------ -------- ----- --- ------ ----- --<br>----- ----- ---------- --- --- ------ ------ ---- -- ------<br>------- --- ------ ----- --- ---- ------- -- ---- --- of<br>------- ------,119051.90000000596,119051.20000000298,118636.996,118644.29999999702,118653.667,119053.714,,53,of
screen,html.Screen,0_2_1_1_54,2021-12-03T12:08:08.850Z,,,,,,,,,,,,,,,,54,,,,,,,,,,,,,,517.8860000089335,,response,,,100,,,,,,Space,keypress(Space),,,,,-- --- ---- --- ------ ----- ------- ---- -- --- ------- --<br>------- ---------- ------ -- ----- -- ----- -- ---- ------<br>--- ----- --- --- ------ -------- ----- --- ------ ----- --<br>----- ----- ---------- --- --- ------ ------ ---- -- ------<br>------- --- ------ ----- --- ---- ------- -- ---- --- --<br>raising ------,119572.5,119571.60000000894,119037.044,119052.20000000298,119053.714,119587.246,,54,raising
screen,html.Screen,0_2_1_1_55,2021-12-03T12:08:09.249Z,,,,,,,,,,,,,,,,54,,,,,,,,,,,,,,383.8540000089415,,response,,,100,,,,,,Space,keypress(Space),,,,,-- --- ---- --- ------ ----- ------- ---- -- --- ------- --<br>------- ---------- ------ -- ----- -- ----- -- ---- ------<br>--- ----- --- --- ------ -------- ----- --- ------ ----- --<br>----- ----- ---------- --- --- ------ ------ ---- -- ------<br>------- --- ------ ----- --- ---- ------- -- ---- --- --<br>------- money.,119971.90000000596,119971.10000000894,119570.575,119572.79999999702,119587.246,119987.294,,55,money.
Item 100,flow.Loop,0_2_1_1,2021-12-03T12:08:09.250Z,,,,,,,,,,,,,,,,,,,,,,,,,,,,,,32092.150000008944,,completion,,,,E,,,,,,,,,,silence,,119972.29999999702,119971.10000000894,87862.28,87863.79999999702,87878.95,119987.294,,,
Question 1,html.Screen,0_2_1_2,2021-12-03T12:08:13.199Z,,,,,,,,,,,,,,,,,,,,,,,,,,,true,TRUE,,3929.606000005966,,response,,,100,E,,,,,TRUE,click #choice-1,,,,silence,,123918,123916.90000000596,119970.624,119972.60000000894,119987.294,123921.603,,,
Question 2,html.Screen,0_2_1_3,2021-12-03T12:08:16.801Z,,,,,,,,,,,,,,,,,,,,,,,,,,,true,FALSE,,3598.0970000029774,,response,,,100,E,,,,,FALSE,click #choice-2,,,,silence,,127520.29999999702,127519.70000000298,123904.933,123918.20000000298,123921.603,127522.387,,,
Item 100,flow.Sequence,0_2_1,2021-12-03T12:08:16.802Z,,,,,,,,,,,,,,,,,,,,,,,,,,,,,,49643.243000002985,,completion,,,,,,,,,,,,,,,,127520.5,127519.70000000298,77859.787,77867.79999999702,77876.457,127522.387,,,
End of Practice,html.Page,0_2_2,2021-12-03T12:08:20.914Z,,,,,,,,,,,,,,,,,,,,,,,,,,,,,,4110.013000005958,,form submission,,,,,,,,,,,,,,,,131633,131632.40000000596,127505.723,127520.60000000894,127522.387,131640.331,,,
Practice,flow.Sequence,0_2,2021-12-03T12:08:20.914Z,,,,,,,,,,,,,,,,,,,,,,,,,,,,,,109537.14900000596,,completion,,,,,,,,,,,,,,,,131633.5,131632.40000000596,22078.581,22093.10000000894,22095.251,131640.331,,,
Trap_instruction,html.Page,0_3_0,2021-12-03T12:08:21.939Z,,,,,,,,,,,,,,,,,,,,,,,,,,,,,,1017.0690000059549,,form submission,,,,,,,,,,,,,,,,132657.90000000596,132657.40000000596,131623.659,131633.90000000596,131640.331,132673.797,,,
trap_trial,html.Screen,0_3_1,2021-12-03T12:08:26.522Z,,,,,,,,,,,,,,,,,,,,,,,,,,,true,1,,4566.403000002989,,response,,,,,,,,,1,click #choice-1,,,,,,137241.5,137240.20000000298,132640.457,132658.20000000298,132673.797,137241.492,,,
end of trap trial,html.Page,0_3_2,2021-12-03T12:08:28.605Z,,,,,,,,,,,,,,,,,,,,,,,,,,,,,,2081.908000005962,,form submission,,,,,,,,,,,,,,,,139323.90000000596,139323.40000000596,137224.822,137241.70000000298,137241.492,139326.373,,,
Trap 1,flow.Sequence,0_3,2021-12-03T12:08:28.605Z,,,,,,,,,,,,,,,,,,,,,,,,,,,,,,7683.069000005955,,completion,,,,,,,,,,,,,,,,139324.29999999702,139323.40000000596,131623.659,131633.70000000298,131640.331,139326.373,,,
Standby,html.Page,0_4_0,2021-12-03T12:08:36.594Z,,,,,,,,,,,,,,,,,,,,,,,,,,,,,,8001.8520000000135,,timeout,,,,,,,,,,,,,,,,147312.60000000894,147311.553,139309.671,139324.5,139326.373,147328.225,,,
Holding screen,html.Screen,0_4_1_0_0,2021-12-03T12:08:43.595Z,,,,,,,,,,,,,,,,,,,,,,,,,,,,,,7001.212999999989,,timeout,,,,,,,,,,,,,,,,154314.10000000894,154312.768,147311.553,147313,147328.225,154329.438,,,
screen,html.Screen,0_4_1_0_1_0,2021-12-03T12:08:44.468Z,,,,,,,,,,,,,,,,48,,,,,,,,,,,,,,856.162000008946,,response,,,10,E,,,,,Space,keypress(Space),,,,lyrical,As -- --- ------ ------- --------- ----------- --------<br>--------- -------- --- ------- -- ------- ---- -- ------<br>-- --- -------- -------- ---------- ---- ---- ---- ------<br>-- --------- -- ---- -- --- -- --- ------- -- - -----<br>---------- -- -- -- ---- ----- -- ------ -- --- ------<br>-------,155186.60000000894,155185.60000000894,154312.768,154314.5,154329.438,155196.177,,0,As
screen,html.Screen,0_4_1_0_1_1,2021-12-03T12:08:44.875Z,,,,,,,,,,,,,,,,48,,,,,,,,,,,,,,397.0230000029842,,response,,,10,E,,,,,Space,keypress(Space),,,,lyrical,-- in --- ------ ------- --------- ----------- --------<br>--------- -------- --- ------- -- ------- ---- -- ------<br>-- --- -------- -------- ---------- ---- ---- ---- ------<br>-- --------- -- ---- -- --- -- --- ------- -- - -----<br>---------- -- -- -- ---- ----- -- ------ -- --- ------<br>-------,155594.10000000894,155593.20000000298,155179.508,155186.90000000596,155196.177,155596.411,,1,in
screen,html.Screen,0_4_1_0_1_2,2021-12-03T12:08:45.371Z,,,,,,,,,,,,,,,,48,,,,,,,,,,,,,,492.6890000089479,,response,,,10,E,,,,,Space,keypress(Space),,,,lyrical,-- -- the ------ ------- --------- ----------- --------<br>--------- -------- --- ------- -- ------- ---- -- ------<br>-- --- -------- -------- ---------- ---- ---- ---- ------<br>-- --------- -- ---- -- --- -- --- ------- -- - -----<br>---------- -- -- -- ---- ----- -- ------ -- --- ------<br>-------,156090,156089.10000000894,155579.741,155594.40000000596,155596.411,156096.681,,2,the
screen,html.Screen,0_4_1_0_1_3,2021-12-03T12:08:45.875Z,,,,,,,,,,,,,,,,48,,,,,,,,,,,,,,496.4190000089293,,response,,,10,E,,,,,Space,keypress(Space),,,,lyrical,-- -- --- United ------- --------- ----------- --------<br>--------- -------- --- ------- -- ------- ---- -- ------<br>-- --- -------- -------- ---------- ---- ---- ---- ------<br>-- --------- -- ---- -- --- -- --- ------- -- - -----<br>---------- -- -- -- ---- ----- -- ------ -- --- ------<br>-------,156594,156593.10000000894,156080.009,156090.29999999702,156096.681,156596.598,,3,United
screen,html.Screen,0_4_1_0_1_4,2021-12-03T12:08:46.427Z,,,,,,,,,,,,,,,,48,,,,,,,,,,,,,,548.5020000089426,,response,,,10,E,,,,,Space,keypress(Space),,,,lyrical,"-- -- --- ------ States, --------- ----------- --------<br>--------- -------- --- ------- -- ------- ---- -- ------<br>-- --- -------- -------- ---------- ---- ---- ---- ------<br>-- --------- -- ---- -- --- -- --- ------- -- - -----<br>---------- -- -- -- ---- ----- -- ------ -- --- ------<br>-------",157145.90000000596,157145.10000000894,156579.929,156594.10000000894,156596.598,157163.486,,4,"States,"
screen,html.Screen,0_4_1_0_1_5,2021-12-03T12:08:47.099Z,,,,,,,,,,,,,,,,48,,,,,,,,,,,,,,653.414000005956,,response,,,10,E,,,,,Space,keypress(Space),,,,lyrical,-- -- --- ------ ------- Colombian ----------- --------<br>--------- -------- --- ------- -- ------- ---- -- ------<br>-- --- -------- -------- ---------- ---- ---- ---- ------<br>-- --------- -- ---- -- --- -- --- ------- -- - -----<br>---------- -- -- -- ---- ----- -- ------ -- --- ------<br>-------,157817.79999999702,157816.90000000596,157146.816,157146.20000000298,157163.486,157830.377,,5,Colombian
screen,html.Screen,0_4_1_0_1_6,2021-12-03T12:08:47.827Z,,,,,,,,,,,,,,,,48,,,,,,,,,,,,,,714.6229999999923,,response,,,10,E,,,,,Space,keypress(Space),,,,lyrical,-- -- --- ------ ------- --------- legislation --------<br>--------- -------- --- ------- -- ------- ---- -- ------<br>-- --- -------- -------- ---------- ---- ---- ---- ------<br>-- --------- -- ---- -- --- -- --- ------- -- - -----<br>---------- -- -- -- ---- ----- -- ------ -- --- ------<br>-------,158545.79999999702,158545,157813.706,157817.90000000596,157830.377,158547.153,,6,legislation
screen,html.Screen,0_4_1_0_1_7,2021-12-03T12:08:48.539Z,,,,,,,,,,,,,,,,48,,,,,,,,,,,,,,709.7470000059693,,response,,,10,E,,,,,Space,keypress(Space),,,,lyrical,-- -- --- ------ ------- --------- ----------- requires<br>--------- -------- --- ------- -- ------- ---- -- ------<br>-- --- -------- -------- ---------- ---- ---- ---- ------<br>-- --------- -- ---- -- --- -- --- ------- -- - -----<br>---------- -- -- -- ---- ----- -- ------ -- --- ------<br>-------,159257.79999999702,159256.90000000596,158530.483,158546,158547.153,159264.204,,7,requires
screen,html.Screen,0_4_1_0_1_8,2021-12-03T12:08:49.387Z,,,,,,,,,,,,,,,,48,,,,,,,,,,,,,,840.6960000059626,,response,,,10,E,,,,,Space,keypress(Space),,,,lyrical,-- -- --- ------ ------- --------- ----------- --------<br>travelers -------- --- ------- -- ------- ---- -- ------<br>-- --- -------- -------- ---------- ---- ---- ---- ------<br>-- --------- -- ---- -- --- -- --- ------- -- - -----<br>---------- -- -- -- ---- ----- -- ------ -- --- ------<br>-------,160105.79999999702,160104.90000000596,159247.532,159258,159264.204,160114.255,,8,travelers
screen,html.Screen,0_4_1_0_1_9,2021-12-03T12:08:50.291Z,,,,,,,,,,,,,,,,48,,,,,,,,,,,,,,894.6450000059558,,response,,,10,E,,,,,Space,keypress(Space),,,,lyrical,-- -- --- ------ ------- --------- ----------- --------<br>--------- entering --- ------- -- ------- ---- -- ------<br>-- --- -------- -------- ---------- ---- ---- ---- ------<br>-- --------- -- ---- -- --- -- --- ------- -- - -----<br>---------- -- -- -- ---- ----- -- ------ -- --- ------<br>-------,161009.70000000298,161008.90000000596,160097.585,160106,160114.255,161014.499,,9,entering
screen,html.Screen,0_4_1_0_1_10,2021-12-03T12:08:50.979Z,,,,,,,,,,,,,,,,48,,,,,,,,,,,,,,682.4010000059498,,response,,,10,E,,,,,Space,keypress(Space),,,,lyrical,-- -- --- ------ ------- --------- ----------- --------<br>--------- -------- the ------- -- ------- ---- -- ------<br>-- --- -------- -------- ---------- ---- ---- ---- ------<br>-- --------- -- ---- -- --- -- --- ------- -- - -----<br>---------- -- -- -- ---- ----- -- ------ -- --- ------<br>-------,161697.79999999702,161696.90000000596,160997.829,161010,161014.499,161714.69,,10,the
screen,html.Screen,0_4_1_0_1_11,2021-12-03T12:08:51.803Z,,,,,,,,,,,,,,,,48,,,,,,,,,,,,,,806.0100000029779,,response,,,10,E,,,,,Space,keypress(Space),,,,lyrical,-- -- --- ------ ------- --------- ----------- --------<br>--------- -------- --- country -- ------- ---- -- ------<br>-- --- -------- -------- ---------- ---- ---- ---- ------<br>-- --------- -- ---- -- --- -- --- ------- -- - -----<br>---------- -- -- -- ---- ----- -- ------ -- --- ------<br>-------,162521.5,162520.70000000298,161698.02,161698.10000000894,161714.69,162531.634,,11,country
screen,html.Screen,0_4_1_0_1_12,2021-12-03T12:08:52.523Z,,,,,,,,,,,,,,,,48,,,,,,,,,,,,,,709.0660000029893,,response,,,10,E,,,,,Space,keypress(Space),,,,lyrical,-- -- --- ------ ------- --------- ----------- --------<br>--------- -------- --- ------- to ------- ---- -- ------<br>-- --- -------- -------- ---------- ---- ---- ---- ------<br>-- --------- -- ---- -- --- -- --- ------- -- - -----<br>---------- -- -- -- ---- ----- -- ------ -- --- ------<br>-------,163241.5,163240.70000000298,162514.963,162521.70000000298,162531.634,163248.403,,12,to
screen,html.Screen,0_4_1_0_1_13,2021-12-03T12:08:53.251Z,,,,,,,,,,,,,,,,48,,,,,,,,,,,,,,720.2970000029891,,response,,,10,E,,,,,Space,keypress(Space),,,,lyrical,-- -- --- ------ ------- --------- ----------- --------<br>--------- -------- --- ------- -- declare ---- -- ------<br>-- --- -------- -------- ---------- ---- ---- ---- ------<br>-- --------- -- ---- -- --- -- --- ------- -- - -----<br>---------- -- -- -- ---- ----- -- ------ -- --- ------<br>-------,163969.5,163968.70000000298,163231.733,163241.79999999702,163248.403,163981.941,,13,declare
screen,html.Screen,0_4_1_0_1_14,2021-12-03T12:08:53.978Z,,,,,,,,,,,,,,,,48,,,,,,,,,,,,,,714.7590000029886,,response,,,10,E,,,,,Space,keypress(Space),,,,lyrical,-- -- --- ------ ------- --------- ----------- --------<br>--------- -------- --- ------- -- ------- cash -- ------<br>-- --- -------- -------- ---------- ---- ---- ---- ------<br>-- --------- -- ---- -- --- -- --- ------- -- - -----<br>---------- -- -- -- ---- ----- -- ------ -- --- ------<br>-------,164697.5,164696.70000000298,163965.271,163969.70000000298,163981.941,164698.794,,14,cash
screen,html.Screen,0_4_1_0_1_15,2021-12-03T12:08:54.563Z,,,,,,,,,,,,,,,,48,,,,,,,,,,,,,,582.2060000000056,,response,,,10,E,,,,,Space,keypress(Space),,,,lyrical,-- -- --- ------ ------- --------- ----------- --------<br>--------- -------- --- ------- -- ------- ---- in ------<br>-- --- -------- -------- ---------- ---- ---- ---- ------<br>-- --------- -- ---- -- --- -- --- ------- -- - -----<br>---------- -- -- -- ---- ----- -- ------ -- --- ------<br>-------,165281.70000000298,165281,164682.124,164697.70000000298,164698.794,165298.844,,15,in
screen,html.Screen,0_4_1_0_1_16,2021-12-03T12:08:55.154Z,,,,,,,,,,,,,,,,48,,,,,,,,,,,,,,573.7560000089288,,response,,,10,E,,,,,Space,keypress(Space),,,,lyrical,-- -- --- ------ ------- --------- ----------- --------<br>--------- -------- --- ------- -- ------- ---- -- excess<br>-- --- -------- -------- ---------- ---- ---- ---- ------<br>-- --------- -- ---- -- --- -- --- ------- -- - -----<br>---------- -- -- -- ---- ----- -- ------ -- --- ------<br>-------,165873.40000000596,165872.60000000894,165282.175,165282.10000000894,165298.844,165882.505,,16,excess
screen,html.Screen,0_4_1_0_1_17,2021-12-03T12:08:55.586Z,,,,,,,,,,,,,,,,48,,,,,,,,,,,,,,422.09500000893604,,response,,,10,E,,,,,Space,keypress(Space),,,,lyrical,-- -- --- ------ ------- --------- ----------- --------<br>--------- -------- --- ------- -- ------- ---- -- ------<br>of --- -------- -------- ---------- ---- ---- ---- ------<br>-- --------- -- ---- -- --- -- --- ------- -- - -----<br>---------- -- -- -- ---- ----- -- ------ -- --- ------<br>-------,166305.40000000596,166304.60000000894,165865.834,165873.70000000298,165882.505,166315.94,,17,of
screen,html.Screen,0_4_1_0_1_18,2021-12-03T12:08:56.210Z,,,,,,,,,,,,,,,,48,,,,,,,,,,,,,,612.5599999999977,,response,,,10,E,,,,,Space,keypress(Space),,,,lyrical,-- -- --- ------ ------- --------- ----------- --------<br>--------- -------- --- ------- -- ------- ---- -- ------<br>-- ten -------- -------- ---------- ---- ---- ---- ------<br>-- --------- -- ---- -- --- -- --- ------- -- - -----<br>---------- -- -- -- ---- ----- -- ------ -- --- ------<br>-------,166929.40000000596,166928.5,166299.269,166305.60000000894,166315.94,166932.634,,18,ten
screen,html.Screen,0_4_1_0_1_19,2021-12-03T12:08:56.626Z,,,,,,,,,,,,,,,,48,,,,,,,,,,,,,,411.8660000000091,,response,,,10,E,,,,,Space,keypress(Space),,,,lyrical,-- -- --- ------ ------- --------- ----------- --------<br>--------- -------- --- ------- -- ------- ---- -- ------<br>-- --- thousand -------- ---------- ---- ---- ---- ------<br>-- --------- -- ---- -- --- -- --- ------- -- - -----<br>---------- -- -- -- ---- ----- -- ------ -- --- ------<br>-------,167345.20000000298,167344.5,166915.965,166929.70000000298,166932.634,167349.523,,19,thousand
screen,html.Screen,0_4_1_0_1_20,2021-12-03T12:08:57.186Z,,,,,,,,,,,,,,,,48,,,,,,,,,,,,,,554.877000005974,,response,,,10,E,,,,,Space,keypress(Space),,,,lyrical,-- -- --- ------ ------- --------- ----------- --------<br>--------- -------- --- ------- -- ------- ---- -- ------<br>-- --- -------- dollars. ---------- ---- ---- ---- ------<br>-- --------- -- ---- -- --- -- --- ------- -- - -----<br>---------- -- -- -- ---- ----- -- ------ -- --- ------<br>-------,167905.20000000298,167904.40000000596,167332.852,167345.5,167349.523,167916.298,,20,dollars.
screen,html.Screen,0_4_1_0_1_21,2021-12-03T12:08:58.218Z,,,,,,,,,,,,,,,,48,,,,,,,,,,,,,,1020.1020000059507,,response,,,10,E,,,,,Space,keypress(Space),,,,lyrical,-- -- --- ------ ------- --------- ----------- --------<br>--------- -------- --- ------- -- ------- ---- -- ------<br>-- --- -------- -------- Concealing ---- ---- ---- ------<br>-- --------- -- ---- -- --- -- --- ------- -- - -----<br>---------- -- -- -- ---- ----- -- ------ -- --- ------<br>-------,168937.20000000298,168936.40000000596,167899.628,167905.40000000596,167916.298,168949.856,,21,Concealing
screen,html.Screen,0_4_1_0_1_22,2021-12-03T12:08:58.722Z,,,,,,,,,,,,,,,,48,,,,,,,,,,,,,,490.5440000059607,,response,,,10,E,,,,,Space,keypress(Space),,,,lyrical,-- -- --- ------ ------- --------- ----------- --------<br>--------- -------- --- ------- -- ------- ---- -- ------<br>-- --- -------- -------- ---------- more ---- ---- ------<br>-- --------- -- ---- -- --- -- --- ------- -- - -----<br>---------- -- -- -- ---- ----- -- ------ -- --- ------<br>-------,169441.20000000298,169440.40000000596,168933.186,168937.5,168949.856,169450.021,,22,more
screen,html.Screen,0_4_1_0_1_23,2021-12-03T12:08:59.154Z,,,,,,,,,,,,,,,,48,,,,,,,,,,,,,,422.37900000595255,,response,,,10,E,,,,,Space,keypress(Space),,,,lyrical,-- -- --- ------ ------- --------- ----------- --------<br>--------- -------- --- ------- -- ------- ---- -- ------<br>-- --- -------- -------- ---------- ---- than ---- ------<br>-- --------- -- ---- -- --- -- --- ------- -- - -----<br>---------- -- -- -- ---- ----- -- ------ -- --- ------<br>-------,169873.29999999702,169872.40000000596,169433.351,169441.29999999702,169450.021,169883.415,,23,than
screen,html.Screen,0_4_1_0_1_24,2021-12-03T12:08:59.618Z,,,,,,,,,,,,,,,,48,,,,,,,,,,,,,,452.9850000059523,,response,,,10,E,,,,,Space,keypress(Space),,,,lyrical,-- -- --- ------ ------- --------- ----------- --------<br>--------- -------- --- ------- -- ------- ---- -- ------<br>-- --- -------- -------- ---------- ---- ---- that ------<br>-- --------- -- ---- -- --- -- --- ------- -- - -----<br>---------- -- -- -- ---- ----- -- ------ -- --- ------<br>-------,170337.20000000298,170336.40000000596,169866.745,169873.5,169883.415,170350.359,,24,that
screen,html.Screen,0_4_1_0_1_25,2021-12-03T12:09:00.130Z,,,,,,,,,,,,,,,,48,,,,,,,,,,,,,,497.940999997023,,response,,,10,E,,,,,Space,keypress(Space),,,,lyrical,-- -- --- ------ ------- --------- ----------- --------<br>--------- -------- --- ------- -- ------- ---- -- ------<br>-- --- -------- -------- ---------- ---- ---- ---- amount<br>-- --------- -- ---- -- --- -- --- ------- -- - -----<br>---------- -- -- -- ---- ----- -- ------ -- --- ------<br>-------,170849.10000000894,170848.29999999702,170333.687,170337.40000000596,170350.359,170850.393,,25,amount
screen,html.Screen,0_4_1_0_1_26,2021-12-03T12:09:00.618Z,,,,,,,,,,,,,,,,48,,,,,,,,,,,,,,485.9069999970088,,response,,,10,E,,,,,Space,keypress(Space),,,,lyrical,-- -- --- ------ ------- --------- ----------- --------<br>--------- -------- --- ------- -- ------- ---- -- ------<br>-- --- -------- -------- ---------- ---- ---- ---- ------<br>to --------- -- ---- -- --- -- --- ------- -- - -----<br>---------- -- -- -- ---- ----- -- ------ -- --- ------<br>-------,171337.10000000894,171336.29999999702,170833.723,170849.29999999702,170850.393,171350.525,,26,to
screen,html.Screen,0_4_1_0_1_27,2021-12-03T12:09:01.130Z,,,,,,,,,,,,,,,,48,,,,,,,,,,,,,,497.7749999970256,,response,,,10,E,,,,,Space,keypress(Space),,,,lyrical,-- -- --- ------ ------- --------- ----------- --------<br>--------- -------- --- ------- -- ------- ---- -- ------<br>-- --- -------- -------- ---------- ---- ---- ---- ------<br>-- transport -- ---- -- --- -- --- ------- -- - -----<br>---------- -- -- -- ---- ----- -- ------ -- --- ------<br>-------,171849.10000000894,171848.29999999702,171333.855,171337.29999999702,171350.525,171850.633,,27,transport
screen,html.Screen,0_4_1_0_1_28,2021-12-03T12:09:01.626Z,,,,,,,,,,,,,,,,48,,,,,,,,,,,,,,493.5670000029786,,response,,,10,E,,,,,Space,keypress(Space),,,,lyrical,-- -- --- ------ ------- --------- ----------- --------<br>--------- -------- --- ------- -- ------- ---- -- ------<br>-- --- -------- -------- ---------- ---- ---- ---- ------<br>-- --------- it ---- -- --- -- --- ------- -- - -----<br>---------- -- -- -- ---- ----- -- ------ -- --- ------<br>-------,172345.10000000894,172344.20000000298,171833.963,171849.40000000596,171850.633,172350.657,,28,it
screen,html.Screen,0_4_1_0_1_29,2021-12-03T12:09:02.186Z,,,,,,,,,,,,,,,,48,,,,,,,,,,,,,,553.4430000089342,,response,,,10,E,,,,,Space,keypress(Space),,,,lyrical,-- -- --- ------ ------- --------- ----------- --------<br>--------- -------- --- ------- -- ------- ---- -- ------<br>-- --- -------- -------- ---------- ---- ---- ---- ------<br>-- --------- -- into -- --- -- --- ------- -- - -----<br>---------- -- -- -- ---- ----- -- ------ -- --- ------<br>-------,172905,172904.10000000894,172333.988,172345.29999999702,172350.657,172917.694,,29,into
screen,html.Screen,0_4_1_0_1_30,2021-12-03T12:09:02.618Z,,,,,,,,,,,,,,,,48,,,,,,,,,,,,,,418.50600000299164,,response,,,10,E,,,,,Space,keypress(Space),,,,lyrical,-- -- --- ------ ------- --------- ----------- --------<br>--------- -------- --- ------- -- ------- ---- -- ------<br>-- --- -------- -------- ---------- ---- ---- ---- ------<br>-- --------- -- ---- or --- -- --- ------- -- - -----<br>---------- -- -- -- ---- ----- -- ------ -- --- ------<br>-------,173336.90000000596,173336.20000000298,172901.022,172905.20000000298,172917.694,173351.081,,30,or
screen,html.Screen,0_4_1_0_1_31,2021-12-03T12:09:03.050Z,,,,,,,,,,,,,,,,48,,,,,,,,,,,,,,417.11900000297464,,response,,,10,E,,,,,Space,keypress(Space),,,,lyrical,-- -- --- ------ ------- --------- ----------- --------<br>--------- -------- --- ------- -- ------- ---- -- ------<br>-- --- -------- -------- ---------- ---- ---- ---- ------<br>-- --------- -- ---- -- out -- --- ------- -- - -----<br>---------- -- -- -- ---- ----- -- ------ -- --- ------<br>-------,173768.90000000596,173768.20000000298,173334.41,173337.20000000298,173351.081,173784.365,,31,out
screen,html.Screen,0_4_1_0_1_32,2021-12-03T12:09:03.458Z,,,,,,,,,,,,,,,,48,,,,,,,,,,,,,,391.83500000298955,,response,,,10,E,,,,,Space,keypress(Space),,,,lyrical,-- -- --- ------ ------- --------- ----------- --------<br>--------- -------- --- ------- -- ------- ---- -- ------<br>-- --- -------- -------- ---------- ---- ---- ---- ------<br>-- --------- -- ---- -- --- of --- ------- -- - -----<br>---------- -- -- -- ---- ----- -- ------ -- --- ------<br>-------,174177,174176.20000000298,173767.696,173769.20000000298,173784.365,174184.58,,32,of
screen,html.Screen,0_4_1_0_1_33,2021-12-03T12:09:03.922Z,,,,,,,,,,,,,,,,48,,,,,,,,,,,,,,455.5200000089535,,response,,,10,E,,,,,Space,keypress(Space),,,,lyrical,-- -- --- ------ ------- --------- ----------- --------<br>--------- -------- --- ------- -- ------- ---- -- ------<br>-- --- -------- -------- ---------- ---- ---- ---- ------<br>-- --------- -- ---- -- --- -- the ------- -- - -----<br>---------- -- -- -- ---- ----- -- ------ -- --- ------<br>-------,174640.90000000596,174640.10000000894,174167.909,174177.20000000298,174184.58,174651.459,,33,the
screen,html.Screen,0_4_1_0_1_34,2021-12-03T12:09:04.426Z,,,,,,,,,,,,,,,,48,,,,,,,,,,,,,,492.64100000893814,,response,,,10,E,,,,,Space,keypress(Space),,,,lyrical,-- -- --- ------ ------- --------- ----------- --------<br>--------- -------- --- ------- -- ------- ---- -- ------<br>-- --- -------- -------- ---------- ---- ---- ---- ------<br>-- --------- -- ---- -- --- -- --- country -- - -----<br>---------- -- -- -- ---- ----- -- ------ -- --- ------<br>-------,175144.90000000596,175144.10000000894,174634.787,174641.10000000894,174651.459,175151.376,,34,country
screen,html.Screen,0_4_1_0_1_35,2021-12-03T12:09:04.882Z,,,,,,,,,,,,,,,,48,,,,,,,,,,,,,,449.1240000000107,,response,,,10,E,,,,,Space,keypress(Space),,,,lyrical,-- -- --- ------ ------- --------- ----------- --------<br>--------- -------- --- ------- -- ------- ---- -- ------<br>-- --- -------- -------- ---------- ---- ---- ---- ------<br>-- --------- -- ---- -- --- -- --- ------- is - -----<br>---------- -- -- -- ---- ----- -- ------ -- --- ------<br>-------,175601.20000000298,175600.5,175134.707,175145.10000000894,175151.376,175618.24,,35,is
screen,html.Screen,0_4_1_0_1_36,2021-12-03T12:09:05.298Z,,,,,,,,,,,,,,,,48,,,,,,,,,,,,,,397.7600000000093,,response,,,10,E,,,,,Space,keypress(Space),,,,lyrical,-- -- --- ------ ------- --------- ----------- --------<br>--------- -------- --- ------- -- ------- ---- -- ------<br>-- --- -------- -------- ---------- ---- ---- ---- ------<br>-- --------- -- ---- -- --- -- --- ------- -- a -----<br>---------- -- -- -- ---- ----- -- ------ -- --- ------<br>-------,176016.79999999702,176016,175601.57,175601.5,175618.24,176018.481,,36,a
screen,html.Screen,0_4_1_0_1_37,2021-12-03T12:09:05.818Z,,,,,,,,,,,,,,,,48,,,,,,,,,,,,,,517.5190000000002,,response,,,10,E,,,,,Space,keypress(Space),,,,lyrical,-- -- --- ------ ------- --------- ----------- --------<br>--------- -------- --- ------- -- ------- ---- -- ------<br>-- --- -------- -------- ---------- ---- ---- ---- ------<br>-- --------- -- ---- -- --- -- --- ------- -- - crime<br>---------- -- -- -- ---- ----- -- ------ -- --- ------<br>-------,176536.90000000596,176536,176001.809,176017,176018.481,176551.862,,37,crime
screen,html.Screen,0_4_1_0_1_38,2021-12-03T12:09:06.442Z,,,,,,,,,,,,,,,,48,,,,,,,,,,,,,,608.1380000000063,,response,,,10,E,,,,,Space,keypress(Space),,,,lyrical,-- -- --- ------ ------- --------- ----------- --------<br>--------- -------- --- ------- -- ------- ---- -- ------<br>-- --- -------- -------- ---------- ---- ---- ---- ------<br>-- --------- -- ---- -- --- -- --- ------- -- - -----<br>punishable -- -- -- ---- ----- -- ------ -- --- ------<br>-------,177160.79999999702,177160,176535.192,176537.10000000894,176551.862,177168.653,,38,punishable
screen,html.Screen,0_4_1_0_1_39,2021-12-03T12:09:06.866Z,,,,,,,,,,,,,,,,48,,,,,,,,,,,,,,415.2470000059693,,response,,,10,E,,,,,Space,keypress(Space),,,,lyrical,-- -- --- ------ ------- --------- ----------- --------<br>--------- -------- --- ------- -- ------- ---- -- ------<br>-- --- -------- -------- ---------- ---- ---- ---- ------<br>-- --------- -- ---- -- --- -- --- ------- -- - -----<br>---------- by -- -- ---- ----- -- ------ -- --- ------<br>-------,177584.70000000298,177583.90000000596,177151.983,177161,177168.653,177602.017,,39,by
screen,html.Screen,0_4_1_0_1_40,2021-12-03T12:09:07.314Z,,,,,,,,,,,,,,,,48,,,,,,,,,,,,,,429.8830000059679,,response,,,10,E,,,,,Space,keypress(Space),,,,lyrical,-- -- --- ------ ------- --------- ----------- --------<br>--------- -------- --- ------- -- ------- ---- -- ------<br>-- --- -------- -------- ---------- ---- ---- ---- ------<br>-- --------- -- ---- -- --- -- --- ------- -- - -----<br>---------- -- up -- ---- ----- -- ------ -- --- ------<br>-------,178032.70000000298,178031.90000000596,177585.348,177585,177602.017,178035.661,,40,up
screen,html.Screen,0_4_1_0_1_41,2021-12-03T12:09:07.842Z,,,,,,,,,,,,,,,,48,,,,,,,,,,,,,,524.2390000059677,,response,,,10,E,,,,,Space,keypress(Space),,,,lyrical,-- -- --- ------ ------- --------- ----------- --------<br>--------- -------- --- ------- -- ------- ---- -- ------<br>-- --- -------- -------- ---------- ---- ---- ---- ------<br>-- --------- -- ---- -- --- -- --- ------- -- - -----<br>---------- -- -- to ---- ----- -- ------ -- --- ------<br>-------,178560.70000000298,178559.90000000596,178018.989,178033,178035.661,178568.874,,41,to
screen,html.Screen,0_4_1_0_1_42,2021-12-03T12:09:08.322Z,,,,,,,,,,,,,,,,48,,,,,,,,,,,,,,470.8260000029695,,response,,,10,E,,,,,Space,keypress(Space),,,,lyrical,-- -- --- ------ ------- --------- ----------- --------<br>--------- -------- --- ------- -- ------- ---- -- ------<br>-- --- -------- -------- ---------- ---- ---- ---- ------<br>-- --------- -- ---- -- --- -- --- ------- -- - -----<br>---------- -- -- -- five ----- -- ------ -- --- ------<br>-------,179040.5,179039.70000000298,178552.206,178560.90000000596,178568.874,179052.456,,42,five
screen,html.Screen,0_4_1_0_1_43,2021-12-03T12:09:08.834Z,,,,,,,,,,,,,,,,48,,,,,,,,,,,,,,499.3439999970142,,response,,,10,E,,,,,Space,keypress(Space),,,,lyrical,-- -- --- ------ ------- --------- ----------- --------<br>--------- -------- --- ------- -- ------- ---- -- ------<br>-- --- -------- -------- ---------- ---- ---- ---- ------<br>-- --------- -- ---- -- --- -- --- ------- -- - -----<br>---------- -- -- -- ---- years -- ------ -- --- ------<br>-------,179552.70000000298,179551.79999999702,179035.786,179040.79999999702,179052.456,179569.388,,43,years
screen,html.Screen,0_4_1_0_1_44,2021-12-03T12:09:09.282Z,,,,,,,,,,,,,,,,48,,,,,,,,,,,,,,430.4119999970135,,response,,,10,E,,,,,Space,keypress(Space),,,,lyrical,-- -- --- ------ ------- --------- ----------- --------<br>--------- -------- --- ------- -- ------- ---- -- ------<br>-- --- -------- -------- ---------- ---- ---- ---- ------<br>-- --------- -- ---- -- --- -- --- ------- -- - -----<br>---------- -- -- -- ---- ----- in ------ -- --- ------<br>-------,180000.5,179999.79999999702,179552.716,179553,179569.388,180002.731,,44,in
screen,html.Screen,0_4_1_0_1_45,2021-12-03T12:09:09.786Z,,,,,,,,,,,,,,,,48,,,,,,,,,,,,,,500.96900000298047,,response,,,10,E,,,,,Space,keypress(Space),,,,lyrical,-- -- --- ------ ------- --------- ----------- --------<br>--------- -------- --- ------- -- ------- ---- -- ------<br>-- --- -------- -------- ---------- ---- ---- ---- ------<br>-- --------- -- ---- -- --- -- --- ------- -- - -----<br>---------- -- -- -- ---- ----- -- prison -- --- ------<br>-------,180504.60000000894,180503.70000000298,179986.061,180000.79999999702,180002.731,180519.586,,45,prison
screen,html.Screen,0_4_1_0_1_46,2021-12-03T12:09:10.259Z,,,,,,,,,,,,,,,,48,,,,,,,,,,,,,,456.2139999970095,,response,,,10,E,,,,,Space,keypress(Space),,,,lyrical,-- -- --- ------ ------- --------- ----------- --------<br>--------- -------- --- ------- -- ------- ---- -- ------<br>-- --- -------- -------- ---------- ---- ---- ---- ------<br>-- --------- -- ---- -- --- -- --- ------- -- - -----<br>---------- -- -- -- ---- ----- -- ------ in --- ------<br>-------,180978,180975.79999999702,180502.915,180504.70000000298,180519.586,180986.263,,46,in
screen,html.Screen,0_4_1_0_1_47,2021-12-03T12:09:10.716Z,,,,,,,,,,,,,,,,48,,,,,,,,,,,,,,453.43700000297395,,response,,,10,E,,,,,Space,keypress(Space),,,,lyrical,-- -- --- ------ ------- --------- ----------- --------<br>--------- -------- --- ------- -- ------- ---- -- ------<br>-- --- -------- -------- ---------- ---- ---- ---- ------<br>-- --------- -- ---- -- --- -- --- ------- -- - -----<br>---------- -- -- -- ---- ----- -- ------ -- the ------<br>-------,181440.5,181439.70000000298,180969.594,180978.60000000894,180986.263,181453.15,,47,the
screen,html.Screen,0_4_1_0_1_48,2021-12-03T12:09:11.196Z,,,,,,,,,,,,,,,,48,,,,,,,,,,,,,,466.55000000298605,,response,,,10,E,,,,,Space,keypress(Space),,,,lyrical,-- -- --- ------ ------- --------- ----------- --------<br>--------- -------- --- ------- -- ------- ---- -- ------<br>-- --- -------- -------- ---------- ---- ---- ---- ------<br>-- --------- -- ---- -- --- -- --- ------- -- - -----<br>---------- -- -- -- ---- ----- -- ------ -- --- United<br>-------,181920.5,181919.70000000298,181436.479,181440.70000000298,181453.15,181936.615,,48,United
screen,html.Screen,0_4_1_0_1_49,2021-12-03T12:09:11.588Z,,,,,,,,,,,,,,,,48,,,,,,,,,,,,,,375.08500000298955,,response,,,10,E,,,,,Space,keypress(Space),,,,lyrical,-- -- --- ------ ------- --------- ----------- --------<br>--------- -------- --- ------- -- ------- ---- -- ------<br>-- --- -------- -------- ---------- ---- ---- ---- ------<br>-- --------- -- ---- -- --- -- --- ------- -- - -----<br>---------- -- -- -- ---- ----- -- ------ -- --- ------<br>States.,182312.5,182311.70000000298,181919.944,181920.79999999702,181936.615,182320.016,,49,States.
Item 10,flow.Loop,0_4_1_0_1,2021-12-03T12:09:11.588Z,,,,,,,,,,,,,,,,,,,,,,,,,,,,,,27982.262000002986,,completion,,,,,,,,,,,,,,,,182312.90000000596,182311.70000000298,154312.768,154314.40000000596,154329.438,182320.016,,,
Question 1,html.Screen,0_4_1_0_2,2021-12-03T12:09:20.523Z,,,,,,,,,,,,,,,,,,,,,,,,,,,true,TRUE,,8926.283999997017,,response,,,10,E,,,,,TRUE,click #choice-1,,,,lyrical,,191247.70000000298,191246.29999999702,182303.346,182313.10000000894,182320.016,191256.006,,,
Question 2,html.Screen,0_4_1_0_3,2021-12-03T12:09:24.798Z,,,,,,,,,,,,,,,,,,,,,,,,,,,true,TRUE,,4265.594000008947,,response,,,10,E,,,,,TRUE,click #choice-1,,,,lyrical,,195522.70000000298,195521.60000000894,191239.331,191247.90000000596,191256.006,195523.482,,,
Item 10,flow.Sequence,0_4_1_0,2021-12-03T12:09:24.798Z,,,,,,,,,,,,,,,,,,,,,,,,,,,,,,48193.375000008935,,completion,,,,,,,,,,,,,,,,195523.20000000298,195521.60000000894,147311.553,147312.90000000596,147328.225,195523.482,,,
Holding screen,html.Screen,0_4_1_1_0,2021-12-03T12:09:31.785Z,,,,,,,,,,,,,,,,,,,,,,,,,,,,,,7001.612000000023,,timeout,,,,,,,,,,,,,,,,202509.79999999702,202508.424,195506.811,195523.40000000596,195523.482,202525.094,,,
screen,html.Screen,0_4_1_1_1_0,2021-12-03T12:09:32.899Z,,,,,,,,,,,,,,,,51,,,,,,,,,,,,,,1097.9059999999881,,response,,,13,E,,,,,Space,keypress(Space),,,,lyrical,American -------- --- --- ---- --- --- ------ -- --------<br>---- --------- --- ------- ------------ ---------- ---------<br>--- ---------- ------- ---------- ------- -- -------- ----<br>---- --- ------ ----- ------ -- ---- --- ----- -- - -------<br>-------- -- --- --- -- ----- ----------- ----- -----------<br>---- --- ---------- --- ---- --- -- ----------,203624.10000000894,203623,202508.424,202510.29999999702,202525.094,203625.376,,0,American
screen,html.Screen,0_4_1_1_1_1,2021-12-03T12:09:33.906Z,,,,,,,,,,,,,,,,51,,,,,,,,,,,,,,1005.1240000000107,,response,,,13,E,,,,,Space,keypress(Space),,,,lyrical,-------- industry --- --- ---- --- --- ------ -- --------<br>---- --------- --- ------- ------------ ---------- ---------<br>--- ---------- ------- ---------- ------- -- -------- ----<br>---- --- ------ ----- ------ -- ---- --- ----- -- - -------<br>-------- -- --- --- -- ----- ----------- ----- -----------<br>---- --- ---------- --- ---- --- -- ----------,204631.29999999702,204630.5,203608.706,203624.5,203625.376,204642.491,,1,industry
screen,html.Screen,0_4_1_1_1_2,2021-12-03T12:09:34.897Z,,,,,,,,,,,,,,,,51,,,,,,,,,,,,,,979.6090000089316,,response,,,13,E,,,,,Space,keypress(Space),,,,lyrical,-------- -------- may --- ---- --- --- ------ -- --------<br>---- --------- --- ------- ------------ ---------- ---------<br>--- ---------- ------- ---------- ------- -- -------- ----<br>---- --- ------ ----- ------ -- ---- --- ----- -- - -------<br>-------- -- --- --- -- ----- ----------- ----- -----------<br>---- --- ---------- --- ---- --- -- ----------,205622.5,205622.10000000894,204625.82,204631.5,204642.491,205626.062,,2,may
screen,html.Screen,0_4_1_1_1_3,2021-12-03T12:09:35.858Z,,,,,,,,,,,,,,,,51,,,,,,,,,,,,,,956.3380000059551,,response,,,13,E,,,,,Space,keypress(Space),,,,lyrical,-------- -------- --- not ---- --- --- ------ -- --------<br>---- --------- --- ------- ------------ ---------- ---------<br>--- ---------- ------- ---------- ------- -- -------- ----<br>---- --- ------ ----- ------ -- ---- --- ----- -- - -------<br>-------- -- --- --- -- ----- ----------- ----- -----------<br>---- --- ---------- --- ---- --- -- ----------,206583.10000000894,206582.40000000596,205609.391,205622.5,205626.062,206592.873,,3,not
