sender,sender_type,sender_id,timestamp,meta,,Blues,Classical,Country,Dance,Electronic,Folk,Gospel,Hip-Hop,Jazz,Latin,Musical/Film,New-age,Pop,Provo_ID,R&B,Rap,Reggae,Religious,Rock,Soul,Swing,Traditional,age,artist_name,correct,correctResponse,distraction,duration,education,ended_on,familiarity,gender,item,list,music_frequency,offensiveness,pleasantness,preference,response,response_action,snippet_file,song_name,song_rating,sound,text,time_commit,time_end,time_render,time_run,time_show,time_switch,url,word,word_ID
Instructions,html.Page,0_0,2021-12-10T12:44:18.914Z,"{""labjs_version"":""20.2.3"",""labjs_build"":{""flavor"":""production"",""commit"":""7ea907d66ca8aeef8054924ca5d82ffbe11e34e5""},""location"":""https://run.pavlovia.org/mvasilev/lab_music_b/"",""userAgent"":""Mozilla/5.0 (Windows NT 6.1; Win64; x64) AppleWebKit/537.36 (KHTML, like Gecko) Chrome/96.0.4664.93 Safari/537.36"",""platform"":""Win32"",""language"":""en-US"",""locale"":""en-US"",""timeZone"":""Europe/London"",""timezoneOffset"":0,""screen_width"":1920,""screen_height"":1080,""scroll_width"":1920,""scroll_height"":959,""window_innerWidth"":1920,""window_innerHeight"":1007,""devicePixelRatio"":1}",,,,,,,,,,,,,,,,,,,,,,,,,,,,,26018.551999928473,,form submission,,,,,,,,,,,,,,,,33834.5,33833.199999928474,7781.306,7789,7814.648,33837.882,{},,
Headphones,html.Page,0_1,2021-12-10T12:44:20.980Z,,,,,,,,,,,,,,,,,,,,,,,,,,,,,,2061.9179999523185,,form submission,,,,,,,,,,,,,,,,35900.299999952316,35899.799999952316,33821.212,33835.199999928474,33837.882,35905.115,,,
Holding screen,html.Screen,0_2_0_0,2021-12-10T12:44:30.978Z,,,,,,,,,,,,,,,,,,,,,,,,,,,,,,10002.54,,timeout,,,,,,,,,,,,,,,,45898.199999928474,45890.986,35888.445,35900.799999952316,35905.115,45907.655,,,
screen,html.Screen,0_2_0_1_0,2021-12-10T12:44:32.548Z,,,,,,,,,,,,,,,,53,,,,,,,,,,,,,,1558.7449999761593,,response,,,99,,,,,,Space,keypress(Space),,,,,When -- ----- -- ------ - ------- --- ----------<br>------------- ------ ------ ---- ---- ------- ----- -- ----<br>-------- ------- -- ---------- --- - --- ----- ----- ----<br>---- --- --- ----- --- ---- ---- ------- ----- ---- -------<br>--- --- -- ----- -- --- ---- -- --- ---- -- ------ ------<br>--- ----- -- ----,47468.09999990463,47466.39999997616,45890.986,45898.59999990463,45907.655,47474.95,,0,When
screen,html.Screen,0_2_0_1_1,2021-12-10T12:44:34.931Z,,,,,,,,,,,,,,,,53,,,,,,,,,,,,,,2374.949999976161,,response,,,99,,,,,,Space,keypress(Space),,,,,---- it ----- -- ------ - ------- --- ----------<br>------------- ------ ------ ---- ---- ------- ----- -- ----<br>-------- ------- -- ---------- --- - --- ----- ----- ----<br>---- --- --- ----- --- ---- ---- ------- ----- ---- -------<br>--- --- -- ----- -- --- ---- -- --- ---- -- ------ ------<br>--- ----- -- ----,49851.09999990463,49849.89999997616,47458.279,47468.59999990463,47474.95,49858.685,,1,it
screen,html.Screen,0_2_0_1_2,2021-12-10T12:44:35.787Z,,,,,,,,,,,,,,,,53,,,,,,,,,,,,,,847.2149999761605,,response,,,99,,,,,,Space,keypress(Space),,,,,---- -- comes -- ------ - ------- --- ----------<br>------------- ------ ------ ---- ---- ------- ----- -- ----<br>-------- ------- -- ---------- --- - --- ----- ----- ----<br>---- --- --- ----- --- ---- ---- ------- ----- ---- -------<br>--- --- -- ----- -- --- ---- -- --- ---- -- ------ ------<br>--- ----- -- ----,50706.89999997616,50705.89999997616,49842.015,49851.39999997616,49858.685,50709.134,,2,comes
screen,html.Screen,0_2_0_1_3,2021-12-10T12:44:36.379Z,,,,,,,,,,,,,,,,53,,,,,,,,,,,,,,588.6659999523181,,response,,,99,,,,,,Space,keypress(Space),,,,,---- -- ----- to ------ - ------- --- ----------<br>------------- ------ ------ ---- ---- ------- ----- -- ----<br>-------- ------- -- ---------- --- - --- ----- ----- ----<br>---- --- --- ----- --- ---- ---- ------- ----- ---- -------<br>--- --- -- ----- -- --- ---- -- --- ---- -- ------ ------<br>--- ----- -- ----,51298.89999997616,51297.799999952316,50692.463,50707.09999990463,50709.134,51309.206,,3,to
screen,html.Screen,0_2_0_1_4,2021-12-10T12:44:37.011Z,,,,,,,,,,,,,,,,53,,,,,,,,,,,,,,620.593999952318,,response,,,99,,,,,,Space,keypress(Space),,,,,---- -- ----- -- having - ------- --- ----------<br>------------- ------ ------ ---- ---- ------- ----- -- ----<br>-------- ------- -- ---------- --- - --- ----- ----- ----<br>---- --- --- ----- --- ---- ---- ------- ----- ---- -------<br>--- --- -- ----- -- --- ---- -- --- ---- -- ------ ------<br>--- ----- -- ----,51931,51929.799999952316,51292.536,51299.5,51309.206,51942.889,,4,having
screen,html.Screen,0_2_0_1_5,2021-12-10T12:44:37.531Z,,,,,,,,,,,,,,,,53,,,,,,,,,,,,,,507.11099999999715,,response,,,99,,,,,,Space,keypress(Space),,,,,---- -- ----- -- ------ a ------- --- ----------<br>------------- ------ ------ ---- ---- ------- ----- -- ----<br>-------- ------- -- ---------- --- - --- ----- ----- ----<br>---- --- --- ----- --- ---- ---- ------- ----- ---- -------<br>--- --- -- ----- -- --- ---- -- --- ---- -- ------ ------<br>--- ----- -- ----,52450.799999952316,52450,51926.217,51931.5,51942.889,52459.515,,5,a
screen,html.Screen,0_2_0_1_6,2021-12-10T12:44:38.130Z,,,,,,,,,,,,,,,,53,,,,,,,,,,,,,,590.184999928475,,response,,,99,,,,,,Space,keypress(Space),,,,,---- -- ----- -- ------ - lasting --- ----------<br>------------- ------ ------ ---- ---- ------- ----- -- ----<br>-------- ------- -- ---------- --- - --- ----- ----- ----<br>---- --- --- ----- --- ---- ---- ------- ----- ---- -------<br>--- --- -- ----- -- --- ---- -- --- ---- -- ------ ------<br>--- ----- -- ----,53050.799999952316,53049.699999928474,52442.845,52451.299999952316,52459.515,53059.79,,6,lasting
screen,html.Screen,0_2_0_1_7,2021-12-10T12:44:38.786Z,,,,,,,,,,,,,,,,53,,,,,,,,,,,,,,645.9099999284736,,response,,,99,,,,,,Space,keypress(Space),,,,,---- -- ----- -- ------ - ------- and ----------<br>------------- ------ ------ ---- ---- ------- ----- -- ----<br>-------- ------- -- ---------- --- - --- ----- ----- ----<br>---- --- --- ----- --- ---- ---- ------- ----- ---- -------<br>--- --- -- ----- -- --- ---- -- --- ---- -- ------ ------<br>--- ----- -- ----,53706.699999928474,53705.699999928474,53043.119,53051,53059.79,53709.89,,7,and
screen,html.Screen,0_2_0_1_8,2021-12-10T12:44:39.363Z,,,,,,,,,,,,,,,,53,,,,,,,,,,,,,,571.809999928475,,response,,,99,,,,,,Space,keypress(Space),,,,,---- -- ----- -- ------ - ------- --- fulfilling<br>------------- ------ ------ ---- ---- ------- ----- -- ----<br>-------- ------- -- ---------- --- - --- ----- ----- ----<br>---- --- --- ----- --- ---- ---- ------- ----- ---- -------<br>--- --- -- ----- -- --- ---- -- --- ---- -- ------ ------<br>--- ----- -- ----,54282.89999997616,54281.699999928474,53693.22,53707.199999928474,53709.89,54293.385,,8,fulfilling
screen,html.Screen,0_2_0_1_9,2021-12-10T12:44:40.522Z,,,,,,,,,,,,,,,,53,,,,,,,,,,,,,,1148.3149999284724,,response,,,99,,,,,,Space,keypress(Space),,,,,"---- -- ----- -- ------ - ------- --- ----------<br>relationship, ------ ------ ---- ---- ------- ----- -- ----<br>-------- ------- -- ---------- --- - --- ----- ----- ----<br>---- --- --- ----- --- ---- ---- ------- ----- ---- -------<br>--- --- -- ----- -- --- ---- -- --- ---- -- ------ ------<br>--- ----- -- ----",55442.59999990463,55441.699999928474,54276.715,54283.299999952316,54293.385,55443.636,,9,"relationship,"
screen,html.Screen,0_2_0_1_10,2021-12-10T12:44:41.418Z,,,,,,,,,,,,,,,,53,,,,,,,,,,,,,,893.963999904634,,response,,,99,,,,,,Space,keypress(Space),,,,,---- -- ----- -- ------ - ------- --- ----------<br>------------- common ------ ---- ---- ------- ----- -- ----<br>-------- ------- -- ---------- --- - --- ----- ----- ----<br>---- --- --- ----- --- ---- ---- ------- ----- ---- -------<br>--- --- -- ----- -- --- ---- -- --- ---- -- ------ ------<br>--- ----- -- ----,56338.39999997616,56337.59999990463,55426.966,55442.799999952316,55443.636,56343.891,,10,common
screen,html.Screen,0_2_0_1_11,2021-12-10T12:44:42.426Z,,,,,,,,,,,,,,,,53,,,,,,,,,,,,,,1001.6089999999967,,response,,,99,,,,,,Space,keypress(Space),,,,,---- -- ----- -- ------ - ------- --- ----------<br>------------- ------ wisdom ---- ---- ------- ----- -- ----<br>-------- ------- -- ---------- --- - --- ----- ----- ----<br>---- --- --- ----- --- ---- ---- ------- ----- ---- -------<br>--- --- -- ----- -- --- ---- -- --- ---- -- ------ ------<br>--- ----- -- ----,57346.5,57345.5,56327.221,56338.699999928474,56343.891,57360.819,,11,wisdom
screen,html.Screen,0_2_0_1_12,2021-12-10T12:44:43.258Z,,,,,,,,,,,,,,,,53,,,,,,,,,,,,,,817.080999976155,,response,,,99,,,,,,Space,keypress(Space),,,,,---- -- ----- -- ------ - ------- --- ----------<br>------------- ------ ------ says ---- ------- ----- -- ----<br>-------- ------- -- ---------- --- - --- ----- ----- ----<br>---- --- --- ----- --- ---- ---- ------- ----- ---- -------<br>--- --- -- ----- -- --- ---- -- --- ---- -- ------ ------<br>--- ----- -- ----,58178.799999952316,58177.89999997616,57344.149,57346.699999928474,57360.819,58194.389,,12,says
screen,html.Screen,0_2_0_1_13,2021-12-10T12:44:44.186Z,,,,,,,,,,,,,,,,53,,,,,,,,,,,,,,911.1109999999971,,response,,,99,,,,,,Space,keypress(Space),,,,,---- -- ----- -- ------ - ------- --- ----------<br>------------- ------ ------ ---- that ------- ----- -- ----<br>-------- ------- -- ---------- --- - --- ----- ----- ----<br>---- --- --- ----- --- ---- ---- ------- ----- ---- -------<br>--- --- -- ----- -- --- ---- -- --- ---- -- ------ ------<br>--- ----- -- ----,59106.299999952316,59105.5,58177.719,58179.09999990463,58194.389,59111.289,,13,that
screen,html.Screen,0_2_0_1_14,2021-12-10T12:44:44.842Z,,,,,,,,,,,,,,,,53,,,,,,,,,,,,,,650.1109999761611,,response,,,99,,,,,,Space,keypress(Space),,,,,---- -- ----- -- ------ - ------- --- ----------<br>------------- ------ ------ ---- ---- feeling ----- -- ----<br>-------- ------- -- ---------- --- - --- ----- ----- ----<br>---- --- --- ----- --- ---- ---- ------- ----- ---- -------<br>--- --- -- ----- -- --- ---- -- --- ---- -- ------ ------<br>--- ----- -- ----,59762.299999952316,59761.39999997616,59094.619,59106.5,59111.289,59778.14,,14,feeling
screen,html.Screen,0_2_0_1_15,2021-12-10T12:44:45.589Z,,,,,,,,,,,,,,,,53,,,,,,,,,,,,,,727.1599999523169,,response,,,99,,,,,,Space,keypress(Space),,,,,---- -- ----- -- ------ - ------- --- ----------<br>------------- ------ ------ ---- ---- ------- close -- ----<br>-------- ------- -- ---------- --- - --- ----- ----- ----<br>---- --- --- ----- --- ---- ---- ------- ----- ---- -------<br>--- --- -- ----- -- --- ---- -- --- ---- -- ------ ------<br>--- ----- -- ----,60506.199999928474,60505.299999952316,59761.47,59762.699999928474,59778.14,60511.615,,15,close
screen,html.Screen,0_2_0_1_16,2021-12-10T12:44:46.149Z,,,,,,,,,,,,,,,,53,,,,,,,,,,,,,,553.6849999523183,,response,,,99,,,,,,Space,keypress(Space),,,,,---- -- ----- -- ------ - ------- --- ----------<br>------------- ------ ------ ---- ---- ------- ----- to ----<br>-------- ------- -- ---------- --- - --- ----- ----- ----<br>---- --- --- ----- --- ---- ---- ------- ----- ---- -------<br>--- --- -- ----- -- --- ---- -- --- ---- -- ------ ------<br>--- ----- -- ----,61066,61065.299999952316,60494.945,60506.39999997616,60511.615,61078.414,,16,to
screen,html.Screen,0_2_0_1_17,2021-12-10T12:44:46.709Z,,,,,,,,,,,,,,,,53,,,,,,,,,,,,,,546.7859999284774,,response,,,99,,,,,,Space,keypress(Space),,,,,---- -- ----- -- ------ - ------- --- ----------<br>------------- ------ ------ ---- ---- ------- ----- -- your<br>-------- ------- -- ---------- --- - --- ----- ----- ----<br>---- --- --- ----- --- ---- ---- ------- ----- ---- -------<br>--- --- -- ----- -- --- ---- -- --- ---- -- ------ ------<br>--- ----- -- ----,61626.09999990463,61625.199999928474,61061.744,61066.39999997616,61078.414,61628.689,,17,your
screen,html.Screen,0_2_0_1_18,2021-12-10T12:44:47.381Z,,,,,,,,,,,,,,,,53,,,,,,,,,,,,,,668.5109999284759,,response,,,99,,,,,,Space,keypress(Space),,,,,---- -- ----- -- ------ - ------- --- ----------<br>------------- ------ ------ ---- ---- ------- ----- -- ----<br>romantic ------- -- ---------- --- - --- ----- ----- ----<br>---- --- --- ----- --- ---- ---- ------- ----- ---- -------<br>--- --- -- ----- -- --- ---- -- --- ---- -- ------ ------<br>--- ----- -- ----,62298.09999990463,62297.199999928474,61612.018,61626.299999952316,61628.689,62312.133,,18,romantic
screen,html.Screen,0_2_0_1_19,2021-12-10T12:44:48.021Z,,,,,,,,,,,,,,,,53,,,,,,,,,,,,,,625.0669999284728,,response,,,99,,,,,,Space,keypress(Space),,,,,---- -- ----- -- ------ - ------- --- ----------<br>------------- ------ ------ ---- ---- ------- ----- -- ----<br>-------- partner -- ---------- --- - --- ----- ----- ----<br>---- --- --- ----- --- ---- ---- ------- ----- ---- -------<br>--- --- -- ----- -- --- ---- -- --- ---- -- ------ ------<br>--- ----- -- ----,62938.09999990463,62937.199999928474,62295.463,62298.5,62312.133,62945.596,,19,partner
screen,html.Screen,0_2_0_1_20,2021-12-10T12:44:48.629Z,,,,,,,,,,,,,,,,53,,,,,,,,,,,,,,599.6039999284767,,response,,,99,,,,,,Space,keypress(Space),,,,,---- -- ----- -- ------ - ------- --- ----------<br>------------- ------ ------ ---- ---- ------- ----- -- ----<br>-------- ------- is ---------- --- - --- ----- ----- ----<br>---- --- --- ----- --- ---- ---- ------- ----- ---- -------<br>--- --- -- ----- -- --- ---- -- --- ---- -- ------ ------<br>--- ----- -- ----,63546.09999990463,63545.199999928474,62928.926,62938.5,62945.596,63562.506,,20,is
screen,html.Screen,0_2_0_1_21,2021-12-10T12:44:49.333Z,,,,,,,,,,,,,,,,53,,,,,,,,,,,,,,686.5939999046313,,response,,,99,,,,,,Space,keypress(Space),,,,,---- -- ----- -- ------ - ------- --- ----------<br>------------- ------ ------ ---- ---- ------- ----- -- ----<br>-------- ------- -- paramount. --- - --- ----- ----- ----<br>---- --- --- ----- --- ---- ---- ------- ----- ---- -------<br>--- --- -- ----- -- --- ---- -- --- ---- -- ------ ------<br>--- ----- -- ----,64250,64249.09999990463,63545.835,63546.39999997616,63562.506,64262.698,,21,paramount.
screen,html.Screen,0_2_0_1_22,2021-12-10T12:44:49.861Z,,,,,,,,,,,,,,,,53,,,,,,,,,,,,,,514.4019999046359,,response,,,99,,,,,,Space,keypress(Space),,,,,---- -- ----- -- ------ - ------- --- ----------<br>------------- ------ ------ ---- ---- ------- ----- -- ----<br>-------- ------- -- ---------- But - --- ----- ----- ----<br>---- --- --- ----- --- ---- ---- ------- ----- ---- -------<br>--- --- -- ----- -- --- ---- -- --- ---- -- ------ ------<br>--- ----- -- ----,64778,64777.09999990463,64246.027,64250.5,64262.698,64779.458,,22,But
screen,html.Screen,0_2_0_1_23,2021-12-10T12:44:50.421Z,,,,,,,,,,,,,,,,53,,,,,,,,,,,,,,557.6419999046338,,response,,,99,,,,,,Space,keypress(Space),,,,,---- -- ----- -- ------ - ------- --- ----------<br>------------- ------ ------ ---- ---- ------- ----- -- ----<br>-------- ------- -- ---------- --- a --- ----- ----- ----<br>---- --- --- ----- --- ---- ---- ------- ----- ---- -------<br>--- --- -- ----- -- --- ---- -- --- ---- -- ------ ------<br>--- ----- -- ----,65337.89999997616,65337.09999990463,64762.788,64778.299999952316,64779.458,65346.257,,23,a
screen,html.Screen,0_2_0_1_24,2021-12-10T12:44:50.853Z,,,,,,,,,,,,,,,,53,,,,,,,,,,,,,,422.8429999046348,,response,,,99,,,,,,Space,keypress(Space),,,,,---- -- ----- -- ------ - ------- --- ----------<br>------------- ------ ------ ---- ---- ------- ----- -- ----<br>-------- ------- -- ---------- --- - new ----- ----- ----<br>---- --- --- ----- --- ---- ---- ------- ----- ---- -------<br>--- --- -- ----- -- --- ---- -- --- ---- -- ------ ------<br>--- ----- -- ----,65770,65769.09999990463,65329.587,65338.199999928474,65346.257,65779.6,,24,new
screen,html.Screen,0_2_0_1_25,2021-12-10T12:44:51.301Z,,,,,,,,,,,,,,,,53,,,,,,,,,,,,,,437.49999990462675,,response,,,99,,,,,,Space,keypress(Space),,,,,---- -- ----- -- ------ - ------- --- ----------<br>------------- ------ ------ ---- ---- ------- ----- -- ----<br>-------- ------- -- ---------- --- - --- study ----- ----<br>---- --- --- ----- --- ---- ---- ------- ----- ---- -------<br>--- --- -- ----- -- --- ---- -- --- ---- -- ------ ------<br>--- ----- -- ----,66217.89999997616,66217.09999990463,65762.931,65770.29999995232,65779.6,66229.91,,25,study
screen,html.Screen,0_2_0_1_26,2021-12-10T12:44:51.765Z,,,,,,,,,,,,,,,,53,,,,,,,,,,,,,,451.1899999046291,,response,,,99,,,,,,Space,keypress(Space),,,,,---- -- ----- -- ------ - ------- --- ----------<br>------------- ------ ------ ---- ---- ------- ----- -- ----<br>-------- ------- -- ---------- --- - --- ----- finds ----<br>---- --- --- ----- --- ---- ---- ------- ----- ---- -------<br>--- --- -- ----- -- --- ---- -- --- ---- -- ------ ------<br>--- ----- -- ----,66681.79999995232,66681.09999990463,66213.238,66218.29999995232,66229.91,66696.654,,26,finds
screen,html.Screen,0_2_0_1_27,2021-12-10T12:44:52.277Z,,,,,,,,,,,,,,,,53,,,,,,,,,,,,,,496.346000000005,,response,,,99,,,,,,Space,keypress(Space),,,,,---- -- ----- -- ------ - ------- --- ----------<br>------------- ------ ------ ---- ---- ------- ----- -- ----<br>-------- ------- -- ---------- --- - --- ----- ----- that<br>---- --- --- ----- --- ---- ---- ------- ----- ---- -------<br>--- --- -- ----- -- --- ---- -- --- ---- -- ------ ------<br>--- ----- -- ----,67193.89999997616,67193,66679.983,66682.09999990463,66696.654,67196.796,,27,that
screen,html.Screen,0_2_0_1_28,2021-12-10T12:44:52.781Z,,,,,,,,,,,,,,,,53,,,,,,,,,,,,,,500.2039999999979,,response,,,99,,,,,,Space,keypress(Space),,,,,---- -- ----- -- ------ - ------- --- ----------<br>------------- ------ ------ ---- ---- ------- ----- -- ----<br>-------- ------- -- ---------- --- - --- ----- ----- ----<br>it's --- --- ----- --- ---- ---- ------- ----- ---- -------<br>--- --- -- ----- -- --- ---- -- --- ---- -- ------ ------<br>--- ----- -- ----,67697.89999997616,67697,67180.125,67194.09999990463,67196.796,67713.546,,28,it's
screen,html.Screen,0_2_0_1_29,2021-12-10T12:44:53.205Z,,,,,,,,,,,,,,,,53,,,,,,,,,,,,,,407.4539999999979,,response,,,99,,,,,,Space,keypress(Space),,,,,---- -- ----- -- ------ - ------- --- ----------<br>------------- ------ ------ ---- ---- ------- ----- -- ----<br>-------- ------- -- ---------- --- - --- ----- ----- ----<br>---- not --- ----- --- ---- ---- ------- ----- ---- -------<br>--- --- -- ----- -- --- ---- -- --- ---- -- ------ ------<br>--- ----- -- ----,68121.79999995232,68121,67696.876,67698.29999995232,67713.546,68130.316,,29,not
screen,html.Screen,0_2_0_1_30,2021-12-10T12:44:53.629Z,,,,,,,,,,,,,,,,53,,,,,,,,,,,,,,414.9839999523101,,response,,,99,,,,,,Space,keypress(Space),,,,,---- -- ----- -- ------ - ------- --- ----------<br>------------- ------ ------ ---- ---- ------- ----- -- ----<br>-------- ------- -- ---------- --- - --- ----- ----- ----<br>---- --- how ----- --- ---- ---- ------- ----- ---- -------<br>--- --- -- ----- -- --- ---- -- --- ---- -- ------ ------<br>--- ----- -- ----,68546.29999995232,68545.29999995232,68113.646,68122.09999990463,68130.316,68563.772,,30,how
screen,html.Screen,0_2_0_1_31,2021-12-10T12:44:54.453Z,,,,,,,,,,,,,,,,53,,,,,,,,,,,,,,805.1279999761609,,response,,,99,,,,,,Space,keypress(Space),,,,,---- -- ----- -- ------ - ------- --- ----------<br>------------- ------ ------ ---- ---- ------- ----- -- ----<br>-------- ------- -- ---------- --- - --- ----- ----- ----<br>---- --- --- close --- ---- ---- ------- ----- ---- -------<br>--- --- -- ----- -- --- ---- -- --- ---- -- ------ ------<br>--- ----- -- ----,69369.69999992847,69368.89999997616,68547.102,68546.5,68563.772,69380.583,,31,close
screen,html.Screen,0_2_0_1_32,2021-12-10T12:44:54.877Z,,,,,,,,,,,,,,,,53,,,,,,,,,,,,,,412.3169999761594,,response,,,99,,,,,,Space,keypress(Space),,,,,---- -- ----- -- ------ - ------- --- ----------<br>------------- ------ ------ ---- ---- ------- ----- -- ----<br>-------- ------- -- ---------- --- - --- ----- ----- ----<br>---- --- --- ----- you ---- ---- ------- ----- ---- -------<br>--- --- -- ----- -- --- ---- -- --- ---- -- ------ ------<br>--- ----- -- ----,69793.59999990463,69792.89999997616,69363.913,69370,69380.583,69797.534,,32,you
screen,html.Screen,0_2_0_1_33,2021-12-10T12:44:55.277Z,,,,,,,,,,,,,,,,53,,,,,,,,,,,,,,395.3659999761585,,response,,,99,,,,,,Space,keypress(Space),,,,,---- -- ----- -- ------ - ------- --- ----------<br>------------- ------ ------ ---- ---- ------- ----- -- ----<br>-------- ------- -- ---------- --- - --- ----- ----- ----<br>---- --- --- ----- --- feel ---- ------- ----- ---- -------<br>--- --- -- ----- -- --- ---- -- --- ---- -- ------ ------<br>--- ----- -- ----,70193.59999990463,70192.89999997616,69780.862,69793.89999997616,69797.534,70197.535,,33,feel
screen,html.Screen,0_2_0_1_34,2021-12-10T12:44:55.677Z,,,,,,,,,,,,,,,,53,,,,,,,,,,,,,,395.2649999523128,,response,,,99,,,,,,Space,keypress(Space),,,,,---- -- ----- -- ------ - ------- --- ----------<br>------------- ------ ------ ---- ---- ------- ----- -- ----<br>-------- ------- -- ---------- --- - --- ----- ----- ----<br>---- --- --- ----- --- ---- that ------- ----- ---- -------<br>--- --- -- ----- -- --- ---- -- --- ---- -- ------ ------<br>--- ----- -- ----,70593.69999992847,70592.79999995232,70180.865,70193.89999997616,70197.535,70597.61,,34,that
screen,html.Screen,0_2_0_1_35,2021-12-10T12:44:56.109Z,,,,,,,,,,,,,,,,53,,,,,,,,,,,,,,427.28999997615756,,response,,,99,,,,,,Space,keypress(Space),,,,,---- -- ----- -- ------ - ------- --- ----------<br>------------- ------ ------ ---- ---- ------- ----- -- ----<br>-------- ------- -- ---------- --- - --- ----- ----- ----<br>---- --- --- ----- --- ---- ---- matters ----- ---- -------<br>--- --- -- ----- -- --- ---- -- --- ---- -- ------ ------<br>--- ----- -- ----,71025.69999992847,71024.89999997616,70580.94,70593.89999997616,70597.61,71031.132,,35,matters
screen,html.Screen,0_2_0_1_36,2021-12-10T12:44:57.493Z,,,,,,,,,,,,,,,,53,,,,,,,,,,,,,,1377.5679999284766,,response,,,99,,,,,,Space,keypress(Space),,,,,"---- -- ----- -- ------ - ------- --- ----------<br>------------- ------ ------ ---- ---- ------- ----- -- ----<br>-------- ------- -- ---------- --- - --- ----- ----- ----<br>---- --- --- ----- --- ---- ---- ------- most, ---- -------<br>--- --- -- ----- -- --- ---- -- --- ---- -- ------ ------<br>--- ----- -- ----",72409.79999995232,72408.69999992847,71014.461,71026,71031.132,72414.723,,36,"most,"
screen,html.Screen,0_2_0_1_37,2021-12-10T12:44:58.133Z,,,,,,,,,,,,,,,,53,,,,,,,,,,,,,,633.9769999284763,,response,,,99,,,,,,Space,keypress(Space),,,,,---- -- ----- -- ------ - ------- --- ----------<br>------------- ------ ------ ---- ---- ------- ----- -- ----<br>-------- ------- -- ---------- --- - --- ----- ----- ----<br>---- --- --- ----- --- ---- ---- ------- ----- it's -------<br>--- --- -- ----- -- --- ---- -- --- ---- -- ------ ------<br>--- ----- -- ----,73049.5,73048.69999992847,72398.053,72410,72414.723,73064.901,,37,it's
screen,html.Screen,0_2_0_1_38,2021-12-10T12:44:58.540Z,,,,,,,,,,,,,,,,53,,,,,,,,,,,,,,391.7989999284764,,response,,,99,,,,,,Space,keypress(Space),,,,,---- -- ----- -- ------ - ------- --- ----------<br>------------- ------ ------ ---- ---- ------- ----- -- ----<br>-------- ------- -- ---------- --- - --- ----- ----- ----<br>---- --- --- ----- --- ---- ---- ------- ----- ---- whether<br>--- --- -- ----- -- --- ---- -- --- ---- -- ------ ------<br>--- ----- -- ----,73457.5,73456.69999992847,73048.231,73049.79999995232,73064.901,73465.057,,38,whether
screen,html.Screen,0_2_0_1_39,2021-12-10T12:44:58.932Z,,,,,,,,,,,,,,,,53,,,,,,,,,,,,,,383.6429999284737,,response,,,99,,,,,,Space,keypress(Space),,,,,---- -- ----- -- ------ - ------- --- ----------<br>------------- ------ ------ ---- ---- ------- ----- -- ----<br>-------- ------- -- ---------- --- - --- ----- ----- ----<br>---- --- --- ----- --- ---- ---- ------- ----- ---- -------<br>you --- -- ----- -- --- ---- -- --- ---- -- ------ ------<br>--- ----- -- ----,73849.5,73848.69999992847,73448.387,73457.69999992847,73465.057,73865.16,,39,you
screen,html.Screen,0_2_0_1_40,2021-12-10T12:44:59.332Z,,,,,,,,,,,,,,,,53,,,,,,,,,,,,,,383.53999992847093,,response,,,99,,,,,,Space,keypress(Space),,,,,---- -- ----- -- ------ - ------- --- ----------<br>------------- ------ ------ ---- ---- ------- ----- -- ----<br>-------- ------- -- ---------- --- - --- ----- ----- ----<br>---- --- --- ----- --- ---- ---- ------- ----- ---- -------<br>--- are -- ----- -- --- ---- -- --- ---- -- ------ ------<br>--- ----- -- ----,74249.5,74248.69999992847,73848.49,73849.69999992847,73865.16,74265.264,,40,are
screen,html.Screen,0_2_0_1_41,2021-12-10T12:44:59.756Z,,,,,,,,,,,,,,,,53,,,,,,,,,,,,,,407.335999904637,,response,,,99,,,,,,Space,keypress(Space),,,,,---- -- ----- -- ------ - ------- --- ----------<br>------------- ------ ------ ---- ---- ------- ----- -- ----<br>-------- ------- -- ---------- --- - --- ----- ----- ----<br>---- --- --- ----- --- ---- ---- ------- ----- ---- -------<br>--- --- as ----- -- --- ---- -- --- ---- -- ------ ------<br>--- ----- -- ----,74673.39999997616,74672.59999990463,74248.594,74249.69999992847,74265.264,74681.945,,41,as
screen,html.Screen,0_2_0_1_42,2021-12-10T12:45:00.172Z,,,,,,,,,,,,,,,,53,,,,,,,,,,,,,,406.554999999993,,response,,,99,,,,,,Space,keypress(Space),,,,,---- -- ----- -- ------ - ------- --- ----------<br>------------- ------ ------ ---- ---- ------- ----- -- ----<br>-------- ------- -- ---------- --- - --- ----- ----- ----<br>---- --- --- ----- --- ---- ---- ------- ----- ---- -------<br>--- --- -- close -- --- ---- -- --- ---- -- ------ ------<br>--- ----- -- ----,75089.29999995232,75088.5,74665.276,74673.69999992847,74681.945,75098.9,,42,close
screen,html.Screen,0_2_0_1_43,2021-12-10T12:45:00.628Z,,,,,,,,,,,,,,,,53,,,,,,,,,,,,,,445.6999999046384,,response,,,99,,,,,,Space,keypress(Space),,,,,---- -- ----- -- ------ - ------- --- ----------<br>------------- ------ ------ ---- ---- ------- ----- -- ----<br>-------- ------- -- ---------- --- - --- ----- ----- ----<br>---- --- --- ----- --- ---- ---- ------- ----- ---- -------<br>--- --- -- ----- as --- ---- -- --- ---- -- ------ ------<br>--- ----- -- ----,75545.29999995232,75544.59999990463,75082.228,75089.59999990463,75098.9,75548.849,,43,as
screen,html.Screen,0_2_0_1_44,2021-12-10T12:45:01.060Z,,,,,,,,,,,,,,,,53,,,,,,,,,,,,,,427.650999999998,,response,,,99,,,,,,Space,keypress(Space),,,,,---- -- ----- -- ------ - ------- --- ----------<br>------------- ------ ------ ---- ---- ------- ----- -- ----<br>-------- ------- -- ---------- --- - --- ----- ----- ----<br>---- --- --- ----- --- ---- ---- ------- ----- ---- -------<br>--- --- -- ----- -- you ---- -- --- ---- -- ------ ------<br>--- ----- -- ----,75977.39999997616,75976.5,75532.18,75545.59999990463,75548.849,75982.304,,44,you
screen,html.Screen,0_2_0_1_45,2021-12-10T12:45:01.539Z,,,,,,,,,,,,,,,,53,,,,,,,,,,,,,,473.79599990462884,,response,,,99,,,,,,Space,keypress(Space),,,,,---- -- ----- -- ------ - ------- --- ----------<br>------------- ------ ------ ---- ---- ------- ----- -- ----<br>-------- ------- -- ---------- --- - --- ----- ----- ----<br>---- --- --- ----- --- ---- ---- ------- ----- ---- -------<br>--- --- -- ----- -- --- want -- --- ---- -- ------ ------<br>--- ----- -- ----,76456.39999997616,76456.09999990463,75965.634,75977.59999990463,75982.304,76465.931,,45,want
screen,html.Screen,0_2_0_1_46,2021-12-10T12:45:01.956Z,,,,,,,,,,,,,,,,53,,,,,,,,,,,,,,406.3689999523194,,response,,,99,,,,,,Space,keypress(Space),,,,,---- -- ----- -- ------ - ------- --- ----------<br>------------- ------ ------ ---- ---- ------- ----- -- ----<br>-------- ------- -- ---------- --- - --- ----- ----- ----<br>---- --- --- ----- --- ---- ---- ------- ----- ---- -------<br>--- --- -- ----- -- --- ---- to --- ---- -- ------ ------<br>--- ----- -- ----,76873,76872.29999995232,76449.259,76456.39999997616,76465.931,76882.519,,46,to
screen,html.Screen,0_2_0_1_47,2021-12-10T12:45:02.436Z,,,,,,,,,,,,,,,,53,,,,,,,,,,,,,,469.98099999999977,,response,,,99,,,,,,Space,keypress(Space),,,,,"---- -- ----- -- ------ - ------- --- ----------<br>------------- ------ ------ ---- ---- ------- ----- -- ----<br>-------- ------- -- ---------- --- - --- ----- ----- ----<br>---- --- --- ----- --- ---- ---- ------- ----- ---- -------<br>--- --- -- ----- -- --- ---- -- be, ---- -- ------ ------<br>--- ----- -- ----",77353.19999992847,77352.5,76865.85,76873.19999992847,76882.519,77365.939,,47,"be,"
screen,html.Screen,0_2_0_1_48,2021-12-10T12:45:02.892Z,,,,,,,,,,,,,,,,53,,,,,,,,,,,,,,442.76099992847594,,response,,,99,,,,,,Space,keypress(Space),,,,,---- -- ----- -- ------ - ------- --- ----------<br>------------- ------ ------ ---- ---- ------- ----- -- ----<br>-------- ------- -- ---------- --- - --- ----- ----- ----<br>---- --- --- ----- --- ---- ---- ------- ----- ---- -------<br>--- --- -- ----- -- --- ---- -- --- even -- ------ ------<br>--- ----- -- ----,77809.39999997616,77808.69999992847,77349.27,77353.5,77365.939,77816.119,,48,even
screen,html.Screen,0_2_0_1_49,2021-12-10T12:45:03.325Z,,,,,,,,,,,,,,,,53,,,,,,,,,,,,,,424.2809999761521,,response,,,99,,,,,,Space,keypress(Space),,,,,---- -- ----- -- ------ - ------- --- ----------<br>------------- ------ ------ ---- ---- ------- ----- -- ----<br>-------- ------- -- ---------- --- - --- ----- ----- ----<br>---- --- --- ----- --- ---- ---- ------- ----- ---- -------<br>--- --- -- ----- -- --- ---- -- --- ---- if ------ ------<br>--- ----- -- ----,78241.5,78240.39999997616,77799.449,77809.59999990463,77816.119,78249.731,,49,if
screen,html.Screen,0_2_0_1_50,2021-12-10T12:45:03.781Z,,,,,,,,,,,,,,,,53,,,,,,,,,,,,,,447.0689999523165,,response,,,99,,,,,,Space,keypress(Space),,,,,---- -- ----- -- ------ - ------- --- ----------<br>------------- ------ ------ ---- ---- ------- ----- -- ----<br>-------- ------- -- ---------- --- - --- ----- ----- ----<br>---- --- --- ----- --- ---- ---- ------- ----- ---- -------<br>--- --- -- ----- -- --- ---- -- --- ---- -- that's ------<br>--- ----- -- ----,78697.59999990463,78696.79999995232,78233.059,78241.79999995232,78249.731,78699.74,,50,that's
screen,html.Screen,0_2_0_1_51,2021-12-10T12:45:04.340Z,,,,,,,,,,,,,,,,53,,,,,,,,,,,,,,556.6599999761529,,response,,,99,,,,,,Space,keypress(Space),,,,,---- -- ----- -- ------ - ------- --- ----------<br>------------- ------ ------ ---- ---- ------- ----- -- ----<br>-------- ------- -- ---------- --- - --- ----- ----- ----<br>---- --- --- ----- --- ---- ---- ------- ----- ---- -------<br>--- --- -- ----- -- --- ---- -- --- ---- -- ------ really<br>--- ----- -- ----,79257.09999990463,79256.39999997616,78683.07,78697.79999995232,78699.74,79266.595,,51,really
screen,html.Screen,0_2_0_1_52,2021-12-10T12:45:04.932Z,,,,,,,,,,,,,,,,53,,,,,,,,,,,,,,581.7049999523151,,response,,,99,,,,,,Space,keypress(Space),,,,,---- -- ----- -- ------ - ------- --- ----------<br>------------- ------ ------ ---- ---- ------- ----- -- ----<br>-------- ------- -- ---------- --- - --- ----- ----- ----<br>---- --- --- ----- --- ---- ---- ------- ----- ---- -------<br>--- --- -- ----- -- --- ---- -- --- ---- -- ------ ------<br>not ----- -- ----,79849.09999990463,79848.29999995232,79249.924,79257.39999997616,79266.595,79850.035,,52,not
screen,html.Screen,0_2_0_1_53,2021-12-10T12:45:05.388Z,,,,,,,,,,,,,,,,53,,,,,,,,,,,,,,454.2649999523128,,response,,,99,,,,,,Space,keypress(Space),,,,,---- -- ----- -- ------ - ------- --- ----------<br>------------- ------ ------ ---- ---- ------- ----- -- ----<br>-------- ------- -- ---------- --- - --- ----- ----- ----<br>---- --- --- ----- --- ---- ---- ------- ----- ---- -------<br>--- --- -- ----- -- --- ---- -- --- ---- -- ------ ------<br>--- close -- ----,80305.09999990463,80304.29999995232,79833.365,79849.29999995232,79850.035,80316.88,,53,close
screen,html.Screen,0_2_0_1_54,2021-12-10T12:45:05.780Z,,,,,,,,,,,,,,,,53,,,,,,,,,,,,,,379.4199999523116,,response,,,99,,,,,,Space,keypress(Space),,,,,---- -- ----- -- ------ - ------- --- ----------<br>------------- ------ ------ ---- ---- ------- ----- -- ----<br>-------- ------- -- ---------- --- - --- ----- ----- ----<br>---- --- --- ----- --- ---- ---- ------- ----- ---- -------<br>--- --- -- ----- -- --- ---- -- --- ---- -- ------ ------<br>--- ----- at ----,80697.09999990463,80696.29999995232,80300.209,80305.29999995232,80316.88,80700.266,,54,at
screen,html.Screen,0_2_0_1_55,2021-12-10T12:45:06.476Z,,,,,,,,,,,,,,,,53,,,,,,,,,,,,,,691.9339999284712,,response,,,99,,,,,,Space,keypress(Space),,,,,---- -- ----- -- ------ - ------- --- ----------<br>------------- ------ ------ ---- ---- ------- ----- -- ----<br>-------- ------- -- ---------- --- - --- ----- ----- ----<br>---- --- --- ----- --- ---- ---- ------- ----- ---- -------<br>--- --- -- ----- -- --- ---- -- --- ---- -- ------ ------<br>--- ----- -- all.,81393.09999990463,81392.19999992847,80683.596,80697.29999995232,80700.266,81400.437,,55,all.
Item 99,flow.Loop,0_2_0_1,2021-12-10T12:45:06.480Z,,,,,,,,,,,,,,,,,,,,,,,,,,,,,,35484.544999928476,,completion,,,,B,,,,,,,,,,silence,,81397.5,81392.19999992847,45890.986,45898.59999990463,45907.655,81400.437,,,
Question 1,html.Screen,0_2_0_2,2021-12-10T12:45:14.404Z,,,,,,,,,,,,,,,,,,,,,,,,,,,true,FALSE,,7919.262999928469,,response,,,99,B,,,,,FALSE,click #choice-2,,,,silence,,89321.19999992847,89319.69999992847,81383.767,81397.69999992847,81400.437,89335.813,,,
Question 2,html.Screen,0_2_0_3,2021-12-10T12:45:25.075Z,,,,,,,,,,,,,,,,,,,,,,,,,,,false,TRUE,,10655.286999904638,,response,,,99,B,,,,,FALSE,click #choice-2,,,,silence,,99992.39999997616,99991.09999990463,89319.143,89321.39999997616,89335.813,100005.29,,,
Item 99,flow.Sequence,0_2_0,2021-12-10T12:45:25.076Z,,,,,,,,,,,,,,,,,,,,,,,,,,,,,,64085.984999904635,,completion,,,,,,,,,,,,,,,,99992.89999997616,99991.09999990463,35888.445,35900.799999952316,35905.115,100005.29,,,
Holding screen,html.Screen,0_2_1_0,2021-12-10T12:45:35.076Z,,,,,,,,,,,,,,,,,,,,,,,,,,,,,,10002.460000000006,,timeout,,,,,,,,,,,,,,,,109992.89999997616,109991.08,99988.62,99993.29999995232,100005.29,110007.75,,,
screen,html.Screen,0_2_1_1_0,2021-12-10T12:45:37.043Z,,,,,,,,,,,,,,,,54,,,,,,,,,,,,,,1951.3499999046326,,response,,,100,,,,,,Space,keypress(Space),,,,,At --- ---- --- ------ ----- ------- ---- -- --- ------- --<br>------- ---------- ------ -- ----- -- ----- -- ---- ------<br>--- ----- --- --- ------ -------- ----- --- ------ ----- --<br>----- ----- ---------- --- --- ------ ------ ---- -- ------<br>------- --- ------ ----- --- ---- ------- -- ---- --- --<br>------- ------,111960,111959.09999990463,109991.08,109993.29999995232,110007.75,111975.29,,0,At
screen,html.Screen,0_2_1_1_1,2021-12-10T12:45:37.714Z,,,,,,,,,,,,,,,,54,,,,,,,,,,,,,,655.309999904639,,response,,,100,,,,,,Space,keypress(Space),,,,,-- the ---- --- ------ ----- ------- ---- -- --- ------- --<br>------- ---------- ------ -- ----- -- ----- -- ---- ------<br>--- ----- --- --- ------ -------- ----- --- ------ ----- --<br>----- ----- ---------- --- --- ------ ------ ---- -- ------<br>------- --- ------ ----- --- ---- ------- -- ---- --- --<br>------- ------,112631.5,112630.59999990463,111958.618,111960.29999995232,111975.29,112641.854,,1,the
screen,html.Screen,0_2_1_1_2,2021-12-10T12:45:38.258Z,,,,,,,,,,,,,,,,54,,,,,,,,,,,,,,532.7459999046259,,response,,,100,,,,,,Space,keypress(Space),,,,,-- --- time --- ------ ----- ------- ---- -- --- ------- --<br>------- ---------- ------ -- ----- -- ----- -- ---- ------<br>--- ----- --- --- ------ -------- ----- --- ------ ----- --<br>----- ----- ---------- --- --- ------ ------ ---- -- ------<br>------- --- ------ ----- --- ---- ------- -- ---- --- --<br>------- ------,113175.5,113174.59999990463,112625.184,112631.89999997616,112641.854,113191.958,,2,time
screen,html.Screen,0_2_1_1_3,2021-12-10T12:45:38.914Z,,,,,,,,,,,,,,,,54,,,,,,,,,,,,,,638.5420000000013,,response,,,100,,,,,,Space,keypress(Space),,,,,-- --- ---- the ------ ----- ------- ---- -- --- ------- --<br>------- ---------- ------ -- ----- -- ----- -- ---- ------<br>--- ----- --- --- ------ -------- ----- --- ------ ----- --<br>----- ----- ---------- --- --- ------ ------ ---- -- ------<br>------- --- ------ ----- --- ---- ------- -- ---- --- --<br>------- ------,113831.39999997616,113830.5,113175.288,113175.79999995232,113191.958,113842.334,,3,the
screen,html.Screen,0_2_1_1_4,2021-12-10T12:45:39.386Z,,,,,,,,,,,,,,,,54,,,,,,,,,,,,,,460.16599999999744,,response,,,100,,,,,,Space,keypress(Space),,,,,-- --- ---- --- French ----- ------- ---- -- --- ------- --<br>------- ---------- ------ -- ----- -- ----- -- ---- ------<br>--- ----- --- --- ------ -------- ----- --- ------ ----- --<br>----- ----- ---------- --- --- ------ ------ ---- -- ------<br>------- --- ------ ----- --- ---- ------- -- ---- --- --<br>------- ------,114303.39999997616,114302.5,113825.662,113834.39999997616,113842.334,114309.014,,4,French
screen,html.Screen,0_2_1_1_5,2021-12-10T12:45:39.802Z,,,,,,,,,,,,,,,,54,,,,,,,,,,,,,,409.4860000000044,,response,,,100,,,,,,Space,keypress(Space),,,,,-- --- ---- --- ------ crown ------- ---- -- --- ------- --<br>------- ---------- ------ -- ----- -- ----- -- ---- ------<br>--- ----- --- --- ------ -------- ----- --- ------ ----- --<br>----- ----- ---------- --- --- ------ ------ ---- -- ------<br>------- --- ------ ----- --- ---- ------- -- ---- --- --<br>------- ------,114719.39999997616,114718.5,114292.344,114303.69999992847,114309.014,114725.777,,5,crown
screen,html.Screen,0_2_1_1_6,2021-12-10T12:45:40.234Z,,,,,,,,,,,,,,,,54,,,,,,,,,,,,,,424.6229999761563,,response,,,100,,,,,,Space,keypress(Space),,,,,-- --- ---- --- ------ ----- secured ---- -- --- ------- --<br>------- ---------- ------ -- ----- -- ----- -- ---- ------<br>--- ----- --- --- ------ -------- ----- --- ------ ----- --<br>----- ----- ---------- --- --- ------ ------ ---- -- ------<br>------- --- ------ ----- --- ---- ------- -- ---- --- --<br>------- ------,115151.29999995232,115150.39999997616,114709.107,114719.59999990463,114725.777,115159.273,,6,secured
screen,html.Screen,0_2_1_1_7,2021-12-10T12:45:40.698Z,,,,,,,,,,,,,,,,54,,,,,,,,,,,,,,455.1269999761571,,response,,,100,,,,,,Space,keypress(Space),,,,,-- --- ---- --- ------ ----- ------- much -- --- ------- --<br>------- ---------- ------ -- ----- -- ----- -- ---- ------<br>--- ----- --- --- ------ -------- ----- --- ------ ----- --<br>----- ----- ---------- --- --- ------ ------ ---- -- ------<br>------- --- ------ ----- --- ---- ------- -- ---- --- --<br>------- ------,115615.29999995232,115614.39999997616,115142.602,115151.69999992847,115159.273,115625.985,,7,much
screen,html.Screen,0_2_1_1_8,2021-12-10T12:45:41.194Z,,,,,,,,,,,,,,,,54,,,,,,,,,,,,,,484.5149999999994,,response,,,100,,,,,,Space,keypress(Space),,,,,-- --- ---- --- ------ ----- ------- ---- of --- ------- --<br>------- ---------- ------ -- ----- -- ----- -- ---- ------<br>--- ----- --- --- ------ -------- ----- --- ------ ----- --<br>----- ----- ---------- --- --- ------ ------ ---- -- ------<br>------- --- ------ ----- --- ---- ------- -- ---- --- --<br>------- ------,116111.19999992847,116110.5,115609.315,115615.5,115625.985,116126.181,,8,of
screen,html.Screen,0_2_1_1_9,2021-12-10T12:45:41.818Z,,,,,,,,,,,,,,,,54,,,,,,,,,,,,,,608.2189999761613,,response,,,100,,,,,,Space,keypress(Space),,,,,-- --- ---- --- ------ ----- ------- ---- -- its ------- --<br>------- ---------- ------ -- ----- -- ----- -- ---- ------<br>--- ----- --- --- ------ -------- ----- --- ------ ----- --<br>----- ----- ---------- --- --- ------ ------ ---- -- ------<br>------- --- ------ ----- --- ---- ------- -- ---- --- --<br>------- ------,116735.19999992847,116734.39999997616,116109.51,116111.5,116126.181,116742.963,,9,its
screen,html.Screen,0_2_1_1_10,2021-12-10T12:45:42.474Z,,,,,,,,,,,,,,,,54,,,,,,,,,,,,,,647.3369999523129,,response,,,100,,,,,,Space,keypress(Space),,,,,-- --- ---- --- ------ ----- ------- ---- -- --- revenue --<br>------- ---------- ------ -- ----- -- ----- -- ---- ------<br>--- ----- --- --- ------ -------- ----- --- ------ ----- --<br>----- ----- ---------- --- --- ------ ------ ---- -- ------<br>------- --- ------ ----- --- ---- ------- -- ---- --- --<br>------- ------,117391.19999992847,117390.29999995232,116726.293,116735.5,116742.963,117393.186,,10,revenue
screen,html.Screen,0_2_1_1_11,2021-12-10T12:45:42.978Z,,,,,,,,,,,,,,,,54,,,,,,,,,,,,,,501.11399995231477,,response,,,100,,,,,,Space,keypress(Space),,,,,-- --- ---- --- ------ ----- ------- ---- -- --- ------- by<br>------- ---------- ------ -- ----- -- ----- -- ---- ------<br>--- ----- --- --- ------ -------- ----- --- ------ ----- --<br>----- ----- ---------- --- --- ------ ------ ---- -- ------<br>------- --- ------ ----- --- ---- ------- -- ---- --- --<br>------- ------,117895.09999990463,117894.29999995232,117376.515,117391.39999997616,117393.186,117909.949,,11,by
screen,html.Screen,0_2_1_1_12,2021-12-10T12:45:43.826Z,,,,,,,,,,,,,,,,54,,,,,,,,,,,,,,832.4509999761649,,response,,,100,,,,,,Space,keypress(Space),,,,,-- --- ---- --- ------ ----- ------- ---- -- --- ------- --<br>issuing ---------- ------ -- ----- -- ----- -- ---- ------<br>--- ----- --- --- ------ -------- ----- --- ------ ----- --<br>----- ----- ---------- --- --- ------ ------ ---- -- ------<br>------- --- ------ ----- --- ---- ------- -- ---- --- --<br>------- ------,118743.09999990463,118742.39999997616,117893.279,117895.39999997616,117909.949,118760.136,,12,issuing
screen,html.Screen,0_2_1_1_13,2021-12-10T12:45:44.506Z,,,,,,,,,,,,,,,,54,,,,,,,,,,,,,,662.0639999284758,,response,,,100,,,,,,Space,keypress(Space),,,,,-- --- ---- --- ------ ----- ------- ---- -- --- ------- --<br>------- government ------ -- ----- -- ----- -- ---- ------<br>--- ----- --- --- ------ -------- ----- --- ------ ----- --<br>----- ----- ---------- --- --- ------ ------ ---- -- ------<br>------- --- ------ ----- --- ---- ------- -- ---- --- --<br>------- ------,119423.09999990463,119422.19999992847,118743.466,118743.29999995232,118760.136,119426.996,,13,government
screen,html.Screen,0_2_1_1_14,2021-12-10T12:45:45.370Z,,,,,,,,,,,,,,,,54,,,,,,,,,,,,,,859.2039999284752,,response,,,100,,,,,,Space,keypress(Space),,,,,-- --- ---- --- ------ ----- ------- ---- -- --- ------- --<br>------- ---------- bonds. -- ----- -- ----- -- ---- ------<br>--- ----- --- --- ------ -------- ----- --- ------ ----- --<br>----- ----- ---------- --- --- ------ ------ ---- -- ------<br>------- --- ------ ----- --- ---- ------- -- ---- --- --<br>------- ------,120287.09999990463,120286.19999992847,119410.326,119423.39999997616,119426.996,120293.883,,14,bonds.
screen,html.Screen,0_2_1_1_15,2021-12-10T12:45:46.037Z,,,,,,,,,,,,,,,,54,,,,,,,,,,,,,,656.3169999284728,,response,,,100,,,,,,Space,keypress(Space),,,,,-- --- ---- --- ------ ----- ------- ---- -- --- ------- --<br>------- ---------- ------ In ----- -- ----- -- ---- ------<br>--- ----- --- --- ------ -------- ----- --- ------ ----- --<br>----- ----- ---------- --- --- ------ ------ ---- -- ------<br>------- --- ------ ----- --- ---- ------- -- ---- --- --<br>------- ------,120950.89999997616,120950.19999992847,120277.213,120287.39999997616,120293.883,120960.714,,15,In
screen,html.Screen,0_2_1_1_16,2021-12-10T12:45:48.453Z,,,,,,,,,,,,,,,,54,,,,,,,,,,,,,,2405.685999976151,,response,,,100,,,,,,Space,keypress(Space),,,,,"-- --- ---- --- ------ ----- ------- ---- -- --- ------- --<br>------- ---------- ------ -- 1727, -- ----- -- ---- ------<br>--- ----- --- --- ------ -------- ----- --- ------ ----- --<br>----- ----- ---------- --- --- ------ ------ ---- -- ------<br>------- --- ------ ----- --- ---- ------- -- ---- --- --<br>------- ------",123367.39999997616,123366.39999997616,120944.044,120951.29999995232,120960.714,123377.902,,16,"1727,"
screen,html.Screen,0_2_1_1_17,2021-12-10T12:45:49.085Z,,,,,,,,,,,,,,,,54,,,,,,,,,,,,,,620.1979999046307,,response,,,100,,,,,,Space,keypress(Space),,,,,-- --- ---- --- ------ ----- ------- ---- -- --- ------- --<br>------- ---------- ------ -- ----- in ----- -- ---- ------<br>--- ----- --- --- ------ -------- ----- --- ------ ----- --<br>----- ----- ---------- --- --- ------ ------ ---- -- ------<br>------- --- ------ ----- --- ---- ------- -- ---- --- --<br>------- ------,123998.79999995232,123998.09999990463,123361.232,123367.79999995232,123377.902,124011.405,,17,in
screen,html.Screen,0_2_1_1_18,2021-12-10T12:45:49.741Z,,,,,,,,,,,,,,,,54,,,,,,,,,,,,,,642.4949999761593,,response,,,100,,,,,,Space,keypress(Space),,,,,-- --- ---- --- ------ ----- ------- ---- -- --- ------- --<br>------- ---------- ------ -- ----- -- order -- ---- ------<br>--- ----- --- --- ------ -------- ----- --- ------ ----- --<br>----- ----- ---------- --- --- ------ ------ ---- -- ------<br>------- --- ------ ----- --- ---- ------- -- ---- --- --<br>------- ------,124654.59999990463,124653.89999997616,123994.735,123999.19999992847,124011.405,124661.751,,18,order
screen,html.Screen,0_2_1_1_19,2021-12-10T12:45:50.437Z,,,,,,,,,,,,,,,,54,,,,,,,,,,,,,,688.1489999761543,,response,,,100,,,,,,Space,keypress(Space),,,,,-- --- ---- --- ------ ----- ------- ---- -- --- ------- --<br>------- ---------- ------ -- ----- -- ----- to ---- ------<br>--- ----- --- --- ------ -------- ----- --- ------ ----- --<br>----- ----- ---------- --- --- ------ ------ ---- -- ------<br>------- --- ------ ----- --- ---- ------- -- ---- --- --<br>------- ------,125350.69999992847,125349.89999997616,124645.08,124654.89999997616,124661.751,125361.834,,19,to
screen,html.Screen,0_2_1_1_20,2021-12-10T12:45:50.917Z,,,,,,,,,,,,,,,,54,,,,,,,,,,,,,,468.26599990463,,response,,,100,,,,,,Space,keypress(Space),,,,,-- --- ---- --- ------ ----- ------- ---- -- --- ------- --<br>------- ---------- ------ -- ----- -- ----- -- save ------<br>--- ----- --- --- ------ -------- ----- --- ------ ----- --<br>----- ----- ---------- --- --- ------ ------ ---- -- ------<br>------- --- ------ ----- --- ---- ------- -- ---- --- --<br>------- ------,125830.89999997616,125830.09999990463,125345.164,125351,125361.834,125845.407,,20,save
screen,html.Screen,0_2_1_1_21,2021-12-10T12:45:51.373Z,,,,,,,,,,,,,,,,54,,,,,,,,,,,,,,440.5929999999935,,response,,,100,,,,,,Space,keypress(Space),,,,,"-- --- ---- --- ------ ----- ------- ---- -- --- ------- --<br>------- ---------- ------ -- ----- -- ----- -- ---- money,<br>--- ----- --- --- ------ -------- ----- --- ------ ----- --<br>----- ----- ---------- --- --- ------ ------ ---- -- ------<br>------- --- ------ ----- --- ---- ------- -- ---- --- --<br>------- ------",126286.79999995232,126286,125828.736,125831.29999995232,125845.407,126295.461,,21,"money,"
screen,html.Screen,0_2_1_1_22,2021-12-10T12:45:52.045Z,,,,,,,,,,,,,,,,54,,,,,,,,,,,,,,662.3389999523206,,response,,,100,,,,,,Space,keypress(Space),,,,,-- --- ---- --- ------ ----- ------- ---- -- --- ------- --<br>------- ---------- ------ -- ----- -- ----- -- ---- ------<br>the ----- --- --- ------ -------- ----- --- ------ ----- --<br>----- ----- ---------- --- --- ------ ------ ---- -- ------<br>------- --- ------ ----- --- ---- ------- -- ---- --- --<br>------- ------,126958.59999990463,126957.79999995232,126278.791,126287,126295.461,126962.301,,22,the
screen,html.Screen,0_2_1_1_23,2021-12-10T12:45:52.493Z,,,,,,,,,,,,,,,,54,,,,,,,,,,,,,,443.69899999999325,,response,,,100,,,,,,Space,keypress(Space),,,,,-- --- ---- --- ------ ----- ------- ---- -- --- ------- --<br>------- ---------- ------ -- ----- -- ----- -- ---- ------<br>--- state --- --- ------ -------- ----- --- ------ ----- --<br>----- ----- ---------- --- --- ------ ------ ---- -- ------<br>------- --- ------ ----- --- ---- ------- -- ---- --- --<br>------- ------,127406.79999995232,127406,126945.631,126958.89999997616,126962.301,127412.409,,23,state
screen,html.Screen,0_2_1_1_24,2021-12-10T12:45:53.012Z,,,,,,,,,,,,,,,,54,,,,,,,,,,,,,,513.3909999523166,,response,,,100,,,,,,Space,keypress(Space),,,,,-- --- ---- --- ------ ----- ------- ---- -- --- ------- --<br>------- ---------- ------ -- ----- -- ----- -- ---- ------<br>--- ----- cut --- ------ -------- ----- --- ------ ----- --<br>----- ----- ---------- --- --- ------ ------ ---- -- ------<br>------- --- ------ ----- --- ---- ------- -- ---- --- --<br>------- ------,127926.59999990463,127925.79999995232,127395.739,127406.89999997616,127412.409,127929.217,,24,cut
screen,html.Screen,0_2_1_1_25,2021-12-10T12:45:53.460Z,,,,,,,,,,,,,,,,54,,,,,,,,,,,,,,444.48299992847024,,response,,,100,,,,,,Space,keypress(Space),,,,,-- --- ---- --- ------ ----- ------- ---- -- --- ------- --<br>------- ---------- ------ -- ----- -- ----- -- ---- ------<br>--- ----- --- the ------ -------- ----- --- ------ ----- --<br>----- ----- ---------- --- --- ------ ------ ---- -- ------<br>------- --- ------ ----- --- ---- ------- -- ---- --- --<br>------- ------,128374.59999990463,128373.69999992847,127912.547,127926.79999995232,127929.217,128379.381,,25,the
screen,html.Screen,0_2_1_1_26,2021-12-10T12:45:53.932Z,,,,,,,,,,,,,,,,54,,,,,,,,,,,,,,466.3189999284805,,response,,,100,,,,,,Space,keypress(Space),,,,,-- --- ---- --- ------ ----- ------- ---- -- --- ------- --<br>------- ---------- ------ -- ----- -- ----- -- ---- ------<br>--- ----- --- --- bonds' -------- ----- --- ------ ----- --<br>----- ----- ---------- --- --- ------ ------ ---- -- ------<br>------- --- ------ ----- --- ---- ------- -- ---- --- --<br>------- ------,128846.59999990463,128845.69999992847,128362.71,128374.79999995232,128379.381,128862.786,,26,bonds'
screen,html.Screen,0_2_1_1_27,2021-12-10T12:45:54.420Z,,,,,,,,,,,,,,,,54,,,,,,,,,,,,,,470.91399992848164,,response,,,100,,,,,,Space,keypress(Space),,,,,-- --- ---- --- ------ ----- ------- ---- -- --- ------- --<br>------- ---------- ------ -- ----- -- ----- -- ---- ------<br>--- ----- --- --- ------ interest ----- --- ------ ----- --<br>----- ----- ---------- --- --- ------ ------ ---- -- ------<br>------- --- ------ ----- --- ---- ------- -- ---- --- --<br>------- ------,129334.5,129333.69999992847,128846.116,128846.69999992847,128862.786,129346.253,,27,interest
screen,html.Screen,0_2_1_1_28,2021-12-10T12:45:54.964Z,,,,,,,,,,,,,,,,54,,,,,,,,,,,,,,531.4469999284775,,response,,,100,,,,,,Space,keypress(Space),,,,,-- --- ---- --- ------ ----- ------- ---- -- --- ------- --<br>------- ---------- ------ -- ----- -- ----- -- ---- ------<br>--- ----- --- --- ------ -------- rate. --- ------ ----- --<br>----- ----- ---------- --- --- ------ ------ ---- -- ------<br>------- --- ------ ----- --- ---- ------- -- ---- --- --<br>------- ------,129878.5,129877.69999992847,129329.583,129334.69999992847,129346.253,129879.768,,28,rate.
screen,html.Screen,0_2_1_1_29,2021-12-10T12:45:55.396Z,,,,,,,,,,,,,,,,54,,,,,,,,,,,,,,429.93199992847804,,response,,,100,,,,,,Space,keypress(Space),,,,,-- --- ---- --- ------ ----- ------- ---- -- --- ------- --<br>------- ---------- ------ -- ----- -- ----- -- ---- ------<br>--- ----- --- --- ------ -------- ----- The ------ ----- --<br>----- ----- ---------- --- --- ------ ------ ---- -- ------<br>------- --- ------ ----- --- ---- ------- -- ---- --- --<br>------- ------,130310.5,130309.69999992847,129863.097,129878.69999992847,129879.768,130313.178,,29,The
screen,html.Screen,0_2_1_1_30,2021-12-10T12:45:55.924Z,,,,,,,,,,,,,,,,54,,,,,,,,,,,,,,524.5219999284745,,response,,,100,,,,,,Space,keypress(Space),,,,,-- --- ---- --- ------ ----- ------- ---- -- --- ------- --<br>------- ---------- ------ -- ----- -- ----- -- ---- ------<br>--- ----- --- --- ------ -------- ----- --- market ----- --<br>----- ----- ---------- --- --- ------ ------ ---- -- ------<br>------- --- ------ ----- --- ---- ------- -- ---- --- --<br>------- ------,130838.59999990463,130837.69999992847,130296.508,130310.79999995232,130313.178,130846.695,,30,market
screen,html.Screen,0_2_1_1_31,2021-12-10T12:45:56.428Z,,,,,,,,,,,,,,,,54,,,,,,,,,,,,,,495.00499992846744,,response,,,100,,,,,,Space,keypress(Space),,,,,-- --- ---- --- ------ ----- ------- ---- -- --- ------- --<br>------- ---------- ------ -- ----- -- ----- -- ---- ------<br>--- ----- --- --- ------ -------- ----- --- ------ value --<br>----- ----- ---------- --- --- ------ ------ ---- -- ------<br>------- --- ------ ----- --- ---- ------- -- ---- --- --<br>------- ------,131342.39999997616,131341.69999992847,130830.024,130838.89999997616,130846.695,131346.691,,31,value
screen,html.Screen,0_2_1_1_32,2021-12-10T12:45:56.852Z,,,,,,,,,,,,,,,,54,,,,,,,,,,,,,,419.0089999284828,,response,,,100,,,,,,Space,keypress(Space),,,,,-- --- ---- --- ------ ----- ------- ---- -- --- ------- --<br>------- ---------- ------ -- ----- -- ----- -- ---- ------<br>--- ----- --- --- ------ -------- ----- --- ------ ----- of<br>----- ----- ---------- --- --- ------ ------ ---- -- ------<br>------- --- ------ ----- --- ---- ------- -- ---- --- --<br>------- ------,131766.69999992847,131765.69999992847,131330.022,131342.79999995232,131346.691,131780.285,,32,of
screen,html.Screen,0_2_1_1_33,2021-12-10T12:45:57.324Z,,,,,,,,,,,,,,,,54,,,,,,,,,,,,,,457.3149999046291,,response,,,100,,,,,,Space,keypress(Space),,,,,-- --- ---- --- ------ ----- ------- ---- -- --- ------- --<br>------- ---------- ------ -- ----- -- ----- -- ---- ------<br>--- ----- --- --- ------ -------- ----- --- ------ ----- --<br>these ----- ---------- --- --- ------ ------ ---- -- ------<br>------- --- ------ ----- --- ---- ------- -- ---- --- --<br>------- ------,132238.5,132237.59999990463,131763.614,131767,131780.285,132246.973,,33,these
screen,html.Screen,0_2_1_1_34,2021-12-10T12:45:57.724Z,,,,,,,,,,,,,,,,54,,,,,,,,,,,,,,390.62699990463443,,response,,,100,,,,,,Space,keypress(Space),,,,,-- --- ---- --- ------ ----- ------- ---- -- --- ------- --<br>------- ---------- ------ -- ----- -- ----- -- ---- ------<br>--- ----- --- --- ------ -------- ----- --- ------ ----- --<br>----- bonds ---------- --- --- ------ ------ ---- -- ------<br>------- --- ------ ----- --- ---- ------- -- ---- --- --<br>------- ------,132638.5,132637.59999990463,132230.303,132238.79999995232,132246.973,132647.158,,34,bonds
screen,html.Screen,0_2_1_1_35,2021-12-10T12:45:58.076Z,,,,,,,,,,,,,,,,54,,,,,,,,,,,,,,342.44199990463676,,response,,,100,,,,,,Space,keypress(Space),,,,,"-- --- ---- --- ------ ----- ------- ---- -- --- ------- --<br>------- ---------- ------ -- ----- -- ----- -- ---- ------<br>--- ----- --- --- ------ -------- ----- --- ------ ----- --<br>----- ----- plummeted, --- --- ------ ------ ---- -- ------<br>------- --- ------ ----- --- ---- ------- -- ---- --- --<br>------- ------",132990.39999997616,132989.59999990463,132630.487,132638.79999995232,132647.158,132997.214,,35,"plummeted,"
screen,html.Screen,0_2_1_1_36,2021-12-10T12:45:58.573Z,,,,,,,,,,,,,,,,54,,,,,,,,,,,,,,488.6859999761509,,response,,,100,,,,,,Space,keypress(Space),,,,,-- --- ---- --- ------ ----- ------- ---- -- --- ------- --<br>------- ---------- ------ -- ----- -- ----- -- ---- ------<br>--- ----- --- --- ------ -------- ----- --- ------ ----- --<br>----- ----- ---------- and --- ------ ------ ---- -- ------<br>------- --- ------ ----- --- ---- ------- -- ---- --- --<br>------- ------,133486.79999995232,133485.89999997616,132980.544,132990.59999990463,132997.214,133497.338,,36,and
screen,html.Screen,0_2_1_1_37,2021-12-10T12:45:58.996Z,,,,,,,,,,,,,,,,54,,,,,,,,,,,,,,412.26199990464374,,response,,,100,,,,,,Space,keypress(Space),,,,,-- --- ---- --- ------ ----- ------- ---- -- --- ------- --<br>------- ---------- ------ -- ----- -- ----- -- ---- ------<br>--- ----- --- --- ------ -------- ----- --- ------ ----- --<br>----- ----- ---------- --- the ------ ------ ---- -- ------<br>------- --- ------ ----- --- ---- ------- -- ---- --- --<br>------- ------,133910.5,133909.59999990463,133480.668,133486.89999997616,133497.338,133914.153,,37,the
screen,html.Screen,0_2_1_1_38,2021-12-10T12:45:59.420Z,,,,,,,,,,,,,,,,54,,,,,,,,,,,,,,419.34700000000885,,response,,,100,,,,,,Space,keypress(Space),,,,,-- --- ---- --- ------ ----- ------- ---- -- --- ------- --<br>------- ---------- ------ -- ----- -- ----- -- ---- ------<br>--- ----- --- --- ------ -------- ----- --- ------ ----- --<br>----- ----- ---------- --- --- market ------ ---- -- ------<br>------- --- ------ ----- --- ---- ------- -- ---- --- --<br>------- ------,134334.29999995232,134333.5,133897.482,133910.59999990463,133914.153,134347.571,,38,market
screen,html.Screen,0_2_1_1_39,2021-12-10T12:45:59.908Z,,,,,,,,,,,,,,,,54,,,,,,,,,,,,,,473.9290000000037,,response,,,100,,,,,,Space,keypress(Space),,,,,-- --- ---- --- ------ ----- ------- ---- -- --- ------- --<br>------- ---------- ------ -- ----- -- ----- -- ---- ------<br>--- ----- --- --- ------ -------- ----- --- ------ ----- --<br>----- ----- ---------- --- --- ------ became ---- -- ------<br>------- --- ------ ----- --- ---- ------- -- ---- --- --<br>------- ------,134822.29999995232,134821.5,134330.901,134334.59999990463,134347.571,134831.014,,39,became
screen,html.Screen,0_2_1_1_40,2021-12-10T12:46:00.316Z,,,,,,,,,,,,,,,,54,,,,,,,,,,,,,,398.38599997616257,,response,,,100,,,,,,Space,keypress(Space),,,,,-- --- ---- --- ------ ----- ------- ---- -- --- ------- --<br>------- ---------- ------ -- ----- -- ----- -- ---- ------<br>--- ----- --- --- ------ -------- ----- --- ------ ----- --<br>----- ----- ---------- --- --- ------ ------ wary -- ------<br>------- --- ------ ----- --- ---- ------- -- ---- --- --<br>------- ------,135230.19999992847,135229.39999997616,134814.344,134822.59999990463,134831.014,135247.767,,40,wary
screen,html.Screen,0_2_1_1_41,2021-12-10T12:46:00.724Z,,,,,,,,,,,,,,,,54,,,,,,,,,,,,,,389.73300000000745,,response,,,100,,,,,,Space,keypress(Space),,,,,-- --- ---- --- ------ ----- ------- ---- -- --- ------- --<br>------- ---------- ------ -- ----- -- ----- -- ---- ------<br>--- ----- --- --- ------ -------- ----- --- ------ ----- --<br>----- ----- ---------- --- --- ------ ------ ---- of ------<br>------- --- ------ ----- --- ---- ------- -- ---- --- --<br>------- ------,135638.29999995232,135637.5,135231.097,135230.5,135247.767,135647.931,,41,of
screen,html.Screen,0_2_1_1_42,2021-12-10T12:46:01.324Z,,,,,,,,,,,,,,,,54,,,,,,,,,,,,,,589.4689999761467,,response,,,100,,,,,,Space,keypress(Space),,,,,-- --- ---- --- ------ ----- ------- ---- -- --- ------- --<br>------- ---------- ------ -- ----- -- ----- -- ---- ------<br>--- ----- --- --- ------ -------- ----- --- ------ ----- --<br>----- ----- ---------- --- --- ------ ------ ---- -- French<br>------- --- ------ ----- --- ---- ------- -- ---- --- --<br>------- ------,136238.29999995232,136237.39999997616,135631.26,135638.5,135647.931,136248.093,,42,French
screen,html.Screen,0_2_1_1_43,2021-12-10T12:46:01.812Z,,,,,,,,,,,,,,,,54,,,,,,,,,,,,,,477.2069999523228,,response,,,100,,,,,,Space,keypress(Space),,,,,-- --- ---- --- ------ ----- ------- ---- -- --- ------- --<br>------- ---------- ------ -- ----- -- ----- -- ---- ------<br>--- ----- --- --- ------ -------- ----- --- ------ ----- --<br>----- ----- ---------- --- --- ------ ------ ---- -- ------<br>credit. --- ------ ----- --- ---- ------- -- ---- --- --<br>------- ------,136726.29999995232,136725.29999995232,136231.422,136238.5,136248.093,136731.513,,43,credit.
screen,html.Screen,0_2_1_1_44,2021-12-10T12:46:02.252Z,,,,,,,,,,,,,,,,54,,,,,,,,,,,,,,433.88699997615186,,response,,,100,,,,,,Space,keypress(Space),,,,,-- --- ---- --- ------ ----- ------- ---- -- --- ------- --<br>------- ---------- ------ -- ----- -- ----- -- ---- ------<br>--- ----- --- --- ------ -------- ----- --- ------ ----- --<br>----- ----- ---------- --- --- ------ ------ ---- -- ------<br>------- The ------ ----- --- ---- ------- -- ---- --- --<br>------- ------,137166.19999992847,137165.39999997616,136714.843,136726.5,136731.513,137181.618,,44,The
screen,html.Screen,0_2_1_1_45,2021-12-10T12:46:02.724Z,,,,,,,,,,,,,,,,54,,,,,,,,,,,,,,455.88200000001234,,response,,,100,,,,,,Space,keypress(Space),,,,,-- --- ---- --- ------ ----- ------- ---- -- --- ------- --<br>------- ---------- ------ -- ----- -- ----- -- ---- ------<br>--- ----- --- --- ------ -------- ----- --- ------ ----- --<br>----- ----- ---------- --- --- ------ ------ ---- -- ------<br>------- --- French ----- --- ---- ------- -- ---- --- --<br>------- ------,137638.29999995232,137637.5,137164.948,137166.39999997616,137181.618,137648.456,,45,French
screen,html.Screen,0_2_1_1_46,2021-12-10T12:46:03.156Z,,,,,,,,,,,,,,,,54,,,,,,,,,,,,,,420.8439999523107,,response,,,100,,,,,,Space,keypress(Space),,,,,-- --- ---- --- ------ ----- ------- ---- -- --- ------- --<br>------- ---------- ------ -- ----- -- ----- -- ---- ------<br>--- ----- --- --- ------ -------- ----- --- ------ ----- --<br>----- ----- ---------- --- --- ------ ------ ---- -- ------<br>------- --- ------ state --- ---- ------- -- ---- --- --<br>------- ------,138070.09999990463,138069.29999995232,137631.785,137638.59999990463,137648.456,138081.852,,46,state
screen,html.Screen,0_2_1_1_47,2021-12-10T12:46:03.588Z,,,,,,,,,,,,,,,,54,,,,,,,,,,,,,,419.4479999523028,,response,,,100,,,,,,Space,keypress(Space),,,,,-- --- ---- --- ------ ----- ------- ---- -- --- ------- --<br>------- ---------- ------ -- ----- -- ----- -- ---- ------<br>--- ----- --- --- ------ -------- ----- --- ------ ----- --<br>----- ----- ---------- --- --- ------ ------ ---- -- ------<br>------- --- ------ ----- was ---- ------- -- ---- --- --<br>------- ------,138502.09999990463,138501.29999995232,138065.182,138070.39999997616,138081.852,138515.35,,47,was
screen,html.Screen,0_2_1_1_48,2021-12-10T12:46:04.012Z,,,,,,,,,,,,,,,,54,,,,,,,,,,,,,,409.8499999284686,,response,,,100,,,,,,Space,keypress(Space),,,,,-- --- ---- --- ------ ----- ------- ---- -- --- ------- --<br>------- ---------- ------ -- ----- -- ----- -- ---- ------<br>--- ----- --- --- ------ -------- ----- --- ------ ----- --<br>----- ----- ---------- --- --- ------ ------ ---- -- ------<br>------- --- ------ ----- --- left ------- -- ---- --- --<br>------- ------,138926,138925.19999992847,138498.679,138502.29999995232,138515.35,138932.092,,48,left
screen,html.Screen,0_2_1_1_49,2021-12-10T12:46:04.380Z,,,,,,,,,,,,,,,,54,,,,,,,,,,,,,,361.10799992847024,,response,,,100,,,,,,Space,keypress(Space),,,,,-- --- ---- --- ------ ----- ------- ---- -- --- ------- --<br>------- ---------- ------ -- ----- -- ----- -- ---- ------<br>--- ----- --- --- ------ -------- ----- --- ------ ----- --<br>----- ----- ---------- --- --- ------ ------ ---- -- ------<br>------- --- ------ ----- --- ---- without -- ---- --- --<br>------- ------,139294,139293.19999992847,138915.422,138926.29999995232,138932.092,139298.844,,49,without
screen,html.Screen,0_2_1_1_50,2021-12-10T12:46:04.756Z,,,,,,,,,,,,,,,,54,,,,,,,,,,,,,,370.35599992846255,,response,,,100,,,,,,Space,keypress(Space),,,,,-- --- ---- --- ------ ----- ------- ---- -- --- ------- --<br>------- ---------- ------ -- ----- -- ----- -- ---- ------<br>--- ----- --- --- ------ -------- ----- --- ------ ----- --<br>----- ----- ---------- --- --- ------ ------ ---- -- ------<br>------- --- ------ ----- --- ---- ------- an ---- --- --<br>------- ------,139670.09999990463,139669.19999992847,139282.174,139294.29999995232,139298.844,139682.319,,50,an
screen,html.Screen,0_2_1_1_51,2021-12-10T12:46:05.108Z,,,,,,,,,,,,,,,,54,,,,,,,,,,,,,,338.88099992848583,,response,,,100,,,,,,Space,keypress(Space),,,,,-- --- ---- --- ------ ----- ------- ---- -- --- ------- --<br>------- ---------- ------ -- ----- -- ----- -- ---- ------<br>--- ----- --- --- ------ -------- ----- --- ------ ----- --<br>----- ----- ---------- --- --- ------ ------ ---- -- ------<br>------- --- ------ ----- --- ---- ------- -- easy --- --<br>------- ------,140022,140021.19999992847,139665.648,139670.29999995232,139682.319,140032.286,,51,easy
screen,html.Screen,0_2_1_1_52,2021-12-10T12:46:05.508Z,,,,,,,,,,,,,,,,54,,,,,,,,,,,,,,388.91399992848164,,response,,,100,,,,,,Space,keypress(Space),,,,,-- --- ---- --- ------ ----- ------- ---- -- --- ------- --<br>------- ---------- ------ -- ----- -- ----- -- ---- ------<br>--- ----- --- --- ------ -------- ----- --- ------ ----- --<br>----- ----- ---------- --- --- ------ ------ ---- -- ------<br>------- --- ------ ----- --- ---- ------- -- ---- way --<br>------- ------,140422,140421.19999992847,140015.617,140022.29999995232,140032.286,140432.557,,52,way
screen,html.Screen,0_2_1_1_53,2021-12-10T12:46:05.956Z,,,,,,,,,,,,,,,,54,,,,,,,,,,,,,,436.54299990463187,,response,,,100,,,,,,Space,keypress(Space),,,,,-- --- ---- --- ------ ----- ------- ---- -- --- ------- --<br>------- ---------- ------ -- ----- -- ----- -- ---- ------<br>--- ----- --- --- ------ -------- ----- --- ------ ----- --<br>----- ----- ---------- --- --- ------ ------ ---- -- ------<br>------- --- ------ ----- --- ---- ------- -- ---- --- of<br>------- ------,140870,140869.09999990463,140415.885,140422.19999992847,140432.557,140882.593,,53,of
screen,html.Screen,0_2_1_1_54,2021-12-10T12:46:06.348Z,,,,,,,,,,,,,,,,54,,,,,,,,,,,,,,378.60699992848095,,response,,,100,,,,,,Space,keypress(Space),,,,,-- --- ---- --- ------ ----- ------- ---- -- --- ------- --<br>------- ---------- ------ -- ----- -- ----- -- ---- ------<br>--- ----- --- --- ------ -------- ----- --- ------ ----- --<br>----- ----- ---------- --- --- ------ ------ ---- -- ------<br>------- --- ------ ----- --- ---- ------- -- ---- --- --<br>raising ------,141261.89999997616,141261.19999992847,140865.923,140870.29999995232,140882.593,141266.018,,54,raising
screen,html.Screen,0_2_1_1_55,2021-12-10T12:46:06.828Z,,,,,,,,,,,,,,,,54,,,,,,,,,,,,,,475.0819999046216,,response,,,100,,,,,,Space,keypress(Space),,,,,-- --- ---- --- ------ ----- ------- ---- -- --- ------- --<br>------- ---------- ------ -- ----- -- ----- -- ---- ------<br>--- ----- --- --- ------ -------- ----- --- ------ ----- --<br>----- ----- ---------- --- --- ------ ------ ---- -- ------<br>------- --- ------ ----- --- ---- ------- -- ---- --- --<br>------- money.,141741.89999997616,141741.09999990463,141249.348,141262.09999990463,141266.018,141749.456,,55,money.
Item 100,flow.Loop,0_2_1_1,2021-12-10T12:46:06.828Z,,,,,,,,,,,,,,,,,,,,,,,,,,,,,,31733.349999904633,,completion,,,,B,,,,,,,,,,silence,,141742.5,141741.09999990463,109991.08,109993.09999990463,110007.75,141749.456,,,
Question 1,html.Screen,0_2_1_2,2021-12-10T12:46:10.484Z,,,,,,,,,,,,,,,,,,,,,,,,,,,true,TRUE,,3647.243999928469,,response,,,100,B,,,,,TRUE,click #choice-1,,,,silence,,145397.89999997616,145396.69999992847,141732.786,141742.59999990463,141749.456,145400.696,,,
Question 2,html.Screen,0_2_1_3,2021-12-10T12:46:13.044Z,,,,,,,,,,,,,,,,,,,,,,,,,,,true,FALSE,,2555.9039999046363,,response,,,100,B,,,,,FALSE,click #choice-2,,,,silence,,147957.89999997616,147956.59999990463,145384.016,145398.19999992847,145400.696,147967.841,,,
Item 100,flow.Sequence,0_2_1,2021-12-10T12:46:13.044Z,,,,,,,,,,,,,,,,,,,,,,,,,,,,,,47951.30999990464,,completion,,,,,,,,,,,,,,,,147958.29999995232,147956.59999990463,99988.62,99993.19999992847,100005.29,147967.841,,,
End of Practice,html.Page,0_2_2,2021-12-10T12:46:15.173Z,,,,,,,,,,,,,,,,,,,,,,,,,,,,,,2118.2589999046468,,form submission,,,,,,,,,,,,,,,,150086.69999992847,150086.09999990463,147951.169,147958.59999990463,147967.841,150101.745,,,
Practice,flow.Sequence,0_2,2021-12-10T12:46:15.173Z,,,,,,,,,,,,,,,,,,,,,,,,,,,,,,114180.98499990464,,completion,,,,,,,,,,,,,,,,150087.09999990463,150086.09999990463,35888.445,35900.59999990463,35905.115,150101.745,,,
Trap_instruction,html.Page,0_3_0,2021-12-10T12:46:20.276Z,,,,,,,,,,,,,,,,,,,,,,,,,,,,,,5087.755000000005,,form submission,,,,,,,,,,,,,,,,155190.09999990463,155189.5,150085.073,150087.39999997616,150101.745,155219.621,,,
trap_trial,html.Screen,0_3_1,2021-12-10T12:46:24.747Z,,,,,,,,,,,,,,,,,,,,,,,,,,,true,1,,4440.378999999986,,response,,,,,,,,,1,click #choice-1,,,,,,159661.19999992847,159660,155202.951,155190.39999997616,155219.621,159670.785,,,
end of trap trial,html.Page,0_3_2,2021-12-10T12:46:27.020Z,,,,,,,,,,,,,,,,,,,,,,,,,,,,,,2262.414999928471,,form submission,,,,,,,,,,,,,,,,161933.69999992847,161933.19999992847,159654.114,159661.5,159670.785,161946.576,,,
Trap 1,flow.Sequence,0_3,2021-12-10T12:46:27.020Z,,,,,,,,,,,,,,,,,,,,,,,,,,,,,,11831.454999928479,,completion,,,,,,,,,,,,,,,,161934.19999992847,161933.19999992847,150085.073,150087.29999995232,150101.745,161946.576,,,
Standby,html.Page,0_4_0,2021-12-10T12:46:35.011Z,,,,,,,,,,,,,,,,,,,,,,,,,,,,,,7993.0869999999995,,timeout,,,,,,,,,,,,,,,,169924.79999995232,169922.993,161929.968,161934.59999990463,161946.576,169939.663,,,
Holding screen,html.Screen,0_4_1_0_0,2021-12-10T12:46:42.012Z,,,,,,,,,,,,,,,,,,,,,,,,,,,,,,7002.233999999997,,timeout,,,,,,,,,,,,,,,,176926.5,176925.227,169922.993,169925.09999990463,169939.663,176941.897,,,
screen,html.Screen,0_4_1_0_1_0,2021-12-10T12:46:43.266Z,,,,,,,,,,,,,,,,11,,,,,,,,,,,,,,1237.7029999046354,,response,,,4,B,,,,,Space,keypress(Space),,,,lyrical,Known -- ---- --- -- --- -------- ------------ ---------- --<br>- ------- ------ --------- -- ------------ -- --- ---- -----<br>------ ---- ---- ------ ------ ------- --- ----- ---------<br>---- --- -------- -------- --- --- -- ------- --- --- -----<br>-- --- ------ ------- --- --- -------- ---- --------- --<br>---------- -- -------- ----------------,178180.59999990463,178179.59999990463,176925.227,176927,176941.897,178192.205,,0,Known
screen,html.Screen,0_4_1_0_1_1,2021-12-10T12:46:43.826Z,,,,,,,,,,,,,,,,11,,,,,,,,,,,,,,546.9949999284872,,response,,,4,B,,,,,Space,keypress(Space),,,,lyrical,----- as ---- --- -- --- -------- ------------ ---------- --<br>- ------- ------ --------- -- ------------ -- --- ---- -----<br>------ ---- ---- ------ ------ ------- --- ----- ---------<br>---- --- -------- -------- --- --- -- ------- --- --- -----<br>-- --- ------ ------- --- --- -------- ---- --------- --<br>---------- -- -------- ----------------,178740,178739.19999992847,178175.535,178180.89999997616,178192.205,178742.491,,1,as
screen,html.Screen,0_4_1_0_1_2,2021-12-10T12:46:44.274Z,,,,,,,,,,,,,,,,11,,,,,,,,,,,,,,444.6089999046235,,response,,,4,B,,,,,Space,keypress(Space),,,,lyrical,----- -- Rapa --- -- --- -------- ------------ ---------- --<br>- ------- ------ --------- -- ------------ -- --- ---- -----<br>------ ---- ---- ------ ------ ------- --- ----- ---------<br>---- --- -------- -------- --- --- -- ------- --- --- -----<br>-- --- ------ ------- --- --- -------- ---- --------- --<br>---------- -- -------- ----------------,179187.89999997616,179187.09999990463,178725.82,178740.29999995232,178742.491,179192.472,,2,Rapa
screen,html.Screen,0_4_1_0_1_3,2021-12-10T12:46:44.834Z,,,,,,,,,,,,,,,,11,,,,,,,,,,,,,,554.6279999046237,,response,,,4,B,,,,,Space,keypress(Space),,,,lyrical,----- -- ---- Nui -- --- -------- ------------ ---------- --<br>- ------- ------ --------- -- ------------ -- --- ---- -----<br>------ ---- ---- ------ ------ ------- --- ----- ---------<br>---- --- -------- -------- --- --- -- ------- --- --- -----<br>-- --- ------ ------- --- --- -------- ---- --------- --<br>---------- -- -------- ----------------,179747.79999995232,179747.09999990463,179175.802,179188.09999990463,179192.472,179759.375,,3,Nui
screen,html.Screen,0_4_1_0_1_4,2021-12-10T12:46:45.418Z,,,,,,,,,,,,,,,,11,,,,,,,,,,,,,,571.7249999046326,,response,,,4,B,,,,,Space,keypress(Space),,,,lyrical,----- -- ---- --- to --- -------- ------------ ---------- --<br>- ------- ------ --------- -- ------------ -- --- ---- -----<br>------ ---- ---- ------ ------ ------- --- ----- ---------<br>---- --- -------- -------- --- --- -- ------- --- --- -----<br>-- --- ------ ------- --- --- -------- ---- --------- --<br>---------- -- -------- ----------------,180331.89999997616,180331.09999990463,179742.704,179748.09999990463,179759.375,180342.81,,4,to
screen,html.Screen,0_4_1_0_1_5,2021-12-10T12:46:46.165Z,,,,,,,,,,,,,,,,11,,,,,,,,,,,,,,732.2899999046349,,response,,,4,B,,,,,Space,keypress(Space),,,,lyrical,----- -- ---- --- -- the -------- ------------ ---------- --<br>- ------- ------ --------- -- ------------ -- --- ---- -----<br>------ ---- ---- ------ ------ ------- --- ----- ---------<br>---- --- -------- -------- --- --- -- ------- --- --- -----<br>-- --- ------ ------- --- --- -------- ---- --------- --<br>---------- -- -------- ----------------,181075.89999997616,181075.09999990463,180326.14,180332.19999992847,180342.81,181092.995,,5,the
screen,html.Screen,0_4_1_0_1_6,2021-12-10T12:46:47.861Z,,,,,,,,,,,,,,,,11,,,,,,,,,,,,,,1678.0050000000047,,response,,,4,B,,,,,Space,keypress(Space),,,,lyrical,----- -- ---- --- -- --- island's ------------ ---------- --<br>- ------- ------ --------- -- ------------ -- --- ---- -----<br>------ ---- ---- ------ ------ ------- --- ----- ---------<br>---- --- -------- -------- --- --- -- ------- --- --- -----<br>-- --- ------ ------- --- --- -------- ---- --------- --<br>---------- -- -------- ----------------,182771.79999995232,182771,181076.325,181076.09999990463,181092.995,182776.837,,6,island's
screen,html.Screen,0_4_1_0_1_7,2021-12-10T12:46:48.669Z,,,,,,,,,,,,,,,,11,,,,,,,,,,,,,,802.0629999761586,,response,,,4,B,,,,,Space,keypress(Space),,,,lyrical,"----- -- ---- --- -- --- -------- inhabitants, ---------- --<br>- ------- ------ --------- -- ------------ -- --- ---- -----<br>------ ---- ---- ------ ------ ------- --- ----- ---------<br>---- --- -------- -------- --- --- -- ------- --- --- -----<br>-- --- ------ ------- --- --- -------- ---- --------- --<br>---------- -- -------- ----------------",183580,183578.89999997616,182760.166,182772,182776.837,183593.718,,7,"inhabitants,"
screen,html.Screen,0_4_1_0_1_8,2021-12-10T12:46:49.765Z,,,,,,,,,,,,,,,,11,,,,,,,,,,,,,,1081.1819999761647,,response,,,4,B,,,,,Space,keypress(Space),,,,lyrical,----- -- ---- --- -- --- -------- ------------ Rongorongo --<br>- ------- ------ --------- -- ------------ -- --- ---- -----<br>------ ---- ---- ------ ------ ------- --- ----- ---------<br>---- --- -------- -------- --- --- -- ------- --- --- -----<br>-- --- ------ ------- --- --- -------- ---- --------- --<br>---------- -- -------- ----------------,184675.69999992847,184674.89999997616,183577.047,183580.29999995232,183593.718,184677.205,,8,Rongorongo
screen,html.Screen,0_4_1_0_1_9,2021-12-10T12:46:50.205Z,,,,,,,,,,,,,,,,11,,,,,,,,,,,,,,437.5949999523291,,response,,,4,B,,,,,Space,keypress(Space),,,,lyrical,----- -- ---- --- -- --- -------- ------------ ---------- is<br>- ------- ------ --------- -- ------------ -- --- ---- -----<br>------ ---- ---- ------ ------ ------- --- ----- ---------<br>---- --- -------- -------- --- --- -- ------- --- --- -----<br>-- --- ------ ------- --- --- -------- ---- --------- --<br>---------- -- -------- ----------------,185115.69999992847,185114.79999995232,184660.535,184676.09999990463,184677.205,185127.472,,9,is
screen,html.Screen,0_4_1_0_1_10,2021-12-10T12:46:50.645Z,,,,,,,,,,,,,,,,11,,,,,,,,,,,,,,427.32799995230744,,response,,,4,B,,,,,Space,keypress(Space),,,,lyrical,----- -- ---- --- -- --- -------- ------------ ---------- --<br>a ------- ------ --------- -- ------------ -- --- ---- -----<br>------ ---- ---- ------ ------ ------- --- ----- ---------<br>---- --- -------- -------- --- --- -- ------- --- --- -----<br>-- --- ------ ------- --- --- -------- ---- --------- --<br>---------- -- -------- ----------------,185555.79999995232,185554.79999995232,185110.801,185116,185127.472,185560.918,,10,a
screen,html.Screen,0_4_1_0_1_11,2021-12-10T12:46:51.053Z,,,,,,,,,,,,,,,,11,,,,,,,,,,,,,,401.88199995231116,,response,,,4,B,,,,,Space,keypress(Space),,,,lyrical,----- -- ---- --- -- --- -------- ------------ ---------- --<br>- writing ------ --------- -- ------------ -- --- ---- -----<br>------ ---- ---- ------ ------ ------- --- ----- ---------<br>---- --- -------- -------- --- --- -- ------- --- --- -----<br>-- --- ------ ------- --- --- -------- ---- --------- --<br>---------- -- -------- ----------------,185963.59999990463,185962.79999995232,185544.247,185556,185560.918,185977.703,,11,writing
screen,html.Screen,0_4_1_0_1_12,2021-12-10T12:46:51.514Z,,,,,,,,,,,,,,,,11,,,,,,,,,,,,,,441.09699995230767,,response,,,4,B,,,,,Space,keypress(Space),,,,lyrical,----- -- ---- --- -- --- -------- ------------ ---------- --<br>- ------- system --------- -- ------------ -- --- ---- -----<br>------ ---- ---- ------ ------ ------- --- ----- ---------<br>---- --- -------- -------- --- --- -- ------- --- --- -----<br>-- --- ------ ------- --- --- -------- ---- --------- --<br>---------- -- -------- ----------------,186424.39999997616,186418.79999995232,185961.032,185963.89999997616,185977.703,186427.776,,12,system
screen,html.Screen,0_4_1_0_1_13,2021-12-10T12:46:53.165Z,,,,,,,,,,,,,,,,11,,,,,,,,,,,,,,1646.9239999284619,,response,,,4,B,,,,,Space,keypress(Space),,,,lyrical,----- -- ---- --- -- --- -------- ------------ ---------- --<br>- ------- ------ comprised -- ------------ -- --- ---- -----<br>------ ---- ---- ------ ------ ------- --- ----- ---------<br>---- --- -------- -------- --- --- -- ------- --- --- -----<br>-- --- ------ ------- --- --- -------- ---- --------- --<br>---------- -- -------- ----------------,188075.5,188074.69999992847,186411.106,186424.69999992847,186427.776,188077.844,,13,comprised
screen,html.Screen,0_4_1_0_1_14,2021-12-10T12:46:53.837Z,,,,,,,,,,,,,,,,11,,,,,,,,,,,,,,669.1559999999881,,response,,,4,B,,,,,Space,keypress(Space),,,,lyrical,----- -- ---- --- -- --- -------- ------------ ---------- --<br>- ------- ------ --------- of ------------ -- --- ---- -----<br>------ ---- ---- ------ ------ ------- --- ----- ---------<br>---- --- -------- -------- --- --- -- ------- --- --- -----<br>-- --- ------ ------- --- --- -------- ---- --------- --<br>---------- -- -------- ----------------,188747.89999997616,188747,188061.176,188075.69999992847,188077.844,188761.832,,14,of
screen,html.Screen,0_4_1_0_1_15,2021-12-10T12:46:55.101Z,,,,,,,,,,,,,,,,11,,,,,,,,,,,,,,1248.7679999046377,,response,,,4,B,,,,,Space,keypress(Space),,,,lyrical,----- -- ---- --- -- --- -------- ------------ ---------- --<br>- ------- ------ --------- -- pictographs. -- --- ---- -----<br>------ ---- ---- ------ ------ ------- --- ----- ---------<br>---- --- -------- -------- --- --- -- ------- --- --- -----<br>-- --- ------ ------- --- --- -------- ---- --------- --<br>---------- -- -------- ----------------,190011.5,190010.59999990463,188745.16,188748.19999992847,188761.832,190028.601,,15,pictographs.
screen,html.Screen,0_4_1_0_1_16,2021-12-10T12:46:55.941Z,,,,,,,,,,,,,,,,11,,,,,,,,,,,,,,822.0989999284793,,response,,,4,B,,,,,Space,keypress(Space),,,,lyrical,----- -- ---- --- -- --- -------- ------------ ---------- --<br>- ------- ------ --------- -- ------------ It --- ---- -----<br>------ ---- ---- ------ ------ ------- --- ----- ---------<br>---- --- -------- -------- --- --- -- ------- --- --- -----<br>-- --- ------ ------- --- --- -------- ---- --------- --<br>---------- -- -------- ----------------,190851.79999995232,190850.69999992847,190011.931,190011.69999992847,190028.601,190862.423,,16,It
screen,html.Screen,0_4_1_0_1_17,2021-12-10T12:46:56.957Z,,,,,,,,,,,,,,,,11,,,,,,,,,,,,,,1003.9769999761484,,response,,,4,B,,,,,Space,keypress(Space),,,,lyrical,----- -- ---- --- -- --- -------- ------------ ---------- --<br>- ------- ------ --------- -- ------------ -- has ---- -----<br>------ ---- ---- ------ ------ ------- --- ----- ---------<br>---- --- -------- -------- --- --- -- ------- --- --- -----<br>-- --- ------ ------- --- --- -------- ---- --------- --<br>---------- -- -------- ----------------,191867.19999992847,191866.39999997616,190845.751,190852.09999990463,190862.423,191879.089,,17,has
screen,html.Screen,0_4_1_0_1_18,2021-12-10T12:46:57.701Z,,,,,,,,,,,,,,,,11,,,,,,,,,,,,,,731.4109999999928,,response,,,4,B,,,,,Space,keypress(Space),,,,lyrical,----- -- ---- --- -- --- -------- ------------ ---------- --<br>- ------- ------ --------- -- ------------ -- --- been -----<br>------ ---- ---- ------ ------ ------- --- ----- ---------<br>---- --- -------- -------- --- --- -- ------- --- --- -----<br>-- --- ------ ------- --- --- -------- ---- --------- --<br>---------- -- -------- ----------------,192611.19999992847,192610.5,191862.419,191867.5,191879.089,192612.807,,18,been
screen,html.Screen,0_4_1_0_1_19,2021-12-10T12:46:58.325Z,,,,,,,,,,,,,,,,11,,,,,,,,,,,,,,621.6929999999993,,response,,,4,B,,,,,Space,keypress(Space),,,,lyrical,----- -- ---- --- -- --- -------- ------------ ---------- --<br>- ------- ------ --------- -- ------------ -- --- ---- found<br>------ ---- ---- ------ ------ ------- --- ----- ---------<br>---- --- -------- -------- --- --- -- ------- --- --- -----<br>-- --- ------ ------- --- --- -------- ---- --------- --<br>---------- -- -------- ----------------,193235.29999995232,193234.5,192596.136,192611.59999990463,192612.807,193246.127,,19,found
screen,html.Screen,0_4_1_0_1_20,2021-12-10T12:46:59.509Z,,,,,,,,,,,,,,,,11,,,,,,,,,,,,,,1172.2729999761505,,response,,,4,B,,,,,Space,keypress(Space),,,,lyrical,----- -- ---- --- -- --- -------- ------------ ---------- --<br>- ------- ------ --------- -- ------------ -- --- ---- -----<br>carved ---- ---- ------ ------ ------- --- ----- ---------<br>---- --- -------- -------- --- --- -- ------- --- --- -----<br>-- --- ------ ------- --- --- -------- ---- --------- --<br>---------- -- -------- ----------------,194419.09999990463,194418.39999997616,193229.457,193235.59999990463,193246.127,194429.913,,20,carved
screen,html.Screen,0_4_1_0_1_21,2021-12-10T12:47:00.221Z,,,,,,,,,,,,,,,,11,,,,,,,,,,,,,,700.4869999761577,,response,,,4,B,,,,,Space,keypress(Space),,,,lyrical,----- -- ---- --- -- --- -------- ------------ ---------- --<br>- ------- ------ --------- -- ------------ -- --- ---- -----<br>------ into ---- ------ ------ ------- --- ----- ---------<br>---- --- -------- -------- --- --- -- ------- --- --- -----<br>-- --- ------ ------- --- --- -------- ---- --------- --<br>---------- -- -------- ----------------,195131.09999990463,195130.39999997616,194413.242,194419.5,194429.913,195146.654,,21,into
screen,html.Screen,0_4_1_0_1_22,2021-12-10T12:47:00.861Z,,,,,,,,,,,,,,,,11,,,,,,,,,,,,,,623.6459999523067,,response,,,4,B,,,,,Space,keypress(Space),,,,lyrical,----- -- ---- --- -- --- -------- ------------ ---------- --<br>- ------- ------ --------- -- ------------ -- --- ---- -----<br>------ ---- many ------ ------ ------- --- ----- ---------<br>---- --- -------- -------- --- --- -- ------- --- --- -----<br>-- --- ------ ------- --- --- -------- ---- --------- --<br>---------- -- -------- ----------------,195771.09999990463,195770.29999995232,195129.984,195131.39999997616,195146.654,195780.253,,22,many
screen,html.Screen,0_4_1_0_1_23,2021-12-10T12:47:01.517Z,,,,,,,,,,,,,,,,11,,,,,,,,,,,,,,645.8469999046356,,response,,,4,B,,,,,Space,keypress(Space),,,,lyrical,----- -- ---- --- -- --- -------- ------------ ---------- --<br>- ------- ------ --------- -- ------------ -- --- ---- -----<br>------ ---- ---- oblong ------ ------- --- ----- ---------<br>---- --- -------- -------- --- --- -- ------- --- --- -----<br>-- --- ------ ------- --- --- -------- ---- --------- --<br>---------- -- -------- ----------------,196427.09999990463,196426.09999990463,195763.582,195771.39999997616,195780.253,196430.368,,23,oblong
screen,html.Screen,0_4_1_0_1_24,2021-12-10T12:47:02.077Z,,,,,,,,,,,,,,,,11,,,,,,,,,,,,,,555.8319999284868,,response,,,4,B,,,,,Space,keypress(Space),,,,lyrical,----- -- ---- --- -- --- -------- ------------ ---------- --<br>- ------- ------ --------- -- ------------ -- --- ---- -----<br>------ ---- ---- ------ wooden ------- --- ----- ---------<br>---- --- -------- -------- --- --- -- ------- --- --- -----<br>-- --- ------ ------- --- --- -------- ---- --------- --<br>---------- -- -------- ----------------,196987,196986.19999992847,196413.698,196427.39999997616,196430.368,196997.067,,24,wooden
screen,html.Screen,0_4_1_0_1_25,2021-12-10T12:47:02.773Z,,,,,,,,,,,,,,,,11,,,,,,,,,,,,,,685.1329999284644,,response,,,4,B,,,,,Space,keypress(Space),,,,lyrical,----- -- ---- --- -- --- -------- ------------ ---------- --<br>- ------- ------ --------- -- ------------ -- --- ---- -----<br>------ ---- ---- ------ ------ tablets --- ----- ---------<br>---- --- -------- -------- --- --- -- ------- --- --- -----<br>-- --- ------ ------- --- --- -------- ---- --------- --<br>---------- -- -------- ----------------,197683.09999990463,197682.19999992847,196980.398,196987.29999995232,196997.067,197697.425,,25,tablets
screen,html.Screen,0_4_1_0_1_26,2021-12-10T12:47:03.325Z,,,,,,,,,,,,,,,,11,,,,,,,,,,,,,,536.8749999523279,,response,,,4,B,,,,,Space,keypress(Space),,,,lyrical,----- -- ---- --- -- --- -------- ------------ ---------- --<br>- ------- ------ --------- -- ------------ -- --- ---- -----<br>------ ---- ---- ------ ------ ------- and ----- ---------<br>---- --- -------- -------- --- --- -- ------- --- --- -----<br>-- --- ------ ------- --- --- -------- ---- --------- --<br>---------- -- -------- ----------------,198235.19999992847,198234.29999995232,197680.754,197683.39999997616,197697.425,198247.507,,26,and
screen,html.Screen,0_4_1_0_1_27,2021-12-10T12:47:03.861Z,,,,,,,,,,,,,,,,11,,,,,,,,,,,,,,523.0929999046202,,response,,,4,B,,,,,Space,keypress(Space),,,,lyrical,----- -- ---- --- -- --- -------- ------------ ---------- --<br>- ------- ------ --------- -- ------------ -- --- ---- -----<br>------ ---- ---- ------ ------ ------- --- other ---------<br>---- --- -------- -------- --- --- -- ------- --- --- -----<br>-- --- ------ ------- --- --- -------- ---- --------- --<br>---------- -- -------- ----------------,198771.39999997616,198770.59999990463,198230.837,198235.5,198247.507,198780.916,,27,other
screen,html.Screen,0_4_1_0_1_28,2021-12-10T12:47:04.565Z,,,,,,,,,,,,,,,,11,,,,,,,,,,,,,,693.1839999046351,,response,,,4,B,,,,,Space,keypress(Space),,,,lyrical,----- -- ---- --- -- --- -------- ------------ ---------- --<br>- ------- ------ --------- -- ------------ -- --- ---- -----<br>------ ---- ---- ------ ------ ------- --- ----- artifacts<br>---- --- -------- -------- --- --- -- ------- --- --- -----<br>-- --- ------ ------- --- --- -------- ---- --------- --<br>---------- -- -------- ----------------,199475,199474.09999990463,198764.246,198771.59999990463,198780.916,199481.118,,28,artifacts
screen,html.Screen,0_4_1_0_1_29,2021-12-10T12:47:05.132Z,,,,,,,,,,,,,,,,11,,,,,,,,,,,,,,560.9819999046449,,response,,,4,B,,,,,Space,keypress(Space),,,,lyrical,----- -- ---- --- -- --- -------- ------------ ---------- --<br>- ------- ------ --------- -- ------------ -- --- ---- -----<br>------ ---- ---- ------ ------ ------- --- ----- ---------<br>from --- -------- -------- --- --- -- ------- --- --- -----<br>-- --- ------ ------- --- --- -------- ---- --------- --<br>---------- -- -------- ----------------,200042.89999997616,200042.09999990463,199464.448,199475.29999995232,199481.118,200047.94,,29,from
screen,html.Screen,0_4_1_0_1_30,2021-12-10T12:47:05.540Z,,,,,,,,,,,,,,,,11,,,,,,,,,,,,,,402.15999990463024,,response,,,4,B,,,,,Space,keypress(Space),,,,lyrical,----- -- ---- --- -- --- -------- ------------ ---------- --<br>- ------- ------ --------- -- ------------ -- --- ---- -----<br>------ ---- ---- ------ ------ ------- --- ----- ---------<br>---- the -------- -------- --- --- -- ------- --- --- -----<br>-- --- ------ ------- --- --- -------- ---- --------- --<br>---------- -- -------- ----------------,200450.89999997616,200450.09999990463,200031.27,200043.09999990463,200047.94,200464.724,,30,the
screen,html.Screen,0_4_1_0_1_31,2021-12-10T12:47:05.924Z,,,,,,,,,,,,,,,,11,,,,,,,,,,,,,,369.2760000000126,,response,,,4,B,,,,,Space,keypress(Space),,,,lyrical,----- -- ---- --- -- --- -------- ------------ ---------- --<br>- ------- ------ --------- -- ------------ -- --- ---- -----<br>------ ---- ---- ------ ------ ------- --- ----- ---------<br>---- --- island's -------- --- --- -- ------- --- --- -----<br>-- --- ------ ------- --- --- -------- ---- --------- --<br>---------- -- -------- ----------------,200834.79999995232,200834,200448.054,200451.19999992847,200464.724,200848.292,,31,island's
screen,html.Screen,0_4_1_0_1_32,2021-12-10T12:47:06.436Z,,,,,,,,,,,,,,,,11,,,,,,,,,,,,,,497.6079999761714,,response,,,4,B,,,,,Space,keypress(Space),,,,lyrical,----- -- ---- --- -- --- -------- ------------ ---------- --<br>- ------- ------ --------- -- ------------ -- --- ---- -----<br>------ ---- ---- ------ ------ ------- --- ----- ---------<br>---- --- -------- history. --- --- -- ------- --- --- -----<br>-- --- ------ ------- --- --- -------- ---- --------- --<br>---------- -- -------- ----------------,201346.69999992847,201345.89999997616,200831.62,200835.09999990463,200848.292,201348.325,,32,history.
screen,html.Screen,0_4_1_0_1_33,2021-12-10T12:47:07.100Z,,,,,,,,,,,,,,,,11,,,,,,,,,,,,,,661.6749999999884,,response,,,4,B,,,,,Space,keypress(Space),,,,lyrical,----- -- ---- --- -- --- -------- ------------ ---------- --<br>- ------- ------ --------- -- ------------ -- --- ---- -----<br>------ ---- ---- ------ ------ ------- --- ----- ---------<br>---- --- -------- -------- The --- -- ------- --- --- -----<br>-- --- ------ ------- --- --- -------- ---- --------- --<br>---------- -- -------- ----------------,202010.69999992847,202010,201331.655,201347,201348.325,202014.974,,33,The
screen,html.Screen,0_4_1_0_1_34,2021-12-10T12:47:07.716Z,,,,,,,,,,,,,,,,11,,,,,,,,,,,,,,610.9259999761707,,response,,,4,B,,,,,Space,keypress(Space),,,,lyrical,----- -- ---- --- -- --- -------- ------------ ---------- --<br>- ------- ------ --------- -- ------------ -- --- ---- -----<br>------ ---- ---- ------ ------ ------- --- ----- ---------<br>---- --- -------- -------- --- art -- ------- --- --- -----<br>-- --- ------ ------- --- --- -------- ---- --------- --<br>---------- -- -------- ----------------,202626.69999992847,202625.89999997616,201998.306,202011,202014.974,202632.1,,34,art
screen,html.Screen,0_4_1_0_1_35,2021-12-10T12:47:08.236Z,,,,,,,,,,,,,,,,11,,,,,,,,,,,,,,513.6999999523105,,response,,,4,B,,,,,Space,keypress(Space),,,,lyrical,----- -- ---- --- -- --- -------- ------------ ---------- --<br>- ------- ------ --------- -- ------------ -- --- ---- -----<br>------ ---- ---- ------ ------ ------- --- ----- ---------<br>---- --- -------- -------- --- --- of ------- --- --- -----<br>-- --- ------ ------- --- --- -------- ---- --------- --<br>---------- -- -------- ----------------,203146.69999992847,203145.79999995232,202615.428,202626.89999997616,202632.1,203148.678,,35,of
screen,html.Screen,0_4_1_0_1_36,2021-12-10T12:47:08.764Z,,,,,,,,,,,,,,,,11,,,,,,,,,,,,,,525.2219999761437,,response,,,4,B,,,,,Space,keypress(Space),,,,lyrical,----- -- ---- --- -- --- -------- ------------ ---------- --<br>- ------- ------ --------- -- ------------ -- --- ---- -----<br>------ ---- ---- ------ ------ ------- --- ----- ---------<br>---- --- -------- -------- --- --- -- writing --- --- -----<br>-- --- ------ ------- --- --- -------- ---- --------- --<br>---------- -- -------- ----------------,203674.69999992847,203673.89999997616,203132.009,203146.89999997616,203148.678,203682.222,,36,writing
screen,html.Screen,0_4_1_0_1_37,2021-12-10T12:47:09.260Z,,,,,,,,,,,,,,,,11,,,,,,,,,,,,,,487.57799995230744,,response,,,4,B,,,,,Space,keypress(Space),,,,lyrical,----- -- ---- --- -- --- -------- ------------ ---------- --<br>- ------- ------ --------- -- ------------ -- --- ---- -----<br>------ ---- ---- ------ ------ ------- --- ----- ---------<br>---- --- -------- -------- --- --- -- ------- was --- -----<br>-- --- ------ ------- --- --- -------- ---- --------- --<br>---------- -- -------- ----------------,204170.69999992847,204169.79999995232,203665.552,203675,203682.222,204182.5,,37,was
screen,html.Screen,0_4_1_0_1_38,2021-12-10T12:47:09.772Z,,,,,,,,,,,,,,,,11,,,,,,,,,,,,,,499.2999999523163,,response,,,4,B,,,,,Space,keypress(Space),,,,lyrical,----- -- ---- --- -- --- -------- ------------ ---------- --<br>- ------- ------ --------- -- ------------ -- --- ---- -----<br>------ ---- ---- ------ ------ ------- --- ----- ---------<br>---- --- -------- -------- --- --- -- ------- --- not -----<br>-- --- ------ ------- --- --- -------- ---- --------- --<br>---------- -- -------- ----------------,204682.69999992847,204681.79999995232,204165.828,204170.89999997616,204182.5,204699.165,,38,not
screen,html.Screen,0_4_1_0_1_39,2021-12-10T12:47:10.268Z,,,,,,,,,,,,,,,,11,,,,,,,,,,,,,,478.63499995230814,,response,,,4,B,,,,,Space,keypress(Space),,,,lyrical,----- -- ---- --- -- --- -------- ------------ ---------- --<br>- ------- ------ --------- -- ------------ -- --- ---- -----<br>------ ---- ---- ------ ------ ------- --- ----- ---------<br>---- --- -------- -------- --- --- -- ------- --- --- known<br>-- --- ------ ------- --- --- -------- ---- --------- --<br>---------- -- -------- ----------------,205178.59999990463,205177.79999995232,204682.495,204682.89999997616,204699.165,205182.71,,39,known
screen,html.Screen,0_4_1_0_1_40,2021-12-10T12:47:10.924Z,,,,,,,,,,,,,,,,11,,,,,,,,,,,,,,650.9899999284826,,response,,,4,B,,,,,Space,keypress(Space),,,,lyrical,----- -- ---- --- -- --- -------- ------------ ---------- --<br>- ------- ------ --------- -- ------------ -- --- ---- -----<br>------ ---- ---- ------ ------ ------- --- ----- ---------<br>---- --- -------- -------- --- --- -- ------- --- --- -----<br>in --- ------ ------- --- --- -------- ---- --------- --<br>---------- -- -------- ----------------,205834.79999995232,205833.69999992847,205166.039,205178.89999997616,205182.71,205849.474,,40,in
screen,html.Screen,0_4_1_0_1_41,2021-12-10T12:47:11.412Z,,,,,,,,,,,,,,,,11,,,,,,,,,,,,,,472.225999928487,,response,,,4,B,,,,,Space,keypress(Space),,,,lyrical,----- -- ---- --- -- --- -------- ------------ ---------- --<br>- ------- ------ --------- -- ------------ -- --- ---- -----<br>------ ---- ---- ------ ------ ------- --- ----- ---------<br>---- --- -------- -------- --- --- -- ------- --- --- -----<br>-- any ------ ------- --- --- -------- ---- --------- --<br>---------- -- -------- ----------------,206322.5,206321.69999992847,205832.804,205835,205849.474,206333.017,,41,any
screen,html.Screen,0_4_1_0_1_42,2021-12-10T12:47:11.924Z,,,,,,,,,,,,,,,,11,,,,,,,,,,,,,,500.6829999284819,,response,,,4,B,,,,,Space,keypress(Space),,,,lyrical,----- -- ---- --- -- --- -------- ------------ ---------- --<br>- ------- ------ --------- -- ------------ -- --- ---- -----<br>------ ---- ---- ------ ------ ------- --- ----- ---------<br>---- --- -------- -------- --- --- -- ------- --- --- -----<br>-- --- nearby ------- --- --- -------- ---- --------- --<br>---------- -- -------- ----------------,206834.59999990463,206833.69999992847,206316.346,206322.79999995232,206333.017,206849.749,,42,nearby
screen,html.Screen,0_4_1_0_1_43,2021-12-10T12:47:12.308Z,,,,,,,,,,,,,,,,11,,,,,,,,,,,,,,367.9509999284637,,response,,,4,B,,,,,Space,keypress(Space),,,,lyrical,----- -- ---- --- -- --- -------- ------------ ---------- --<br>- ------- ------ --------- -- ------------ -- --- ---- -----<br>------ ---- ---- ------ ------ ------- --- ----- ---------<br>---- --- -------- -------- --- --- -- ------- --- --- -----<br>-- --- ------ islands --- --- -------- ---- --------- --<br>---------- -- -------- ----------------,207218.5,207217.69999992847,206833.079,206834.89999997616,206849.749,207233.2,,43,islands
screen,html.Screen,0_4_1_0_1_44,2021-12-10T12:47:12.660Z,,,,,,,,,,,,,,,,11,,,,,,,,,,,,,,336.4999999284628,,response,,,4,B,,,,,Space,keypress(Space),,,,lyrical,----- -- ---- --- -- --- -------- ------------ ---------- --<br>- ------- ------ --------- -- ------------ -- --- ---- -----<br>------ ---- ---- ------ ------ ------- --- ----- ---------<br>---- --- -------- -------- --- --- -- ------- --- --- -----<br>-- --- ------ ------- and --- -------- ---- --------- --<br>---------- -- -------- ----------------,207570.59999990463,207569.69999992847,207216.53,207218.69999992847,207233.2,207583.28,,44,and
screen,html.Screen,0_4_1_0_1_45,2021-12-10T12:47:12.980Z,,,,,,,,,,,,,,,,11,,,,,,,,,,,,,,306.31999990463373,,response,,,4,B,,,,,Space,keypress(Space),,,,lyrical,----- -- ---- --- -- --- -------- ------------ ---------- --<br>- ------- ------ --------- -- ------------ -- --- ---- -----<br>------ ---- ---- ------ ------ ------- --- ----- ---------<br>---- --- -------- -------- --- --- -- ------- --- --- -----<br>-- --- ------ ------- --- the -------- ---- --------- --<br>---------- -- -------- ----------------,207890.39999997616,207889.59999990463,207566.61,207570.89999997616,207583.28,207900.039,,45,the
screen,html.Screen,0_4_1_0_1_46,2021-12-10T12:47:13.236Z,,,,,,,,,,,,,,,,11,,,,,,,,,,,,,,245.46100000001024,,response,,,4,B,,,,,Space,keypress(Space),,,,lyrical,----- -- ---- --- -- --- -------- ------------ ---------- --<br>- ------- ------ --------- -- ------------ -- --- ---- -----<br>------ ---- ---- ------ ------ ------- --- ----- ---------<br>---- --- -------- -------- --- --- -- ------- --- --- -----<br>-- --- ------ ------- --- --- script's ---- --------- --<br>---------- -- -------- ----------------,208146.39999997616,208145.5,207883.369,207890.79999995232,207900.039,208150.112,,46,script's
screen,html.Screen,0_4_1_0_1_47,2021-12-10T12:47:13.604Z,,,,,,,,,,,,,,,,11,,,,,,,,,,,,,,363.68799995232257,,response,,,4,B,,,,,Space,keypress(Space),,,,lyrical,----- -- ---- --- -- --- -------- ------------ ---------- --<br>- ------- ------ --------- -- ------------ -- --- ---- -----<br>------ ---- ---- ------ ------ ------- --- ----- ---------<br>---- --- -------- -------- --- --- -- ------- --- --- -----<br>-- --- ------ ------- --- --- -------- mere --------- --<br>---------- -- -------- ----------------,208514.79999995232,208513.79999995232,208133.442,208146.59999990463,208150.112,208516.869,,47,mere
screen,html.Screen,0_4_1_0_1_48,2021-12-10T12:47:14.132Z,,,,,,,,,,,,,,,,11,,,,,,,,,,,,,,525.130999999994,,response,,,4,B,,,,,Space,keypress(Space),,,,lyrical,----- -- ---- --- -- --- -------- ------------ ---------- --<br>- ------- ------ --------- -- ------------ -- --- ---- -----<br>------ ---- ---- ------ ------ ------- --- ----- ---------<br>---- --- -------- -------- --- --- -- ------- --- --- -----<br>-- --- ------ ------- --- --- -------- ---- existence --<br>---------- -- -------- ----------------,209042.79999995232,209042,208500.199,208515.09999990463,208516.869,209050.131,,48,existence
screen,html.Screen,0_4_1_0_1_49,2021-12-10T12:47:14.532Z,,,,,,,,,,,,,,,,11,,,,,,,,,,,,,,391.4689999046386,,response,,,4,B,,,,,Space,keypress(Space),,,,lyrical,----- -- ---- --- -- --- -------- ------------ ---------- --<br>- ------- ------ --------- -- ------------ -- --- ---- -----<br>------ ---- ---- ------ ------ ------- --- ----- ---------<br>---- --- -------- -------- --- --- -- ------- --- --- -----<br>-- --- ------ ------- --- --- -------- ---- --------- is<br>---------- -- -------- ----------------,209442.29999995232,209441.59999990463,209033.464,209043,209050.131,209450.466,,49,is
screen,html.Screen,0_4_1_0_1_50,2021-12-10T12:47:14.932Z,,,,,,,,,,,,,,,,11,,,,,,,,,,,,,,391.0340000000142,,response,,,4,B,,,,,Space,keypress(Space),,,,lyrical,----- -- ---- --- -- --- -------- ------------ ---------- --<br>- ------- ------ --------- -- ------------ -- --- ---- -----<br>------ ---- ---- ------ ------ ------- --- ----- ---------<br>---- --- -------- -------- --- --- -- ------- --- --- -----<br>-- --- ------ ------- --- --- -------- ---- --------- --<br>sufficient -- -------- ----------------,209842.29999995232,209841.5,209433.795,209442.59999990463,209450.466,209850.581,,50,sufficient
