sender,sender_type,sender_id,timestamp,meta,,Blues,Classical,Country,Dance,Electronic,Folk,Gospel,Hip-Hop,Jazz,Latin,Musical/Film,New-age,Pop,Provo_ID,R&B,Rap,Reggae,Religious,Rock,Soul,Swing,Traditional,age,artist_name,correct,correctResponse,distraction,duration,education,ended_on,familiarity,gender,item,list,music_frequency,offensiveness,pleasantness,preference,response,response_action,snippet_file,song_name,song_rating,sound,text,time_commit,time_end,time_render,time_run,time_show,time_switch,url,word,word_ID
Instructions,html.Page,0_0,2021-11-04T12:02:51.291Z,"{""labjs_version"":""20.2.3"",""labjs_build"":{""flavor"":""production"",""commit"":""7ea907d66ca8aeef8054924ca5d82ffbe11e34e5""},""location"":""https://run.pavlovia.org/mvasilev/lab_music_d/"",""userAgent"":""Mozilla/5.0 (Windows NT 6.1; Win64; x64) AppleWebKit/537.36 (KHTML, like Gecko) Chrome/95.0.4638.54 Safari/537.36"",""platform"":""Win32"",""language"":""en-US"",""locale"":""en-US"",""timeZone"":""Europe/London"",""timezoneOffset"":0,""screen_width"":1920,""screen_height"":1080,""scroll_width"":1920,""scroll_height"":959,""window_innerWidth"":1920,""window_innerHeight"":1007,""devicePixelRatio"":1}",,,,,,,,,,,,,,,,,,,,,,,,,,,,,29571.586,,form submission,,,,,,,,,,,,,,,,40094.79999999888,40094,10505.749,10518.900000000373,10522.414,40102.997,{},,
Headphones,html.Page,0_1,2021-11-04T12:02:55.764Z,,,,,,,,,,,,,,,,,,,,,,,,,,,,,,4464.002999999997,,form submission,,,,,,,,,,,,,,,,44567.29999999888,44567,40086.333,40095.29999999888,40102.997,44570.693,,,
Holding screen,html.Screen,0_2_0_0,2021-11-04T12:03:05.754Z,,,,,,,,,,,,,,,,,,,,,,,,,,,,,,10016.126000000004,,timeout,,,,,,,,,,,,,,,,54557.29999999888,54553.489,44554.028,44567.699999999255,44570.693,54586.819,,,
screen,html.Screen,0_2_0_1_0,2021-11-04T12:03:07.073Z,,,,,,,,,,,,,,,,53,,,,,,,,,,,,,,1288.9809999988793,,response,,,99,,,,,,Space,keypress(Space),,,,,When -- ----- -- ------ - ------- --- ----------<br>------------- ------ ------ ---- ---- ------- ----- -- ----<br>-------- ------- -- ---------- --- - --- ----- ----- ----<br>---- --- --- ----- --- ---- ---- ------- ----- ---- -------<br>--- --- -- ----- -- --- ---- -- --- ---- -- ------ ------<br>--- ----- -- ----,55876.79999999888,55875.79999999888,54553.489,54557.699999999255,54586.819,55886.735,,0,When
screen,html.Screen,0_2_0_1_1,2021-11-04T12:03:07.688Z,,,,,,,,,,,,,,,,53,,,,,,,,,,,,,,604.7649999999994,,response,,,99,,,,,,Space,keypress(Space),,,,,---- it ----- -- ------ - ------- --- ----------<br>------------- ------ ------ ---- ---- ------- ----- -- ----<br>-------- ------- -- ---------- --- - --- ----- ----- ----<br>---- --- --- ----- --- ---- ---- ------- ----- ---- -------<br>--- --- -- ----- -- --- ---- -- --- ---- -- ------ ------<br>--- ----- -- ----,56492.09999999963,56491.5,55870.07,55877.09999999963,55886.735,56503.439,,1,it
screen,html.Screen,0_2_0_1_2,2021-11-04T12:03:08.208Z,,,,,,,,,,,,,,,,53,,,,,,,,,,,,,,507.96100000037404,,response,,,99,,,,,,Space,keypress(Space),,,,,---- -- comes -- ------ - ------- --- ----------<br>------------- ------ ------ ---- ---- ------- ----- -- ----<br>-------- ------- -- ---------- --- - --- ----- ----- ----<br>---- --- --- ----- --- ---- ---- ------- ----- ---- -------<br>--- --- -- ----- -- --- ---- -- --- ---- -- ------ ------<br>--- ----- -- ----,57012.09999999963,57011.40000000037,56486.774,56492.29999999888,56503.439,57020.033,,2,comes
screen,html.Screen,0_2_0_1_3,2021-11-04T12:03:08.752Z,,,,,,,,,,,,,,,,53,,,,,,,,,,,,,,535.3670000003694,,response,,,99,,,,,,Space,keypress(Space),,,,,---- -- ----- to ------ - ------- --- ----------<br>------------- ------ ------ ---- ---- ------- ----- -- ----<br>-------- ------- -- ---------- --- - --- ----- ----- ----<br>---- --- --- ----- --- ---- ---- ------- ----- ---- -------<br>--- --- -- ----- -- --- ---- -- --- ---- -- ------ ------<br>--- ----- -- ----,57556.09999999963,57555.40000000037,57003.368,57012.29999999888,57020.033,57570.089,,3,to
screen,html.Screen,0_2_0_1_4,2021-11-04T12:03:09.328Z,,,,,,,,,,,,,,,,53,,,,,,,,,,,,,,561.2109999988825,,response,,,99,,,,,,Space,keypress(Space),,,,,---- -- ----- -- having - ------- --- ----------<br>------------- ------ ------ ---- ---- ------- ----- -- ----<br>-------- ------- -- ---------- --- - --- ----- ----- ----<br>---- --- --- ----- --- ---- ---- ------- ----- ---- -------<br>--- --- -- ----- -- --- ---- -- --- ---- -- ------ ------<br>--- ----- -- ----,58132.199999999255,58131.29999999888,57553.423,57556.5,57570.089,58136.6,,4,having
screen,html.Screen,0_2_0_1_5,2021-11-04T12:03:09.800Z,,,,,,,,,,,,,,,,53,,,,,,,,,,,,,,466.800000000374,,response,,,99,,,,,,Space,keypress(Space),,,,,---- -- ----- -- ------ a ------- --- ----------<br>------------- ------ ------ ---- ---- ------- ----- -- ----<br>-------- ------- -- ---------- --- - --- ----- ----- ----<br>---- --- --- ----- --- ---- ---- ------- ----- ---- -------<br>--- --- -- ----- -- --- ---- -- --- ---- -- ------ ------<br>--- ----- -- ----,58604,58603.40000000037,58119.936,58132.40000000037,58136.6,58619.961,,5,a
screen,html.Screen,0_2_0_1_6,2021-11-04T12:03:10.320Z,,,,,,,,,,,,,,,,53,,,,,,,,,,,,,,503.33899999887944,,response,,,99,,,,,,Space,keypress(Space),,,,,---- -- ----- -- ------ - lasting --- ----------<br>------------- ------ ------ ---- ---- ------- ----- -- ----<br>-------- ------- -- ---------- --- - --- ----- ----- ----<br>---- --- --- ----- --- ---- ---- ------- ----- ---- -------<br>--- --- -- ----- -- --- ---- -- --- ---- -- ------ ------<br>--- ----- -- ----,59124,59123.29999999888,58603.296,58604.29999999888,58619.961,59136.681,,6,lasting
screen,html.Screen,0_2_0_1_7,2021-11-04T12:03:10.752Z,,,,,,,,,,,,,,,,53,,,,,,,,,,,,,,418.61899999888556,,response,,,99,,,,,,Space,keypress(Space),,,,,---- -- ----- -- ------ - ------- and ----------<br>------------- ------ ------ ---- ---- ------- ----- -- ----<br>-------- ------- -- ---------- --- - --- ----- ----- ----<br>---- --- --- ----- --- ---- ---- ------- ----- ---- -------<br>--- --- -- ----- -- --- ---- -- --- ---- -- ------ ------<br>--- ----- -- ----,59556,59555.29999999888,59120.015,59124.199999999255,59136.681,59569.873,,7,and
screen,html.Screen,0_2_0_1_8,2021-11-04T12:03:11.275Z,,,,,,,,,,,,,,,,53,,,,,,,,,,,,,,505.32699999925535,,response,,,99,,,,,,Space,keypress(Space),,,,,---- -- ----- -- ------ - ------- --- fulfilling<br>------------- ------ ------ ---- ---- ------- ----- -- ----<br>-------- ------- -- ---------- --- - --- ----- ----- ----<br>---- --- --- ----- --- ---- ---- ------- ----- ---- -------<br>--- --- -- ----- -- --- ---- -- --- ---- -- ------ ------<br>--- ----- -- ----,60076,60075.199999999255,59553.209,59556.199999999255,59569.873,60086.628,,8,fulfilling
screen,html.Screen,0_2_0_1_9,2021-11-04T12:03:11.811Z,,,,,,,,,,,,,,,,53,,,,,,,,,,,,,,524.571999999258,,response,,,99,,,,,,Space,keypress(Space),,,,,"---- -- ----- -- ------ - ------- --- ----------<br>relationship, ------ ------ ---- ---- ------- ----- -- ----<br>-------- ------- -- ---------- --- - --- ----- ----- ----<br>---- --- --- ----- --- ---- ---- ------- ----- ---- -------<br>--- --- -- ----- -- --- ---- -- --- ---- -- ------ ------<br>--- ----- -- ----",60611.79999999888,60611.199999999255,60069.962,60076.199999999255,60086.628,60619.775,,9,"relationship,"
screen,html.Screen,0_2_0_1_10,2021-11-04T12:03:12.251Z,,,,,,,,,,,,,,,,53,,,,,,,,,,,,,,431.324999999626,,response,,,99,,,,,,Space,keypress(Space),,,,,---- -- ----- -- ------ - ------- --- ----------<br>------------- common ------ ---- ---- ------- ----- -- ----<br>-------- ------- -- ---------- --- - --- ----- ----- ----<br>---- --- --- ----- --- ---- ---- ------- ----- ---- -------<br>--- --- -- ----- -- --- ---- -- --- ---- -- ------ ------<br>--- ----- -- ----,61051.90000000037,61051.09999999963,60603.111,60612.09999999963,60619.775,61053.255,,10,common
screen,html.Screen,0_2_0_1_11,2021-11-04T12:03:12.739Z,,,,,,,,,,,,,,,,53,,,,,,,,,,,,,,485.94499999925756,,response,,,99,,,,,,Space,keypress(Space),,,,,---- -- ----- -- ------ - ------- --- ----------<br>------------- ------ wisdom ---- ---- ------- ----- -- ----<br>-------- ------- -- ---------- --- - --- ----- ----- ----<br>---- --- --- ----- --- ---- ---- ------- ----- ---- -------<br>--- --- -- ----- -- --- ---- -- --- ---- -- ------ ------<br>--- ----- -- ----,61539.79999999888,61539.199999999255,61036.589,61052.09999999963,61053.255,61553.01,,11,wisdom
screen,html.Screen,0_2_0_1_12,2021-11-04T12:03:13.531Z,,,,,,,,,,,,,,,,53,,,,,,,,,,,,,,778.1899999992529,,response,,,99,,,,,,Space,keypress(Space),,,,,---- -- ----- -- ------ - ------- --- ----------<br>------------- ------ ------ says ---- ------- ----- -- ----<br>-------- ------- -- ---------- --- - --- ----- ----- ----<br>---- --- --- ----- --- ---- ---- ------- ----- ---- -------<br>--- --- -- ----- -- --- ---- -- --- ---- -- ------ ------<br>--- ----- -- ----,62331.79999999888,62331.199999999255,61536.347,61540,61553.01,62336.563,,12,says
screen,html.Screen,0_2_0_1_13,2021-11-04T12:03:14.003Z,,,,,,,,,,,,,,,,53,,,,,,,,,,,,,,466.53699999962555,,response,,,99,,,,,,Space,keypress(Space),,,,,---- -- ----- -- ------ - ------- --- ----------<br>------------- ------ ------ ---- that ------- ----- -- ----<br>-------- ------- -- ---------- --- - --- ----- ----- ----<br>---- --- --- ----- --- ---- ---- ------- ----- ---- -------<br>--- --- -- ----- -- --- ---- -- --- ---- -- ------ ------<br>--- ----- -- ----,62803.699999999255,62803.09999999963,62319.896,62332,62336.563,62819.744,,13,that
screen,html.Screen,0_2_0_1_14,2021-11-04T12:03:14.539Z,,,,,,,,,,,,,,,,53,,,,,,,,,,,,,,519.3559999996287,,response,,,99,,,,,,Space,keypress(Space),,,,,---- -- ----- -- ------ - ------- --- ----------<br>------------- ------ ------ ---- ---- feeling ----- -- ----<br>-------- ------- -- ---------- --- - --- ----- ----- ----<br>---- --- --- ----- --- ---- ---- ------- ----- ---- -------<br>--- --- -- ----- -- --- ---- -- --- ---- -- ------ ------<br>--- ----- -- ----,63339.699999999255,63339.09999999963,62803.079,62803.90000000037,62819.744,63353.026,,14,feeling
screen,html.Screen,0_2_0_1_15,2021-11-04T12:03:15.059Z,,,,,,,,,,,,,,,,53,,,,,,,,,,,,,,505.974000000002,,response,,,99,,,,,,Space,keypress(Space),,,,,---- -- ----- -- ------ - ------- --- ----------<br>------------- ------ ------ ---- ---- ------- close -- ----<br>-------- ------- -- ---------- --- - --- ----- ----- ----<br>---- --- --- ----- --- ---- ---- ------- ----- ---- -------<br>--- --- -- ----- -- --- ---- -- --- ---- -- ------ ------<br>--- ----- -- ----,63859.699999999255,63859,63336.361,63339.90000000037,63353.026,63869.671,,15,close
screen,html.Screen,0_2_0_1_16,2021-11-04T12:03:15.523Z,,,,,,,,,,,,,,,,53,,,,,,,,,,,,,,453.3289999999979,,response,,,99,,,,,,Space,keypress(Space),,,,,---- -- ----- -- ------ - ------- --- ----------<br>------------- ------ ------ ---- ---- ------- ----- to ----<br>-------- ------- -- ---------- --- - --- ----- ----- ----<br>---- --- --- ----- --- ---- ---- ------- ----- ---- -------<br>--- --- -- ----- -- --- ---- -- --- ---- -- ------ ------<br>--- ----- -- ----,64323.699999999255,64323,63853.006,63859.90000000037,63869.671,64336.375,,16,to
screen,html.Screen,0_2_0_1_17,2021-11-04T12:03:15.947Z,,,,,,,,,,,,,,,,53,,,,,,,,,,,,,,410.625,,response,,,99,,,,,,Space,keypress(Space),,,,,---- -- ----- -- ------ - ------- --- ----------<br>------------- ------ ------ ---- ---- ------- ----- -- your<br>-------- ------- -- ---------- --- - --- ----- ----- ----<br>---- --- --- ----- --- ---- ---- ------- ----- ---- -------<br>--- --- -- ----- -- --- ---- -- --- ---- -- ------ ------<br>--- ----- -- ----,64747.59999999963,64747,64319.709,64323.90000000037,64336.375,64752.954,,17,your
screen,html.Screen,0_2_0_1_18,2021-11-04T12:03:16.562Z,,,,,,,,,,,,,,,,53,,,,,,,,,,,,,,610.0460000000021,,response,,,99,,,,,,Space,keypress(Space),,,,,---- -- ----- -- ------ - ------- --- ----------<br>------------- ------ ------ ---- ---- ------- ----- -- ----<br>romantic ------- -- ---------- --- - --- ----- ----- ----<br>---- --- --- ----- --- ---- ---- ------- ----- ---- -------<br>--- --- -- ----- -- --- ---- -- --- ---- -- ------ ------<br>--- ----- -- ----,65363.59999999963,65363,64736.289,64747.79999999888,64752.954,65369.515,,18,romantic
screen,html.Screen,0_2_0_1_19,2021-11-04T12:03:17.179Z,,,,,,,,,,,,,,,,53,,,,,,,,,,,,,,609.6849999992555,,response,,,99,,,,,,Space,keypress(Space),,,,,---- -- ----- -- ------ - ------- --- ----------<br>------------- ------ ------ ---- ---- ------- ----- -- ----<br>-------- partner -- ---------- --- - --- ----- ----- ----<br>---- --- --- ----- --- ---- ---- ------- ----- ---- -------<br>--- --- -- ----- -- --- ---- -- --- ---- -- ------ ------<br>--- ----- -- ----,65979.79999999888,65979.19999999925,65352.851,65363.79999999888,65369.515,65986.284,,19,partner
screen,html.Screen,0_2_0_1_20,2021-11-04T12:03:17.802Z,,,,,,,,,,,,,,,,53,,,,,,,,,,,,,,616.6160000003729,,response,,,99,,,,,,Space,keypress(Space),,,,,---- -- ----- -- ------ - ------- --- ----------<br>------------- ------ ------ ---- ---- ------- ----- -- ----<br>-------- ------- is ---------- --- - --- ----- ----- ----<br>---- --- --- ----- --- ---- ---- ------- ----- ---- -------<br>--- --- -- ----- -- --- ---- -- --- ---- -- ------ ------<br>--- ----- -- ----,66603.59999999963,66602.90000000037,65969.618,65980,65986.284,66619.427,,20,is
screen,html.Screen,0_2_0_1_21,2021-11-04T12:03:18.386Z,,,,,,,,,,,,,,,,53,,,,,,,,,,,,,,567.3729999988864,,response,,,99,,,,,,Space,keypress(Space),,,,,---- -- ----- -- ------ - ------- --- ----------<br>------------- ------ ------ ---- ---- ------- ----- -- ----<br>-------- ------- -- paramount. --- - --- ----- ----- ----<br>---- --- --- ----- --- ---- ---- ------- ----- ---- -------<br>--- --- -- ----- -- --- ---- -- --- ---- -- ------ ------<br>--- ----- -- ----,67187.5,67186.79999999888,66602.763,66603.69999999925,66619.427,67202.885,,21,paramount.
screen,html.Screen,0_2_0_1_22,2021-11-04T12:03:19.050Z,,,,,,,,,,,,,,,,53,,,,,,,,,,,,,,647.9149999988877,,response,,,99,,,,,,Space,keypress(Space),,,,,---- -- ----- -- ------ - ------- --- ----------<br>------------- ------ ------ ---- ---- ------- ----- -- ----<br>-------- ------- -- ---------- But - --- ----- ----- ----<br>---- --- --- ----- --- ---- ---- ------- ----- ---- -------<br>--- --- -- ----- -- --- ---- -- --- ---- -- ------ ------<br>--- ----- -- ----,67851.29999999888,67850.79999999888,67186.219,67187.79999999888,67202.885,67852.779,,22,But
screen,html.Screen,0_2_0_1_23,2021-11-04T12:03:19.554Z,,,,,,,,,,,,,,,,53,,,,,,,,,,,,,,501.8209999996325,,response,,,99,,,,,,Space,keypress(Space),,,,,---- -- ----- -- ------ - ------- --- ----------<br>------------- ------ ------ ---- ---- ------- ----- -- ----<br>-------- ------- -- ---------- --- a --- ----- ----- ----<br>---- --- --- ----- --- ---- ---- ------- ----- ---- -------<br>--- --- -- ----- -- --- ---- -- --- ---- -- ------ ------<br>--- ----- -- ----,68355.09999999963,68354.59999999963,67836.114,67851.5,67852.779,68369.495,,23,a
screen,html.Screen,0_2_0_1_24,2021-11-04T12:03:20.258Z,,,,,,,,,,,,,,,,53,,,,,,,,,,,,,,689.2049999992596,,response,,,99,,,,,,Space,keypress(Space),,,,,---- -- ----- -- ------ - ------- --- ----------<br>------------- ------ ------ ---- ---- ------- ----- -- ----<br>-------- ------- -- ---------- --- - new ----- ----- ----<br>---- --- --- ----- --- ---- ---- ------- ----- ---- -------<br>--- --- -- ----- -- --- ---- -- --- ---- -- ------ ------<br>--- ----- -- ----,69059.29999999888,69058.69999999925,68352.829,68355.19999999925,68369.495,69069.394,,24,new
screen,html.Screen,0_2_0_1_25,2021-11-04T12:03:20.634Z,,,,,,,,,,,,,,,,53,,,,,,,,,,,,,,365.3059999992547,,response,,,99,,,,,,Space,keypress(Space),,,,,---- -- ----- -- ------ - ------- --- ----------<br>------------- ------ ------ ---- ---- ------- ----- -- ----<br>-------- ------- -- ---------- --- - --- study ----- ----<br>---- --- --- ----- --- ---- ---- ------- ----- ---- -------<br>--- --- -- ----- -- --- ---- -- --- ---- -- ------ ------<br>--- ----- -- ----,69435.29999999888,69434.69999999925,69052.729,69059.5,69069.394,69452.545,,25,study
screen,html.Screen,0_2_0_1_26,2021-11-04T12:03:20.978Z,,,,,,,,,,,,,,,,53,,,,,,,,,,,,,,326.0549999996292,,response,,,99,,,,,,Space,keypress(Space),,,,,---- -- ----- -- ------ - ------- --- ----------<br>------------- ------ ------ ---- ---- ------- ----- -- ----<br>-------- ------- -- ---------- --- - --- ----- finds ----<br>---- --- --- ----- --- ---- ---- ------- ----- ---- -------<br>--- --- -- ----- -- --- ---- -- --- ---- -- ------ ------<br>--- ----- -- ----,69779.09999999963,69778.59999999963,69435.882,69435.5,69452.545,69786.063,,26,finds
screen,html.Screen,0_2_0_1_27,2021-11-04T12:03:21.354Z,,,,,,,,,,,,,,,,53,,,,,,,,,,,,,,368.6369999992603,,response,,,99,,,,,,Space,keypress(Space),,,,,---- -- ----- -- ------ - ------- --- ----------<br>------------- ------ ------ ---- ---- ------- ----- -- ----<br>-------- ------- -- ---------- --- - --- ----- ----- that<br>---- --- --- ----- --- ---- ---- ------- ----- ---- -------<br>--- --- -- ----- -- --- ---- -- --- ---- -- ------ ------<br>--- ----- -- ----,70155.29999999888,70154.69999999925,69769.397,69779.40000000037,69786.063,70169.273,,27,that
screen,html.Screen,0_2_0_1_28,2021-11-04T12:03:21.770Z,,,,,,,,,,,,,,,,53,,,,,,,,,,,,,,401.22699999999895,,response,,,99,,,,,,Space,keypress(Space),,,,,---- -- ----- -- ------ - ------- --- ----------<br>------------- ------ ------ ---- ---- ------- ----- -- ----<br>-------- ------- -- ---------- --- - --- ----- ----- ----<br>it's --- --- ----- --- ---- ---- ------- ----- ---- -------<br>--- --- -- ----- -- --- ---- -- --- ---- -- ------ ------<br>--- ----- -- ----,70571.19999999925,70570.5,70152.609,70155.5,70169.273,70585.942,,28,it's
screen,html.Screen,0_2_0_1_29,2021-11-04T12:03:22.186Z,,,,,,,,,,,,,,,,53,,,,,,,,,,,,,,400.657999999632,,response,,,99,,,,,,Space,keypress(Space),,,,,---- -- ----- -- ------ - ------- --- ----------<br>------------- ------ ------ ---- ---- ------- ----- -- ----<br>-------- ------- -- ---------- --- - --- ----- ----- ----<br>---- not --- ----- --- ---- ---- ------- ----- ---- -------<br>--- --- -- ----- -- --- ---- -- --- ---- -- ------ ------<br>--- ----- -- ----,70987.19999999925,70986.59999999963,70569.277,70571.29999999888,70585.942,71002.67,,29,not
screen,html.Screen,0_2_0_1_30,2021-11-04T12:03:22.602Z,,,,,,,,,,,,,,,,53,,,,,,,,,,,,,,399.9299999996292,,response,,,99,,,,,,Space,keypress(Space),,,,,---- -- ----- -- ------ - ------- --- ----------<br>------------- ------ ------ ---- ---- ------- ----- -- ----<br>-------- ------- -- ---------- --- - --- ----- ----- ----<br>---- --- how ----- --- ---- ---- ------- ----- ---- -------<br>--- --- -- ----- -- --- ---- -- --- ---- -- ------ ------<br>--- ----- -- ----,71403.19999999925,71402.59999999963,70986.004,70987.5,71002.67,71419.254,,30,how
screen,html.Screen,0_2_0_1_31,2021-11-04T12:03:23.034Z,,,,,,,,,,,,,,,,53,,,,,,,,,,,,,,415.34599999962666,,response,,,99,,,,,,Space,keypress(Space),,,,,---- -- ----- -- ------ - ------- --- ----------<br>------------- ------ ------ ---- ---- ------- ----- -- ----<br>-------- ------- -- ---------- --- - --- ----- ----- ----<br>---- --- --- close --- ---- ---- ------- ----- ---- -------<br>--- --- -- ----- -- --- ---- -- --- ---- -- ------ ------<br>--- ----- -- ----,71835.19999999925,71834.59999999963,71402.589,71403.40000000037,71419.254,71835.977,,31,close
screen,html.Screen,0_2_0_1_32,2021-11-04T12:03:23.434Z,,,,,,,,,,,,,,,,53,,,,,,,,,,,,,,398.52300000000105,,response,,,99,,,,,,Space,keypress(Space),,,,,---- -- ----- -- ------ - ------- --- ----------<br>------------- ------ ------ ---- ---- ------- ----- -- ----<br>-------- ------- -- ---------- --- - --- ----- ----- ----<br>---- --- --- ----- you ---- ---- ------- ----- ---- -------<br>--- --- -- ----- -- --- ---- -- --- ---- -- ------ ------<br>--- ----- -- ----,72235,72234.5,71819.311,71835.29999999888,71835.977,72235.845,,32,you
screen,html.Screen,0_2_0_1_33,2021-11-04T12:03:23.858Z,,,,,,,,,,,,,,,,53,,,,,,,,,,,,,,422.65499999999884,,response,,,99,,,,,,Space,keypress(Space),,,,,---- -- ----- -- ------ - ------- --- ----------<br>------------- ------ ------ ---- ---- ------- ----- -- ----<br>-------- ------- -- ---------- --- - --- ----- ----- ----<br>---- --- --- ----- --- feel ---- ------- ----- ---- -------<br>--- --- -- ----- -- --- ---- -- --- ---- -- ------ ------<br>--- ----- -- ----,72659,72658.5,72219.181,72235.19999999925,72235.845,72669.244,,33,feel
screen,html.Screen,0_2_0_1_34,2021-11-04T12:03:24.314Z,,,,,,,,,,,,,,,,53,,,,,,,,,,,,,,445.25599999999395,,response,,,99,,,,,,Space,keypress(Space),,,,,---- -- ----- -- ------ - ------- --- ----------<br>------------- ------ ------ ---- ---- ------- ----- -- ----<br>-------- ------- -- ---------- --- - --- ----- ----- ----<br>---- --- --- ----- --- ---- that ------- ----- ---- -------<br>--- --- -- ----- -- --- ---- -- --- ---- -- ------ ------<br>--- ----- -- ----,73115.29999999888,73114.5,72652.578,72659.19999999925,72669.244,73119.235,,34,that
screen,html.Screen,0_2_0_1_35,2021-11-04T12:03:24.914Z,,,,,,,,,,,,,,,,53,,,,,,,,,,,,,,595.165000000372,,response,,,99,,,,,,Space,keypress(Space),,,,,---- -- ----- -- ------ - ------- --- ----------<br>------------- ------ ------ ---- ---- ------- ----- -- ----<br>-------- ------- -- ---------- --- - --- ----- ----- ----<br>---- --- --- ----- --- ---- ---- matters ----- ---- -------<br>--- --- -- ----- -- --- ---- -- --- ---- -- ------ ------<br>--- ----- -- ----,73715.09999999963,73714.40000000037,73102.569,73115.5,73119.235,73719.065,,35,matters
screen,html.Screen,0_2_0_1_36,2021-11-04T12:03:25.378Z,,,,,,,,,,,,,,,,53,,,,,,,,,,,,,,459.3350000003702,,response,,,99,,,,,,Space,keypress(Space),,,,,"---- -- ----- -- ------ - ------- --- ----------<br>------------- ------ ------ ---- ---- ------- ----- -- ----<br>-------- ------- -- ---------- --- - --- ----- ----- ----<br>---- --- --- ----- --- ---- ---- ------- most, ---- -------<br>--- --- -- ----- -- --- ---- -- --- ---- -- ------ ------<br>--- ----- -- ----",74179,74178.40000000037,73702.401,73715.29999999888,73719.065,74185.77,,36,"most,"
screen,html.Screen,0_2_0_1_37,2021-11-04T12:03:25.834Z,,,,,,,,,,,,,,,,53,,,,,,,,,,,,,,448.63000000036845,,response,,,99,,,,,,Space,keypress(Space),,,,,---- -- ----- -- ------ - ------- --- ----------<br>------------- ------ ------ ---- ---- ------- ----- -- ----<br>-------- ------- -- ---------- --- - --- ----- ----- ----<br>---- --- --- ----- --- ---- ---- ------- ----- it's -------<br>--- --- -- ----- -- --- ---- -- --- ---- -- ------ ------<br>--- ----- -- ----,74635,74634.40000000037,74169.105,74179.19999999925,74185.77,74652.413,,37,it's
screen,html.Screen,0_2_0_1_38,2021-11-04T12:03:26.474Z,,,,,,,,,,,,,,,,53,,,,,,,,,,,,,,621.9870000003721,,response,,,99,,,,,,Space,keypress(Space),,,,,---- -- ----- -- ------ - ------- --- ----------<br>------------- ------ ------ ---- ---- ------- ----- -- ----<br>-------- ------- -- ---------- --- - --- ----- ----- ----<br>---- --- --- ----- --- ---- ---- ------- ----- ---- whether<br>--- --- -- ----- -- --- ---- -- --- ---- -- ------ ------<br>--- ----- -- ----,75274.90000000037,75274.40000000037,74635.748,74635.19999999925,74652.413,75285.792,,38,whether
screen,html.Screen,0_2_0_1_39,2021-11-04T12:03:26.858Z,,,,,,,,,,,,,,,,53,,,,,,,,,,,,,,372.50799999888113,,response,,,99,,,,,,Space,keypress(Space),,,,,---- -- ----- -- ------ - ------- --- ----------<br>------------- ------ ------ ---- ---- ------- ----- -- ----<br>-------- ------- -- ---------- --- - --- ----- ----- ----<br>---- --- --- ----- --- ---- ---- ------- ----- ---- -------<br>you --- -- ----- -- --- ---- -- --- ---- -- ------ ------<br>--- ----- -- ----,75658.90000000037,75658.29999999888,75269.126,75275.19999999925,75285.792,75669.052,,39,you
screen,html.Screen,0_2_0_1_40,2021-11-04T12:03:27.274Z,,,,,,,,,,,,,,,,53,,,,,,,,,,,,,,405.54799999963143,,response,,,99,,,,,,Space,keypress(Space),,,,,---- -- ----- -- ------ - ------- --- ----------<br>------------- ------ ------ ---- ---- ------- ----- -- ----<br>-------- ------- -- ---------- --- - --- ----- ----- ----<br>---- --- --- ----- --- ---- ---- ------- ----- ---- -------<br>--- are -- ----- -- --- ---- -- --- ---- -- ------ ------<br>--- ----- -- ----,76075.19999999925,76074.59999999963,75652.387,75659,75669.052,76085.635,,40,are
screen,html.Screen,0_2_0_1_41,2021-11-04T12:03:27.762Z,,,,,,,,,,,,,,,,53,,,,,,,,,,,,,,476.66499999888765,,response,,,99,,,,,,Space,keypress(Space),,,,,---- -- ----- -- ------ - ------- --- ----------<br>------------- ------ ------ ---- ---- ------- ----- -- ----<br>-------- ------- -- ---------- --- - --- ----- ----- ----<br>---- --- --- ----- --- ---- ---- ------- ----- ---- -------<br>--- --- as ----- -- --- ---- -- --- ---- -- ------ ------<br>--- ----- -- ----,76563,76562.29999999888,76068.971,76075.40000000037,76085.635,76568.957,,41,as
screen,html.Screen,0_2_0_1_42,2021-11-04T12:03:28.186Z,,,,,,,,,,,,,,,,53,,,,,,,,,,,,,,417.24299999926006,,response,,,99,,,,,,Space,keypress(Space),,,,,---- -- ----- -- ------ - ------- --- ----------<br>------------- ------ ------ ---- ---- ------- ----- -- ----<br>-------- ------- -- ---------- --- - --- ----- ----- ----<br>---- --- --- ----- --- ---- ---- ------- ----- ---- -------<br>--- --- -- close -- --- ---- -- --- ---- -- ------ ------<br>--- ----- -- ----,76986.90000000037,76986.19999999925,76552.292,76563.19999999925,76568.957,77002.399,,42,close
screen,html.Screen,0_2_0_1_43,2021-11-04T12:03:28.514Z,,,,,,,,,,,,,,,,53,,,,,,,,,,,,,,311.9009999988775,,response,,,99,,,,,,Space,keypress(Space),,,,,---- -- ----- -- ------ - ------- --- ----------<br>------------- ------ ------ ---- ---- ------- ----- -- ----<br>-------- ------- -- ---------- --- - --- ----- ----- ----<br>---- --- --- ----- --- ---- ---- ------- ----- ---- -------<br>--- --- -- ----- as --- ---- -- --- ---- -- ------ ------<br>--- ----- -- ----,77314.79999999888,77314.29999999888,76985.732,76987,77002.399,77318.965,,43,as
screen,html.Screen,0_2_0_1_44,2021-11-04T12:03:28.874Z,,,,,,,,,,,,,,,,53,,,,,,,,,,,,,,355.23499999925843,,response,,,99,,,,,,Space,keypress(Space),,,,,---- -- ----- -- ------ - ------- --- ----------<br>------------- ------ ------ ---- ---- ------- ----- -- ----<br>-------- ------- -- ---------- --- - --- ----- ----- ----<br>---- --- --- ----- --- ---- ---- ------- ----- ---- -------<br>--- --- -- ----- -- you ---- -- --- ---- -- ------ ------<br>--- ----- -- ----,77674.79999999888,77674.19999999925,77302.3,77315,77318.965,77685.595,,44,you
screen,html.Screen,0_2_0_1_45,2021-11-04T12:03:29.242Z,,,,,,,,,,,,,,,,53,,,,,,,,,,,,,,356.70499999888125,,response,,,99,,,,,,Space,keypress(Space),,,,,---- -- ----- -- ------ - ------- --- ----------<br>------------- ------ ------ ---- ---- ------- ----- -- ----<br>-------- ------- -- ---------- --- - --- ----- ----- ----<br>---- --- --- ----- --- ---- ---- ------- ----- ---- -------<br>--- --- -- ----- -- --- want -- --- ---- -- ------ ------<br>--- ----- -- ----,78042.79999999888,78042.29999999888,77668.93,77675,77685.595,78052.27,,45,want
screen,html.Screen,0_2_0_1_46,2021-11-04T12:03:29.594Z,,,,,,,,,,,,,,,,53,,,,,,,,,,,,,,341.92999999925087,,response,,,99,,,,,,Space,keypress(Space),,,,,---- -- ----- -- ------ - ------- --- ----------<br>------------- ------ ------ ---- ---- ------- ----- -- ----<br>-------- ------- -- ---------- --- - --- ----- ----- ----<br>---- --- --- ----- --- ---- ---- ------- ----- ---- -------<br>--- --- -- ----- -- --- ---- to --- ---- -- ------ ------<br>--- ----- -- ----,78394.79999999888,78394.19999999925,78035.604,78043,78052.27,78402.235,,46,to
screen,html.Screen,0_2_0_1_47,2021-11-04T12:03:30.074Z,,,,,,,,,,,,,,,,53,,,,,,,,,,,,,,471.96499999925436,,response,,,99,,,,,,Space,keypress(Space),,,,,"---- -- ----- -- ------ - ------- --- ----------<br>------------- ------ ------ ---- ---- ------- ----- -- ----<br>-------- ------- -- ---------- --- - --- ----- ----- ----<br>---- --- --- ----- --- ---- ---- ------- ----- ---- -------<br>--- --- -- ----- -- --- ---- -- be, ---- -- ------ ------<br>--- ----- -- ----",78874.90000000037,78874.19999999925,78385.57,78395,78402.235,78885.533,,47,"be,"
screen,html.Screen,0_2_0_1_48,2021-11-04T12:03:30.450Z,,,,,,,,,,,,,,,,53,,,,,,,,,,,,,,364.56699999963166,,response,,,99,,,,,,Space,keypress(Space),,,,,---- -- ----- -- ------ - ------- --- ----------<br>------------- ------ ------ ---- ---- ------- ----- -- ----<br>-------- ------- -- ---------- --- - --- ----- ----- ----<br>---- --- --- ----- --- ---- ---- ------- ----- ---- -------<br>--- --- -- ----- -- --- ---- -- --- even -- ------ ------<br>--- ----- -- ----,79250.69999999925,79250.09999999963,78868.868,78875.09999999963,78885.533,79252.181,,48,even
screen,html.Screen,0_2_0_1_49,2021-11-04T12:03:30.810Z,,,,,,,,,,,,,,,,53,,,,,,,,,,,,,,357.9189999996306,,response,,,99,,,,,,Space,keypress(Space),,,,,---- -- ----- -- ------ - ------- --- ----------<br>------------- ------ ------ ---- ---- ------- ----- -- ----<br>-------- ------- -- ---------- --- - --- ----- ----- ----<br>---- --- --- ----- --- ---- ---- ------- ----- ---- -------<br>--- --- -- ----- -- --- ---- -- --- ---- if ------ ------<br>--- ----- -- ----,79610.69999999925,79610.09999999963,79235.516,79250.79999999888,79252.181,79618.806,,49,if
screen,html.Screen,0_2_0_1_50,2021-11-04T12:03:31.098Z,,,,,,,,,,,,,,,,53,,,,,,,,,,,,,,279.2939999996306,,response,,,99,,,,,,Space,keypress(Space),,,,,---- -- ----- -- ------ - ------- --- ----------<br>------------- ------ ------ ---- ---- ------- ----- -- ----<br>-------- ------- -- ---------- --- - --- ----- ----- ----<br>---- --- --- ----- --- ---- ---- ------- ----- ---- -------<br>--- --- -- ----- -- --- ---- -- --- ---- -- that's ------<br>--- ----- -- ----,79898.59999999963,79898.09999999963,79602.141,79610.79999999888,79618.806,79902.177,,50,that's
screen,html.Screen,0_2_0_1_51,2021-11-04T12:03:31.714Z,,,,,,,,,,,,,,,,53,,,,,,,,,,,,,,611.9229999996314,,response,,,99,,,,,,Space,keypress(Space),,,,,---- -- ----- -- ------ - ------- --- ----------<br>------------- ------ ------ ---- ---- ------- ----- -- ----<br>-------- ------- -- ---------- --- - --- ----- ----- ----<br>---- --- --- ----- --- ---- ---- ------- ----- ---- -------<br>--- --- -- ----- -- --- ---- -- --- ---- -- ------ really<br>--- ----- -- ----,80514.69999999925,80514.09999999963,79885.511,79898.90000000037,79902.177,80518.705,,51,really
screen,html.Screen,0_2_0_1_52,2021-11-04T12:03:32.146Z,,,,,,,,,,,,,,,,53,,,,,,,,,,,,,,427.3949999996257,,response,,,99,,,,,,Space,keypress(Space),,,,,---- -- ----- -- ------ - ------- --- ----------<br>------------- ------ ------ ---- ---- ------- ----- -- ----<br>-------- ------- -- ---------- --- - --- ----- ----- ----<br>---- --- --- ----- --- ---- ---- ------- ----- ---- -------<br>--- --- -- ----- -- --- ---- -- --- ---- -- ------ ------<br>not ----- -- ----,80946.69999999925,80946.09999999963,80502.041,80514.90000000037,80518.705,80952.08,,52,not
screen,html.Screen,0_2_0_1_53,2021-11-04T12:03:32.514Z,,,,,,,,,,,,,,,,53,,,,,,,,,,,,,,362.0199999996257,,response,,,99,,,,,,Space,keypress(Space),,,,,---- -- ----- -- ------ - ------- --- ----------<br>------------- ------ ------ ---- ---- ------- ----- -- ----<br>-------- ------- -- ---------- --- - --- ----- ----- ----<br>---- --- --- ----- --- ---- ---- ------- ----- ---- -------<br>--- --- -- ----- -- --- ---- -- --- ---- -- ------ ------<br>--- close -- ----,81314.59999999963,81314.09999999963,80935.415,80946.79999999888,80952.08,81318.716,,53,close
screen,html.Screen,0_2_0_1_54,2021-11-04T12:03:32.873Z,,,,,,,,,,,,,,,,53,,,,,,,,,,,,,,355.28399999999965,,response,,,99,,,,,,Space,keypress(Space),,,,,---- -- ----- -- ------ - ------- --- ----------<br>------------- ------ ------ ---- ---- ------- ----- -- ----<br>-------- ------- -- ---------- --- - --- ----- ----- ----<br>---- --- --- ----- --- ---- ---- ------- ----- ---- -------<br>--- --- -- ----- -- --- ---- -- --- ---- -- ------ ------<br>--- ----- at ----,81674.5,81674,81302.051,81314.69999999925,81318.716,81685.358,,54,at
screen,html.Screen,0_2_0_1_55,2021-11-04T12:03:33.329Z,,,,,,,,,,,,,,,,53,,,,,,,,,,,,,,444.6420000000071,,response,,,99,,,,,,Space,keypress(Space),,,,,---- -- ----- -- ------ - ------- --- ----------<br>------------- ------ ------ ---- ---- ------- ----- -- ----<br>-------- ------- -- ---------- --- - --- ----- ----- ----<br>---- --- --- ----- --- ---- ---- ------- ----- ---- -------<br>--- --- -- ----- -- --- ---- -- --- ---- -- ------ ------<br>--- ----- -- all.,82130.59999999963,82130,81668.693,81674.69999999925,81685.358,82135.342,,55,all.
Item 99,flow.Loop,0_2_0_1,2021-11-04T12:03:33.332Z,,,,,,,,,,,,,,,,,,,,,,,,,,,,,,27543.180999999997,,completion,,,,D,,,,,,,,,,silence,,82133.5,82130,54553.489,54557.59999999963,54586.819,82135.342,,,
Question 1,html.Screen,0_2_0_2,2021-11-04T12:03:41.883Z,,,,,,,,,,,,,,,,,,,,,,,,,,,true,FALSE,,8548.157999999996,,response,,,99,D,,,,,FALSE,click #choice-2,,,,silence,,90684.40000000037,90683.5,82118.677,82133.69999999925,82135.342,90684.868,,,
Question 2,html.Screen,0_2_0_3,2021-11-04T12:03:46.836Z,,,,,,,,,,,,,,,,,,,,,,,,,,,true,TRUE,,4951.231999999625,,response,,,99,D,,,,,TRUE,click #choice-1,,,,silence,,95636.79999999888,95636.09999999963,90668.203,90684.59999999963,90684.868,95650.847,,,
Item 99,flow.Sequence,0_2_0,2021-11-04T12:03:46.836Z,,,,,,,,,,,,,,,,,,,,,,,,,,,,,,51065.40699999963,,completion,,,,,,,,,,,,,,,,95637.19999999925,95636.09999999963,44554.028,44567.59999999963,44570.693,95650.847,,,
Holding screen,html.Screen,0_2_1_0,2021-11-04T12:03:56.834Z,,,,,,,,,,,,,,,,,,,,,,,,,,,,,,9999.938999999998,,timeout,,,,,,,,,,,,,,,,105635.19999999925,105634.12,95634.189,95637.40000000037,95650.847,105650.786,,,
screen,html.Screen,0_2_1_1_0,2021-11-04T12:03:57.792Z,,,,,,,,,,,,,,,,54,,,,,,,,,,,,,,942.1140000003797,,response,,,100,,,,,,Space,keypress(Space),,,,,At --- ---- --- ------ ----- ------- ---- -- --- ------- --<br>------- ---------- ------ -- ----- -- ----- -- ---- ------<br>--- ----- --- --- ------ -------- ----- --- ------ ----- --<br>----- ----- ---------- --- --- ------ ------ ---- -- ------<br>------- --- ------ ----- --- ---- ------- -- ---- --- --<br>------- ------,106593.59999999963,106592.90000000037,105634.12,105635.40000000037,105650.786,106600.647,,0,At
screen,html.Screen,0_2_1_1_1,2021-11-04T12:03:58.224Z,,,,,,,,,,,,,,,,54,,,,,,,,,,,,,,423.95299999963026,,response,,,100,,,,,,Space,keypress(Space),,,,,-- the ---- --- ------ ----- ------- ---- -- --- ------- --<br>------- ---------- ------ -- ----- -- ----- -- ---- ------<br>--- ----- --- --- ------ -------- ----- --- ------ ----- --<br>----- ----- ---------- --- --- ------ ------ ---- -- ------<br>------- --- ------ ----- --- ---- ------- -- ---- --- --<br>------- ------,107025.19999999925,107024.59999999963,106583.982,106593.79999999888,106600.647,107033.972,,1,the
screen,html.Screen,0_2_1_1_2,2021-11-04T12:03:58.592Z,,,,,,,,,,,,,,,,54,,,,,,,,,,,,,,358.6279999996332,,response,,,100,,,,,,Space,keypress(Space),,,,,-- --- time --- ------ ----- ------- ---- -- --- ------- --<br>------- ---------- ------ -- ----- -- ----- -- ---- ------<br>--- ----- --- --- ------ -------- ----- --- ------ ----- --<br>----- ----- ---------- --- --- ------ ------ ---- -- ------<br>------- --- ------ ----- --- ---- ------- -- ---- --- --<br>------- ------,107393.19999999925,107392.59999999963,107017.307,107025.40000000037,107033.972,107400.627,,2,time
screen,html.Screen,0_2_1_1_3,2021-11-04T12:03:58.976Z,,,,,,,,,,,,,,,,54,,,,,,,,,,,,,,375.97299999963434,,response,,,100,,,,,,Space,keypress(Space),,,,,-- --- ---- the ------ ----- ------- ---- -- --- ------- --<br>------- ---------- ------ -- ----- -- ----- -- ---- ------<br>--- ----- --- --- ------ -------- ----- --- ------ ----- --<br>----- ----- ---------- --- --- ------ ------ ---- -- ------<br>------- --- ------ ----- --- ---- ------- -- ---- --- --<br>------- ------,107777.19999999925,107776.59999999963,107383.962,107393.29999999888,107400.627,107783.988,,3,the
screen,html.Screen,0_2_1_1_4,2021-11-04T12:03:59.248Z,,,,,,,,,,,,,,,,54,,,,,,,,,,,,,,264.51200000000244,,response,,,100,,,,,,Space,keypress(Space),,,,,-- --- ---- --- French ----- ------- ---- -- --- ------- --<br>------- ---------- ------ -- ----- -- ----- -- ---- ------<br>--- ----- --- --- ------ -------- ----- --- ------ ----- --<br>----- ----- ---------- --- --- ------ ------ ---- -- ------<br>------- --- ------ ----- --- ---- ------- -- ---- --- --<br>------- ------,108049.09999999963,108048.5,107767.322,107777.29999999888,107783.988,108050.568,,4,French
screen,html.Screen,0_2_1_1_5,2021-11-04T12:03:59.744Z,,,,,,,,,,,,,,,,54,,,,,,,,,,,,,,493.9320000000007,,response,,,100,,,,,,Space,keypress(Space),,,,,-- --- ---- --- ------ crown ------- ---- -- --- ------- --<br>------- ---------- ------ -- ----- -- ----- -- ---- ------<br>--- ----- --- --- ------ -------- ----- --- ------ ----- --<br>----- ----- ---------- --- --- ------ ------ ---- -- ------<br>------- --- ------ ----- --- ---- ------- -- ---- --- --<br>------- ------,108545.19999999925,108544.5,108033.904,108049.29999999888,108050.568,108550.566,,5,crown
screen,html.Screen,0_2_1_1_6,2021-11-04T12:04:00.112Z,,,,,,,,,,,,,,,,54,,,,,,,,,,,,,,362.0339999996213,,response,,,100,,,,,,Space,keypress(Space),,,,,-- --- ---- --- ------ ----- secured ---- -- --- ------- --<br>------- ---------- ------ -- ----- -- ----- -- ---- ------<br>--- ----- --- --- ------ -------- ----- --- ------ ----- --<br>----- ----- ---------- --- --- ------ ------ ---- -- ------<br>------- --- ------ ----- --- ---- ------- -- ---- --- --<br>------- ------,108913.19999999925,108912.59999999963,108533.901,108545.29999999888,108550.566,108917.211,,6,secured
screen,html.Screen,0_2_1_1_7,2021-11-04T12:04:00.488Z,,,,,,,,,,,,,,,,54,,,,,,,,,,,,,,371.2890000000043,,response,,,100,,,,,,Space,keypress(Space),,,,,-- --- ---- --- ------ ----- ------- much -- --- ------- --<br>------- ---------- ------ -- ----- -- ----- -- ---- ------<br>--- ----- --- --- ------ -------- ----- --- ------ ----- --<br>----- ----- ---------- --- --- ------ ------ ---- -- ------<br>------- --- ------ ----- --- ---- ------- -- ---- --- --<br>------- ------,109289.09999999963,109288.5,108900.546,108913.29999999888,108917.211,109300.525,,7,much
screen,html.Screen,0_2_1_1_8,2021-11-04T12:04:00.856Z,,,,,,,,,,,,,,,,54,,,,,,,,,,,,,,355.9750000000058,,response,,,100,,,,,,Space,keypress(Space),,,,,-- --- ---- --- ------ ----- ------- ---- of --- ------- --<br>------- ---------- ------ -- ----- -- ----- -- ---- ------<br>--- ----- --- --- ------ -------- ----- --- ------ ----- --<br>----- ----- ---------- --- --- ------ ------ ---- -- ------<br>------- --- ------ ----- --- ---- ------- -- ---- --- --<br>------- ------,109657,109656.5,109283.86,109289.29999999888,109300.525,109667.122,,8,of
screen,html.Screen,0_2_1_1_9,2021-11-04T12:04:01.112Z,,,,,,,,,,,,,,,,54,,,,,,,,,,,,,,245.2780000003695,,response,,,100,,,,,,Space,keypress(Space),,,,,-- --- ---- --- ------ ----- ------- ---- -- its ------- --<br>------- ---------- ------ -- ----- -- ----- -- ---- ------<br>--- ----- --- --- ------ -------- ----- --- ------ ----- --<br>----- ----- ---------- --- --- ------ ------ ---- -- ------<br>------- --- ------ ----- --- ---- ------- -- ---- --- --<br>------- ------,109913,109912.40000000037,109650.458,109657.19999999925,109667.122,109917.19,,9,its
screen,html.Screen,0_2_1_1_10,2021-11-04T12:04:01.384Z,,,,,,,,,,,,,,,,54,,,,,,,,,,,,,,267.2100000003702,,response,,,100,,,,,,Space,keypress(Space),,,,,-- --- ---- --- ------ ----- ------- ---- -- --- revenue --<br>------- ---------- ------ -- ----- -- ----- -- ---- ------<br>--- ----- --- --- ------ -------- ----- --- ------ ----- --<br>----- ----- ---------- --- --- ------ ------ ---- -- ------<br>------- --- ------ ----- --- ---- ------- -- ---- --- --<br>------- ------,110185,110184.40000000037,109900.524,109913.19999999925,109917.19,110200.438,,10,revenue
screen,html.Screen,0_2_1_1_11,2021-11-04T12:04:01.848Z,,,,,,,,,,,,,,,,54,,,,,,,,,,,,,,448.06200000000536,,response,,,100,,,,,,Space,keypress(Space),,,,,-- --- ---- --- ------ ----- ------- ---- -- --- ------- by<br>------- ---------- ------ -- ----- -- ----- -- ---- ------<br>--- ----- --- --- ------ -------- ----- --- ------ ----- --<br>----- ----- ---------- --- --- ------ ------ ---- -- ------<br>------- --- ------ ----- --- ---- ------- -- ---- --- --<br>------- ------,110649,110648.5,110183.774,110185.09999999963,110200.438,110650.429,,11,by
screen,html.Screen,0_2_1_1_12,2021-11-04T12:04:02.296Z,,,,,,,,,,,,,,,,54,,,,,,,,,,,,,,445.8709999988787,,response,,,100,,,,,,Space,keypress(Space),,,,,-- --- ---- --- ------ ----- ------- ---- -- --- ------- --<br>issuing ---------- ------ -- ----- -- ----- -- ---- ------<br>--- ----- --- --- ------ -------- ----- --- ------ ----- --<br>----- ----- ---------- --- --- ------ ------ ---- -- ------<br>------- --- ------ ----- --- ---- ------- -- ---- --- --<br>------- ------,111097,111096.29999999888,110633.764,110649.09999999963,110650.429,111100.412,,12,issuing
screen,html.Screen,0_2_1_1_13,2021-11-04T12:04:02.688Z,,,,,,,,,,,,,,,,54,,,,,,,,,,,,,,387.9880000003759,,response,,,100,,,,,,Space,keypress(Space),,,,,-- --- ---- --- ------ ----- ------- ---- -- --- ------- --<br>------- government ------ -- ----- -- ----- -- ---- ------<br>--- ----- --- --- ------ -------- ----- --- ------ ----- --<br>----- ----- ---------- --- --- ------ ------ ---- -- ------<br>------- --- ------ ----- --- ---- ------- -- ---- --- --<br>------- ------,111488.90000000037,111488.40000000037,111083.747,111097.19999999925,111100.412,111500.368,,13,government
screen,html.Screen,0_2_1_1_14,2021-11-04T12:04:03.096Z,,,,,,,,,,,,,,,,54,,,,,,,,,,,,,,395.9319999988802,,response,,,100,,,,,,Space,keypress(Space),,,,,-- --- ---- --- ------ ----- ------- ---- -- --- ------- --<br>------- ---------- bonds. -- ----- -- ----- -- ---- ------<br>--- ----- --- --- ------ -------- ----- --- ------ ----- --<br>----- ----- ---------- --- --- ------ ------ ---- -- ------<br>------- --- ------ ----- --- ---- ------- -- ---- --- --<br>------- ------,111896.90000000037,111896.29999999888,111483.703,111489.09999999963,111500.368,111900.336,,14,bonds.
screen,html.Screen,0_2_1_1_15,2021-11-04T12:04:03.904Z,,,,,,,,,,,,,,,,54,,,,,,,,,,,,,,804.0640000003768,,response,,,100,,,,,,Space,keypress(Space),,,,,-- --- ---- --- ------ ----- ------- ---- -- --- ------- --<br>------- ---------- ------ In ----- -- ----- -- ---- ------<br>--- ----- --- --- ------ -------- ----- --- ------ ----- --<br>----- ----- ---------- --- --- ------ ------ ---- -- ------<br>------- --- ------ ----- --- ---- ------- -- ---- --- --<br>------- ------,112705,112704.40000000037,111883.671,111897.09999999963,111900.336,112716.869,,15,In
screen,html.Screen,0_2_1_1_16,2021-11-04T12:04:04.520Z,,,,,,,,,,,,,,,,54,,,,,,,,,,,,,,603.4309999988764,,response,,,100,,,,,,Space,keypress(Space),,,,,"-- --- ---- --- ------ ----- ------- ---- -- --- ------- --<br>------- ---------- ------ -- 1727, -- ----- -- ---- ------<br>--- ----- --- --- ------ -------- ----- --- ------ ----- --<br>----- ----- ---------- --- --- ------ ------ ---- -- ------<br>------- --- ------ ----- --- ---- ------- -- ---- --- --<br>------- ------",113320.90000000037,113320.29999999888,112700.205,112705.09999999963,112716.869,113333.656,,16,"1727,"
screen,html.Screen,0_2_1_1_17,2021-11-04T12:04:05.032Z,,,,,,,,,,,,,,,,54,,,,,,,,,,,,,,498.64399999887974,,response,,,100,,,,,,Space,keypress(Space),,,,,-- --- ---- --- ------ ----- ------- ---- -- --- ------- --<br>------- ---------- ------ -- ----- in ----- -- ---- ------<br>--- ----- --- --- ------ -------- ----- --- ------ ----- --<br>----- ----- ---------- --- --- ------ ------ ---- -- ------<br>------- --- ------ ----- --- ---- ------- -- ---- --- --<br>------- ------,113832.79999999888,113832.29999999888,113316.99,113321,113333.656,113850.256,,17,in
screen,html.Screen,0_2_1_1_18,2021-11-04T12:04:05.712Z,,,,,,,,,,,,,,,,54,,,,,,,,,,,,,,662.0439999988885,,response,,,100,,,,,,Space,keypress(Space),,,,,-- --- ---- --- ------ ----- ------- ---- -- --- ------- --<br>------- ---------- ------ -- ----- -- order -- ---- ------<br>--- ----- --- --- ------ -------- ----- --- ------ ----- --<br>----- ----- ---------- --- --- ------ ------ ---- -- ------<br>------- --- ------ ----- --- ---- ------- -- ---- --- --<br>------- ------,114512.90000000037,114512.29999999888,113833.591,113833,113850.256,114516.882,,18,order
screen,html.Screen,0_2_1_1_19,2021-11-04T12:04:06.096Z,,,,,,,,,,,,,,,,54,,,,,,,,,,,,,,379.51800000037474,,response,,,100,,,,,,Space,keypress(Space),,,,,-- --- ---- --- ------ ----- ------- ---- -- --- ------- --<br>------- ---------- ------ -- ----- -- ----- to ---- ------<br>--- ----- --- --- ------ -------- ----- --- ------ ----- --<br>----- ----- ---------- --- --- ------ ------ ---- -- ------<br>------- --- ------ ----- --- ---- ------- -- ---- --- --<br>------- ------,114897,114896.40000000037,114500.217,114513.09999999963,114516.882,114900.212,,19,to
screen,html.Screen,0_2_1_1_20,2021-11-04T12:04:06.392Z,,,,,,,,,,,,,,,,54,,,,,,,,,,,,,,291.9879999992554,,response,,,100,,,,,,Space,keypress(Space),,,,,-- --- ---- --- ------ ----- ------- ---- -- --- ------- --<br>------- ---------- ------ -- ----- -- ----- -- save ------<br>--- ----- --- --- ------ -------- ----- --- ------ ----- --<br>----- ----- ---------- --- --- ------ ------ ---- -- ------<br>------- --- ------ ----- --- ---- ------- -- ---- --- --<br>------- ------,115192.69999999925,115192.19999999925,114883.547,114897.09999999963,114900.212,115200.185,,20,save
screen,html.Screen,0_2_1_1_21,2021-11-04T12:04:06.760Z,,,,,,,,,,,,,,,,54,,,,,,,,,,,,,,360.01499999925727,,response,,,100,,,,,,Space,keypress(Space),,,,,"-- --- ---- --- ------ ----- ------- ---- -- --- ------- --<br>------- ---------- ------ -- ----- -- ----- -- ---- money,<br>--- ----- --- --- ------ -------- ----- --- ------ ----- --<br>----- ----- ---------- --- --- ------ ------ ---- -- ------<br>------- --- ------ ----- --- ---- ------- -- ---- --- --<br>------- ------",115560.79999999888,115560.19999999925,115183.52,115192.79999999888,115200.185,115566.887,,21,"money,"
screen,html.Screen,0_2_1_1_22,2021-11-04T12:04:07.320Z,,,,,,,,,,,,,,,,54,,,,,,,,,,,,,,553.3129999992525,,response,,,100,,,,,,Space,keypress(Space),,,,,-- --- ---- --- ------ ----- ------- ---- -- --- ------- --<br>------- ---------- ------ -- ----- -- ----- -- ---- ------<br>the ----- --- --- ------ -------- ----- --- ------ ----- --<br>----- ----- ---------- --- --- ------ ------ ---- -- ------<br>------- --- ------ ----- --- ---- ------- -- ---- --- --<br>------- ------,116120.69999999925,116120.19999999925,115550.221,115560.90000000037,115566.887,116133.487,,22,the
screen,html.Screen,0_2_1_1_23,2021-11-04T12:04:07.712Z,,,,,,,,,,,,,,,,54,,,,,,,,,,,,,,378.61299999963376,,response,,,100,,,,,,Space,keypress(Space),,,,,-- --- ---- --- ------ ----- ------- ---- -- --- ------- --<br>------- ---------- ------ -- ----- -- ----- -- ---- ------<br>--- state --- --- ------ -------- ----- --- ------ ----- --<br>----- ----- ---------- --- --- ------ ------ ---- -- ------<br>------- --- ------ ----- --- ---- ------- -- ---- --- --<br>------- ------,116512.59999999963,116512.09999999963,116116.822,116120.90000000037,116133.487,116516.72,,23,state
screen,html.Screen,0_2_1_1_24,2021-11-04T12:04:08.168Z,,,,,,,,,,,,,,,,54,,,,,,,,,,,,,,451.57999999888125,,response,,,100,,,,,,Space,keypress(Space),,,,,-- --- ---- --- ------ ----- ------- ---- -- --- ------- --<br>------- ---------- ------ -- ----- -- ----- -- ---- ------<br>--- ----- cut --- ------ -------- ----- --- ------ ----- --<br>----- ----- ---------- --- --- ------ ------ ---- -- ------<br>------- --- ------ ----- --- ---- ------- -- ---- --- --<br>------- ------,116968.90000000037,116968.29999999888,116500.056,116512.90000000037,116516.72,116983.425,,24,cut
screen,html.Screen,0_2_1_1_25,2021-11-04T12:04:08.640Z,,,,,,,,,,,,,,,,54,,,,,,,,,,,,,,456.67499999962456,,response,,,100,,,,,,Space,keypress(Space),,,,,-- --- ---- --- ------ ----- ------- ---- -- --- ------- --<br>------- ---------- ------ -- ----- -- ----- -- ---- ------<br>--- ----- --- the ------ -------- ----- --- ------ ----- --<br>----- ----- ---------- --- --- ------ ------ ---- -- ------<br>------- --- ------ ----- --- ---- ------- -- ---- --- --<br>------- ------,117440.69999999925,117440.09999999963,116966.76,116969.09999999963,116983.425,117450.043,,25,the
screen,html.Screen,0_2_1_1_26,2021-11-04T12:04:09.024Z,,,,,,,,,,,,,,,,54,,,,,,,,,,,,,,373.9569999999949,,response,,,100,,,,,,Space,keypress(Space),,,,,-- --- ---- --- ------ ----- ------- ---- -- --- ------- --<br>------- ---------- ------ -- ----- -- ----- -- ---- ------<br>--- ----- --- --- bonds' -------- ----- --- ------ ----- --<br>----- ----- ---------- --- --- ------ ------ ---- -- ------<br>------- --- ------ ----- --- ---- ------- -- ---- --- --<br>------- ------,117824.59999999963,117824,117433.378,117440.69999999925,117450.043,117833.35,,26,bonds'
screen,html.Screen,0_2_1_1_27,2021-11-04T12:04:09.407Z,,,,,,,,,,,,,,,,54,,,,,,,,,,,,,,374.5500000003667,,response,,,100,,,,,,Space,keypress(Space),,,,,-- --- ---- --- ------ ----- ------- ---- -- --- ------- --<br>------- ---------- ------ -- ----- -- ----- -- ---- ------<br>--- ----- --- --- ------ interest ----- --- ------ ----- --<br>----- ----- ---------- --- --- ------ ------ ---- -- ------<br>------- --- ------ ----- --- ---- ------- -- ---- --- --<br>------- ------,118208.40000000037,118207.90000000037,117816.685,117824.79999999888,117833.35,118216.752,,27,interest
screen,html.Screen,0_2_1_1_28,2021-11-04T12:04:09.920Z,,,,,,,,,,,,,,,,54,,,,,,,,,,,,,,503.34799999963434,,response,,,100,,,,,,Space,keypress(Space),,,,,-- --- ---- --- ------ ----- ------- ---- -- --- ------- --<br>------- ---------- ------ -- ----- -- ----- -- ---- ------<br>--- ----- --- --- ------ -------- rate. --- ------ ----- --<br>----- ----- ---------- --- --- ------ ------ ---- -- ------<br>------- --- ------ ----- --- ---- ------- -- ---- --- --<br>------- ------,118720.69999999925,118720.09999999963,118200.086,118208.59999999963,118216.752,118733.176,,28,rate.
screen,html.Screen,0_2_1_1_29,2021-11-04T12:04:10.311Z,,,,,,,,,,,,,,,,54,,,,,,,,,,,,,,378.7240000003658,,response,,,100,,,,,,Space,keypress(Space),,,,,-- --- ---- --- ------ ----- ------- ---- -- --- ------- --<br>------- ---------- ------ -- ----- -- ----- -- ---- ------<br>--- ----- --- --- ------ -------- ----- The ------ ----- --<br>----- ----- ---------- --- --- ------ ------ ---- -- ------<br>------- --- ------ ----- --- ---- ------- -- ---- --- --<br>------- ------,119112.59999999963,119111.90000000037,118716.513,118720.90000000037,118733.176,119116.72,,29,The
screen,html.Screen,0_2_1_1_30,2021-11-04T12:04:10.631Z,,,,,,,,,,,,,,,,54,,,,,,,,,,,,,,315.18000000037136,,response,,,100,,,,,,Space,keypress(Space),,,,,-- --- ---- --- ------ ----- ------- ---- -- --- ------- --<br>------- ---------- ------ -- ----- -- ----- -- ---- ------<br>--- ----- --- --- ------ -------- ----- --- market ----- --<br>----- ----- ---------- --- --- ------ ------ ---- -- ------<br>------- --- ------ ----- --- ---- ------- -- ---- --- --<br>------- ------,119432.5,119431.90000000037,119100.053,119112.69999999925,119116.72,119433.346,,30,market
screen,html.Screen,0_2_1_1_31,2021-11-04T12:04:11.087Z,,,,,,,,,,,,,,,,54,,,,,,,,,,,,,,454.5540000003675,,response,,,100,,,,,,Space,keypress(Space),,,,,-- --- ---- --- ------ ----- ------- ---- -- --- ------- --<br>------- ---------- ------ -- ----- -- ----- -- ---- ------<br>--- ----- --- --- ------ -------- ----- --- ------ value --<br>----- ----- ---------- --- --- ------ ------ ---- -- ------<br>------- --- ------ ----- --- ---- ------- -- ---- --- --<br>------- ------,119888.59999999963,119887.90000000037,119416.68,119432.59999999963,119433.346,119899.876,,31,value
screen,html.Screen,0_2_1_1_32,2021-11-04T12:04:11.482Z,,,,,,,,,,,,,,,,54,,,,,,,,,,,,,,379.92399999887857,,response,,,100,,,,,,Space,keypress(Space),,,,,-- --- ---- --- ------ ----- ------- ---- -- --- ------- --<br>------- ---------- ------ -- ----- -- ----- -- ---- ------<br>--- ----- --- --- ------ -------- ----- --- ------ ----- of<br>----- ----- ---------- --- --- ------ ------ ---- -- ------<br>------- --- ------ ----- --- ---- ------- -- ---- --- --<br>------- ------,120280.40000000037,120279.79999999888,119883.212,119888.79999999888,119899.876,120283.348,,32,of
screen,html.Screen,0_2_1_1_33,2021-11-04T12:04:11.850Z,,,,,,,,,,,,,,,,54,,,,,,,,,,,,,,364.5520000003744,,response,,,100,,,,,,Space,keypress(Space),,,,,-- --- ---- --- ------ ----- ------- ---- -- --- ------- --<br>------- ---------- ------ -- ----- -- ----- -- ---- ------<br>--- ----- --- --- ------ -------- ----- --- ------ ----- --<br>these ----- ---------- --- --- ------ ------ ---- -- ------<br>------- --- ------ ----- --- ---- ------- -- ---- --- --<br>------- ------,120648.29999999888,120647.90000000037,120266.681,120280.59999999963,120283.348,120649.896,,33,these
screen,html.Screen,0_2_1_1_34,2021-11-04T12:04:12.258Z,,,,,,,,,,,,,,,,54,,,,,,,,,,,,,,405.90399999888905,,response,,,100,,,,,,Space,keypress(Space),,,,,-- --- ---- --- ------ ----- ------- ---- -- --- ------- --<br>------- ---------- ------ -- ----- -- ----- -- ---- ------<br>--- ----- --- --- ------ -------- ----- --- ------ ----- --<br>----- bonds ---------- --- --- ------ ------ ---- -- ------<br>------- --- ------ ----- --- ---- ------- -- ---- --- --<br>------- ------,121056.5,121055.79999999888,120633.231,120648.5,120649.896,121066.557,,34,bonds
screen,html.Screen,0_2_1_1_35,2021-11-04T12:04:12.738Z,,,,,,,,,,,,,,,,54,,,,,,,,,,,,,,469.4429999999993,,response,,,100,,,,,,Space,keypress(Space),,,,,"-- --- ---- --- ------ ----- ------- ---- -- --- ------- --<br>------- ---------- ------ -- ----- -- ----- -- ---- ------<br>--- ----- --- --- ------ -------- ----- --- ------ ----- --<br>----- ----- plummeted, --- --- ------ ------ ---- -- ------<br>------- --- ------ ----- --- ---- ------- -- ---- --- --<br>------- ------",121536.5,121536,121049.892,121056.69999999925,121066.557,121549.838,,35,"plummeted,"
screen,html.Screen,0_2_1_1_36,2021-11-04T12:04:13.170Z,,,,,,,,,,,,,,,,54,,,,,,,,,,,,,,418.06200000036915,,response,,,100,,,,,,Space,keypress(Space),,,,,-- --- ---- --- ------ ----- ------- ---- -- --- ------- --<br>------- ---------- ------ -- ----- -- ----- -- ---- ------<br>--- ----- --- --- ------ -------- ----- --- ------ ----- --<br>----- ----- ---------- and --- ------ ------ ---- -- ------<br>------- --- ------ ----- --- ---- ------- -- ---- --- --<br>------- ------,121968.5,121967.90000000037,121533.173,121536.59999999963,121549.838,121983.083,,36,and
screen,html.Screen,0_2_1_1_37,2021-11-04T12:04:13.538Z,,,,,,,,,,,,,,,,54,,,,,,,,,,,,,,352.7169999988837,,response,,,100,,,,,,Space,keypress(Space),,,,,-- --- ---- --- ------ ----- ------- ---- -- --- ------- --<br>------- ---------- ------ -- ----- -- ----- -- ---- ------<br>--- ----- --- --- ------ -------- ----- --- ------ ----- --<br>----- ----- ---------- --- the ------ ------ ---- -- ------<br>------- --- ------ ----- --- ---- ------- -- ---- --- --<br>------- ------,122336.29999999888,122335.79999999888,121966.419,121968.59999999963,121983.083,122349.852,,37,the
screen,html.Screen,0_2_1_1_38,2021-11-04T12:04:13.874Z,,,,,,,,,,,,,,,,54,,,,,,,,,,,,,,321.847999999256,,response,,,100,,,,,,Space,keypress(Space),,,,,-- --- ---- --- ------ ----- ------- ---- -- --- ------- --<br>------- ---------- ------ -- ----- -- ----- -- ---- ------<br>--- ----- --- --- ------ -------- ----- --- ------ ----- --<br>----- ----- ---------- --- --- market ------ ---- -- ------<br>------- --- ------ ----- --- ---- ------- -- ---- --- --<br>------- ------,122672.29999999888,122671.69999999925,122333.186,122336.5,122349.852,122683.138,,38,market
screen,html.Screen,0_2_1_1_39,2021-11-04T12:04:14.218Z,,,,,,,,,,,,,,,,54,,,,,,,,,,,,,,332.6619999988761,,response,,,100,,,,,,Space,keypress(Space),,,,,-- --- ---- --- ------ ----- ------- ---- -- --- ------- --<br>------- ---------- ------ -- ----- -- ----- -- ---- ------<br>--- ----- --- --- ------ -------- ----- --- ------ ----- --<br>----- ----- ---------- --- --- ------ became ---- -- ------<br>------- --- ------ ----- --- ---- ------- -- ---- --- --<br>------- ------,123016.29999999888,123015.79999999888,122666.473,122672.40000000037,122683.138,123033.1,,39,became
screen,html.Screen,0_2_1_1_40,2021-11-04T12:04:14.570Z,,,,,,,,,,,,,,,,54,,,,,,,,,,,,,,334.6999999988766,,response,,,100,,,,,,Space,keypress(Space),,,,,-- --- ---- --- ------ ----- ------- ---- -- --- ------- --<br>------- ---------- ------ -- ----- -- ----- -- ---- ------<br>--- ----- --- --- ------ -------- ----- --- ------ ----- --<br>----- ----- ---------- --- --- ------ ------ wary -- ------<br>------- --- ------ ----- --- ---- ------- -- ---- --- --<br>------- ------,123368.40000000037,123367.79999999888,123016.435,123016.5,123033.1,123383.097,,40,wary
screen,html.Screen,0_2_1_1_41,2021-11-04T12:04:14.914Z,,,,,,,,,,,,,,,,54,,,,,,,,,,,,,,328.5029999996332,,response,,,100,,,,,,Space,keypress(Space),,,,,-- --- ---- --- ------ ----- ------- ---- -- --- ------- --<br>------- ---------- ------ -- ----- -- ----- -- ---- ------<br>--- ----- --- --- ------ -------- ----- --- ------ ----- --<br>----- ----- ---------- --- --- ------ ------ ---- of ------<br>------- --- ------ ----- --- ---- ------- -- ---- --- --<br>------- ------,123712.29999999888,123711.59999999963,123366.432,123368.5,123383.097,123716.235,,41,of
screen,html.Screen,0_2_1_1_42,2021-11-04T12:04:15.362Z,,,,,,,,,,,,,,,,54,,,,,,,,,,,,,,443.46499999925436,,response,,,100,,,,,,Space,keypress(Space),,,,,-- --- ---- --- ------ ----- ------- ---- -- --- ------- --<br>------- ---------- ------ -- ----- -- ----- -- ---- ------<br>--- ----- --- --- ------ -------- ----- --- ------ ----- --<br>----- ----- ---------- --- --- ------ ------ ---- -- French<br>------- --- ------ ----- --- ---- ------- -- ---- --- --<br>------- ------,124160.40000000037,124159.69999999925,123699.573,123712.40000000037,123716.235,124166.476,,42,French
screen,html.Screen,0_2_1_1_43,2021-11-04T12:04:15.778Z,,,,,,,,,,,,,,,,54,,,,,,,,,,,,,,409.22399999925983,,response,,,100,,,,,,Space,keypress(Space),,,,,-- --- ---- --- ------ ----- ------- ---- -- --- ------- --<br>------- ---------- ------ -- ----- -- ----- -- ---- ------<br>--- ----- --- --- ------ -------- ----- --- ------ ----- --<br>----- ----- ---------- --- --- ------ ------ ---- -- ------<br>credit. --- ------ ----- --- ---- ------- -- ---- --- --<br>------- ------,124576.19999999925,124575.69999999925,124149.809,124160.59999999963,124166.476,124582.94,,43,credit.
screen,html.Screen,0_2_1_1_44,2021-11-04T12:04:16.242Z,,,,,,,,,,,,,,,,54,,,,,,,,,,,,,,456.65999999962514,,response,,,100,,,,,,Space,keypress(Space),,,,,-- --- ---- --- ------ ----- ------- ---- -- --- ------- --<br>------- ---------- ------ -- ----- -- ----- -- ---- ------<br>--- ----- --- --- ------ -------- ----- --- ------ ----- --<br>----- ----- ---------- --- --- ------ ------ ---- -- ------<br>------- The ------ ----- --- ---- ------- -- ---- --- --<br>------- ------,125040.29999999888,125039.59999999963,124566.276,124576.5,124582.94,125049.635,,44,The
screen,html.Screen,0_2_1_1_45,2021-11-04T12:04:16.546Z,,,,,,,,,,,,,,,,54,,,,,,,,,,,,,,293.9649999996327,,response,,,100,,,,,,Space,keypress(Space),,,,,-- --- ---- --- ------ ----- ------- ---- -- --- ------- --<br>------- ---------- ------ -- ----- -- ----- -- ---- ------<br>--- ----- --- --- ------ -------- ----- --- ------ ----- --<br>----- ----- ---------- --- --- ------ ------ ---- -- ------<br>------- --- French ----- --- ---- ------- -- ---- --- --<br>------- ------,125344.09999999963,125343.59999999963,125032.97,125040.40000000037,125049.635,125349.625,,45,French
screen,html.Screen,0_2_1_1_46,2021-11-04T12:04:16.874Z,,,,,,,,,,,,,,,,54,,,,,,,,,,,,,,321.97499999962747,,response,,,100,,,,,,Space,keypress(Space),,,,,-- --- ---- --- ------ ----- ------- ---- -- --- ------- --<br>------- ---------- ------ -- ----- -- ----- -- ---- ------<br>--- ----- --- --- ------ -------- ----- --- ------ ----- --<br>----- ----- ---------- --- --- ------ ------ ---- -- ------<br>------- --- ------ state --- ---- ------- -- ---- --- --<br>------- ------,125672.09999999963,125671.59999999963,125332.96,125344.29999999888,125349.625,125682.989,,46,state
screen,html.Screen,0_2_1_1_47,2021-11-04T12:04:17.522Z,,,,,,,,,,,,,,,,54,,,,,,,,,,,,,,636.6109999996261,,response,,,100,,,,,,Space,keypress(Space),,,,,-- --- ---- --- ------ ----- ------- ---- -- --- ------- --<br>------- ---------- ------ -- ----- -- ----- -- ---- ------<br>--- ----- --- --- ------ -------- ----- --- ------ ----- --<br>----- ----- ---------- --- --- ------ ------ ---- -- ------<br>------- --- ------ ----- was ---- ------- -- ---- --- --<br>------- ------,126320.19999999925,126319.59999999963,125666.323,125672.29999999888,125682.989,126332.904,,47,was
screen,html.Screen,0_2_1_1_48,2021-11-04T12:04:17.986Z,,,,,,,,,,,,,,,,54,,,,,,,,,,,,,,450.596000000005,,response,,,100,,,,,,Space,keypress(Space),,,,,-- --- ---- --- ------ ----- ------- ---- -- --- ------- --<br>------- ---------- ------ -- ----- -- ----- -- ---- ------<br>--- ----- --- --- ------ -------- ----- --- ------ ----- --<br>----- ----- ---------- --- --- ------ ------ ---- -- ------<br>------- --- ------ ----- --- left ------- -- ---- --- --<br>------- ------,126784.09999999963,126783.5,126316.239,126320.40000000037,126332.904,126799.484,,48,left
screen,html.Screen,0_2_1_1_49,2021-11-04T12:04:18.506Z,,,,,,,,,,,,,,,,54,,,,,,,,,,,,,,504.2159999992582,,response,,,100,,,,,,Space,keypress(Space),,,,,-- --- ---- --- ------ ----- ------- ---- -- --- ------- --<br>------- ---------- ------ -- ----- -- ----- -- ---- ------<br>--- ----- --- --- ------ -------- ----- --- ------ ----- --<br>----- ----- ---------- --- --- ------ ------ ---- -- ------<br>------- --- ------ ----- --- ---- without -- ---- --- --<br>------- ------,127304.40000000037,127303.69999999925,126782.82,126784.29999999888,126799.484,127316.173,,49,without
screen,html.Screen,0_2_1_1_50,2021-11-04T12:04:18.954Z,,,,,,,,,,,,,,,,54,,,,,,,,,,,,,,435.3270000000048,,response,,,100,,,,,,Space,keypress(Space),,,,,-- --- ---- --- ------ ----- ------- ---- -- --- ------- --<br>------- ---------- ------ -- ----- -- ----- -- ---- ------<br>--- ----- --- --- ------ -------- ----- --- ------ ----- --<br>----- ----- ---------- --- --- ------ ------ ---- -- ------<br>------- --- ------ ----- --- ---- ------- an ---- --- --<br>------- ------,127752,127751.5,127299.508,127304.5,127316.173,127766.168,,50,an
screen,html.Screen,0_2_1_1_51,2021-11-04T12:04:19.346Z,,,,,,,,,,,,,,,,54,,,,,,,,,,,,,,377.2320000003674,,response,,,100,,,,,,Space,keypress(Space),,,,,-- --- ---- --- ------ ----- ------- ---- -- --- ------- --<br>------- ---------- ------ -- ----- -- ----- -- ---- ------<br>--- ----- --- --- ------ -------- ----- --- ------ ----- --<br>----- ----- ---------- --- --- ------ ------ ---- -- ------<br>------- --- ------ ----- --- ---- ------- -- easy --- --<br>------- ------,128144,128143.40000000037,127749.503,127752.19999999925,127766.168,128149.471,,51,easy
screen,html.Screen,0_2_1_1_52,2021-11-04T12:04:19.514Z,,,,,,,,,,,,,,,,54,,,,,,,,,,,,,,162.028999999995,,response,,,100,,,,,,Space,keypress(Space),,,,,-- --- ---- --- ------ ----- ------- ---- -- --- ------- --<br>------- ---------- ------ -- ----- -- ----- -- ---- ------<br>--- ----- --- --- ------ -------- ----- --- ------ ----- --<br>----- ----- ---------- --- --- ------ ------ ---- -- ------<br>------- --- ------ ----- --- ---- ------- -- ---- way --<br>------- ------,128312.09999999963,128311.5,128132.806,128144.09999999963,128149.471,128316.121,,52,way
screen,html.Screen,0_2_1_1_53,2021-11-04T12:04:20.066Z,,,,,,,,,,,,,,,,54,,,,,,,,,,,,,,547.3790000000008,,response,,,100,,,,,,Space,keypress(Space),,,,,-- --- ---- --- ------ ----- ------- ---- -- --- ------- --<br>------- ---------- ------ -- ----- -- ----- -- ---- ------<br>--- ----- --- --- ------ -------- ----- --- ------ ----- --<br>----- ----- ---------- --- --- ------ ------ ---- -- ------<br>------- --- ------ ----- --- ---- ------- -- ---- --- of<br>------- ------,128864.09999999963,128863.5,128299.456,128312.29999999888,128316.121,128866.085,,53,of
screen,html.Screen,0_2_1_1_54,2021-11-04T12:04:20.498Z,,,,,,,,,,,,,,,,54,,,,,,,,,,,,,,429.3150000003661,,response,,,100,,,,,,Space,keypress(Space),,,,,-- --- ---- --- ------ ----- ------- ---- -- --- ------- --<br>------- ---------- ------ -- ----- -- ----- -- ---- ------<br>--- ----- --- --- ------ -------- ----- --- ------ ----- --<br>----- ----- ---------- --- --- ------ ------ ---- -- ------<br>------- --- ------ ----- --- ---- ------- -- ---- --- --<br>raising ------,129296,129295.40000000037,128849.42,128864.29999999888,128866.085,129299.443,,54,raising
screen,html.Screen,0_2_1_1_55,2021-11-04T12:04:21.146Z,,,,,,,,,,,,,,,,54,,,,,,,,,,,,,,643.9570000003732,,response,,,100,,,,,,Space,keypress(Space),,,,,-- --- ---- --- ------ ----- ------- ---- -- --- ------- --<br>------- ---------- ------ -- ----- -- ----- -- ---- ------<br>--- ----- --- --- ------ -------- ----- --- ------ ----- --<br>----- ----- ---------- --- --- ------ ------ ---- -- ------<br>------- --- ------ ----- --- ---- ------- -- ---- --- --<br>------- money.,129944,129943.40000000037,129282.777,129296.29999999888,129299.443,129949.365,,55,money.
Item 100,flow.Loop,0_2_1_1,2021-11-04T12:04:21.146Z,,,,,,,,,,,,,,,,,,,,,,,,,,,,,,24292.61400000038,,completion,,,,D,,,,,,,,,,silence,,129944.29999999888,129943.40000000037,105634.12,105635.29999999888,105650.786,129949.365,,,
Question 1,html.Screen,0_2_1_2,2021-11-04T12:04:24.396Z,,,,,,,,,,,,,,,,,,,,,,,,,,,true,TRUE,,3243.5350000003673,,response,,,100,D,,,,,TRUE,click #choice-1,,,,silence,,133193.69999999925,133192.90000000037,129932.7,129944.40000000037,129949.365,133199.176,,,
Question 2,html.Screen,0_2_1_3,2021-11-04T12:04:27.111Z,,,,,,,,,,,,,,,,,,,,,,,,,,,false,FALSE,,2708.8239999999932,,response,,,100,D,,,,,TRUE,click #choice-1,,,,silence,,135908.90000000037,135908,133182.511,133193.90000000037,133199.176,135915.676,,,
Item 100,flow.Sequence,0_2_1,2021-11-04T12:04:27.111Z,,,,,,,,,,,,,,,,,,,,,,,,,,,,,,40257.153000000006,,completion,,,,,,,,,,,,,,,,135909.09999999963,135908,95634.189,95637.29999999888,95650.847,135915.676,,,
End of Practice,html.Page,0_2_2,2021-11-04T12:04:30.332Z,,,,,,,,,,,,,,,,,,,,,,,,,,,,,,3213.9239999996207,,form submission,,,,,,,,,,,,,,,,139130.09999999963,139129.59999999963,135899.011,135909.29999999888,135915.676,139132.211,,,
Practice,flow.Sequence,0_2,2021-11-04T12:04:30.332Z,,,,,,,,,,,,,,,,,,,,,,,,,,,,,,94558.90699999963,,completion,,,,,,,,,,,,,,,,139130.29999999888,139129.59999999963,44554.028,44567.5,44570.693,139132.211,,,
Trap_instruction,html.Page,0_3_0,2021-11-04T12:04:35.506Z,,,,,,,,,,,,,,,,,,,,,,,,,,,,,,5171.28899999999,,form submission,,,,,,,,,,,,,,,,144303.90000000037,144303.5,139115.545,139130.59999999963,139132.211,144315.073,,,
trap_trial,html.Screen,0_3_1,2021-11-04T12:04:38.605Z,,,,,,,,,,,,,,,,,,,,,,,,,,,true,1,,3087.0269999996235,,response,,,,,,,,,1,click #choice-1,,,,,,147402.90000000037,147402.09999999963,144298.408,144304,144315.073,147415.29,,,
end of trap trial,html.Page,0_3_2,2021-11-04T12:04:41.539Z,,,,,,,,,,,,,,,,,,,,,,,,,,,,,,2921.409999999247,,form submission,,,,,,,,,,,,,,,,150337,150336.69999999925,147398.623,147403.09999999963,147415.29,150348.195,,,
Trap 1,flow.Sequence,0_3,2021-11-04T12:04:41.539Z,,,,,,,,,,,,,,,,,,,,,,,,,,,,,,11204.488999999245,,completion,,,,,,,,,,,,,,,,150337.29999999888,150336.69999999925,139115.545,139130.5,139132.211,150348.195,,,
Standby,html.Page,0_4_0,2021-11-04T12:04:49.534Z,,,,,,,,,,,,,,,,,,,,,,,,,,,,,,7999.277000000002,,timeout,,,,,,,,,,,,,,,,158331.69999999925,158330.807,150331.53,150337.5,150348.195,158347.472,,,
Holding screen,html.Screen,0_4_1_0_0,2021-11-04T12:04:56.534Z,,,,,,,,,,,,,,,,,,,,,,,,,,,,,,6999.853999999992,,timeout,,,,,,,,,,,,,,,,165331.69999999925,165330.661,158330.807,158332,158347.472,165347.326,,,
screen,html.Screen,0_4_1_0_1_0,2021-11-04T12:04:57.384Z,,,,,,,,,,,,,,,,15,,,,,,,,,,,,,,834.2739999996265,,response,,,7,D,,,,,Space,keypress(Space),,,,silence,Greg --------- ---------- - --- ------- -- --- ------------<br>----- -- -------- ------- ---- ------ - -------- ---- -----<br>--- ------- ---- -- --- -------- --- - ----- ------ ---- --<br>-------- --- -------- -------- --- -------- ---- -- ----- -<br>-------- ---- --- ---------- --------- -- ------- ------ -<br>--------- ----- -----,166182.40000000037,166181.59999999963,165330.661,165331.90000000037,165347.326,166197.305,,0,Greg
screen,html.Screen,0_4_1_0_1_1,2021-11-04T12:04:57.816Z,,,,,,,,,,,,,,,,15,,,,,,,,,,,,,,416.0950000003795,,response,,,7,D,,,,,Space,keypress(Space),,,,silence,"---- Anderson, ---------- - --- ------- -- --- ------------<br>----- -- -------- ------- ---- ------ - -------- ---- -----<br>--- ------- ---- -- --- -------- --- - ----- ------ ---- --<br>-------- --- -------- -------- --- -------- ---- -- ----- -<br>-------- ---- --- ---------- --------- -- ------- ------ -<br>--------- ----- -----",166613.90000000037,166613.40000000037,166180.64,166182.59999999963,166197.305,166630.764,,1,"Anderson,"
screen,html.Screen,0_4_1_0_1_2,2021-11-04T12:04:58.328Z,,,,,,,,,,,,,,,,15,,,,,,,,,,,,,,494.63600000037695,,response,,,7,D,,,,,Space,keypress(Space),,,,silence,---- --------- considered - --- ------- -- --- ------------<br>----- -- -------- ------- ---- ------ - -------- ---- -----<br>--- ------- ---- -- --- -------- --- - ----- ------ ---- --<br>-------- --- -------- -------- --- -------- ---- -- ----- -<br>-------- ---- --- ---------- --------- -- ------- ------ -<br>--------- ----- -----,167126,167125.40000000037,166614.098,166614.09999999963,166630.764,167130.664,,2,considered
screen,html.Screen,0_4_1_0_1_3,2021-11-04T12:04:58.704Z,,,,,,,,,,,,,,,,15,,,,,,,,,,,,,,370.63599999889266,,response,,,7,D,,,,,Space,keypress(Space),,,,silence,---- --------- ---------- a --- ------- -- --- ------------<br>----- -- -------- ------- ---- ------ - -------- ---- -----<br>--- ------- ---- -- --- -------- --- - ----- ------ ---- --<br>-------- --- -------- -------- --- -------- ---- -- ----- -<br>-------- ---- --- ---------- --------- -- ------- ------ -<br>--------- ----- -----,167501.90000000037,167501.29999999888,167113.999,167126.09999999963,167130.664,167513.997,,3,a
screen,html.Screen,0_4_1_0_1_4,2021-11-04T12:04:58.912Z,,,,,,,,,,,,,,,,15,,,,,,,,,,,,,,195.20299999925192,,response,,,7,D,,,,,Space,keypress(Space),,,,silence,---- --------- ---------- - key ------- -- --- ------------<br>----- -- -------- ------- ---- ------ - -------- ---- -----<br>--- ------- ---- -- --- -------- --- - ----- ------ ---- --<br>-------- --- -------- -------- --- -------- ---- -- ----- -<br>-------- ---- --- ---------- --------- -- ------- ------ -<br>--------- ----- -----,167709.79999999888,167709.19999999925,167497.332,167502.09999999963,167513.997,167713.971,,4,key
screen,html.Screen,0_4_1_0_1_5,2021-11-04T12:04:59.328Z,,,,,,,,,,,,,,,,15,,,,,,,,,,,,,,411.32899999889196,,response,,,7,D,,,,,Space,keypress(Space),,,,silence,---- --------- ---------- - --- witness -- --- ------------<br>----- -- -------- ------- ---- ------ - -------- ---- -----<br>--- ------- ---- -- --- -------- --- - ----- ------ ---- --<br>-------- --- -------- -------- --- -------- ---- -- ----- -<br>-------- ---- --- ---------- --------- -- ------- ------ -<br>--------- ----- -----,168125.90000000037,168125.29999999888,167697.306,167710,167713.971,168130.565,,5,witness
screen,html.Screen,0_4_1_0_1_6,2021-11-04T12:04:59.664Z,,,,,,,,,,,,,,,,15,,,,,,,,,,,,,,330.6349999992526,,response,,,7,D,,,,,Space,keypress(Space),,,,silence,---- --------- ---------- - --- ------- by --- ------------<br>----- -- -------- ------- ---- ------ - -------- ---- -----<br>--- ------- ---- -- --- -------- --- - ----- ------ ---- --<br>-------- --- -------- -------- --- -------- ---- -- ----- -<br>-------- ---- --- ---------- --------- -- ------- ------ -<br>--------- ----- -----,168461.79999999888,168461.19999999925,168113.901,168126.19999999925,168130.565,168463.961,,6,by
screen,html.Screen,0_4_1_0_1_7,2021-11-04T12:04:59.976Z,,,,,,,,,,,,,,,,15,,,,,,,,,,,,,,309.2389999992447,,response,,,7,D,,,,,Space,keypress(Space),,,,silence,---- --------- ---------- - --- ------- -- the ------------<br>----- -- -------- ------- ---- ------ - -------- ---- -----<br>--- ------- ---- -- --- -------- --- - ----- ------ ---- --<br>-------- --- -------- -------- --- -------- ---- -- ----- -<br>-------- ---- --- ---------- --------- -- ------- ------ -<br>--------- ----- -----,168773.79999999888,168773.19999999925,168447.295,168462.19999999925,168463.961,168780.627,,7,the
screen,html.Screen,0_4_1_0_1_8,2021-11-04T12:05:00.352Z,,,,,,,,,,,,,,,,15,,,,,,,,,,,,,,368.57299999924726,,response,,,7,D,,,,,Space,keypress(Space),,,,silence,"---- --------- ---------- - --- ------- -- --- prosecution,<br>----- -- -------- ------- ---- ------ - -------- ---- -----<br>--- ------- ---- -- --- -------- --- - ----- ------ ---- --<br>-------- --- -------- -------- --- -------- ---- -- ----- -<br>-------- ---- --- ---------- --------- -- ------- ------ -<br>--------- ----- -----",169149.79999999888,169149.19999999925,168763.961,168774,168780.627,169163.841,,8,"prosecution,"
screen,html.Screen,0_4_1_0_1_9,2021-11-04T12:05:01.424Z,,,,,,,,,,,,,,,,15,,,,,,,,,,,,,,1057.3589999992691,,response,,,7,D,,,,,Space,keypress(Space),,,,silence,---- --------- ---------- - --- ------- -- --- ------------<br>vowed -- -------- ------- ---- ------ - -------- ---- -----<br>--- ------- ---- -- --- -------- --- - ----- ------ ---- --<br>-------- --- -------- -------- --- -------- ---- -- ----- -<br>-------- ---- --- ---------- --------- -- ------- ------ -<br>--------- ----- -----,170221.79999999888,170221.19999999925,169147.177,169150,169163.841,170230.566,,9,vowed
screen,html.Screen,0_4_1_0_1_10,2021-11-04T12:05:02.056Z,,,,,,,,,,,,,,,,15,,,,,,,,,,,,,,622.5339999996359,,response,,,7,D,,,,,Space,keypress(Space),,,,silence,---- --------- ---------- - --- ------- -- --- ------------<br>----- he -------- ------- ---- ------ - -------- ---- -----<br>--- ------- ---- -- --- -------- --- - ----- ------ ---- --<br>-------- --- -------- -------- --- -------- ---- -- ----- -<br>-------- ---- --- ---------- --------- -- ------- ------ -<br>--------- ----- -----,170853.69999999925,170853.09999999963,170213.9,170221.90000000037,170230.566,170863.666,,10,he
screen,html.Screen,0_4_1_0_1_11,2021-11-04T12:05:02.560Z,,,,,,,,,,,,,,,,15,,,,,,,,,,,,,,493.43399999963003,,response,,,7,D,,,,,Space,keypress(Space),,,,silence,---- --------- ---------- - --- ------- -- --- ------------<br>----- -- wouldn't ------- ---- ------ - -------- ---- -----<br>--- ------- ---- -- --- -------- --- - ----- ------ ---- --<br>-------- --- -------- -------- --- -------- ---- -- ----- -<br>-------- ---- --- ---------- --------- -- ------- ------ -<br>--------- ----- -----,171357.69999999925,171357.09999999963,170847.002,170853.90000000037,170863.666,171363.742,,11,wouldn't
screen,html.Screen,0_4_1_0_1_12,2021-11-04T12:05:02.912Z,,,,,,,,,,,,,,,,15,,,,,,,,,,,,,,345.25800000000163,,response,,,7,D,,,,,Space,keypress(Space),,,,silence,---- --------- ---------- - --- ------- -- --- ------------<br>----- -- -------- testify ---- ------ - -------- ---- -----<br>--- ------- ---- -- --- -------- --- - ----- ------ ---- --<br>-------- --- -------- -------- --- -------- ---- -- ----- -<br>-------- ---- --- ---------- --------- -- ------- ------ -<br>--------- ----- -----,171709.59999999963,171709,171347.077,171357.79999999888,171363.742,171713.743,,12,testify
screen,html.Screen,0_4_1_0_1_13,2021-11-04T12:05:03.296Z,,,,,,,,,,,,,,,,15,,,,,,,,,,,,,,379.25700000001234,,response,,,7,D,,,,,Space,keypress(Space),,,,silence,---- --------- ---------- - --- ------- -- --- ------------<br>----- -- -------- ------- when ------ - -------- ---- -----<br>--- ------- ---- -- --- -------- --- - ----- ------ ---- --<br>-------- --- -------- -------- --- -------- ---- -- ----- -<br>-------- ---- --- ---------- --------- -- ------- ------ -<br>--------- ----- -----,172093.59999999963,172093,171697.078,171709.69999999925,171713.743,172097.059,,13,when
screen,html.Screen,0_4_1_0_1_14,2021-11-04T12:05:03.656Z,,,,,,,,,,,,,,,,15,,,,,,,,,,,,,,356.0409999996191,,response,,,7,D,,,,,Space,keypress(Space),,,,silence,---- --------- ---------- - --- ------- -- --- ------------<br>----- -- -------- ------- ---- served - -------- ---- -----<br>--- ------- ---- -- --- -------- --- - ----- ------ ---- --<br>-------- --- -------- -------- --- -------- ---- -- ----- -<br>-------- ---- --- ---------- --------- -- ------- ------ -<br>--------- ----- -----,172453.69999999925,172453.09999999963,172080.394,172093.69999999925,172097.059,172463.683,,14,served
screen,html.Screen,0_4_1_0_1_15,2021-11-04T12:05:04.000Z,,,,,,,,,,,,,,,,15,,,,,,,,,,,,,,333.31700000001,,response,,,7,D,,,,,Space,keypress(Space),,,,silence,---- --------- ---------- - --- ------- -- --- ------------<br>----- -- -------- ------- ---- ------ a -------- ---- -----<br>--- ------- ---- -- --- -------- --- - ----- ------ ---- --<br>-------- --- -------- -------- --- -------- ---- -- ----- -<br>-------- ---- --- ---------- --------- -- ------- ------ -<br>--------- ----- -----,172797.5,172797,172447.018,172453.90000000037,172463.683,172813.719,,15,a
screen,html.Screen,0_4_1_0_1_16,2021-11-04T12:05:04.359Z,,,,,,,,,,,,,,,,15,,,,,,,,,,,,,,343.18100000036065,,response,,,7,D,,,,,Space,keypress(Space),,,,silence,---- --------- ---------- - --- ------- -- --- ------------<br>----- -- -------- ------- ---- ------ - subpoena ---- -----<br>--- ------- ---- -- --- -------- --- - ----- ------ ---- --<br>-------- --- -------- -------- --- -------- ---- -- ----- -<br>-------- ---- --- ---------- --------- -- ------- ------ -<br>--------- ----- -----,173157.5,173156.90000000037,172797.053,172797.69999999925,172813.719,173163.593,,16,subpoena
screen,html.Screen,0_4_1_0_1_17,2021-11-04T12:05:05.040Z,,,,,,,,,,,,,,,,15,,,,,,,,,,,,,,673.307000000379,,response,,,7,D,,,,,Space,keypress(Space),,,,silence,---- --------- ---------- - --- ------- -- --- ------------<br>----- -- -------- ------- ---- ------ - -------- last -----<br>--- ------- ---- -- --- -------- --- - ----- ------ ---- --<br>-------- --- -------- -------- --- -------- ---- -- ----- -<br>-------- ---- --- ---------- --------- -- ------- ------ -<br>--------- ----- -----,173837.59999999963,173836.90000000037,173146.929,173157.69999999925,173163.593,173846.992,,17,last
screen,html.Screen,0_4_1_0_1_18,2021-11-04T12:05:05.447Z,,,,,,,,,,,,,,,,15,,,,,,,,,,,,,,397.90800000037416,,response,,,7,D,,,,,Space,keypress(Space),,,,silence,---- --------- ---------- - --- ------- -- --- ------------<br>----- -- -------- ------- ---- ------ - -------- ---- week.<br>--- ------- ---- -- --- -------- --- - ----- ------ ---- --<br>-------- --- -------- -------- --- -------- ---- -- ----- -<br>-------- ---- --- ---------- --------- -- ------- ------ -<br>--------- ----- -----,174245.40000000037,174244.90000000037,173830.326,173837.79999999888,173846.992,174246.933,,18,week.
screen,html.Screen,0_4_1_0_1_19,2021-11-04T12:05:06.279Z,,,,,,,,,,,,,,,,15,,,,,,,,,,,,,,829.9670000003825,,response,,,7,D,,,,,Space,keypress(Space),,,,silence,---- --------- ---------- - --- ------- -- --- ------------<br>----- -- -------- ------- ---- ------ - -------- ---- -----<br>His ------- ---- -- --- -------- --- - ----- ------ ---- --<br>-------- --- -------- -------- --- -------- ---- -- ----- -<br>-------- ---- --- ---------- --------- -- ------- ------ -<br>--------- ----- -----,175077.5,175076.90000000037,174230.268,174245.59999999963,174246.933,175080.184,,19,His
screen,html.Screen,0_4_1_0_1_20,2021-11-04T12:05:06.759Z,,,,,,,,,,,,,,,,15,,,,,,,,,,,,,,476.71600000036415,,response,,,7,D,,,,,Space,keypress(Space),,,,silence,---- --------- ---------- - --- ------- -- --- ------------<br>----- -- -------- ------- ---- ------ - -------- ---- -----<br>--- lawyers ---- -- --- -------- --- - ----- ------ ---- --<br>-------- --- -------- -------- --- -------- ---- -- ----- -<br>-------- ---- --- ---------- --------- -- ------- ------ -<br>--------- ----- -----,175557.40000000037,175556.90000000037,175063.519,175077.69999999925,175080.184,175563.498,,20,lawyers
screen,html.Screen,0_4_1_0_1_21,2021-11-04T12:05:07.191Z,,,,,,,,,,,,,,,,15,,,,,,,,,,,,,,425.4020000003802,,response,,,7,D,,,,,Space,keypress(Space),,,,silence,---- --------- ---------- - --- ------- -- --- ------------<br>----- -- -------- ------- ---- ------ - -------- ---- -----<br>--- ------- said -- --- -------- --- - ----- ------ ---- --<br>-------- --- -------- -------- --- -------- ---- -- ----- -<br>-------- ---- --- ---------- --------- -- ------- ------ -<br>--------- ----- -----,175989.5,175988.90000000037,175546.833,175557.59999999963,175563.498,175996.834,,21,said
screen,html.Screen,0_4_1_0_1_22,2021-11-04T12:05:07.600Z,,,,,,,,,,,,,,,,15,,,,,,,,,,,,,,400.2659999996249,,response,,,7,D,,,,,Space,keypress(Space),,,,silence,---- --------- ---------- - --- ------- -- --- ------------<br>----- -- -------- ------- ---- ------ - -------- ---- -----<br>--- ------- ---- he --- -------- --- - ----- ------ ---- --<br>-------- --- -------- -------- --- -------- ---- -- ----- -<br>-------- ---- --- ---------- --------- -- ------- ------ -<br>--------- ----- -----,176397.59999999963,176397.09999999963,175980.169,175989.59999999963,175996.834,176413.468,,22,he
screen,html.Screen,0_4_1_0_1_23,2021-11-04T12:05:07.999Z,,,,,,,,,,,,,,,,15,,,,,,,,,,,,,,383.33199999888893,,response,,,7,D,,,,,Space,keypress(Space),,,,silence,---- --------- ---------- - --- ------- -- --- ------------<br>----- -- -------- ------- ---- ------ - -------- ---- -----<br>--- ------- ---- -- was -------- --- - ----- ------ ---- --<br>-------- --- -------- -------- --- -------- ---- -- ----- -<br>-------- ---- --- ---------- --------- -- ------- ------ -<br>--------- ----- -----,176797.29999999888,176796.79999999888,176396.803,176397.69999999925,176413.468,176813.516,,23,was
screen,html.Screen,0_4_1_0_1_24,2021-11-04T12:05:08.487Z,,,,,,,,,,,,,,,,15,,,,,,,,,,,,,,471.1839999992517,,response,,,7,D,,,,,Space,keypress(Space),,,,silence,---- --------- ---------- - --- ------- -- --- ------------<br>----- -- -------- ------- ---- ------ - -------- ---- -----<br>--- ------- ---- -- --- prepared --- - ----- ------ ---- --<br>-------- --- -------- -------- --- -------- ---- -- ----- -<br>-------- ---- --- ---------- --------- -- ------- ------ -<br>--------- ----- -----,177285.40000000037,177284.69999999925,176796.85,176797.5,176813.516,177296.701,,24,prepared
screen,html.Screen,0_4_1_0_1_25,2021-11-04T12:05:08.879Z,,,,,,,,,,,,,,,,15,,,,,,,,,,,,,,379.89899999962654,,response,,,7,D,,,,,Space,keypress(Space),,,,silence,---- --------- ---------- - --- ------- -- --- ------------<br>----- -- -------- ------- ---- ------ - -------- ---- -----<br>--- ------- ---- -- --- -------- for - ----- ------ ---- --<br>-------- --- -------- -------- --- -------- ---- -- ----- -<br>-------- ---- --- ---------- --------- -- ------- ------ -<br>--------- ----- -----,177677.19999999925,177676.59999999963,177280.037,177285.5,177296.701,177680.066,,25,for
screen,html.Screen,0_4_1_0_1_26,2021-11-04T12:05:09.247Z,,,,,,,,,,,,,,,,15,,,,,,,,,,,,,,364.6339999992633,,response,,,7,D,,,,,Space,keypress(Space),,,,silence,---- --------- ---------- - --- ------- -- --- ------------<br>----- -- -------- ------- ---- ------ - -------- ---- -----<br>--- ------- ---- -- --- -------- --- a ----- ------ ---- --<br>-------- --- -------- -------- --- -------- ---- -- ----- -<br>-------- ---- --- ---------- --------- -- ------- ------ -<br>--------- ----- -----,178045.29999999888,178044.69999999925,177663.401,177677.40000000037,177680.066,178046.778,,26,a
screen,html.Screen,0_4_1_0_1_27,2021-11-04T12:05:09.663Z,,,,,,,,,,,,,,,,15,,,,,,,,,,,,,,413.9219999992638,,response,,,7,D,,,,,Space,keypress(Space),,,,silence,---- --------- ---------- - --- ------- -- --- ------------<br>----- -- -------- ------- ---- ------ - -------- ---- -----<br>--- ------- ---- -- --- -------- --- - third ------ ---- --<br>-------- --- -------- -------- --- -------- ---- -- ----- -<br>-------- ---- --- ---------- --------- -- ------- ------ -<br>--------- ----- -----,178461.29999999888,178460.69999999925,178030.112,178045.40000000037,178046.778,178463.312,,27,third
screen,html.Screen,0_4_1_0_1_28,2021-11-04T12:05:10.047Z,,,,,,,,,,,,,,,,15,,,,,,,,,,,,,,381.2879999996221,,response,,,7,D,,,,,Space,keypress(Space),,,,silence,---- --------- ---------- - --- ------- -- --- ------------<br>----- -- -------- ------- ---- ------ - -------- ---- -----<br>--- ------- ---- -- --- -------- --- - ----- prison ---- --<br>-------- --- -------- -------- --- -------- ---- -- ----- -<br>-------- ---- --- ---------- --------- -- ------- ------ -<br>--------- ----- -----,178845.19999999925,178844.59999999963,178446.648,178461.40000000037,178463.312,178846.744,,28,prison
screen,html.Screen,0_4_1_0_1_29,2021-11-04T12:05:10.447Z,,,,,,,,,,,,,,,,15,,,,,,,,,,,,,,397.75599999999395,,response,,,7,D,,,,,Space,keypress(Space),,,,silence,---- --------- ---------- - --- ------- -- --- ------------<br>----- -- -------- ------- ---- ------ - -------- ---- -----<br>--- ------- ---- -- --- -------- --- - ----- ------ stay --<br>-------- --- -------- -------- --- -------- ---- -- ----- -<br>-------- ---- --- ---------- --------- -- ------- ------ -<br>--------- ----- -----,179245.09999999963,179244.5,178830.078,178845.40000000037,178846.744,179246.604,,29,stay
screen,html.Screen,0_4_1_0_1_30,2021-11-04T12:05:10.935Z,,,,,,,,,,,,,,,,15,,,,,,,,,,,,,,486.09599999926286,,response,,,7,D,,,,,Space,keypress(Space),,,,silence,---- --------- ---------- - --- ------- -- --- ------------<br>----- -- -------- ------- ---- ------ - -------- ---- -----<br>--- ------- ---- -- --- -------- --- - ----- ------ ---- to<br>-------- --- -------- -------- --- -------- ---- -- ----- -<br>-------- ---- --- ---------- --------- -- ------- ------ -<br>--------- ----- -----,179733.29999999888,179732.69999999925,179229.94,179245.29999999888,179246.604,179746.686,,30,to
screen,html.Screen,0_4_1_0_1_31,2021-11-04T12:05:11.423Z,,,,,,,,,,,,,,,,15,,,,,,,,,,,,,,473.9139999996405,,response,,,7,D,,,,,Space,keypress(Space),,,,silence,---- --------- ---------- - --- ------- -- --- ------------<br>----- -- -------- ------- ---- ------ - -------- ---- -----<br>--- ------- ---- -- --- -------- --- - ----- ------ ---- --<br>maintain --- -------- -------- --- -------- ---- -- ----- -<br>-------- ---- --- ---------- --------- -- ------- ------ -<br>--------- ----- -----,180221.29999999888,180220.59999999963,179730.02,179733.40000000037,179746.686,180229.941,,31,maintain
screen,html.Screen,0_4_1_0_1_32,2021-11-04T12:05:11.810Z,,,,,,,,,,,,,,,,15,,,,,,,,,,,,,,374.5590000000084,,response,,,7,D,,,,,Space,keypress(Space),,,,silence,---- --------- ---------- - --- ------- -- --- ------------<br>----- -- -------- ------- ---- ------ - -------- ---- -----<br>--- ------- ---- -- --- -------- --- - ----- ------ ---- --<br>-------- his -------- -------- --- -------- ---- -- ----- -<br>-------- ---- --- ---------- --------- -- ------- ------ -<br>--------- ----- -----,180605.09999999963,180604.5,180213.276,180221.40000000037,180229.941,180613.272,,32,his
screen,html.Screen,0_4_1_0_1_33,2021-11-04T12:05:12.330Z,,,,,,,,,,,,,,,,15,,,,,,,,,,,,,,511.32799999963026,,response,,,7,D,,,,,Space,keypress(Space),,,,silence,---- --------- ---------- - --- ------- -- --- ------------<br>----- -- -------- ------- ---- ------ - -------- ---- -----<br>--- ------- ---- -- --- -------- --- - ----- ------ ---- --<br>-------- --- silence. -------- --- -------- ---- -- ----- -<br>-------- ---- --- ---------- --------- -- ------- ------ -<br>--------- ----- -----,181125.19999999925,181124.59999999963,180596.607,180605.29999999888,180613.272,181129.754,,33,silence.
screen,html.Screen,0_4_1_0_1_34,2021-11-04T12:05:13.330Z,,,,,,,,,,,,,,,,15,,,,,,,,,,,,,,994.7460000000137,,response,,,7,D,,,,,Space,keypress(Space),,,,silence,---- --------- ---------- - --- ------- -- --- ------------<br>----- -- -------- ------- ---- ------ - -------- ---- -----<br>--- ------- ---- -- --- -------- --- - ----- ------ ---- --<br>-------- --- -------- Anderson --- -------- ---- -- ----- -<br>-------- ---- --- ---------- --------- -- ------- ------ -<br>--------- ----- -----,182125.19999999925,182124.5,181113.091,181125.40000000037,181129.754,182129.891,,34,Anderson
screen,html.Screen,0_4_1_0_1_35,2021-11-04T12:05:13.858Z,,,,,,,,,,,,,,,,15,,,,,,,,,,,,,,522.6089999999967,,response,,,7,D,,,,,Space,keypress(Space),,,,silence,---- --------- ---------- - --- ------- -- --- ------------<br>----- -- -------- ------- ---- ------ - -------- ---- -----<br>--- ------- ---- -- --- -------- --- - ----- ------ ---- --<br>-------- --- -------- -------- was -------- ---- -- ----- -<br>-------- ---- --- ---------- --------- -- ------- ------ -<br>--------- ----- -----,182653.09999999963,182652.5,182113.225,182125.29999999888,182129.891,182663.217,,35,was
screen,html.Screen,0_4_1_0_1_36,2021-11-04T12:05:14.354Z,,,,,,,,,,,,,,,,15,,,,,,,,,,,,,,485.2829999999958,,response,,,7,D,,,,,Space,keypress(Space),,,,silence,---- --------- ---------- - --- ------- -- --- ------------<br>----- -- -------- ------- ---- ------ - -------- ---- -----<br>--- ------- ---- -- --- -------- --- - ----- ------ ---- --<br>-------- --- -------- -------- --- released ---- -- ----- -<br>-------- ---- --- ---------- --------- -- ------- ------ -<br>--------- ----- -----,183149,183148.5,182646.551,182653.29999999888,182663.217,183163.118,,36,released
screen,html.Screen,0_4_1_0_1_37,2021-11-04T12:05:14.738Z,,,,,,,,,,,,,,,,15,,,,,,,,,,,,,,369.28200000038487,,response,,,7,D,,,,,Space,keypress(Space),,,,silence,---- --------- ---------- - --- ------- -- --- ------------<br>----- -- -------- ------- ---- ------ - -------- ---- -----<br>--- ------- ---- -- --- -------- --- - ----- ------ ---- --<br>-------- --- -------- -------- --- -------- July -- ----- -<br>-------- ---- --- ---------- --------- -- ------- ------ -<br>--------- ----- -----,183532.90000000037,183532.40000000037,183146.453,183149.19999999925,183163.118,183546.369,,37,July
screen,html.Screen,0_4_1_0_1_38,2021-11-04T12:05:15.162Z,,,,,,,,,,,,,,,,15,,,,,,,,,,,,,,410.0310000003665,,response,,,7,D,,,,,Space,keypress(Space),,,,silence,---- --------- ---------- - --- ------- -- --- ------------<br>----- -- -------- ------- ---- ------ - -------- ---- -----<br>--- ------- ---- -- --- -------- --- - ----- ------ ---- --<br>-------- --- -------- -------- --- -------- ---- 20 ----- -<br>-------- ---- --- ---------- --------- -- ------- ------ -<br>--------- ----- -----,183957.09999999963,183956.40000000037,183529.705,183533.09999999963,183546.369,183963.053,,38,20
screen,html.Screen,0_4_1_0_1_39,2021-11-04T12:05:15.650Z,,,,,,,,,,,,,,,,15,,,,,,,,,,,,,,481.3470000003581,,response,,,7,D,,,,,Space,keypress(Space),,,,silence,---- --------- ---------- - --- ------- -- --- ------------<br>----- -- -------- ------- ---- ------ - -------- ---- -----<br>--- ------- ---- -- --- -------- --- - ----- ------ ---- --<br>-------- --- -------- -------- --- -------- ---- -- after -<br>-------- ---- --- ---------- --------- -- ------- ------ -<br>--------- ----- -----,184444.90000000037,184444.40000000037,183946.388,183957.29999999888,183963.053,184446.425,,39,after
screen,html.Screen,0_4_1_0_1_40,2021-11-04T12:05:16.074Z,,,,,,,,,,,,,,,,15,,,,,,,,,,,,,,421.87499999889405,,response,,,7,D,,,,,Space,keypress(Space),,,,silence,---- --------- ---------- - --- ------- -- --- ------------<br>----- -- -------- ------- ---- ------ - -------- ---- -----<br>--- ------- ---- -- --- -------- --- - ----- ------ ---- --<br>-------- --- -------- -------- --- -------- ---- -- ----- a<br>-------- ---- --- ---------- --------- -- ------- ------ -<br>--------- ----- -----,184868.90000000037,184868.29999999888,184429.759,184445.09999999963,184446.425,184879.609,,40,a
screen,html.Screen,0_4_1_0_1_41,2021-11-04T12:05:16.506Z,,,,,,,,,,,,,,,,15,,,,,,,,,,,,,,420.6909999988857,,response,,,7,D,,,,,Space,keypress(Space),,,,silence,---- --------- ---------- - --- ------- -- --- ------------<br>----- -- -------- ------- ---- ------ - -------- ---- -----<br>--- ------- ---- -- --- -------- --- - ----- ------ ---- --<br>-------- --- -------- -------- --- -------- ---- -- ----- -<br>two-week ---- --- ---------- --------- -- ------- ------ -<br>--------- ----- -----,185300.79999999888,185300.29999999888,184862.945,184869.09999999963,184879.609,185313.015,,41,two-week
screen,html.Screen,0_4_1_0_1_42,2021-11-04T12:05:17.034Z,,,,,,,,,,,,,,,,15,,,,,,,,,,,,,,515.2849999988684,,response,,,7,D,,,,,Space,keypress(Space),,,,silence,---- --------- ---------- - --- ------- -- --- ------------<br>----- -- -------- ------- ---- ------ - -------- ---- -----<br>--- ------- ---- -- --- -------- --- - ----- ------ ---- --<br>-------- --- -------- -------- --- -------- ---- -- ----- -<br>-------- stay --- ---------- --------- -- ------- ------ -<br>--------- ----- -----,185828.90000000037,185828.29999999888,185296.349,185301,185313.015,185846.311,,42,stay
screen,html.Screen,0_4_1_0_1_43,2021-11-04T12:05:17.442Z,,,,,,,,,,,,,,,,15,,,,,,,,,,,,,,389.98899999889545,,response,,,7,D,,,,,Space,keypress(Space),,,,silence,---- --------- ---------- - --- ------- -- --- ------------<br>----- -- -------- ------- ---- ------ - -------- ---- -----<br>--- ------- ---- -- --- -------- --- - ----- ------ ---- --<br>-------- --- -------- -------- --- -------- ---- -- ----- -<br>-------- ---- for ---------- --------- -- ------- ------ -<br>--------- ----- -----,186236.90000000037,186236.29999999888,185829.646,185829,185846.311,186246.126,,43,for
screen,html.Screen,0_4_1_0_1_44,2021-11-04T12:05:17.954Z,,,,,,,,,,,,,,,,15,,,,,,,,,,,,,,502.27400000038324,,response,,,7,D,,,,,Space,keypress(Space),,,,silence,---- --------- ---------- - --- ------- -- --- ------------<br>----- -- -------- ------- ---- ------ - -------- ---- -----<br>--- ------- ---- -- --- -------- --- - ----- ------ ---- --<br>-------- --- -------- -------- --- -------- ---- -- ----- -<br>-------- ---- --- previously --------- -- ------- ------ -<br>--------- ----- -----,186749,186748.40000000037,186229.463,186237,186246.126,186762.957,,44,previously
screen,html.Screen,0_4_1_0_1_45,2021-11-04T12:05:18.433Z,,,,,,,,,,,,,,,,15,,,,,,,,,,,,,,465.24299999926006,,response,,,7,D,,,,,Space,keypress(Space),,,,silence,---- --------- ---------- - --- ------- -- --- ------------<br>----- -- -------- ------- ---- ------ - -------- ---- -----<br>--- ------- ---- -- --- -------- --- - ----- ------ ---- --<br>-------- --- -------- -------- --- -------- ---- -- ----- -<br>-------- ---- --- ---------- declining -- ------- ------ -<br>--------- ----- -----,187228.79999999888,187228.19999999925,186746.291,186749.09999999963,186762.957,187246.261,,45,declining
screen,html.Screen,0_4_1_0_1_46,2021-11-04T12:05:18.809Z,,,,,,,,,,,,,,,,15,,,,,,,,,,,,,,357.93899999925634,,response,,,7,D,,,,,Space,keypress(Space),,,,silence,---- --------- ---------- - --- ------- -- --- ------------<br>----- -- -------- ------- ---- ------ - -------- ---- -----<br>--- ------- ---- -- --- -------- --- - ----- ------ ---- --<br>-------- --- -------- -------- --- -------- ---- -- ----- -<br>-------- ---- --- ---------- --------- to ------- ------ -<br>--------- ----- -----,187604.69999999925,187604.19999999925,187229.595,187229,187246.261,187612.786,,46,to
screen,html.Screen,0_4_1_0_1_47,2021-11-04T12:05:19.225Z,,,,,,,,,,,,,,,,15,,,,,,,,,,,,,,407.3139999996347,,response,,,7,D,,,,,Space,keypress(Space),,,,silence,---- --------- ---------- - --- ------- -- --- ------------<br>----- -- -------- ------- ---- ------ - -------- ---- -----<br>--- ------- ---- -- --- -------- --- - ----- ------ ---- --<br>-------- --- -------- -------- --- -------- ---- -- ----- -<br>-------- ---- --- ---------- --------- -- testify ------ -<br>--------- ----- -----,188020.79999999888,188020.09999999963,187596.122,187604.90000000037,187612.786,188029.542,,47,testify
screen,html.Screen,0_4_1_0_1_48,2021-11-04T12:05:19.641Z,,,,,,,,,,,,,,,,15,,,,,,,,,,,,,,406.6579999992682,,response,,,7,D,,,,,Space,keypress(Space),,,,silence,---- --------- ---------- - --- ------- -- --- ------------<br>----- -- -------- ------- ---- ------ - -------- ---- -----<br>--- ------- ---- -- --- -------- --- - ----- ------ ---- --<br>-------- --- -------- -------- --- -------- ---- -- ----- -<br>-------- ---- --- ---------- --------- -- ------- before -<br>--------- ----- -----,188436.79999999888,188436.19999999925,188012.876,188021,188029.542,188446.15,,48,before
screen,html.Screen,0_4_1_0_1_49,2021-11-04T12:05:20.113Z,,,,,,,,,,,,,,,,15,,,,,,,,,,,,,,461.9499999996333,,response,,,7,D,,,,,Space,keypress(Space),,,,silence,---- --------- ---------- - --- ------- -- --- ------------<br>----- -- -------- ------- ---- ------ - -------- ---- -----<br>--- ------- ---- -- --- -------- --- - ----- ------ ---- --<br>-------- --- -------- -------- --- -------- ---- -- ----- -<br>-------- ---- --- ---------- --------- -- ------- ------ a<br>--------- ----- -----,188908.79999999888,188908.09999999963,188429.485,188437,188446.15,188912.779,,49,a
screen,html.Screen,0_4_1_0_1_50,2021-11-04T12:05:20.521Z,,,,,,,,,,,,,,,,15,,,,,,,,,,,,,,403.3209999996179,,response,,,7,D,,,,,Space,keypress(Space),,,,silence,---- --------- ---------- - --- ------- -- --- ------------<br>----- -- -------- ------- ---- ------ - -------- ---- -----<br>--- ------- ---- -- --- -------- --- - ----- ------ ---- --<br>-------- --- -------- -------- --- -------- ---- -- ----- -<br>-------- ---- --- ---------- --------- -- ------- ------ -<br>different ----- -----,189316.69999999925,189316.09999999963,188896.114,188908.90000000037,188912.779,189329.478,,50,different
screen,html.Screen,0_4_1_0_1_51,2021-11-04T12:05:20.913Z,,,,,,,,,,,,,,,,15,,,,,,,,,,,,,,378.5219999999972,,response,,,7,D,,,,,Space,keypress(Space),,,,silence,---- --------- ---------- - --- ------- -- --- ------------<br>----- -- -------- ------- ---- ------ - -------- ---- -----<br>--- ------- ---- -- --- -------- --- - ----- ------ ---- --<br>-------- --- -------- -------- --- -------- ---- -- ----- -<br>-------- ---- --- ---------- --------- -- ------- ------ -<br>--------- grand -----,189708.59999999963,189708,189312.812,189316.90000000037,189329.478,189712.729,,51,grand
screen,html.Screen,0_4_1_0_1_52,2021-11-04T12:05:21.369Z,,,,,,,,,,,,,,,,15,,,,,,,,,,,,,,451.2710000000079,,response,,,7,D,,,,,Space,keypress(Space),,,,silence,---- --------- ---------- - --- ------- -- --- ------------<br>----- -- -------- ------- ---- ------ - -------- ---- -----<br>--- ------- ---- -- --- -------- --- - ----- ------ ---- --<br>-------- --- -------- -------- --- -------- ---- -- ----- -<br>-------- ---- --- ---------- --------- -- ------- ------ -<br>--------- ----- jury.,190164.59999999963,190164,189696.064,189708.79999999888,189712.729,190179.383,,52,jury.
Item 7,flow.Loop,0_4_1_0_1,2021-11-04T12:05:21.370Z,,,,,,,,,,,,,,,,,,,,,,,,,,,,,,24816.674,,completion,,,,,,,,,,,,,,,,190165,190164,165330.661,165331.79999999888,165347.326,190179.383,,,
