sender,sender_type,sender_id,timestamp,meta,,Blues,Classical,Country,Dance,Electronic,Folk,Gospel,Hip-Hop,Jazz,Latin,Musical/Film,New-age,Pop,Provo_ID,R&B,Rap,Reggae,Religious,Rock,Soul,Swing,Traditional,age,artist_name,correct,correctResponse,distraction,duration,education,ended_on,familiarity,gender,item,list,music_frequency,offensiveness,pleasantness,preference,response,response_action,snippet_file,song_name,song_rating,sound,text,time_commit,time_end,time_render,time_run,time_show,time_switch,url,word,word_ID
Instructions,html.Page,0_0,2021-12-02T16:11:52.228Z,"{""labjs_version"":""20.2.3"",""labjs_build"":{""flavor"":""production"",""commit"":""7ea907d66ca8aeef8054924ca5d82ffbe11e34e5""},""location"":""https://run.pavlovia.org/mvasilev/lab_music_c/"",""userAgent"":""Mozilla/5.0 (Windows NT 6.1; Win64; x64) AppleWebKit/537.36 (KHTML, like Gecko) Chrome/96.0.4664.45 Safari/537.36"",""platform"":""Win32"",""language"":""en-US"",""locale"":""en-US"",""timeZone"":""Europe/London"",""timezoneOffset"":0,""screen_width"":1920,""screen_height"":1080,""scroll_width"":1920,""scroll_height"":959,""window_innerWidth"":1920,""window_innerHeight"":1007,""devicePixelRatio"":1}",,,,,,,,,,,,,,,,,,,,,,,,,,,,,14547.671999999999,,form submission,,,,,,,,,,,,,,,,21342.199999999255,21341,6759.988,6759.39999999851,6793.328,21344.727,{},,
Headphones,html.Page,0_1,2021-12-02T16:11:54.190Z,,,,,,,,,,,,,,,,,,,,,,,,,,,,,,1958.773000000001,,form submission,,,,,,,,,,,,,,,,23303.89999999851,23303.5,21328.106,21342.89999999851,21344.727,23305.949,,,
Holding screen,html.Screen,0_2_0_0,2021-12-02T16:12:04.177Z,,,,,,,,,,,,,,,,,,,,,,,,,,,,,,9994.682,,timeout,,,,,,,,,,,,,,,,33290.29999999702,33283.96,23289.355,23304.5,23305.949,33300.631,,,
screen,html.Screen,0_2_0_1_0,2021-12-02T16:12:05.190Z,,,,,,,,,,,,,,,,53,,,,,,,,,,,,,,1001.8689999999988,,response,,,99,,,,,,Space,keypress(Space),,,,,When -- ----- -- ------ - ------- --- ----------<br>------------- ------ ------ ---- ---- ------- ----- -- ----<br>-------- ------- -- ---------- --- - --- ----- ----- ----<br>---- --- --- ----- --- ---- ---- ------- ----- ---- -------<br>--- --- -- ----- -- --- ---- -- --- ---- -- ------ ------<br>--- ----- -- ----,34303.89999999851,34302.5,33283.96,33290.699999999255,33300.631,34317.397,,0,When
screen,html.Screen,0_2_0_1_1,2021-12-02T16:12:05.813Z,,,,,,,,,,,,,,,,53,,,,,,,,,,,,,,608.5029999985127,,response,,,99,,,,,,Space,keypress(Space),,,,,---- it ----- -- ------ - ------- --- ----------<br>------------- ------ ------ ---- ---- ------- ----- -- ----<br>-------- ------- -- ---------- --- - --- ----- ----- ----<br>---- --- --- ----- --- ---- ---- ------- ----- ---- -------<br>--- --- -- ----- -- --- ---- -- --- ---- -- ------ ------<br>--- ----- -- ----,34926.699999999255,34925.89999999851,34300.727,34304.29999999702,34317.397,34934.359,,1,it
screen,html.Screen,0_2_0_1_2,2021-12-02T16:12:06.517Z,,,,,,,,,,,,,,,,53,,,,,,,,,,,,,,695.5409999985131,,response,,,99,,,,,,Space,keypress(Space),,,,,---- -- comes -- ------ - ------- --- ----------<br>------------- ------ ------ ---- ---- ------- ----- -- ----<br>-------- ------- -- ---------- --- - --- ----- ----- ----<br>---- --- --- ----- --- ---- ---- ------- ----- ---- -------<br>--- --- -- ----- -- --- ---- -- --- ---- -- ------ ------<br>--- ----- -- ----,35630.79999999702,35629.89999999851,34917.688,34927,34934.359,35634.561,,2,comes
screen,html.Screen,0_2_0_1_3,2021-12-02T16:12:07.069Z,,,,,,,,,,,,,,,,53,,,,,,,,,,,,,,547.3389999985084,,response,,,99,,,,,,Space,keypress(Space),,,,,---- -- ----- to ------ - ------- --- ----------<br>------------- ------ ------ ---- ---- ------- ----- -- ----<br>-------- ------- -- ---------- --- - --- ----- ----- ----<br>---- --- --- ----- --- ---- ---- ------- ----- ---- -------<br>--- --- -- ----- -- --- ---- -- --- ---- -- ------ ------<br>--- ----- -- ----,36182.89999999851,36181.89999999851,35617.89,35631,35634.561,36184.618,,3,to
screen,html.Screen,0_2_0_1_4,2021-12-02T16:12:07.549Z,,,,,,,,,,,,,,,,53,,,,,,,,,,,,,,477.2819999985077,,response,,,99,,,,,,Space,keypress(Space),,,,,---- -- ----- -- having - ------- --- ----------<br>------------- ------ ------ ---- ---- ------- ----- -- ----<br>-------- ------- -- ---------- --- - --- ----- ----- ----<br>---- --- --- ----- --- ---- ---- ------- ----- ---- -------<br>--- --- -- ----- -- --- ---- -- --- ---- -- ------ ------<br>--- ----- -- ----,36663,36661.89999999851,36167.948,36183.39999999851,36184.618,36668.166,,4,having
screen,html.Screen,0_2_0_1_5,2021-12-02T16:12:07.965Z,,,,,,,,,,,,,,,,53,,,,,,,,,,,,,,409.73399999851245,,response,,,99,,,,,,Space,keypress(Space),,,,,---- -- ----- -- ------ a ------- --- ----------<br>------------- ------ ------ ---- ---- ------- ----- -- ----<br>-------- ------- -- ---------- --- - --- ----- ----- ----<br>---- --- --- ----- --- ---- ---- ------- ----- ---- -------<br>--- --- -- ----- -- --- ---- -- --- ---- -- ------ ------<br>--- ----- -- ----,37078.699999999255,37077.89999999851,36651.495,36663.39999999851,36668.166,37084.911,,5,a
screen,html.Screen,0_2_0_1_6,2021-12-02T16:12:08.469Z,,,,,,,,,,,,,,,,53,,,,,,,,,,,,,,496.8889999970197,,response,,,99,,,,,,Space,keypress(Space),,,,,---- -- ----- -- ------ - lasting --- ----------<br>------------- ------ ------ ---- ---- ------- ----- -- ----<br>-------- ------- -- ---------- --- - --- ----- ----- ----<br>---- --- --- ----- --- ---- ---- ------- ----- ---- -------<br>--- --- -- ----- -- --- ---- -- --- ---- -- ------ ------<br>--- ----- -- ----,37582.699999999255,37581.79999999702,37068.241,37079.199999999255,37084.911,37585.082,,6,lasting
screen,html.Screen,0_2_0_1_7,2021-12-02T16:12:08.893Z,,,,,,,,,,,,,,,,53,,,,,,,,,,,,,,421.0179999977627,,response,,,99,,,,,,Space,keypress(Space),,,,,---- -- ----- -- ------ - ------- and ----------<br>------------- ------ ------ ---- ---- ------- ----- -- ----<br>-------- ------- -- ---------- --- - --- ----- ----- ----<br>---- --- --- ----- --- ---- ---- ------- ----- ---- -------<br>--- --- -- ----- -- --- ---- -- --- ---- -- ------ ------<br>--- ----- -- ----,38007.099999997765,38006.099999997765,37568.411,37583,37585.082,38018.481,,7,and
screen,html.Screen,0_2_0_1_8,2021-12-02T16:12:09.381Z,,,,,,,,,,,,,,,,53,,,,,,,,,,,,,,475.4189999985101,,response,,,99,,,,,,Space,keypress(Space),,,,,---- -- ----- -- ------ - ------- --- fulfilling<br>------------- ------ ------ ---- ---- ------- ----- -- ----<br>-------- ------- -- ---------- --- - --- ----- ----- ----<br>---- --- --- ----- --- ---- ---- ------- ----- ---- -------<br>--- --- -- ----- -- --- ---- -- --- ---- -- ------ ------<br>--- ----- -- ----,38495,38493.89999999851,38001.811,38007.39999999851,38018.481,38501.952,,8,fulfilling
screen,html.Screen,0_2_0_1_9,2021-12-02T16:12:09.917Z,,,,,,,,,,,,,,,,53,,,,,,,,,,,,,,527.8479999970223,,response,,,99,,,,,,Space,keypress(Space),,,,,"---- -- ----- -- ------ - ------- --- ----------<br>relationship, ------ ------ ---- ---- ------- ----- -- ----<br>-------- ------- -- ---------- --- - --- ----- ----- ----<br>---- --- --- ----- --- ---- ---- ------- ----- ---- -------<br>--- --- -- ----- -- --- ---- -- --- ---- -- ------ ------<br>--- ----- -- ----",39030.699999999255,39029.79999999702,38485.282,38495.29999999702,38501.952,39035.427,,9,"relationship,"
screen,html.Screen,0_2_0_1_10,2021-12-02T16:12:10.613Z,,,,,,,,,,,,,,,,53,,,,,,,,,,,,,,690.3729999970164,,response,,,99,,,,,,Space,keypress(Space),,,,,---- -- ----- -- ------ - ------- --- ----------<br>------------- common ------ ---- ---- ------- ----- -- ----<br>-------- ------- -- ---------- --- - --- ----- ----- ----<br>---- --- --- ----- --- ---- ---- ------- ----- ---- -------<br>--- --- -- ----- -- --- ---- -- --- ---- -- ------ ------<br>--- ----- -- ----,39726.79999999702,39725.79999999702,39018.757,39031,39035.427,39735.585,,10,common
screen,html.Screen,0_2_0_1_11,2021-12-02T16:12:11.237Z,,,,,,,,,,,,,,,,53,,,,,,,,,,,,,,614.1149999992558,,response,,,99,,,,,,Space,keypress(Space),,,,,---- -- ----- -- ------ - ------- --- ----------<br>------------- ------ wisdom ---- ---- ------- ----- -- ----<br>-------- ------- -- ---------- --- - --- ----- ----- ----<br>---- --- --- ----- --- ---- ---- ------- ----- ---- -------<br>--- --- -- ----- -- --- ---- -- --- ---- -- ------ ------<br>--- ----- -- ----,40350.699999999255,40349.699999999255,39718.915,39727,39735.585,40352.391,,11,wisdom
screen,html.Screen,0_2_0_1_12,2021-12-02T16:12:11.669Z,,,,,,,,,,,,,,,,53,,,,,,,,,,,,,,429.3089999992517,,response,,,99,,,,,,Space,keypress(Space),,,,,---- -- ----- -- ------ - ------- --- ----------<br>------------- ------ ------ says ---- ------- ----- -- ----<br>-------- ------- -- ---------- --- - --- ----- ----- ----<br>---- --- --- ----- --- ---- ---- ------- ----- ---- -------<br>--- --- -- ----- -- --- ---- -- --- ---- -- ------ ------<br>--- ----- -- ----,40782.5,40781.699999999255,40335.721,40350.89999999851,40352.391,40785.927,,12,says
screen,html.Screen,0_2_0_1_13,2021-12-02T16:12:12.117Z,,,,,,,,,,,,,,,,53,,,,,,,,,,,,,,443.7729999992516,,response,,,99,,,,,,Space,keypress(Space),,,,,---- -- ----- -- ------ - ------- --- ----------<br>------------- ------ ------ ---- that ------- ----- -- ----<br>-------- ------- -- ---------- --- - --- ----- ----- ----<br>---- --- --- ----- --- ---- ---- ------- ----- ---- -------<br>--- --- -- ----- -- --- ---- -- --- ---- -- ------ ------<br>--- ----- -- ----,41230.5,41229.699999999255,40769.256,40782.79999999702,40785.927,41235.961,,13,that
screen,html.Screen,0_2_0_1_14,2021-12-02T16:12:12.509Z,,,,,,,,,,,,,,,,53,,,,,,,,,,,,,,385.738999999252,,response,,,99,,,,,,Space,keypress(Space),,,,,---- -- ----- -- ------ - ------- --- ----------<br>------------- ------ ------ ---- ---- feeling ----- -- ----<br>-------- ------- -- ---------- --- - --- ----- ----- ----<br>---- --- --- ----- --- ---- ---- ------- ----- ---- -------<br>--- --- -- ----- -- --- ---- -- --- ---- -- ------ ------<br>--- ----- -- ----,41622.5,41621.699999999255,41219.291,41230.699999999255,41235.961,41636.062,,14,feeling
screen,html.Screen,0_2_0_1_15,2021-12-02T16:12:12.837Z,,,,,,,,,,,,,,,,53,,,,,,,,,,,,,,313.53799999776675,,response,,,99,,,,,,Space,keypress(Space),,,,,---- -- ----- -- ------ - ------- --- ----------<br>------------- ------ ------ ---- ---- ------- close -- ----<br>-------- ------- -- ---------- --- - --- ----- ----- ----<br>---- --- --- ----- --- ---- ---- ------- ----- ---- -------<br>--- --- -- ----- -- --- ---- -- --- ---- -- ------ ------<br>--- ----- -- ----,41950.5,41949.599999997765,41619.392,41622.79999999702,41636.062,41952.947,,15,close
screen,html.Screen,0_2_0_1_16,2021-12-02T16:12:13.181Z,,,,,,,,,,,,,,,,53,,,,,,,,,,,,,,340.7529999992548,,response,,,99,,,,,,Space,keypress(Space),,,,,---- -- ----- -- ------ - ------- --- ----------<br>------------- ------ ------ ---- ---- ------- ----- to ----<br>-------- ------- -- ---------- --- - --- ----- ----- ----<br>---- --- --- ----- --- ---- ---- ------- ----- ---- -------<br>--- --- -- ----- -- --- ---- -- --- ---- -- ------ ------<br>--- ----- -- ----,42294.39999999851,42293.699999999255,41936.275,41950.699999999255,41952.947,42302.944,,16,to
screen,html.Screen,0_2_0_1_17,2021-12-02T16:12:13.629Z,,,,,,,,,,,,,,,,53,,,,,,,,,,,,,,438.6559999977617,,response,,,99,,,,,,Space,keypress(Space),,,,,---- -- ----- -- ------ - ------- --- ----------<br>------------- ------ ------ ---- ---- ------- ----- -- your<br>-------- ------- -- ---------- --- - --- ----- ----- ----<br>---- --- --- ----- --- ---- ---- ------- ----- ---- -------<br>--- --- -- ----- -- --- ---- -- --- ---- -- ------ ------<br>--- ----- -- ----,42742.39999999851,42741.599999997765,42286.274,42294.699999999255,42302.944,42753.128,,17,your
screen,html.Screen,0_2_0_1_18,2021-12-02T16:12:14.141Z,,,,,,,,,,,,,,,,53,,,,,,,,,,,,,,500.47199999776785,,response,,,99,,,,,,Space,keypress(Space),,,,,---- -- ----- -- ------ - ------- --- ----------<br>------------- ------ ------ ---- ---- ------- ----- -- ----<br>romantic ------- -- ---------- --- - --- ----- ----- ----<br>---- --- --- ----- --- ---- ---- ------- ----- ---- -------<br>--- --- -- ----- -- --- ---- -- --- ---- -- ------ ------<br>--- ----- -- ----,43254.5,43253.599999997765,42736.457,42742.699999999255,42753.128,43269.886,,18,romantic
screen,html.Screen,0_2_0_1_19,2021-12-02T16:12:14.725Z,,,,,,,,,,,,,,,,53,,,,,,,,,,,,,,567.6140000000014,,response,,,99,,,,,,Space,keypress(Space),,,,,---- -- ----- -- ------ - ------- --- ----------<br>------------- ------ ------ ---- ---- ------- ----- -- ----<br>-------- partner -- ---------- --- - --- ----- ----- ----<br>---- --- --- ----- --- ---- ---- ------- ----- ---- -------<br>--- --- -- ----- -- --- ---- -- --- ---- -- ------ ------<br>--- ----- -- ----,43838.29999999702,43837.5,43253.216,43254.699999999255,43269.886,43853.189,,19,partner
screen,html.Screen,0_2_0_1_20,2021-12-02T16:12:15.157Z,,,,,,,,,,,,,,,,53,,,,,,,,,,,,,,416.3110000000015,,response,,,99,,,,,,Space,keypress(Space),,,,,---- -- ----- -- ------ - ------- --- ----------<br>------------- ------ ------ ---- ---- ------- ----- -- ----<br>-------- ------- is ---------- --- - --- ----- ----- ----<br>---- --- --- ----- --- ---- ---- ------- ----- ---- -------<br>--- --- -- ----- -- --- ---- -- --- ---- -- ------ ------<br>--- ----- -- ----,44270.39999999851,44269.5,43836.521,43838.699999999255,43853.189,44286.93,,20,is
screen,html.Screen,0_2_0_1_21,2021-12-02T16:12:16.021Z,,,,,,,,,,,,,,,,53,,,,,,,,,,,,,,846.8699999970195,,response,,,99,,,,,,Space,keypress(Space),,,,,---- -- ----- -- ------ - ------- --- ----------<br>------------- ------ ------ ---- ---- ------- ----- -- ----<br>-------- ------- -- paramount. --- - --- ----- ----- ----<br>---- --- --- ----- --- ---- ---- ------- ----- ---- -------<br>--- --- -- ----- -- --- ---- -- --- ---- -- ------ ------<br>--- ----- -- ----,45134.599999997765,45133.79999999702,44270.258,44270.699999999255,44286.93,45137.011,,21,paramount.
screen,html.Screen,0_2_0_1_22,2021-12-02T16:12:16.485Z,,,,,,,,,,,,,,,,53,,,,,,,,,,,,,,460.4890000000014,,response,,,99,,,,,,Space,keypress(Space),,,,,---- -- ----- -- ------ - ------- --- ----------<br>------------- ------ ------ ---- ---- ------- ----- -- ----<br>-------- ------- -- ---------- But - --- ----- ----- ----<br>---- --- --- ----- --- ---- ---- ------- ----- ---- -------<br>--- --- -- ----- -- --- ---- -- --- ---- -- ------ ------<br>--- ----- -- ----,45598.39999999851,45597.5,45120.341,45135.099999997765,45137.011,45603.834,,22,But
screen,html.Screen,0_2_0_1_23,2021-12-02T16:12:16.837Z,,,,,,,,,,,,,,,,53,,,,,,,,,,,,,,345.66599999999744,,response,,,99,,,,,,Space,keypress(Space),,,,,---- -- ----- -- ------ - ------- --- ----------<br>------------- ------ ------ ---- ---- ------- ----- -- ----<br>-------- ------- -- ---------- --- a --- ----- ----- ----<br>---- --- --- ----- --- ---- ---- ------- ----- ---- -------<br>--- --- -- ----- -- --- ---- -- --- ---- -- ------ ------<br>--- ----- -- ----,45950.39999999851,45949.5,45587.164,45598.5,45603.834,45953.976,,23,a
screen,html.Screen,0_2_0_1_24,2021-12-02T16:12:17.196Z,,,,,,,,,,,,,,,,53,,,,,,,,,,,,,,355.5239999999976,,response,,,99,,,,,,Space,keypress(Space),,,,,---- -- ----- -- ------ - ------- --- ----------<br>------------- ------ ------ ---- ---- ------- ----- -- ----<br>-------- ------- -- ---------- --- - new ----- ----- ----<br>---- --- --- ----- --- ---- ---- ------- ----- ---- -------<br>--- --- -- ----- -- --- ---- -- --- ---- -- ------ ------<br>--- ----- -- ----,46310.29999999702,46309.5,45937.305,45950.599999997765,45953.976,46320.689,,24,new
screen,html.Screen,0_2_0_1_25,2021-12-02T16:12:17.548Z,,,,,,,,,,,,,,,,53,,,,,,,,,,,,,,340.7109999985114,,response,,,99,,,,,,Space,keypress(Space),,,,,---- -- ----- -- ------ - ------- --- ----------<br>------------- ------ ------ ---- ---- ------- ----- -- ----<br>-------- ------- -- ---------- --- - --- study ----- ----<br>---- --- --- ----- --- ---- ---- ------- ----- ---- -------<br>--- --- -- ----- -- --- ---- -- --- ---- -- ------ ------<br>--- ----- -- ----,46662.199999999255,46661.39999999851,46304.019,46310.5,46320.689,46670.794,,25,study
screen,html.Screen,0_2_0_1_26,2021-12-02T16:12:17.948Z,,,,,,,,,,,,,,,,53,,,,,,,,,,,,,,390.5059999970181,,response,,,99,,,,,,Space,keypress(Space),,,,,---- -- ----- -- ------ - ------- --- ----------<br>------------- ------ ------ ---- ---- ------- ----- -- ----<br>-------- ------- -- ---------- --- - --- ----- finds ----<br>---- --- --- ----- --- ---- ---- ------- ----- ---- -------<br>--- --- -- ----- -- --- ---- -- --- ---- -- ------ ------<br>--- ----- -- ----,47062.199999999255,47061.29999999702,46654.124,46662.39999999851,46670.794,47070.944,,26,finds
screen,html.Screen,0_2_0_1_27,2021-12-02T16:12:18.260Z,,,,,,,,,,,,,,,,53,,,,,,,,,,,,,,302.45599999850674,,response,,,99,,,,,,Space,keypress(Space),,,,,---- -- ----- -- ------ - ------- --- ----------<br>------------- ------ ------ ---- ---- ------- ----- -- ----<br>-------- ------- -- ---------- --- - --- ----- ----- that<br>---- --- --- ----- --- ---- ---- ------- ----- ---- -------<br>--- --- -- ----- -- --- ---- -- --- ---- -- ------ ------<br>--- ----- -- ----,47374.29999999702,47373.39999999851,47054.273,47062.39999999851,47070.944,47387.638,,27,that
screen,html.Screen,0_2_0_1_28,2021-12-02T16:12:18.716Z,,,,,,,,,,,,,,,,53,,,,,,,,,,,,,,441.66199999702076,,response,,,99,,,,,,Space,keypress(Space),,,,,---- -- ----- -- ------ - ------- --- ----------<br>------------- ------ ------ ---- ---- ------- ----- -- ----<br>-------- ------- -- ---------- --- - --- ----- ----- ----<br>it's --- --- ----- --- ---- ---- ------- ----- ---- -------<br>--- --- -- ----- -- --- ---- -- --- ---- -- ------ ------<br>--- ----- -- ----,47830.199999999255,47829.29999999702,47370.968,47374.5,47387.638,47837.801,,28,it's
screen,html.Screen,0_2_0_1_29,2021-12-02T16:12:19.100Z,,,,,,,,,,,,,,,,53,,,,,,,,,,,,,,375.4989999970203,,response,,,99,,,,,,Space,keypress(Space),,,,,---- -- ----- -- ------ - ------- --- ----------<br>------------- ------ ------ ---- ---- ------- ----- -- ----<br>-------- ------- -- ---------- --- - --- ----- ----- ----<br>---- not --- ----- --- ---- ---- ------- ----- ---- -------<br>--- --- -- ----- -- --- ---- -- --- ---- -- ------ ------<br>--- ----- -- ----,48214.099999997765,48213.29999999702,47821.13,47830.39999999851,47837.801,48221.209,,29,not
screen,html.Screen,0_2_0_1_30,2021-12-02T16:12:19.508Z,,,,,,,,,,,,,,,,53,,,,,,,,,,,,,,400.1909999985073,,response,,,99,,,,,,Space,keypress(Space),,,,,---- -- ----- -- ------ - ------- --- ----------<br>------------- ------ ------ ---- ---- ------- ----- -- ----<br>-------- ------- -- ---------- --- - --- ----- ----- ----<br>---- --- how ----- --- ---- ---- ------- ----- ---- -------<br>--- --- -- ----- -- --- ---- -- --- ---- -- ------ ------<br>--- ----- -- ----,48622.099999997765,48621.39999999851,48204.539,48214.29999999702,48221.209,48637.988,,30,how
screen,html.Screen,0_2_0_1_31,2021-12-02T16:12:19.924Z,,,,,,,,,,,,,,,,53,,,,,,,,,,,,,,399.3119999970222,,response,,,99,,,,,,Space,keypress(Space),,,,,---- -- ----- -- ------ - ------- --- ----------<br>------------- ------ ------ ---- ---- ------- ----- -- ----<br>-------- ------- -- ---------- --- - --- ----- ----- ----<br>---- --- --- close --- ---- ---- ------- ----- ---- -------<br>--- --- -- ----- -- --- ---- -- --- ---- -- ------ ------<br>--- ----- -- ----,49038.099999997765,49037.29999999702,48621.318,48622.39999999851,48637.988,49054.753,,31,close
screen,html.Screen,0_2_0_1_32,2021-12-02T16:12:20.380Z,,,,,,,,,,,,,,,,53,,,,,,,,,,,,,,438.5469999970228,,response,,,99,,,,,,Space,keypress(Space),,,,,---- -- ----- -- ------ - ------- --- ----------<br>------------- ------ ------ ---- ---- ------- ----- -- ----<br>-------- ------- -- ---------- --- - --- ----- ----- ----<br>---- --- --- ----- you ---- ---- ------- ----- ---- -------<br>--- --- -- ----- -- --- ---- -- --- ---- -- ------ ------<br>--- ----- -- ----,49494.099999997765,49493.29999999702,49038.083,49038.39999999851,49054.753,49504.92,,32,you
screen,html.Screen,0_2_0_1_33,2021-12-02T16:12:20.748Z,,,,,,,,,,,,,,,,53,,,,,,,,,,,,,,356.3799999970215,,response,,,99,,,,,,Space,keypress(Space),,,,,---- -- ----- -- ------ - ------- --- ----------<br>------------- ------ ------ ---- ---- ------- ----- -- ----<br>-------- ------- -- ---------- --- - --- ----- ----- ----<br>---- --- --- ----- --- feel ---- ------- ----- ---- -------<br>--- --- -- ----- -- --- ---- -- --- ---- -- ------ ------<br>--- ----- -- ----,49862.099999997765,49861.29999999702,49488.249,49494.29999999702,49504.92,49871.629,,33,feel
screen,html.Screen,0_2_0_1_34,2021-12-02T16:12:21.148Z,,,,,,,,,,,,,,,,53,,,,,,,,,,,,,,389.5709999992541,,response,,,99,,,,,,Space,keypress(Space),,,,,---- -- ----- -- ------ - ------- --- ----------<br>------------- ------ ------ ---- ---- ------- ----- -- ----<br>-------- ------- -- ---------- --- - --- ----- ----- ----<br>---- --- --- ----- --- ---- that ------- ----- ---- -------<br>--- --- -- ----- -- --- ---- -- --- ---- -- ------ ------<br>--- ----- -- ----,50262.099999997765,50261.199999999255,49854.959,49862.29999999702,49871.629,50271.752,,34,that
screen,html.Screen,0_2_0_1_35,2021-12-02T16:12:21.516Z,,,,,,,,,,,,,,,,53,,,,,,,,,,,,,,357.44799999925453,,response,,,99,,,,,,Space,keypress(Space),,,,,---- -- ----- -- ------ - ------- --- ----------<br>------------- ------ ------ ---- ---- ------- ----- -- ----<br>-------- ------- -- ---------- --- - --- ----- ----- ----<br>---- --- --- ----- --- ---- ---- matters ----- ---- -------<br>--- --- -- ----- -- --- ---- -- --- ---- -- ------ ------<br>--- ----- -- ----,50630.099999997765,50629.199999999255,50255.082,50262.39999999851,50271.752,50638.505,,35,matters
screen,html.Screen,0_2_0_1_36,2021-12-02T16:12:22.212Z,,,,,,,,,,,,,,,,53,,,,,,,,,,,,,,686.6949999992576,,response,,,99,,,,,,Space,keypress(Space),,,,,"---- -- ----- -- ------ - ------- --- ----------<br>------------- ------ ------ ---- ---- ------- ----- -- ----<br>-------- ------- -- ---------- --- - --- ----- ----- ----<br>---- --- --- ----- --- ---- ---- ------- most, ---- -------<br>--- --- -- ----- -- --- ---- -- --- ---- -- ------ ------<br>--- ----- -- ----",51326.199999999255,51325.199999999255,50621.835,50630.29999999702,50638.505,51338.652,,36,"most,"
screen,html.Screen,0_2_0_1_37,2021-12-02T16:12:22.540Z,,,,,,,,,,,,,,,,53,,,,,,,,,,,,,,314.6479999970179,,response,,,99,,,,,,Space,keypress(Space),,,,,---- -- ----- -- ------ - ------- --- ----------<br>------------- ------ ------ ---- ---- ------- ----- -- ----<br>-------- ------- -- ---------- --- - --- ----- ----- ----<br>---- --- --- ----- --- ---- ---- ------- ----- it's -------<br>--- --- -- ----- -- --- ---- -- --- ---- -- ------ ------<br>--- ----- -- ----,51654.099999997765,51653.29999999702,51321.982,51326.5,51338.652,51655.346,,37,it's
screen,html.Screen,0_2_0_1_38,2021-12-02T16:12:22.980Z,,,,,,,,,,,,,,,,53,,,,,,,,,,,,,,437.8539999992572,,response,,,99,,,,,,Space,keypress(Space),,,,,---- -- ----- -- ------ - ------- --- ----------<br>------------- ------ ------ ---- ---- ------- ----- -- ----<br>-------- ------- -- ---------- --- - --- ----- ----- ----<br>---- --- --- ----- --- ---- ---- ------- ----- ---- whether<br>--- --- -- ----- -- --- ---- -- --- ---- -- ------ ------<br>--- ----- -- ----,52093.89999999851,52093.199999999255,51638.677,51654.39999999851,51655.346,52105.652,,38,whether
screen,html.Screen,0_2_0_1_39,2021-12-02T16:12:23.324Z,,,,,,,,,,,,,,,,53,,,,,,,,,,,,,,331.5479999992531,,response,,,99,,,,,,Space,keypress(Space),,,,,---- -- ----- -- ------ - ------- --- ----------<br>------------- ------ ------ ---- ---- ------- ----- -- ----<br>-------- ------- -- ---------- --- - --- ----- ----- ----<br>---- --- --- ----- --- ---- ---- ------- ----- ---- -------<br>you --- -- ----- -- --- ---- -- --- ---- -- ------ ------<br>--- ----- -- ----,52437.89999999851,52437.199999999255,52088.98,52094.199999999255,52105.652,52438.875,,39,you
screen,html.Screen,0_2_0_1_40,2021-12-02T16:12:23.724Z,,,,,,,,,,,,,,,,53,,,,,,,,,,,,,,398.32499999925494,,response,,,99,,,,,,Space,keypress(Space),,,,,---- -- ----- -- ------ - ------- --- ----------<br>------------- ------ ------ ---- ---- ------- ----- -- ----<br>-------- ------- -- ---------- --- - --- ----- ----- ----<br>---- --- --- ----- --- ---- ---- ------- ----- ---- -------<br>--- are -- ----- -- --- ---- -- --- ---- -- ------ ------<br>--- ----- -- ----,52838,52837.199999999255,52422.207,52438.199999999255,52438.875,52839.137,,40,are
screen,html.Screen,0_2_0_1_41,2021-12-02T16:12:24.052Z,,,,,,,,,,,,,,,,53,,,,,,,,,,,,,,326.0629999992525,,response,,,99,,,,,,Space,keypress(Space),,,,,---- -- ----- -- ------ - ------- --- ----------<br>------------- ------ ------ ---- ---- ------- ----- -- ----<br>-------- ------- -- ---------- --- - --- ----- ----- ----<br>---- --- --- ----- --- ---- ---- ------- ----- ---- -------<br>--- --- as ----- -- --- ---- -- --- ---- -- ------ ------<br>--- ----- -- ----,53166,53165.199999999255,52822.466,52838.199999999255,52839.137,53172.569,,41,as
screen,html.Screen,0_2_0_1_42,2021-12-02T16:12:24.412Z,,,,,,,,,,,,,,,,53,,,,,,,,,,,,,,352.6309999992518,,response,,,99,,,,,,Space,keypress(Space),,,,,---- -- ----- -- ------ - ------- --- ----------<br>------------- ------ ------ ---- ---- ------- ----- -- ----<br>-------- ------- -- ---------- --- - --- ----- ----- ----<br>---- --- --- ----- --- ---- ---- ------- ----- ---- -------<br>--- --- -- close -- --- ---- -- --- ---- -- ------ ------<br>--- ----- -- ----,53525.89999999851,53525.199999999255,53155.898,53166.099999997765,53172.569,53539.276,,42,close
screen,html.Screen,0_2_0_1_43,2021-12-02T16:12:24.756Z,,,,,,,,,,,,,,,,53,,,,,,,,,,,,,,329.8239999977668,,response,,,99,,,,,,Space,keypress(Space),,,,,---- -- ----- -- ------ - ------- --- ----------<br>------------- ------ ------ ---- ---- ------- ----- -- ----<br>-------- ------- -- ---------- --- - --- ----- ----- ----<br>---- --- --- ----- --- ---- ---- ------- ----- ---- -------<br>--- --- -- ----- as --- ---- -- --- ---- -- ------ ------<br>--- ----- -- ----,53869.89999999851,53869.099999997765,53522.606,53526.199999999255,53539.276,53872.689,,43,as
screen,html.Screen,0_2_0_1_44,2021-12-02T16:12:25.124Z,,,,,,,,,,,,,,,,53,,,,,,,,,,,,,,364.3110000000015,,response,,,99,,,,,,Space,keypress(Space),,,,,---- -- ----- -- ------ - ------- --- ----------<br>------------- ------ ------ ---- ---- ------- ----- -- ----<br>-------- ------- -- ---------- --- - --- ----- ----- ----<br>---- --- --- ----- --- ---- ---- ------- ----- ---- -------<br>--- --- -- ----- -- you ---- -- --- ---- -- ------ ------<br>--- ----- -- ----,54237.89999999851,54237,53856.019,53870.199999999255,53872.689,54239.496,,44,you
screen,html.Screen,0_2_0_1_45,2021-12-02T16:12:25.476Z,,,,,,,,,,,,,,,,53,,,,,,,,,,,,,,349.60399999776564,,response,,,99,,,,,,Space,keypress(Space),,,,,---- -- ----- -- ------ - ------- --- ----------<br>------------- ------ ------ ---- ---- ------- ----- -- ----<br>-------- ------- -- ---------- --- - --- ----- ----- ----<br>---- --- --- ----- --- ---- ---- ------- ----- ---- -------<br>--- --- -- ----- -- --- want -- --- ---- -- ------ ------<br>--- ----- -- ----,54589.89999999851,54589.099999997765,54222.825,54238.099999997765,54239.496,54606.278,,45,want
screen,html.Screen,0_2_0_1_46,2021-12-02T16:12:25.852Z,,,,,,,,,,,,,,,,53,,,,,,,,,,,,,,358.62199999851146,,response,,,99,,,,,,Space,keypress(Space),,,,,---- -- ----- -- ------ - ------- --- ----------<br>------------- ------ ------ ---- ---- ------- ----- -- ----<br>-------- ------- -- ---------- --- - --- ----- ----- ----<br>---- --- --- ----- --- ---- ---- ------- ----- ---- -------<br>--- --- -- ----- -- --- ---- to --- ---- -- ------ ------<br>--- ----- -- ----,54965.699999999255,54964.89999999851,54589.607,54590.199999999255,54606.278,54972.941,,46,to
screen,html.Screen,0_2_0_1_47,2021-12-02T16:12:26.325Z,,,,,,,,,,,,,,,,53,,,,,,,,,,,,,,464.5590000000011,,response,,,99,,,,,,Space,keypress(Space),,,,,"---- -- ----- -- ------ - ------- --- ----------<br>------------- ------ ------ ---- ---- ------- ----- -- ----<br>-------- ------- -- ---------- --- - --- ----- ----- ----<br>---- --- --- ----- --- ---- ---- ------- ----- ---- -------<br>--- --- -- ----- -- --- ---- -- be, ---- -- ------ ------<br>--- ----- -- ----",55438.29999999702,55437.5,54956.272,54965.89999999851,54972.941,55439.684,,47,"be,"
screen,html.Screen,0_2_0_1_48,2021-12-02T16:12:26.836Z,,,,,,,,,,,,,,,,53,,,,,,,,,,,,,,509.3159999999989,,response,,,99,,,,,,Space,keypress(Space),,,,,---- -- ----- -- ------ - ------- --- ----------<br>------------- ------ ------ ---- ---- ------- ----- -- ----<br>-------- ------- -- ---------- --- - --- ----- ----- ----<br>---- --- --- ----- --- ---- ---- ------- ----- ---- -------<br>--- --- -- ----- -- --- ---- -- --- even -- ------ ------<br>--- ----- -- ----,55949.79999999702,55949,55423.015,55438.599999997765,55439.684,55956.46,,48,even
screen,html.Screen,0_2_0_1_49,2021-12-02T16:12:27.196Z,,,,,,,,,,,,,,,,53,,,,,,,,,,,,,,352.5400000000009,,response,,,99,,,,,,Space,keypress(Space),,,,,---- -- ----- -- ------ - ------- --- ----------<br>------------- ------ ------ ---- ---- ------- ----- -- ----<br>-------- ------- -- ---------- --- - --- ----- ----- ----<br>---- --- --- ----- --- ---- ---- ------- ----- ---- -------<br>--- --- -- ----- -- --- ---- -- --- ---- if ------ ------<br>--- ----- -- ----,56309.699999999255,56309,55939.791,55950.099999997765,55956.46,56323.478,,49,if
screen,html.Screen,0_2_0_1_50,2021-12-02T16:12:27.652Z,,,,,,,,,,,,,,,,53,,,,,,,,,,,,,,441.4219999985071,,response,,,99,,,,,,Space,keypress(Space),,,,,---- -- ----- -- ------ - ------- --- ----------<br>------------- ------ ------ ---- ---- ------- ----- -- ----<br>-------- ------- -- ---------- --- - --- ----- ----- ----<br>---- --- --- ----- --- ---- ---- ------- ----- ---- -------<br>--- --- -- ----- -- --- ---- -- --- ---- -- that's ------<br>--- ----- -- ----,56765.79999999702,56764.89999999851,56306.805,56310,56323.478,56773.42,,50,that's
screen,html.Screen,0_2_0_1_51,2021-12-02T16:12:27.988Z,,,,,,,,,,,,,,,,53,,,,,,,,,,,,,,327.58000000000175,,response,,,99,,,,,,Space,keypress(Space),,,,,---- -- ----- -- ------ - ------- --- ----------<br>------------- ------ ------ ---- ---- ------- ----- -- ----<br>-------- ------- -- ---------- --- - --- ----- ----- ----<br>---- --- --- ----- --- ---- ---- ------- ----- ---- -------<br>--- --- -- ----- -- --- ---- -- --- ---- -- ------ really<br>--- ----- -- ----,57101.699999999255,57101,56756.75,56766,56773.42,57106.978,,51,really
screen,html.Screen,0_2_0_1_52,2021-12-02T16:12:28.436Z,,,,,,,,,,,,,,,,53,,,,,,,,,,,,,,441.9219999985071,,response,,,99,,,,,,Space,keypress(Space),,,,,---- -- ----- -- ------ - ------- --- ----------<br>------------- ------ ------ ---- ---- ------- ----- -- ----<br>-------- ------- -- ---------- --- - --- ----- ----- ----<br>---- --- --- ----- --- ---- ---- ------- ----- ---- -------<br>--- --- -- ----- -- --- ---- -- --- ---- -- ------ ------<br>not ----- -- ----,57549.699999999255,57548.89999999851,57090.306,57102,57106.978,57557.013,,52,not
screen,html.Screen,0_2_0_1_53,2021-12-02T16:12:28.820Z,,,,,,,,,,,,,,,,53,,,,,,,,,,,,,,375.987000000001,,response,,,99,,,,,,Space,keypress(Space),,,,,---- -- ----- -- ------ - ------- --- ----------<br>------------- ------ ------ ---- ---- ------- ----- -- ----<br>-------- ------- -- ---------- --- - --- ----- ----- ----<br>---- --- --- ----- --- ---- ---- ------- ----- ---- -------<br>--- --- -- ----- -- --- ---- -- --- ---- -- ------ ------<br>--- close -- ----,57933.79999999702,57933,57540.343,57550,57557.013,57940.452,,53,close
screen,html.Screen,0_2_0_1_54,2021-12-02T16:12:29.196Z,,,,,,,,,,,,,,,,53,,,,,,,,,,,,,,368.4479999985124,,response,,,99,,,,,,Space,keypress(Space),,,,,---- -- ----- -- ------ - ------- --- ----------<br>------------- ------ ------ ---- ---- ------- ----- -- ----<br>-------- ------- -- ---------- --- - --- ----- ----- ----<br>---- --- --- ----- --- ---- ---- ------- ----- ---- -------<br>--- --- -- ----- -- --- ---- -- --- ---- -- ------ ------<br>--- ----- at ----,58309.699999999255,58308.89999999851,57923.782,57934,57940.452,58323.925,,54,at
screen,html.Screen,0_2_0_1_55,2021-12-02T16:12:29.588Z,,,,,,,,,,,,,,,,53,,,,,,,,,,,,,,376.974999998507,,response,,,99,,,,,,Space,keypress(Space),,,,,---- -- ----- -- ------ - ------- --- ----------<br>------------- ------ ------ ---- ---- ------- ----- -- ----<br>-------- ------- -- ---------- --- - --- ----- ----- ----<br>---- --- --- ----- --- ---- ---- ------- ----- ---- -------<br>--- --- -- ----- -- --- ---- -- --- ---- -- ------ ------<br>--- ----- -- all.,58701.599999997765,58700.89999999851,58307.254,58309.89999999851,58323.925,58707.379,,55,all.
Item 99,flow.Loop,0_2_0_1,2021-12-02T16:12:29.592Z,,,,,,,,,,,,,,,,,,,,,,,,,,,,,,25400.26899999851,,completion,,,,C,,,,,,,,,,silence,,58706,58700.89999999851,33283.96,33290.699999999255,33300.631,58707.379,,,
Question 1,html.Screen,0_2_0_2,2021-12-02T16:12:34.519Z,,,,,,,,,,,,,,,,,,,,,,,,,,,false,FALSE,,4921.020999998509,,response,,,99,C,,,,,TRUE,click #choice-1,,,,silence,,63629.79999999702,63628.39999999851,58690.708,58706.29999999702,58707.379,63641.507,,,
Question 2,html.Screen,0_2_0_3,2021-12-02T16:12:38.823Z,,,,,,,,,,,,,,,,,,,,,,,,,,,true,TRUE,,4290.692999999257,,response,,,99,C,,,,,TRUE,click #choice-1,,,,silence,,67933.39999999851,67932.19999999925,63624.841,63630.099999997765,63641.507,67944.036,,,
Item 99,flow.Sequence,0_2_0,2021-12-02T16:12:38.823Z,,,,,,,,,,,,,,,,,,,,,,,,,,,,,,44626.250999999254,,completion,,,,,,,,,,,,,,,,67933.79999999702,67932.19999999925,23289.355,23304.39999999851,23305.949,67944.036,,,
Holding screen,html.Screen,0_2_1_0,2021-12-02T16:12:48.819Z,,,,,,,,,,,,,,,,,,,,,,,,,,,,,,10001.634000000005,,timeout,,,,,,,,,,,,,,,,77929.79999999702,77929,67927.321,67934.09999999776,67944.036,77945.67,,,
screen,html.Screen,0_2_1_1_0,2021-12-02T16:12:49.511Z,,,,,,,,,,,,,,,,54,,,,,,,,,,,,,,674.6299999970215,,response,,,100,,,,,,Space,keypress(Space),,,,,At --- ---- --- ------ ----- ------- ---- -- --- ------- --<br>------- ---------- ------ -- ----- -- ----- -- ---- ------<br>--- ----- --- --- ------ -------- ----- --- ------ ----- --<br>----- ----- ---------- --- --- ------ ------ ---- -- ------<br>------- --- ------ ----- --- ---- ------- -- ---- --- --<br>------- ------,78621.19999999925,78620.29999999702,77929,77930.09999999776,77945.67,78629.28,,0,At
screen,html.Screen,0_2_1_1_1,2021-12-02T16:12:50.262Z,,,,,,,,,,,,,,,,54,,,,,,,,,,,,,,742.619999998511,,response,,,100,,,,,,Space,keypress(Space),,,,,-- the ---- --- ------ ----- ------- ---- -- --- ------- --<br>------- ---------- ------ -- ----- -- ----- -- ---- ------<br>--- ----- --- --- ------ -------- ----- --- ------ ----- --<br>----- ----- ---------- --- --- ------ ------ ---- -- ------<br>------- --- ------ ----- --- ---- ------- -- ---- --- --<br>------- ------,79372.69999999925,79371.89999999851,78612.609,78621.5,78629.28,79379.524,,1,the
screen,html.Screen,0_2_1_1_2,2021-12-02T16:12:50.902Z,,,,,,,,,,,,,,,,54,,,,,,,,,,,,,,632.375999998505,,response,,,100,,,,,,Space,keypress(Space),,,,,-- --- time --- ------ ----- ------- ---- -- --- ------- --<br>------- ---------- ------ -- ----- -- ----- -- ---- ------<br>--- ----- --- --- ------ -------- ----- --- ------ ----- --<br>----- ----- ---------- --- --- ------ ------ ---- -- ------<br>------- --- ------ ----- --- ---- ------- -- ---- --- --<br>------- ------,80012.69999999925,80011.89999999851,79362.853,79373,79379.524,80029.697,,2,time
screen,html.Screen,0_2_1_1_3,2021-12-02T16:12:51.414Z,,,,,,,,,,,,,,,,54,,,,,,,,,,,,,,494.0029999992548,,response,,,100,,,,,,Space,keypress(Space),,,,,-- --- ---- the ------ ----- ------- ---- -- --- ------- --<br>------- ---------- ------ -- ----- -- ----- -- ---- ------<br>--- ----- --- --- ------ -------- ----- --- ------ ----- --<br>----- ----- ---------- --- --- ------ ------ ---- -- ------<br>------- --- ------ ----- --- ---- ------- -- ---- --- --<br>------- ------,80524.59999999776,80523.69999999925,80013.026,80013,80029.697,80529.771,,3,the
screen,html.Screen,0_2_1_1_4,2021-12-02T16:12:51.846Z,,,,,,,,,,,,,,,,54,,,,,,,,,,,,,,426.0289999970264,,response,,,100,,,,,,Space,keypress(Space),,,,,-- --- ---- --- French ----- ------- ---- -- --- ------- --<br>------- ---------- ------ -- ----- -- ----- -- ---- ------<br>--- ----- --- --- ------ -------- ----- --- ------ ----- --<br>----- ----- ---------- --- --- ------ ------ ---- -- ------<br>------- --- ------ ----- --- ---- ------- -- ---- --- --<br>------- ------,80956.69999999925,80955.79999999702,80513.101,80524.79999999702,80529.771,80963.281,,4,French
screen,html.Screen,0_2_1_1_5,2021-12-02T16:12:52.998Z,,,,,,,,,,,,,,,,54,,,,,,,,,,,,,,1144.518999997017,,response,,,100,,,,,,Space,keypress(Space),,,,,-- --- ---- --- ------ crown ------- ---- -- --- ------- --<br>------- ---------- ------ -- ----- -- ----- -- ---- ------<br>--- ----- --- --- ------ -------- ----- --- ------ ----- --<br>----- ----- ---------- --- --- ------ ------ ---- -- ------<br>------- --- ------ ----- --- ---- ------- -- ---- --- --<br>------- ------,82108.59999999776,82107.79999999702,80946.61,80956.89999999851,80963.281,82113.37,,5,crown
screen,html.Screen,0_2_1_1_6,2021-12-02T16:12:53.622Z,,,,,,,,,,,,,,,,54,,,,,,,,,,,,,,618.3299999992596,,response,,,100,,,,,,Space,keypress(Space),,,,,-- --- ---- --- ------ ----- secured ---- -- --- ------- --<br>------- ---------- ------ -- ----- -- ----- -- ---- ------<br>--- ----- --- --- ------ -------- ----- --- ------ ----- --<br>----- ----- ---------- --- --- ------ ------ ---- -- ------<br>------- --- ------ ----- --- ---- ------- -- ---- --- --<br>------- ------,82732.5,82731.69999999925,82096.701,82108.69999999925,82113.37,82747.169,,6,secured
screen,html.Screen,0_2_1_1_7,2021-12-02T16:12:54.102Z,,,,,,,,,,,,,,,,54,,,,,,,,,,,,,,464.4309999977704,,response,,,100,,,,,,Space,keypress(Space),,,,,-- --- ---- --- ------ ----- ------- much -- --- ------- --<br>------- ---------- ------ -- ----- -- ----- -- ---- ------<br>--- ----- --- --- ------ -------- ----- --- ------ ----- --<br>----- ----- ---------- --- --- ------ ------ ---- -- ------<br>------- --- ------ ----- --- ---- ------- -- ---- --- --<br>------- ------,83212.39999999851,83211.59999999776,82730.497,82732.69999999925,82747.169,83213.838,,7,much
screen,html.Screen,0_2_1_1_8,2021-12-02T16:12:54.758Z,,,,,,,,,,,,,,,,54,,,,,,,,,,,,,,653.7619999977614,,response,,,100,,,,,,Space,keypress(Space),,,,,-- --- ---- --- ------ ----- ------- ---- of --- ------- --<br>------- ---------- ------ -- ----- -- ----- -- ---- ------<br>--- ----- --- --- ------ -------- ----- --- ------ ----- --<br>----- ----- ---------- --- --- ------ ------ ---- -- ------<br>------- --- ------ ----- --- ---- ------- -- ---- --- --<br>------- ------,83868.5,83867.59999999776,83197.168,83212.69999999925,83213.838,83880.676,,8,of
screen,html.Screen,0_2_1_1_9,2021-12-02T16:12:55.238Z,,,,,,,,,,,,,,,,54,,,,,,,,,,,,,,467.0239999992482,,response,,,100,,,,,,Space,keypress(Space),,,,,-- --- ---- --- ------ ----- ------- ---- -- its ------- --<br>------- ---------- ------ -- ----- -- ----- -- ---- ------<br>--- ----- --- --- ------ -------- ----- --- ------ ----- --<br>----- ----- ---------- --- --- ------ ------ ---- -- ------<br>------- --- ------ ----- --- ---- ------- -- ---- --- --<br>------- ------,84348.5,84347.69999999925,83864.006,83868.79999999702,83880.676,84364.089,,9,its
screen,html.Screen,0_2_1_1_10,2021-12-02T16:12:55.622Z,,,,,,,,,,,,,,,,54,,,,,,,,,,,,,,367.5109999977576,,response,,,100,,,,,,Space,keypress(Space),,,,,-- --- ---- --- ------ ----- ------- ---- -- --- revenue --<br>------- ---------- ------ -- ----- -- ----- -- ---- ------<br>--- ----- --- --- ------ -------- ----- --- ------ ----- --<br>----- ----- ---------- --- --- ------ ------ ---- -- ------<br>------- --- ------ ----- --- ---- ------- -- ---- --- --<br>------- ------,84732.29999999702,84731.59999999776,84347.419,84348.79999999702,84364.089,84747.627,,10,revenue
screen,html.Screen,0_2_1_1_11,2021-12-02T16:12:56.230Z,,,,,,,,,,,,,,,,54,,,,,,,,,,,,,,591.9729999977717,,response,,,100,,,,,,Space,keypress(Space),,,,,-- --- ---- --- ------ ----- ------- ---- -- --- ------- by<br>------- ---------- ------ -- ----- -- ----- -- ---- ------<br>--- ----- --- --- ------ -------- ----- --- ------ ----- --<br>----- ----- ---------- --- --- ------ ------ ---- -- ------<br>------- --- ------ ----- --- ---- ------- -- ---- --- --<br>------- ------,85340.39999999851,85339.59999999776,84730.956,84732.59999999776,84747.627,85347.734,,11,by
screen,html.Screen,0_2_1_1_12,2021-12-02T16:12:57.022Z,,,,,,,,,,,,,,,,54,,,,,,,,,,,,,,783.9659999992582,,response,,,100,,,,,,Space,keypress(Space),,,,,-- --- ---- --- ------ ----- ------- ---- -- --- ------- --<br>issuing ---------- ------ -- ----- -- ----- -- ---- ------<br>--- ----- --- --- ------ -------- ----- --- ------ ----- --<br>----- ----- ---------- --- --- ------ ------ ---- -- ------<br>------- --- ------ ----- --- ---- ------- -- ---- --- --<br>------- ------,86132.39999999851,86131.69999999925,85331.064,85340.69999999925,85347.734,86147.899,,12,issuing
screen,html.Screen,0_2_1_1_13,2021-12-02T16:12:57.614Z,,,,,,,,,,,,,,,,54,,,,,,,,,,,,,,575.7009999977599,,response,,,100,,,,,,Space,keypress(Space),,,,,-- --- ---- --- ------ ----- ------- ---- -- --- ------- --<br>------- government ------ -- ----- -- ----- -- ---- ------<br>--- ----- --- --- ------ -------- ----- --- ------ ----- --<br>----- ----- ---------- --- --- ------ ------ ---- -- ------<br>------- --- ------ ----- --- ---- ------- -- ---- --- --<br>------- ------,86724.29999999702,86723.59999999776,86131.229,86132.59999999776,86147.899,86731.48,,13,government
screen,html.Screen,0_2_1_1_14,2021-12-02T16:12:58.414Z,,,,,,,,,,,,,,,,54,,,,,,,,,,,,,,792.0200000000041,,response,,,100,,,,,,Space,keypress(Space),,,,,-- --- ---- --- ------ ----- ------- ---- -- --- ------- --<br>------- ---------- bonds. -- ----- -- ----- -- ---- ------<br>--- ----- --- --- ------ -------- ----- --- ------ ----- --<br>----- ----- ---------- --- --- ------ ------ ---- -- ------<br>------- --- ------ ----- --- ---- ------- -- ---- --- --<br>------- ------,87524.29999999702,87523.5,86714.809,86724.5,86731.48,87531.63,,14,bonds.
screen,html.Screen,0_2_1_1_15,2021-12-02T16:12:58.958Z,,,,,,,,,,,,,,,,54,,,,,,,,,,,,,,535.8699999999953,,response,,,100,,,,,,Space,keypress(Space),,,,,-- --- ---- --- ------ ----- ------- ---- -- --- ------- --<br>------- ---------- ------ In ----- -- ----- -- ---- ------<br>--- ----- --- --- ------ -------- ----- --- ------ ----- --<br>----- ----- ---------- --- --- ------ ------ ---- -- ------<br>------- --- ------ ----- --- ---- ------- -- ---- --- --<br>------- ------,88068.29999999702,88067.5,87514.96,87524.59999999776,87531.63,88081.795,,15,In
screen,html.Screen,0_2_1_1_16,2021-12-02T16:12:59.494Z,,,,,,,,,,,,,,,,54,,,,,,,,,,,,,,521.7050000000017,,response,,,100,,,,,,Space,keypress(Space),,,,,"-- --- ---- --- ------ ----- ------- ---- -- --- ------- --<br>------- ---------- ------ -- 1727, -- ----- -- ---- ------<br>--- ----- --- --- ------ -------- ----- --- ------ ----- --<br>----- ----- ---------- --- --- ------ ------ ---- -- ------<br>------- --- ------ ----- --- ---- ------- -- ---- --- --<br>------- ------",88604.19999999925,88603.5,88065.125,88068.59999999776,88081.795,88615.275,,16,"1727,"
screen,html.Screen,0_2_1_1_17,2021-12-02T16:13:00.702Z,,,,,,,,,,,,,,,,54,,,,,,,,,,,,,,1196.5249999970256,,response,,,100,,,,,,Space,keypress(Space),,,,,-- --- ---- --- ------ ----- ------- ---- -- --- ------- --<br>------- ---------- ------ -- ----- in ----- -- ---- ------<br>--- ----- --- --- ------ -------- ----- --- ------ ----- --<br>----- ----- ---------- --- --- ------ ------ ---- -- ------<br>------- --- ------ ----- --- ---- ------- -- ---- --- --<br>------- ------,89812.59999999776,89811.79999999702,88598.605,88604.5,88615.275,89815.531,,17,in
screen,html.Screen,0_2_1_1_18,2021-12-02T16:13:01.382Z,,,,,,,,,,,,,,,,54,,,,,,,,,,,,,,675.8689999985072,,response,,,100,,,,,,Space,keypress(Space),,,,,-- --- ---- --- ------ ----- ------- ---- -- --- ------- --<br>------- ---------- ------ -- ----- -- order -- ---- ------<br>--- ----- --- --- ------ -------- ----- --- ------ ----- --<br>----- ----- ---------- --- --- ------ ------ ---- -- ------<br>------- --- ------ ----- --- ---- ------- -- ---- --- --<br>------- ------,90492.19999999925,90491.39999999851,89798.861,89812.89999999851,89815.531,90499.158,,18,order
screen,html.Screen,0_2_1_1_19,2021-12-02T16:13:02.142Z,,,,,,,,,,,,,,,,54,,,,,,,,,,,,,,752.2419999985141,,response,,,100,,,,,,Space,keypress(Space),,,,,-- --- ---- --- ------ ----- ------- ---- -- --- ------- --<br>------- ---------- ------ -- ----- -- ----- to ---- ------<br>--- ----- --- --- ------ -------- ----- --- ------ ----- --<br>----- ----- ---------- --- --- ------ ------ ---- -- ------<br>------- --- ------ ----- --- ---- ------- -- ---- --- --<br>------- ------,91252.19999999925,91251.39999999851,90482.487,90492.39999999851,90499.158,91265.942,,19,to
screen,html.Screen,0_2_1_1_20,2021-12-02T16:13:02.662Z,,,,,,,,,,,,,,,,54,,,,,,,,,,,,,,505.3579999970243,,response,,,100,,,,,,Space,keypress(Space),,,,,-- --- ---- --- ------ ----- ------- ---- -- --- ------- --<br>------- ---------- ------ -- ----- -- ----- -- save ------<br>--- ----- --- --- ------ -------- ----- --- ------ ----- --<br>----- ----- ---------- --- --- ------ ------ ---- -- ------<br>------- --- ------ ----- --- ---- ------- -- ---- --- --<br>------- ------,91772.29999999702,91771.29999999702,91249.272,91252.39999999851,91265.942,91782.778,,20,save
screen,html.Screen,0_2_1_1_21,2021-12-02T16:13:03.213Z,,,,,,,,,,,,,,,,54,,,,,,,,,,,,,,540.5219999970141,,response,,,100,,,,,,Space,keypress(Space),,,,,"-- --- ---- --- ------ ----- ------- ---- -- --- ------- --<br>------- ---------- ------ -- ----- -- ----- -- ---- money,<br>--- ----- --- --- ------ -------- ----- --- ------ ----- --<br>----- ----- ---------- --- --- ------ ------ ---- -- ------<br>------- --- ------ ----- --- ---- ------- -- ---- --- --<br>------- ------",92324.09999999776,92323.29999999702,91766.108,91772.5,91782.778,92332.907,,21,"money,"
screen,html.Screen,0_2_1_1_22,2021-12-02T16:13:03.733Z,,,,,,,,,,,,,,,,54,,,,,,,,,,,,,,510.39299999701325,,response,,,100,,,,,,Space,keypress(Space),,,,,-- --- ---- --- ------ ----- ------- ---- -- --- ------- --<br>------- ---------- ------ -- ----- -- ----- -- ---- ------<br>the ----- --- --- ------ -------- ----- --- ------ ----- --<br>----- ----- ---------- --- --- ------ ------ ---- -- ------<br>------- --- ------ ----- --- ---- ------- -- ---- --- --<br>------- ------,92844.09999999776,92843.29999999702,92316.237,92324.39999999851,92332.907,92849.604,,22,the
screen,html.Screen,0_2_1_1_23,2021-12-02T16:13:04.261Z,,,,,,,,,,,,,,,,54,,,,,,,,,,,,,,521.5959999992483,,response,,,100,,,,,,Space,keypress(Space),,,,,-- --- ---- --- ------ ----- ------- ---- -- --- ------- --<br>------- ---------- ------ -- ----- -- ----- -- ---- ------<br>--- state --- --- ------ -------- ----- --- ------ ----- --<br>----- ----- ---------- --- --- ------ ------ ---- -- ------<br>------- --- ------ ----- --- ---- ------- -- ---- --- --<br>------- ------,93372.09999999776,93371.19999999925,92832.935,92844.29999999702,92849.604,93383.299,,23,state
screen,html.Screen,0_2_1_1_24,2021-12-02T16:13:04.989Z,,,,,,,,,,,,,,,,54,,,,,,,,,,,,,,716.0009999970207,,response,,,100,,,,,,Space,keypress(Space),,,,,-- --- ---- --- ------ ----- ------- ---- -- --- ------- --<br>------- ---------- ------ -- ----- -- ----- -- ---- ------<br>--- ----- cut --- ------ -------- ----- --- ------ ----- --<br>----- ----- ---------- --- --- ------ ------ ---- -- ------<br>------- --- ------ ----- --- ---- ------- -- ---- --- --<br>------- ------,94100.09999999776,94099.29999999702,93366.627,93372.29999999702,93383.299,94116.783,,24,cut
screen,html.Screen,0_2_1_1_25,2021-12-02T16:13:05.813Z,,,,,,,,,,,,,,,,54,,,,,,,,,,,,,,806.4169999992591,,response,,,100,,,,,,Space,keypress(Space),,,,,-- --- ---- --- ------ ----- ------- ---- -- --- ------- --<br>------- ---------- ------ -- ----- -- ----- -- ---- ------<br>--- ----- --- the ------ -------- ----- --- ------ ----- --<br>----- ----- ---------- --- --- ------ ------ ---- -- ------<br>------- --- ------ ----- --- ---- ------- -- ---- --- --<br>------- ------,94924,94923.19999999925,94100.112,94100.29999999702,94116.783,94933.583,,25,the
screen,html.Screen,0_2_1_1_26,2021-12-02T16:13:06.509Z,,,,,,,,,,,,,,,,54,,,,,,,,,,,,,,685.6169999992562,,response,,,100,,,,,,Space,keypress(Space),,,,,-- --- ---- --- ------ ----- ------- ---- -- --- ------- --<br>------- ---------- ------ -- ----- -- ----- -- ---- ------<br>--- ----- --- --- bonds' -------- ----- --- ------ ----- --<br>----- ----- ---------- --- --- ------ ------ ---- -- ------<br>------- --- ------ ----- --- ---- ------- -- ---- --- --<br>------- ------,95619.89999999851,95619.19999999925,94916.913,94924.19999999925,94933.583,95633.644,,26,bonds'
screen,html.Screen,0_2_1_1_27,2021-12-02T16:13:07.029Z,,,,,,,,,,,,,,,,54,,,,,,,,,,,,,,505.4559999977646,,response,,,100,,,,,,Space,keypress(Space),,,,,-- --- ---- --- ------ ----- ------- ---- -- --- ------- --<br>------- ---------- ------ -- ----- -- ----- -- ---- ------<br>--- ----- --- --- ------ interest ----- --- ------ ----- --<br>----- ----- ---------- --- --- ------ ------ ---- -- ------<br>------- --- ------ ----- --- ---- ------- -- ---- --- --<br>------- ------,96139.89999999851,96139.09999999776,95616.975,95620.19999999925,95633.644,96150.641,,27,interest
screen,html.Screen,0_2_1_1_28,2021-12-02T16:13:07.557Z,,,,,,,,,,,,,,,,54,,,,,,,,,,,,,,516.4589999977616,,response,,,100,,,,,,Space,keypress(Space),,,,,-- --- ---- --- ------ ----- ------- ---- -- --- ------- --<br>------- ---------- ------ -- ----- -- ----- -- ---- ------<br>--- ----- --- --- ------ -------- rate. --- ------ ----- --<br>----- ----- ---------- --- --- ------ ------ ---- -- ------<br>------- --- ------ ----- --- ---- ------- -- ---- --- --<br>------- ------,96667.89999999851,96667.09999999776,96133.97,96140.19999999925,96150.641,96684.114,,28,rate.
screen,html.Screen,0_2_1_1_29,2021-12-02T16:13:07.965Z,,,,,,,,,,,,,,,,54,,,,,,,,,,,,,,390.98599999776343,,response,,,100,,,,,,Space,keypress(Space),,,,,-- --- ---- --- ------ ----- ------- ---- -- --- ------- --<br>------- ---------- ------ -- ----- -- ----- -- ---- ------<br>--- ----- --- --- ------ -------- ----- The ------ ----- --<br>----- ----- ---------- --- --- ------ ------ ---- -- ------<br>------- --- ------ ----- --- ---- ------- -- ---- --- --<br>------- ------,97075.89999999851,97075.09999999776,96667.443,96668.09999999776,96684.114,97084.17,,29,The
screen,html.Screen,0_2_1_1_30,2021-12-02T16:13:08.773Z,,,,,,,,,,,,,,,,54,,,,,,,,,,,,,,798.8300000000017,,response,,,100,,,,,,Space,keypress(Space),,,,,-- --- ---- --- ------ ----- ------- ---- -- --- ------- --<br>------- ---------- ------ -- ----- -- ----- -- ---- ------<br>--- ----- --- --- ------ -------- ----- --- market ----- --<br>----- ----- ---------- --- --- ------ ------ ---- -- ------<br>------- --- ------ ----- --- ---- ------- -- ---- --- --<br>------- ------,97883.89999999851,97883,97067.5,97076.09999999776,97084.17,97901.117,,30,market
screen,html.Screen,0_2_1_1_31,2021-12-02T16:13:09.477Z,,,,,,,,,,,,,,,,54,,,,,,,,,,,,,,685.8830000000016,,response,,,100,,,,,,Space,keypress(Space),,,,,-- --- ---- --- ------ ----- ------- ---- -- --- ------- --<br>------- ---------- ------ -- ----- -- ----- -- ---- ------<br>--- ----- --- --- ------ -------- ----- --- ------ value --<br>----- ----- ---------- --- --- ------ ------ ---- -- ------<br>------- --- ------ ----- --- ---- ------- -- ---- --- --<br>------- ------,98587.79999999702,98587,97884.446,97884.09999999776,97901.117,98601.249,,31,value
screen,html.Screen,0_2_1_1_32,2021-12-02T16:13:10.029Z,,,,,,,,,,,,,,,,54,,,,,,,,,,,,,,537.7510000000038,,response,,,100,,,,,,Space,keypress(Space),,,,,-- --- ---- --- ------ ----- ------- ---- -- --- ------- --<br>------- ---------- ------ -- ----- -- ----- -- ---- ------<br>--- ----- --- --- ------ -------- ----- --- ------ ----- of<br>----- ----- ---------- --- --- ------ ------ ---- -- ------<br>------- --- ------ ----- --- ---- ------- -- ---- --- --<br>------- ------,99139.79999999702,99139,98584.579,98588,98601.249,99151.375,,32,of
screen,html.Screen,0_2_1_1_33,2021-12-02T16:13:10.653Z,,,,,,,,,,,,,,,,54,,,,,,,,,,,,,,611.5249999985099,,response,,,100,,,,,,Space,keypress(Space),,,,,-- --- ---- --- ------ ----- ------- ---- -- --- ------- --<br>------- ---------- ------ -- ----- -- ----- -- ---- ------<br>--- ----- --- --- ------ -------- ----- --- ------ ----- --<br>these ----- ---------- --- --- ------ ------ ---- -- ------<br>------- --- ------ ----- --- ---- ------- -- ---- --- --<br>------- ------,99763.79999999702,99762.89999999851,99134.705,99140,99151.375,99768.272,,33,these
screen,html.Screen,0_2_1_1_34,2021-12-02T16:13:11.350Z,,,,,,,,,,,,,,,,54,,,,,,,,,,,,,,691.0279999970226,,response,,,100,,,,,,Space,keypress(Space),,,,,-- --- ---- --- ------ ----- ------- ---- -- --- ------- --<br>------- ---------- ------ -- ----- -- ----- -- ---- ------<br>--- ----- --- --- ------ -------- ----- --- ------ ----- --<br>----- bonds ---------- --- --- ------ ------ ---- -- ------<br>------- --- ------ ----- --- ---- ------- -- ---- --- --<br>------- ------,100460.19999999925,100459.29999999702,99751.601,99764,99768.272,100468.468,,34,bonds
screen,html.Screen,0_2_1_1_35,2021-12-02T16:13:12.069Z,,,,,,,,,,,,,,,,54,,,,,,,,,,,,,,710.3319999970263,,response,,,100,,,,,,Space,keypress(Space),,,,,"-- --- ---- --- ------ ----- ------- ---- -- --- ------- --<br>------- ---------- ------ -- ----- -- ----- -- ---- ------<br>--- ----- --- --- ------ -------- ----- --- ------ ----- --<br>----- ----- plummeted, --- --- ------ ------ ---- -- ------<br>------- --- ------ ----- --- ---- ------- -- ---- --- --<br>------- ------",101179.69999999925,101178.79999999702,100451.797,100460.39999999851,100468.468,101185.246,,35,"plummeted,"
screen,html.Screen,0_2_1_1_36,2021-12-02T16:13:12.597Z,,,,,,,,,,,,,,,,54,,,,,,,,,,,,,,521.5539999970206,,response,,,100,,,,,,Space,keypress(Space),,,,,-- --- ---- --- ------ ----- ------- ---- -- --- ------- --<br>------- ---------- ------ -- ----- -- ----- -- ---- ------<br>--- ----- --- --- ------ -------- ----- --- ------ ----- --<br>----- ----- ---------- and --- ------ ------ ---- -- ------<br>------- --- ------ ----- --- ---- ------- -- ---- --- --<br>------- ------,101707.69999999925,101706.79999999702,101168.576,101179.89999999851,101185.246,101718.797,,36,and
screen,html.Screen,0_2_1_1_37,2021-12-02T16:13:12.957Z,,,,,,,,,,,,,,,,54,,,,,,,,,,,,,,348.00299999701383,,response,,,100,,,,,,Space,keypress(Space),,,,,-- --- ---- --- ------ ----- ------- ---- -- --- ------- --<br>------- ---------- ------ -- ----- -- ----- -- ---- ------<br>--- ----- --- --- ------ -------- ----- --- ------ ----- --<br>----- ----- ---------- --- the ------ ------ ---- -- ------<br>------- --- ------ ----- --- ---- ------- -- ---- --- --<br>------- ------,102067.59999999776,102066.79999999702,101702.126,101707.89999999851,101718.797,102068.858,,37,the
screen,html.Screen,0_2_1_1_38,2021-12-02T16:13:13.357Z,,,,,,,,,,,,,,,,54,,,,,,,,,,,,,,398.041999998517,,response,,,100,,,,,,Space,keypress(Space),,,,,-- --- ---- --- ------ ----- ------- ---- -- --- ------- --<br>------- ---------- ------ -- ----- -- ----- -- ---- ------<br>--- ----- --- --- ------ -------- ----- --- ------ ----- --<br>----- ----- ---------- --- --- market ------ ---- -- ------<br>------- --- ------ ----- --- ---- ------- -- ---- --- --<br>------- ------,102467.59999999776,102466.89999999851,102052.188,102067.89999999851,102068.858,102468.949,,38,market
screen,html.Screen,0_2_1_1_39,2021-12-02T16:13:14.101Z,,,,,,,,,,,,,,,,54,,,,,,,,,,,,,,741.9509999985166,,response,,,100,,,,,,Space,keypress(Space),,,,,-- --- ---- --- ------ ----- ------- ---- -- --- ------- --<br>------- ---------- ------ -- ----- -- ----- -- ---- ------<br>--- ----- --- --- ------ -------- ----- --- ------ ----- --<br>----- ----- ---------- --- --- ------ became ---- -- ------<br>------- --- ------ ----- --- ---- ------- -- ---- --- --<br>------- ------,103211.59999999776,103210.89999999851,102452.279,102467.89999999851,102468.949,103219.205,,39,became
screen,html.Screen,0_2_1_1_40,2021-12-02T16:13:14.677Z,,,,,,,,,,,,,,,,54,,,,,,,,,,,,,,567.4949999992532,,response,,,100,,,,,,Space,keypress(Space),,,,,-- --- ---- --- ------ ----- ------- ---- -- --- ------- --<br>------- ---------- ------ -- ----- -- ----- -- ---- ------<br>--- ----- --- --- ------ -------- ----- --- ------ ----- --<br>----- ----- ---------- --- --- ------ ------ wary -- ------<br>------- --- ------ ----- --- ---- ------- -- ---- --- --<br>------- ------,103787.5,103786.69999999925,103202.534,103211.89999999851,103219.205,103802.418,,40,wary
screen,html.Screen,0_2_1_1_41,2021-12-02T16:13:15.005Z,,,,,,,,,,,,,,,,54,,,,,,,,,,,,,,312.38199999701465,,response,,,100,,,,,,Space,keypress(Space),,,,,-- --- ---- --- ------ ----- ------- ---- -- --- ------- --<br>------- ---------- ------ -- ----- -- ----- -- ---- ------<br>--- ----- --- --- ------ -------- ----- --- ------ ----- --<br>----- ----- ---------- --- --- ------ ------ ---- of ------<br>------- --- ------ ----- --- ---- ------- -- ---- --- --<br>------- ------,104115.59999999776,104114.79999999702,103785.75,103787.69999999925,103802.418,104119.452,,41,of
screen,html.Screen,0_2_1_1_42,2021-12-02T16:13:15.469Z,,,,,,,,,,,,,,,,54,,,,,,,,,,,,,,459.24799999925017,,response,,,100,,,,,,Space,keypress(Space),,,,,-- --- ---- --- ------ ----- ------- ---- -- --- ------- --<br>------- ---------- ------ -- ----- -- ----- -- ---- ------<br>--- ----- --- --- ------ -------- ----- --- ------ ----- --<br>----- ----- ---------- --- --- ------ ------ ---- -- French<br>------- --- ------ ----- --- ---- ------- -- ---- --- --<br>------- ------,104579.59999999776,104578.69999999925,104102.781,104115.79999999702,104119.452,104586.087,,42,French
screen,html.Screen,0_2_1_1_43,2021-12-02T16:13:15.965Z,,,,,,,,,,,,,,,,54,,,,,,,,,,,,,,488.6129999992554,,response,,,100,,,,,,Space,keypress(Space),,,,,-- --- ---- --- ------ ----- ------- ---- -- --- ------- --<br>------- ---------- ------ -- ----- -- ----- -- ---- ------<br>--- ----- --- --- ------ -------- ----- --- ------ ----- --<br>----- ----- ---------- --- --- ------ ------ ---- -- ------<br>credit. --- ------ ----- --- ---- ------- -- ---- --- --<br>------- ------,105075.39999999851,105074.69999999925,104569.418,104579.79999999702,104586.087,105086.457,,43,credit.
screen,html.Screen,0_2_1_1_44,2021-12-02T16:13:16.365Z,,,,,,,,,,,,,,,,54,,,,,,,,,,,,,,388.24299999926006,,response,,,100,,,,,,Space,keypress(Space),,,,,-- --- ---- --- ------ ----- ------- ---- -- --- ------- --<br>------- ---------- ------ -- ----- -- ----- -- ---- ------<br>--- ----- --- --- ------ -------- ----- --- ------ ----- --<br>----- ----- ---------- --- --- ------ ------ ---- -- ------<br>------- The ------ ----- --- ---- ------- -- ---- --- --<br>------- ------,105475.5,105474.69999999925,105069.784,105075.69999999925,105086.457,105486.429,,44,The
screen,html.Screen,0_2_1_1_45,2021-12-02T16:13:16.837Z,,,,,,,,,,,,,,,,54,,,,,,,,,,,,,,460.2709999992512,,response,,,100,,,,,,Space,keypress(Space),,,,,-- --- ---- --- ------ ----- ------- ---- -- --- ------- --<br>------- ---------- ------ -- ----- -- ----- -- ---- ------<br>--- ----- --- --- ------ -------- ----- --- ------ ----- --<br>----- ----- ---------- --- --- ------ ------ ---- -- ------<br>------- --- French ----- --- ---- ------- -- ---- --- --<br>------- ------,105947.5,105946.69999999925,105469.759,105475.79999999702,105486.429,105953.217,,45,French
screen,html.Screen,0_2_1_1_46,2021-12-02T16:13:17.269Z,,,,,,,,,,,,,,,,54,,,,,,,,,,,,,,425.48299999925075,,response,,,100,,,,,,Space,keypress(Space),,,,,-- --- ---- --- ------ ----- ------- ---- -- --- ------- --<br>------- ---------- ------ -- ----- -- ----- -- ---- ------<br>--- ----- --- --- ------ -------- ----- --- ------ ----- --<br>----- ----- ---------- --- --- ------ ------ ---- -- ------<br>------- --- ------ state --- ---- ------- -- ---- --- --<br>------- ------,106379.5,106378.69999999925,105936.547,105947.69999999925,105953.217,106386.667,,46,state
screen,html.Screen,0_2_1_1_47,2021-12-02T16:13:17.661Z,,,,,,,,,,,,,,,,54,,,,,,,,,,,,,,383.93299999776355,,response,,,100,,,,,,Space,keypress(Space),,,,,-- --- ---- --- ------ ----- ------- ---- -- --- ------- --<br>------- ---------- ------ -- ----- -- ----- -- ---- ------<br>--- ----- --- --- ------ -------- ----- --- ------ ----- --<br>----- ----- ---------- --- --- ------ ------ ---- -- ------<br>------- --- ------ ----- was ---- ------- -- ---- --- --<br>------- ------,106771.5,106770.59999999776,106369.997,106379.69999999925,106386.667,106786.762,,47,was
screen,html.Screen,0_2_1_1_48,2021-12-02T16:13:18.077Z,,,,,,,,,,,,,,,,54,,,,,,,,,,,,,,399.8379999977624,,response,,,100,,,,,,Space,keypress(Space),,,,,-- --- ---- --- ------ ----- ------- ---- -- --- ------- --<br>------- ---------- ------ -- ----- -- ----- -- ---- ------<br>--- ----- --- --- ------ -------- ----- --- ------ ----- --<br>----- ----- ---------- --- --- ------ ------ ---- -- ------<br>------- --- ------ ----- --- left ------- -- ---- --- --<br>------- ------,107187.39999999851,107186.59999999776,106770.092,106771.79999999702,106786.762,107203.584,,48,left
screen,html.Screen,0_2_1_1_49,2021-12-02T16:13:18.509Z,,,,,,,,,,,,,,,,54,,,,,,,,,,,,,,415.01599999776226,,response,,,100,,,,,,Space,keypress(Space),,,,,-- --- ---- --- ------ ----- ------- ---- -- --- ------- --<br>------- ---------- ------ -- ----- -- ----- -- ---- ------<br>--- ----- --- --- ------ -------- ----- --- ------ ----- --<br>----- ----- ---------- --- --- ------ ------ ---- -- ------<br>------- --- ------ ----- --- ---- without -- ---- --- --<br>------- ------,107619.39999999851,107618.59999999776,107186.913,107187.59999999776,107203.584,107636.851,,49,without
screen,html.Screen,0_2_1_1_50,2021-12-02T16:13:18.965Z,,,,,,,,,,,,,,,,54,,,,,,,,,,,,,,437.7489999977697,,response,,,100,,,,,,Space,keypress(Space),,,,,-- --- ---- --- ------ ----- ------- ---- -- --- ------- --<br>------- ---------- ------ -- ----- -- ----- -- ---- ------<br>--- ----- --- --- ------ -------- ----- --- ------ ----- --<br>----- ----- ---------- --- --- ------ ------ ---- -- ------<br>------- --- ------ ----- --- ---- ------- an ---- --- --<br>------- ------,108075.29999999702,108074.59999999776,107620.183,107619.59999999776,107636.851,108087.202,,50,an
screen,html.Screen,0_2_1_1_51,2021-12-02T16:13:19.357Z,,,,,,,,,,,,,,,,54,,,,,,,,,,,,,,379.39799999776005,,response,,,100,,,,,,Space,keypress(Space),,,,,-- --- ---- --- ------ ----- ------- ---- -- --- ------- --<br>------- ---------- ------ -- ----- -- ----- -- ---- ------<br>--- ----- --- --- ------ -------- ----- --- ------ ----- --<br>----- ----- ---------- --- --- ------ ------ ---- -- ------<br>------- --- ------ ----- --- ---- ------- -- easy --- --<br>------- ------,108467.29999999702,108466.59999999776,108070.53,108075.59999999776,108087.202,108470.549,,51,easy
screen,html.Screen,0_2_1_1_52,2021-12-02T16:13:19.741Z,,,,,,,,,,,,,,,,54,,,,,,,,,,,,,,379.95100000000093,,response,,,100,,,,,,Space,keypress(Space),,,,,-- --- ---- --- ------ ----- ------- ---- -- --- ------- --<br>------- ---------- ------ -- ----- -- ----- -- ---- ------<br>--- ----- --- --- ------ -------- ----- --- ------ ----- --<br>----- ----- ---------- --- --- ------ ------ ---- -- ------<br>------- --- ------ ----- --- ---- ------- -- ---- way --<br>------- ------,108851.29999999702,108850.5,108453.879,108467.59999999776,108470.549,108854.036,,52,way
screen,html.Screen,0_2_1_1_53,2021-12-02T16:13:20.149Z,,,,,,,,,,,,,,,,54,,,,,,,,,,,,,,404.56399999777204,,response,,,100,,,,,,Space,keypress(Space),,,,,-- --- ---- --- ------ ----- ------- ---- -- --- ------- --<br>------- ---------- ------ -- ----- -- ----- -- ---- ------<br>--- ----- --- --- ------ -------- ----- --- ------ ----- --<br>----- ----- ---------- --- --- ------ ------ ---- -- ------<br>------- --- ------ ----- --- ---- ------- -- ---- --- of<br>------- ------,109259.39999999851,109258.59999999776,108837.365,108851.5,108854.036,109270.774,,53,of
screen,html.Screen,0_2_1_1_54,2021-12-02T16:13:20.581Z,,,,,,,,,,,,,,,,54,,,,,,,,,,,,,,419.7259999999951,,response,,,100,,,,,,Space,keypress(Space),,,,,-- --- ---- --- ------ ----- ------- ---- -- --- ------- --<br>------- ---------- ------ -- ----- -- ----- -- ---- ------<br>--- ----- --- --- ------ -------- ----- --- ------ ----- --<br>----- ----- ---------- --- --- ------ ------ ---- -- ------<br>------- --- ------ ----- --- ---- ------- -- ---- --- --<br>raising ------,109691.29999999702,109690.5,109254.104,109259.5,109270.774,109704.184,,54,raising
screen,html.Screen,0_2_1_1_55,2021-12-02T16:13:20.957Z,,,,,,,,,,,,,,,,54,,,,,,,,,,,,,,362.31600000000617,,response,,,100,,,,,,Space,keypress(Space),,,,,-- --- ---- --- ------ ----- ------- ---- -- --- ------- --<br>------- ---------- ------ -- ----- -- ----- -- ---- ------<br>--- ----- --- --- ------ -------- ----- --- ------ ----- --<br>----- ----- ---------- --- --- ------ ------ ---- -- ------<br>------- --- ------ ----- --- ---- ------- -- ---- --- --<br>------- money.,110067.29999999702,110066.5,109687.514,109691.5,109704.184,110070.958,,55,money.
Item 100,flow.Loop,0_2_1_1,2021-12-02T16:13:20.957Z,,,,,,,,,,,,,,,,,,,,,,,,,,,,,,32120.83,,completion,,,,C,,,,,,,,,,silence,,110067.69999999925,110066.5,77929,77930.09999999776,77945.67,110070.958,,,
Question 1,html.Screen,0_2_1_2,2021-12-02T16:13:23.101Z,,,,,,,,,,,,,,,,,,,,,,,,,,,true,TRUE,,2139.241999999256,,response,,,100,C,,,,,TRUE,click #choice-1,,,,silence,,112211.29999999702,112210.19999999925,110054.288,110067.89999999851,110070.958,112238.241,,,
Question 2,html.Screen,0_2_1_3,2021-12-02T16:13:24.765Z,,,,,,,,,,,,,,,,,,,,,,,,,,,true,FALSE,,1635.8589999977703,,response,,,100,C,,,,,FALSE,click #choice-2,,,,silence,,113875.19999999925,113874.09999999776,112221.571,112211.59999999776,112238.241,113888.489,,,
Item 100,flow.Sequence,0_2_1,2021-12-02T16:13:24.765Z,,,,,,,,,,,,,,,,,,,,,,,,,,,,,,45930.06399999777,,completion,,,,,,,,,,,,,,,,113875.59999999776,113874.09999999776,67927.321,67934.09999999776,67944.036,113888.489,,,
End of Practice,html.Page,0_2_2,2021-12-02T16:13:27.533Z,,,,,,,,,,,,,,,,,,,,,,,,,,,,,,2754.8109999970184,,form submission,,,,,,,,,,,,,,,,116643.79999999702,116643.29999999702,113871.823,113875.69999999925,113888.489,116656.123,,,
Practice,flow.Sequence,0_2,2021-12-02T16:13:27.534Z,,,,,,,,,,,,,,,,,,,,,,,,,,,,,,93337.35099999703,,completion,,,,,,,,,,,,,,,,116644.19999999925,116643.29999999702,23289.355,23304.29999999702,23305.949,116656.123,,,
Trap_instruction,html.Page,0_3_0,2021-12-02T16:13:31.208Z,,,,,,,,,,,,,,,,,,,,,,,,,,,,,,3659.176999997013,,form submission,,,,,,,,,,,,,,,,120315.79999999702,120315.29999999702,116639.452,116644.59999999776,116656.123,120340.155,,,
trap_trial,html.Screen,0_3_1,2021-12-02T16:13:34.311Z,,,,,,,,,,,,,,,,,,,,,,,,,,,true,1,,3077.544999999256,,response,,,,,,,,,1,click #choice-1,,,,,,123418.89999999851,123417.69999999925,120306.815,120316,120340.155,123424.293,,,
end of trap trial,html.Page,0_3_2,2021-12-02T16:13:35.784Z,,,,,,,,,,,,,,,,,,,,,,,,,,,,,,1466.9069999992498,,form submission,,,,,,,,,,,,,,,,124891.69999999925,124891.19999999925,123407.623,123419.19999999925,123424.293,124891.52,,,
Trap 1,flow.Sequence,0_3,2021-12-02T16:13:35.784Z,,,,,,,,,,,,,,,,,,,,,,,,,,,,,,8235.076999999248,,completion,,,,,,,,,,,,,,,,124892.09999999776,124891.19999999925,116639.452,116644.5,116656.123,124891.52,,,
Standby,html.Page,0_4_0,2021-12-02T16:13:43.770Z,,,,,,,,,,,,,,,,,,,,,,,,,,,,,,8002.14899999999,,timeout,,,,,,,,,,,,,,,,132878,132876.998,124874.85,124892.39999999851,124891.52,132893.669,,,
Holding screen,html.Screen,0_4_1_0_0,2021-12-02T16:13:50.772Z,,,,,,,,,,,,,,,,,,,,,,,,,,,,,,7001.839000000007,,timeout,,,,,,,,,,,,,,,,139879.79999999702,139878.838,132876.998,132878.29999999702,132893.669,139895.508,,,
screen,html.Screen,0_4_1_0_1_0,2021-12-02T16:13:52.239Z,,,,,,,,,,,,,,,,51,,,,,,,,,,,,,,1450.0919999977632,,response,,,13,C,,,,,Space,keypress(Space),,,,instrumental,American -------- --- --- ---- --- --- ------ -- --------<br>---- --------- --- ------- ------------ ---------- ---------<br>--- ---------- ------- ---------- ------- -- -------- ----<br>---- --- ------ ----- ------ -- ---- --- ----- -- - -------<br>-------- -- --- --- -- ----- ----------- ----- -----------<br>---- --- ---------- --- ---- --- -- ----------,141346.69999999925,141345.59999999776,139878.838,139880.29999999702,139895.508,141362.442,,0,American
screen,html.Screen,0_4_1_0_1_1,2021-12-02T16:13:53.054Z,,,,,,,,,,,,,,,,51,,,,,,,,,,,,,,798.55799999999,,response,,,13,C,,,,,Space,keypress(Space),,,,instrumental,-------- industry --- --- ---- --- --- ------ -- --------<br>---- --------- --- ------- ------------ ---------- ---------<br>--- ---------- ------- ---------- ------- -- -------- ----<br>---- --- ------ ----- ------ -- ---- --- ----- -- - -------<br>-------- -- --- --- -- ----- ----------- ----- -----------<br>---- --- ---------- --- ---- --- -- ----------,142161.8999999985,142161,141345.772,141347,141362.442,142162.913,,1,industry
screen,html.Screen,0_4_1_0_1_2,2021-12-02T16:13:53.718Z,,,,,,,,,,,,,,,,51,,,,,,,,,,,,,,662.0869999999995,,response,,,13,C,,,,,Space,keypress(Space),,,,instrumental,-------- -------- may --- ---- --- --- ------ -- --------<br>---- --------- --- ------- ------------ ---------- ---------<br>--- ---------- ------- ---------- ------- -- -------- ----<br>---- --- ------ ----- ------ -- ---- --- ----- -- - -------<br>-------- -- --- --- -- ----- ----------- ----- -----------<br>---- --- ---------- --- ---- --- -- ----------,142825.79999999702,142825,142146.242,142162,142162.913,142829.669,,2,may
screen,html.Screen,0_4_1_0_1_3,2021-12-02T16:13:54.246Z,,,,,,,,,,,,,,,,51,,,,,,,,,,,,,,523.1309999970254,,response,,,13,C,,,,,Space,keypress(Space),,,,instrumental,-------- -------- --- not ---- --- --- ------ -- --------<br>---- --------- --- ------- ------------ ---------- ---------<br>--- ---------- ------- ---------- ------- -- -------- ----<br>---- --- ------ ----- ------ -- ---- --- ----- -- - -------<br>-------- -- --- --- -- ----- ----------- ----- -----------<br>---- --- ---------- --- ---- --- -- ----------,143353.69999999925,143352.79999999702,142812.999,142826,142829.669,143363.153,,3,not
screen,html.Screen,0_4_1_0_1_4,2021-12-02T16:13:54.774Z,,,,,,,,,,,,,,,,51,,,,,,,,,,,,,,517.7469999985187,,response,,,13,C,,,,,Space,keypress(Space),,,,instrumental,-------- -------- --- --- know --- --- ------ -- --------<br>---- --------- --- ------- ------------ ---------- ---------<br>--- ---------- ------- ---------- ------- -- -------- ----<br>---- --- ------ ----- ------ -- ---- --- ----- -- - -------<br>-------- -- --- --- -- ----- ----------- ----- -----------<br>---- --- ---------- --- ---- --- -- ----------,143881.69999999925,143880.8999999985,143346.483,143353.8999999985,143363.153,143896.516,,4,know
screen,html.Screen,0_4_1_0_1_5,2021-12-02T16:13:55.286Z,,,,,,,,,,,,,,,,51,,,,,,,,,,,,,,496.2839999970165,,response,,,13,C,,,,,Space,keypress(Space),,,,instrumental,"-------- -------- --- --- ---- it, --- ------ -- --------<br>---- --------- --- ------- ------------ ---------- ---------<br>--- ---------- ------- ---------- ------- -- -------- ----<br>---- --- ------ ----- ------ -- ---- --- ----- -- - -------<br>-------- -- --- --- -- ----- ----------- ----- -----------<br>---- --- ---------- --- ---- --- -- ----------",144393.69999999925,144392.79999999702,143879.847,143882,143896.516,144396.803,,5,"it,"
screen,html.Screen,0_4_1_0_1_6,2021-12-02T16:13:55.854Z,,,,,,,,,,,,,,,,51,,,,,,,,,,,,,,563.9969999970053,,response,,,13,C,,,,,Space,keypress(Space),,,,instrumental,-------- -------- --- --- ---- --- but ------ -- --------<br>---- --------- --- ------- ------------ ---------- ---------<br>--- ---------- ------- ---------- ------- -- -------- ----<br>---- --- ------ ----- ------ -- ---- --- ----- -- - -------<br>-------- -- --- --- -- ----- ----------- ----- -----------<br>---- --- ---------- --- ---- --- -- ----------,144961.69999999925,144960.79999999702,144380.132,144393.8999999985,144396.803,144963.505,,6,but
screen,html.Screen,0_4_1_0_1_7,2021-12-02T16:13:56.213Z,,,,,,,,,,,,,,,,51,,,,,,,,,,,,,,357.3949999985052,,response,,,13,C,,,,,Space,keypress(Space),,,,instrumental,-------- -------- --- --- ---- --- --- debate -- --------<br>---- --------- --- ------- ------------ ---------- ---------<br>--- ---------- ------- ---------- ------- -- -------- ----<br>---- --- ------ ----- ------ -- ---- --- ----- -- - -------<br>-------- -- --- --- -- ----- ----------- ----- -----------<br>---- --- ---------- --- ---- --- -- ----------,145321.59999999776,145320.8999999985,144946.835,144962,144963.505,145330.431,,7,debate
screen,html.Screen,0_4_1_0_1_8,2021-12-02T16:13:56.790Z,,,,,,,,,,,,,,,,51,,,,,,,,,,,,,,566.3689999970084,,response,,,13,C,,,,,Space,keypress(Space),,,,instrumental,-------- -------- --- --- ---- --- --- ------ in --------<br>---- --------- --- ------- ------------ ---------- ---------<br>--- ---------- ------- ---------- ------- -- -------- ----<br>---- --- ------ ----- ------ -- ---- --- ----- -- - -------<br>-------- -- --- --- -- ----- ----------- ----- -----------<br>---- --- ---------- --- ---- --- -- ----------,145897.59999999776,145896.79999999702,145313.759,145321.8999999985,145330.431,145913.823,,8,in
screen,html.Screen,0_4_1_0_1_9,2021-12-02T16:13:57.157Z,,,,,,,,,,,,,,,,51,,,,,,,,,,,,,,350.9769999970158,,response,,,13,C,,,,,Space,keypress(Space),,,,instrumental,-------- -------- --- --- ---- --- --- ------ -- Congress<br>---- --------- --- ------- ------------ ---------- ---------<br>--- ---------- ------- ---------- ------- -- -------- ----<br>---- --- ------ ----- ------ -- ---- --- ----- -- - -------<br>-------- -- --- --- -- ----- ----------- ----- -----------<br>---- --- ---------- --- ---- --- -- ----------,146265.5,146264.79999999702,145897.153,145897.8999999985,145913.823,146280.603,,9,Congress
screen,html.Screen,0_4_1_0_1_10,2021-12-02T16:13:57.797Z,,,,,,,,,,,,,,,,51,,,,,,,,,,,,,,624.196999997017,,response,,,13,C,,,,,Space,keypress(Space),,,,instrumental,-------- -------- --- --- ---- --- --- ------ -- --------<br>over --------- --- ------- ------------ ---------- ---------<br>--- ---------- ------- ---------- ------- -- -------- ----<br>---- --- ------ ----- ------ -- ---- --- ----- -- - -------<br>-------- -- --- --- -- ----- ----------- ----- -----------<br>---- --- ---------- --- ---- --- -- ----------,146905.59999999776,146904.79999999702,146263.933,146265.79999999702,146280.603,146914.087,,10,over
screen,html.Screen,0_4_1_0_1_11,2021-12-02T16:13:58.549Z,,,,,,,,,,,,,,,,51,,,,,,,,,,,,,,742.6129999992554,,response,,,13,C,,,,,Space,keypress(Space),,,,instrumental,-------- -------- --- --- ---- --- --- ------ -- --------<br>---- reforming --- ------- ------------ ---------- ---------<br>--- ---------- ------- ---------- ------- -- -------- ----<br>---- --- ------ ----- ------ -- ---- --- ----- -- - -------<br>-------- -- --- --- -- ----- ----------- ----- -----------<br>---- --- ---------- --- ---- --- -- ----------,147657.59999999776,147656.69999999925,146897.417,146905.79999999702,146914.087,147664.276,,11,reforming
screen,html.Screen,0_4_1_0_1_12,2021-12-02T16:13:59.477Z,,,,,,,,,,,,,,,,51,,,,,,,,,,,,,,920.4239999992424,,response,,,13,C,,,,,Space,keypress(Space),,,,instrumental,-------- -------- --- --- ---- --- --- ------ -- --------<br>---- --------- the ------- ------------ ---------- ---------<br>--- ---------- ------- ---------- ------- -- -------- ----<br>---- --- ------ ----- ------ -- ---- --- ----- -- - -------<br>-------- -- --- --- -- ----- ----------- ----- -----------<br>---- --- ---------- --- ---- --- -- ----------,148585.59999999776,148584.69999999925,147647.606,147657.79999999702,147664.276,148597.845,,12,the
screen,html.Screen,0_4_1_0_1_13,2021-12-02T16:14:00.181Z,,,,,,,,,,,,,,,,51,,,,,,,,,,,,,,690.8549999992538,,response,,,13,C,,,,,Space,keypress(Space),,,,instrumental,-------- -------- --- --- ---- --- --- ------ -- --------<br>---- --------- --- federal ------------ ---------- ---------<br>--- ---------- ------- ---------- ------- -- -------- ----<br>---- --- ------ ----- ------ -- ---- --- ----- -- - -------<br>-------- -- --- --- -- ----- ----------- ----- -----------<br>---- --- ---------- --- ---- --- -- ----------,149289.59999999776,149288.69999999925,148581.175,148585.69999999925,148597.845,149297.957,,13,federal
screen,html.Screen,0_4_1_0_1_14,2021-12-02T16:14:01.181Z,,,,,,,,,,,,,,,,51,,,,,,,,,,,,,,990.64299999777,,response,,,13,C,,,,,Space,keypress(Space),,,,instrumental,-------- -------- --- --- ---- --- --- ------ -- --------<br>---- --------- --- ------- government's ---------- ---------<br>--- ---------- ------- ---------- ------- -- -------- ----<br>---- --- ------ ----- ------ -- ---- --- ----- -- - -------<br>-------- -- --- --- -- ----- ----------- ----- -----------<br>---- --- ---------- --- ---- --- -- ----------,150289.3999999985,150288.59999999776,149281.287,149289.79999999702,149297.957,150298.368,,14,government's
screen,html.Screen,0_4_1_0_1_15,2021-12-02T16:14:02.478Z,,,,,,,,,,,,,,,,51,,,,,,,,,,,,,,1286.6320000000123,,response,,,13,C,,,,,Space,keypress(Space),,,,instrumental,-------- -------- --- --- ---- --- --- ------ -- --------<br>---- --------- --- ------- ------------ regulatory ---------<br>--- ---------- ------- ---------- ------- -- -------- ----<br>---- --- ------ ----- ------ -- ---- --- ----- -- - -------<br>-------- -- --- --- -- ----- ----------- ----- -----------<br>---- --- ---------- --- ---- --- -- ----------,151585.79999999702,151585,150281.697,150289.59999999776,150298.368,151598.527,,15,regulatory
screen,html.Screen,0_4_1_0_1_16,2021-12-02T16:14:03.005Z,,,,,,,,,,,,,,,,51,,,,,,,,,,,,,,513.872999998508,,response,,,13,C,,,,,Space,keypress(Space),,,,instrumental,-------- -------- --- --- ---- --- --- ------ -- --------<br>---- --------- --- ------- ------------ ---------- apparatus<br>--- ---------- ------- ---------- ------- -- -------- ----<br>---- --- ------ ----- ------ -- ---- --- ----- -- - -------<br>-------- -- --- --- -- ----- ----------- ----- -----------<br>---- --- ---------- --- ---- --- -- ----------,152113.3999999985,152112.3999999985,151581.857,151586,151598.527,152115.55,,16,apparatus
screen,html.Screen,0_4_1_0_1_17,2021-12-02T16:14:03.477Z,,,,,,,,,,,,,,,,51,,,,,,,,,,,,,,468.95000000001164,,response,,,13,C,,,,,Space,keypress(Space),,,,instrumental,-------- -------- --- --- ---- --- --- ------ -- --------<br>---- --------- --- ------- ------------ ---------- ---------<br>may ---------- ------- ---------- ------- -- -------- ----<br>---- --- ------ ----- ------ -- ---- --- ----- -- - -------<br>-------- -- --- --- -- ----- ----------- ----- -----------<br>---- --- ---------- --- ---- --- -- ----------,152585.29999999702,152584.5,152098.879,152113.5,152115.55,152598.955,,17,may
screen,html.Screen,0_4_1_0_1_18,2021-12-02T16:14:04.261Z,,,,,,,,,,,,,,,,51,,,,,,,,,,,,,,769.5450000000128,,response,,,13,C,,,,,Space,keypress(Space),,,,instrumental,-------- -------- --- --- ---- --- --- ------ -- --------<br>---- --------- --- ------- ------------ ---------- ---------<br>--- profoundly ------- ---------- ------- -- -------- ----<br>---- --- ------ ----- ------ -- ---- --- ----- -- - -------<br>-------- -- --- --- -- ----- ----------- ----- -----------<br>---- --- ---------- --- ---- --- -- ----------,153369.29999999702,153368.5,152582.285,152585.5,152598.955,153382.462,,18,profoundly
screen,html.Screen,0_4_1_0_1_19,2021-12-02T16:14:04.901Z,,,,,,,,,,,,,,,,51,,,,,,,,,,,,,,626.0380000000005,,response,,,13,C,,,,,Space,keypress(Space),,,,instrumental,-------- -------- --- --- ---- --- --- ------ -- --------<br>---- --------- --- ------- ------------ ---------- ---------<br>--- ---------- improve ---------- ------- -- -------- ----<br>---- --- ------ ----- ------ -- ---- --- ----- -- - -------<br>-------- -- --- --- -- ----- ----------- ----- -----------<br>---- --- ---------- --- ---- --- -- ----------,154009.19999999925,154008.5,153365.792,153369.59999999776,153382.462,154015.98,,19,improve
screen,html.Screen,0_4_1_0_1_20,2021-12-02T16:14:05.621Z,,,,,,,,,,,,,,,,51,,,,,,,,,,,,,,712.4199999984994,,response,,,13,C,,,,,Space,keypress(Space),,,,instrumental,-------- -------- --- --- ---- --- --- ------ -- --------<br>---- --------- --- ------- ------------ ---------- ---------<br>--- ---------- ------- companies' ------- -- -------- ----<br>---- --- ------ ----- ------ -- ---- --- ----- -- - -------<br>-------- -- --- --- -- ----- ----------- ----- -----------<br>---- --- ---------- --- ---- --- -- ----------,154729.19999999925,154728.3999999985,153999.31,154009.3999999985,154015.98,154732.836,,20,companies'
screen,html.Screen,0_4_1_0_1_21,2021-12-02T16:14:06.117Z,,,,,,,,,,,,,,,,51,,,,,,,,,,,,,,491.56399999849964,,response,,,13,C,,,,,Space,keypress(Space),,,,instrumental,-------- -------- --- --- ---- --- --- ------ -- --------<br>---- --------- --- ------- ------------ ---------- ---------<br>--- ---------- ------- ---------- ability -- -------- ----<br>---- --- ------ ----- ------ -- ---- --- ----- -- - -------<br>-------- -- --- --- -- ----- ----------- ----- -----------<br>---- --- ---------- --- ---- --- -- ----------,155225.19999999925,155224.3999999985,154716.166,154729.5,154732.836,155232.934,,21,ability
screen,html.Screen,0_4_1_0_1_22,2021-12-02T16:14:06.541Z,,,,,,,,,,,,,,,,51,,,,,,,,,,,,,,415.4659999985015,,response,,,13,C,,,,,Space,keypress(Space),,,,instrumental,-------- -------- --- --- ---- --- --- ------ -- --------<br>---- --------- --- ------- ------------ ---------- ---------<br>--- ---------- ------- ---------- ------- to -------- ----<br>---- --- ------ ----- ------ -- ---- --- ----- -- - -------<br>-------- -- --- --- -- ----- ----------- ----- -----------<br>---- --- ---------- --- ---- --- -- ----------,155649.19999999925,155648.3999999985,155216.264,155225.5,155232.934,155666.485,,22,to
screen,html.Screen,0_4_1_0_1_23,2021-12-02T16:14:07.029Z,,,,,,,,,,,,,,,,51,,,,,,,,,,,,,,469.81499999703374,,response,,,13,C,,,,,Space,keypress(Space),,,,instrumental,-------- -------- --- --- ---- --- --- ------ -- --------<br>---- --------- --- ------- ------------ ---------- ---------<br>--- ---------- ------- ---------- ------- -- survive. ----<br>---- --- ------ ----- ------ -- ---- --- ----- -- - -------<br>-------- -- --- --- -- ----- ----------- ----- -----------<br>---- --- ---------- --- ---- --- -- ----------,156137.09999999776,156136.29999999702,155649.814,155649.3999999985,155666.485,156149.793,,23,survive.
screen,html.Screen,0_4_1_0_1_24,2021-12-02T16:14:07.493Z,,,,,,,,,,,,,,,,51,,,,,,,,,,,,,,450.50699999701465,,response,,,13,C,,,,,Space,keypress(Space),,,,instrumental,-------- -------- --- --- ---- --- --- ------ -- --------<br>---- --------- --- ------- ------------ ---------- ---------<br>--- ---------- ------- ---------- ------- -- -------- This<br>---- --- ------ ----- ------ -- ---- --- ----- -- - -------<br>-------- -- --- --- -- ----- ----------- ----- -----------<br>---- --- ---------- --- ---- --- -- ----------,156601.19999999925,156600.29999999702,156133.124,156137.3999999985,156149.793,156616.765,,24,This
screen,html.Screen,0_4_1_0_1_25,2021-12-02T16:14:07.989Z,,,,,,,,,,,,,,,,51,,,,,,,,,,,,,,479.434999999241,,response,,,13,C,,,,,Space,keypress(Space),,,,instrumental,-------- -------- --- --- ---- --- --- ------ -- --------<br>---- --------- --- ------- ------------ ---------- ---------<br>--- ---------- ------- ---------- ------- -- -------- ----<br>week --- ------ ----- ------ -- ---- --- ----- -- - -------<br>-------- -- --- --- -- ----- ----------- ----- -----------<br>---- --- ---------- --- ---- --- -- ----------,157097,157096.19999999925,156600.093,156601.3999999985,156616.765,157100.139,,25,week
screen,html.Screen,0_4_1_0_1_26,2021-12-02T16:14:08.445Z,,,,,,,,,,,,,,,,51,,,,,,,,,,,,,,452.06099999925937,,response,,,13,C,,,,,Space,keypress(Space),,,,instrumental,-------- -------- --- --- ---- --- --- ------ -- --------<br>---- --------- --- ------- ------------ ---------- ---------<br>--- ---------- ------- ---------- ------- -- -------- ----<br>---- the ------ ----- ------ -- ---- --- ----- -- - -------<br>-------- -- --- --- -- ----- ----------- ----- -----------<br>---- --- ---------- --- ---- --- -- ----------,157553,157552.19999999925,157083.469,157097.29999999702,157100.139,157566.819,,26,the
screen,html.Screen,0_4_1_0_1_27,2021-12-02T16:14:08.845Z,,,,,,,,,,,,,,,,51,,,,,,,,,,,,,,385.38099999926635,,response,,,13,C,,,,,Space,keypress(Space),,,,instrumental,-------- -------- --- --- ---- --- --- ------ -- --------<br>---- --------- --- ------- ------------ ---------- ---------<br>--- ---------- ------- ---------- ------- -- -------- ----<br>---- --- Senate ----- ------ -- ---- --- ----- -- - -------<br>-------- -- --- --- -- ----- ----------- ----- -----------<br>---- --- ---------- --- ---- --- -- ----------,157952.8999999985,157952.19999999925,157550.15,157553.19999999925,157566.819,157967.126,,27,Senate
screen,html.Screen,0_4_1_0_1_28,2021-12-02T16:14:09.365Z,,,,,,,,,,,,,,,,51,,,,,,,,,,,,,,504.97399999777554,,response,,,13,C,,,,,Space,keypress(Space),,,,instrumental,-------- -------- --- --- ---- --- --- ------ -- --------<br>---- --------- --- ------- ------------ ---------- ---------<br>--- ---------- ------- ---------- ------- -- -------- ----<br>---- --- ------ seems ------ -- ---- --- ----- -- - -------<br>-------- -- --- --- -- ----- ----------- ----- -----------<br>---- --- ---------- --- ---- --- -- ----------,158473,158472.09999999776,157950.454,157953.19999999925,157967.126,158483.835,,28,seems
screen,html.Screen,0_4_1_0_1_29,2021-12-02T16:14:09.941Z,,,,,,,,,,,,,,,,51,,,,,,,,,,,,,,564.3649999992631,,response,,,13,C,,,,,Space,keypress(Space),,,,instrumental,-------- -------- --- --- ---- --- --- ------ -- --------<br>---- --------- --- ------- ------------ ---------- ---------<br>--- ---------- ------- ---------- ------- -- -------- ----<br>---- --- ------ ----- poised -- ---- --- ----- -- - -------<br>-------- -- --- --- -- ----- ----------- ----- -----------<br>---- --- ---------- --- ---- --- -- ----------,159049,159048.19999999925,158467.165,158473.19999999925,158483.835,159050.619,,29,poised
screen,html.Screen,0_4_1_0_1_30,2021-12-02T16:14:10.421Z,,,,,,,,,,,,,,,,51,,,,,,,,,,,,,,477.4809999977588,,response,,,13,C,,,,,Space,keypress(Space),,,,instrumental,-------- -------- --- --- ---- --- --- ------ -- --------<br>---- --------- --- ------- ------------ ---------- ---------<br>--- ---------- ------- ---------- ------- -- -------- ----<br>---- --- ------ ----- ------ to ---- --- ----- -- - -------<br>-------- -- --- --- -- ----- ----------- ----- -----------<br>---- --- ---------- --- ---- --- -- ----------,159528.79999999702,159528.09999999776,159033.949,159049.29999999702,159050.619,159534.168,,30,to
screen,html.Screen,0_4_1_0_1_31,2021-12-02T16:14:10.885Z,,,,,,,,,,,,,,,,51,,,,,,,,,,,,,,457.9319999977597,,response,,,13,C,,,,,Space,keypress(Space),,,,instrumental,-------- -------- --- --- ---- --- --- ------ -- --------<br>---- --------- --- ------- ------------ ---------- ---------<br>--- ---------- ------- ---------- ------- -- -------- ----<br>---- --- ------ ----- ------ -- join --- ----- -- - -------<br>-------- -- --- --- -- ----- ----------- ----- -----------<br>---- --- ---------- --- ---- --- -- ----------,159992.8999999985,159992.09999999776,159517.497,159529,159534.168,160000.956,,31,join
screen,html.Screen,0_4_1_0_1_32,2021-12-02T16:14:11.357Z,,,,,,,,,,,,,,,,51,,,,,,,,,,,,,,463.24399999924935,,response,,,13,C,,,,,Space,keypress(Space),,,,instrumental,-------- -------- --- --- ---- --- --- ------ -- --------<br>---- --------- --- ------- ------------ ---------- ---------<br>--- ---------- ------- ---------- ------- -- -------- ----<br>---- --- ------ ----- ------ -- ---- the ----- -- - -------<br>-------- -- --- --- -- ----- ----------- ----- -----------<br>---- --- ---------- --- ---- --- -- ----------,160464.8999999985,160464.19999999925,159984.285,159993.19999999925,160000.956,160467.695,,32,the
screen,html.Screen,0_4_1_0_1_33,2021-12-02T16:14:11.941Z,,,,,,,,,,,,,,,,51,,,,,,,,,,,,,,580.4049999977578,,response,,,13,C,,,,,Space,keypress(Space),,,,instrumental,-------- -------- --- --- ---- --- --- ------ -- --------<br>---- --------- --- ------- ------------ ---------- ---------<br>--- ---------- ------- ---------- ------- -- -------- ----<br>---- --- ------ ----- ------ -- ---- --- House -- - -------<br>-------- -- --- --- -- ----- ----------- ----- -----------<br>---- --- ---------- --- ---- --- -- ----------,161048.8999999985,161048.09999999776,160451.025,160465.19999999925,160467.695,161051.171,,33,House
screen,html.Screen,0_4_1_0_1_34,2021-12-02T16:14:12.365Z,,,,,,,,,,,,,,,,51,,,,,,,,,,,,,,420.8289999999979,,response,,,13,C,,,,,Space,keypress(Space),,,,instrumental,-------- -------- --- --- ---- --- --- ------ -- --------<br>---- --------- --- ------- ------------ ---------- ---------<br>--- ---------- ------- ---------- ------- -- -------- ----<br>---- --- ------ ----- ------ -- ---- --- ----- in - -------<br>-------- -- --- --- -- ----- ----------- ----- -----------<br>---- --- ---------- --- ---- --- -- ----------,161472.79999999702,161472,161034.501,161049.19999999925,161051.171,161484.524,,34,in
screen,html.Screen,0_4_1_0_1_35,2021-12-02T16:14:12.741Z,,,,,,,,,,,,,,,,51,,,,,,,,,,,,,,363.9759999999951,,response,,,13,C,,,,,Space,keypress(Space),,,,instrumental,-------- -------- --- --- ---- --- --- ------ -- --------<br>---- --------- --- ------- ------------ ---------- ---------<br>--- ---------- ------- ---------- ------- -- -------- ----<br>---- --- ------ ----- ------ -- ---- --- ----- -- a -------<br>-------- -- --- --- -- ----- ----------- ----- -----------<br>---- --- ---------- --- ---- --- -- ----------,161849.29999999702,161848.5,161467.855,161473,161484.524,161851.498,,35,a
screen,html.Screen,0_4_1_0_1_36,2021-12-02T16:14:13.197Z,,,,,,,,,,,,,,,,51,,,,,,,,,,,,,,452.6019999977725,,response,,,13,C,,,,,Space,keypress(Space),,,,instrumental,-------- -------- --- --- ---- --- --- ------ -- --------<br>---- --------- --- ------- ------------ ---------- ---------<br>--- ---------- ------- ---------- ------- -- -------- ----<br>---- --- ------ ----- ------ -- ---- --- ----- -- - massive<br>-------- -- --- --- -- ----- ----------- ----- -----------<br>---- --- ---------- --- ---- --- -- ----------,162304.8999999985,162304.09999999776,161834.826,161849.5,161851.498,162318.052,,36,massive
screen,html.Screen,0_4_1_0_1_37,2021-12-02T16:14:13.709Z,,,,,,,,,,,,,,,,51,,,,,,,,,,,,,,497.94800000000396,,response,,,13,C,,,,,Space,keypress(Space),,,,instrumental,-------- -------- --- --- ---- --- --- ------ -- --------<br>---- --------- --- ------- ------------ ---------- ---------<br>--- ---------- ------- ---------- ------- -- -------- ----<br>---- --- ------ ----- ------ -- ---- --- ----- -- - -------<br>overhaul -- --- --- -- ----- ----------- ----- -----------<br>---- --- ---------- --- ---- --- -- ----------,162816.69999999925,162816,162301.384,162305.19999999925,162318.052,162818.469,,37,overhaul
screen,html.Screen,0_4_1_0_1_38,2021-12-02T16:14:14.181Z,,,,,,,,,,,,,,,,51,,,,,,,,,,,,,,469.63099999775295,,response,,,13,C,,,,,Space,keypress(Space),,,,instrumental,-------- -------- --- --- ---- --- --- ------ -- --------<br>---- --------- --- ------- ------------ ---------- ---------<br>--- ---------- ------- ---------- ------- -- -------- ----<br>---- --- ------ ----- ------ -- ---- --- ----- -- - -------<br>-------- of --- --- -- ----- ----------- ----- -----------<br>---- --- ---------- --- ---- --- -- ----------,163288.79999999702,163288.09999999776,162801.796,162817,162818.469,163301.788,,38,of
screen,html.Screen,0_4_1_0_1_39,2021-12-02T16:14:14.773Z,,,,,,,,,,,,,,,,51,,,,,,,,,,,,,,578.2119999999995,,response,,,13,C,,,,,Space,keypress(Space),,,,instrumental,-------- -------- --- --- ---- --- --- ------ -- --------<br>---- --------- --- ------- ------------ ---------- ---------<br>--- ---------- ------- ---------- ------- -- -------- ----<br>---- --- ------ ----- ------ -- ---- --- ----- -- - -------<br>-------- -- the --- -- ----- ----------- ----- -----------<br>---- --- ---------- --- ---- --- -- ----------,163880.79999999702,163880,163285.118,163289.09999999776,163301.788,163885.152,,39,the
screen,html.Screen,0_4_1_0_1_40,2021-12-02T16:14:15.237Z,,,,,,,,,,,,,,,,51,,,,,,,,,,,,,,458.84799999999814,,response,,,13,C,,,,,Space,keypress(Space),,,,instrumental,-------- -------- --- --- ---- --- --- ------ -- --------<br>---- --------- --- ------- ------------ ---------- ---------<br>--- ---------- ------- ---------- ------- -- -------- ----<br>---- --- ------ ----- ------ -- ---- --- ----- -- - -------<br>-------- -- --- way -- ----- ----------- ----- -----------<br>---- --- ---------- --- ---- --- -- ----------,164344.79999999702,164344,163868.483,163881.09999999776,163885.152,164352.171,,40,way
screen,html.Screen,0_4_1_0_1_41,2021-12-02T16:14:15.709Z,,,,,,,,,,,,,,,,51,,,,,,,,,,,,,,463.7289999985078,,response,,,13,C,,,,,Space,keypress(Space),,,,instrumental,-------- -------- --- --- ---- --- --- ------ -- --------<br>---- --------- --- ------- ------------ ---------- ---------<br>--- ---------- ------- ---------- ------- -- -------- ----<br>---- --- ------ ----- ------ -- ---- --- ----- -- - -------<br>-------- -- --- --- in ----- ----------- ----- -----------<br>---- --- ---------- --- ---- --- -- ----------,164816.69999999925,164815.8999999985,164335.499,164344.8999999985,164352.171,164818.861,,41,in
screen,html.Screen,0_4_1_0_1_42,2021-12-02T16:14:16.133Z,,,,,,,,,,,,,,,,51,,,,,,,,,,,,,,421.03899999850546,,response,,,13,C,,,,,Space,keypress(Space),,,,instrumental,-------- -------- --- --- ---- --- --- ------ -- --------<br>---- --------- --- ------- ------------ ---------- ---------<br>--- ---------- ------- ---------- ------- -- -------- ----<br>---- --- ------ ----- ------ -- ---- --- ----- -- - -------<br>-------- -- --- --- -- which ----------- ----- -----------<br>---- --- ---------- --- ---- --- -- ----------,165240.69999999925,165239.8999999985,164802.191,164816.79999999702,164818.861,165252.354,,42,which
screen,html.Screen,0_4_1_0_1_43,2021-12-02T16:14:17.141Z,,,,,,,,,,,,,,,,51,,,,,,,,,,,,,,995.5459999985178,,response,,,13,C,,,,,Space,keypress(Space),,,,instrumental,-------- -------- --- --- ---- --- --- ------ -- --------<br>---- --------- --- ------- ------------ ---------- ---------<br>--- ---------- ------- ---------- ------- -- -------- ----<br>---- --- ------ ----- ------ -- ---- --- ----- -- - -------<br>-------- -- --- --- -- ----- bureaucrats ----- -----------<br>---- --- ---------- --- ---- --- -- ----------,166248.79999999702,166247.8999999985,165235.683,165240.8999999985,165252.354,166252.326,,43,bureaucrats
screen,html.Screen,0_4_1_0_1_44,2021-12-02T16:14:17.693Z,,,,,,,,,,,,,,,,51,,,,,,,,,,,,,,547.573999998509,,response,,,13,C,,,,,Space,keypress(Space),,,,instrumental,-------- -------- --- --- ---- --- --- ------ -- --------<br>---- --------- --- ------- ------------ ---------- ---------<br>--- ---------- ------- ---------- ------- -- -------- ----<br>---- --- ------ ----- ------ -- ---- --- ----- -- - -------<br>-------- -- --- --- -- ----- ----------- enact -----------<br>---- --- ---------- --- ---- --- -- ----------,166800.79999999702,166799.8999999985,166235.658,166249.09999999776,166252.326,166802.667,,44,enact
screen,html.Screen,0_4_1_0_1_45,2021-12-02T16:14:18.356Z,,,,,,,,,,,,,,,,51,,,,,,,,,,,,,,661.132999997033,,response,,,13,C,,,,,Space,keypress(Space),,,,instrumental,-------- -------- --- --- ---- --- --- ------ -- --------<br>---- --------- --- ------- ------------ ---------- ---------<br>--- ---------- ------- ---------- ------- -- -------- ----<br>---- --- ------ ----- ------ -- ---- --- ----- -- - -------<br>-------- -- --- --- -- ----- ----------- ----- regulations<br>---- --- ---------- --- ---- --- -- ----------,167464.59999999776,167463.79999999702,166785.997,166801,166802.667,167469.508,,45,regulations
screen,html.Screen,0_4_1_0_1_46,2021-12-02T16:14:18.980Z,,,,,,,,,,,,,,,,51,,,,,,,,,,,,,,618.2919999970181,,response,,,13,C,,,,,Space,keypress(Space),,,,instrumental,-------- -------- --- --- ---- --- --- ------ -- --------<br>---- --------- --- ------- ------------ ---------- ---------<br>--- ---------- ------- ---------- ------- -- -------- ----<br>---- --- ------ ----- ------ -- ---- --- ----- -- - -------<br>-------- -- --- --- -- ----- ----------- ----- -----------<br>that --- ---------- --- ---- --- -- ----------,168088.59999999776,168087.79999999702,167452.838,167464.79999999702,167469.508,168103.175,,46,that
screen,html.Screen,0_4_1_0_1_47,2021-12-02T16:14:19.716Z,,,,,,,,,,,,,,,,51,,,,,,,,,,,,,,720.6249999970314,,response,,,13,C,,,,,Space,keypress(Space),,,,instrumental,-------- -------- --- --- ---- --- --- ------ -- --------<br>---- --------- --- ------- ------------ ---------- ---------<br>--- ---------- ------- ---------- ------- -- -------- ----<br>---- --- ------ ----- ------ -- ---- --- ----- -- - -------<br>-------- -- --- --- -- ----- ----------- ----- -----------<br>---- are ---------- --- ---- --- -- ----------,168824.5,168823.79999999702,168086.503,168088.79999999702,168103.175,168836.444,,47,are
screen,html.Screen,0_4_1_0_1_48,2021-12-02T16:14:20.324Z,,,,,,,,,,,,,,,,51,,,,,,,,,,,,,,595.1559999977762,,response,,,13,C,,,,,Space,keypress(Space),,,,instrumental,-------- -------- --- --- ---- --- --- ------ -- --------<br>---- --------- --- ------- ------------ ---------- ---------<br>--- ---------- ------- ---------- ------- -- -------- ----<br>---- --- ------ ----- ------ -- ---- --- ----- -- - -------<br>-------- -- --- --- -- ----- ----------- ----- -----------<br>---- --- strangling --- ---- --- -- ----------,169432.3999999985,169431.59999999776,168819.775,168824.79999999702,168836.444,169436.811,,48,strangling
screen,html.Screen,0_4_1_0_1_49,2021-12-02T16:14:20.924Z,,,,,,,,,,,,,,,,51,,,,,,,,,,,,,,594.7889999977779,,response,,,13,C,,,,,Space,keypress(Space),,,,instrumental,-------- -------- --- --- ---- --- --- ------ -- --------<br>---- --------- --- ------- ------------ ---------- ---------<br>--- ---------- ------- ---------- ------- -- -------- ----<br>---- --- ------ ----- ------ -- ---- --- ----- -- - -------<br>-------- -- --- --- -- ----- ----------- ----- -----------<br>---- --- ---------- the ---- --- -- ----------,170032.3999999985,170031.59999999776,169420.14,169432.59999999776,169436.811,170036.828,,49,the
screen,html.Screen,0_4_1_0_1_50,2021-12-02T16:14:21.532Z,,,,,,,,,,,,,,,,51,,,,,,,,,,,,,,602.7719999977562,,response,,,13,C,,,,,Space,keypress(Space),,,,instrumental,-------- -------- --- --- ---- --- --- ------ -- --------<br>---- --------- --- ------- ------------ ---------- ---------<br>--- ---------- ------- ---------- ------- -- -------- ----<br>---- --- ------ ----- ------ -- ---- --- ----- -- - -------<br>-------- -- --- --- -- ----- ----------- ----- -----------<br>---- --- ---------- --- life --- -- ----------,170640.5,170639.59999999776,170020.158,170032.59999999776,170036.828,170653.846,,50,life
