sender,sender_type,sender_id,timestamp,meta,,Blues,Classical,Country,Dance,Electronic,Folk,Gospel,Hip-Hop,Jazz,Latin,Musical/Film,New-age,Pop,Provo_ID,R&B,Rap,Reggae,Religious,Rock,Soul,Swing,Traditional,age,artist_name,correct,correctResponse,distraction,duration,education,ended_on,familiarity,gender,item,list,music_frequency,offensiveness,pleasantness,preference,response,response_action,snippet_file,song_name,song_rating,sound,text,time_commit,time_end,time_render,time_run,time_show,time_switch,url,word,word_ID
Instructions,html.Page,0_0,2021-11-26T11:18:55.550Z,"{""labjs_version"":""20.2.3"",""labjs_build"":{""flavor"":""production"",""commit"":""7ea907d66ca8aeef8054924ca5d82ffbe11e34e5""},""location"":""https://run.pavlovia.org/mvasilev/lab_music_a/"",""userAgent"":""Mozilla/5.0 (Windows NT 6.1; Win64; x64) AppleWebKit/537.36 (KHTML, like Gecko) Chrome/96.0.4664.45 Safari/537.36"",""platform"":""Win32"",""language"":""en-US"",""locale"":""en-US"",""timeZone"":""Europe/London"",""timezoneOffset"":0,""screen_width"":1920,""screen_height"":1080,""scroll_width"":1920,""scroll_height"":959,""window_innerWidth"":1920,""window_innerHeight"":1007,""devicePixelRatio"":1}",,,,,,,,,,,,,,,,,,,,,,,,,,,,,29665.454999952315,,form submission,,,,,,,,,,,,,,,,38378.09999990463,38376.799999952316,8678.005,8692.200000047684,8711.345,38385.043,{},,
Headphones,html.Page,0_1,2021-11-26T11:18:58.880Z,,,,,,,,,,,,,,,,,,,,,,,,,,,,,,3322.457000000002,,form submission,,,,,,,,,,,,,,,,41708.09999990463,41707.5,38368.39,38378.799999952316,38385.043,41719.182,,,
Holding screen,html.Screen,0_2_0_0,2021-11-26T11:19:08.883Z,,,,,,,,,,,,,,,,,,,,,,,,,,,,,,10002.646999999997,,timeout,,,,,,,,,,,,,,,,51710.59999990463,51705.16,41702.514,41708.700000047684,41719.182,51721.829,,,
screen,html.Screen,0_2_0_1_0,2021-11-26T11:19:10.743Z,,,,,,,,,,,,,,,,53,,,,,,,,,,,,,,1847.570999856951,,response,,,99,,,,,,Space,keypress(Space),,,,,When -- ----- -- ------ - ------- --- ----------<br>------------- ------ ------ ---- ---- ------- ----- -- ----<br>-------- ------- -- ---------- --- - --- ----- ----- ----<br>---- --- --- ----- --- ---- ---- ------- ----- ---- -------<br>--- --- -- ----- -- --- ---- -- --- ---- -- ------ ------<br>--- ----- -- ----,53570.799999952316,53569.39999985695,51705.16,51711,51721.829,53572.505,,0,When
screen,html.Screen,0_2_0_1_1,2021-11-26T11:19:11.758Z,,,,,,,,,,,,,,,,53,,,,,,,,,,,,,,1012.7949999523189,,response,,,99,,,,,,Space,keypress(Space),,,,,---- it ----- -- ------ - ------- --- ----------<br>------------- ------ ------ ---- ---- ------- ----- -- ----<br>-------- ------- -- ---------- --- - --- ----- ----- ----<br>---- --- --- ----- --- ---- ---- ------- ----- ---- -------<br>--- --- -- ----- -- --- ---- -- --- ---- -- ------ ------<br>--- ----- -- ----,54586.299999952316,54585.299999952316,53555.834,53571.200000047684,53572.505,54589.308,,1,it
screen,html.Screen,0_2_0_1_2,2021-11-26T11:19:12.142Z,,,,,,,,,,,,,,,,53,,,,,,,,,,,,,,379.991999952319,,response,,,99,,,,,,Space,keypress(Space),,,,,---- -- comes -- ------ - ------- --- ----------<br>------------- ------ ------ ---- ---- ------- ----- -- ----<br>-------- ------- -- ---------- --- - --- ----- ----- ----<br>---- --- --- ----- --- ---- ---- ------- ----- ---- -------<br>--- --- -- ----- -- --- ---- -- --- ---- -- ------ ------<br>--- ----- -- ----,54970.09999990463,54969.299999952316,54572.638,54586.59999990463,54589.308,54972.802,,2,comes
screen,html.Screen,0_2_0_1_3,2021-11-26T11:19:12.526Z,,,,,,,,,,,,,,,,53,,,,,,,,,,,,,,380.3980000476804,,response,,,99,,,,,,Space,keypress(Space),,,,,---- -- ----- to ------ - ------- --- ----------<br>------------- ------ ------ ---- ---- ------- ----- -- ----<br>-------- ------- -- ---------- --- - --- ----- ----- ----<br>---- --- --- ----- --- ---- ---- ------- ----- ---- -------<br>--- --- -- ----- -- --- ---- -- --- ---- -- ------ ------<br>--- ----- -- ----,55354.09999990463,55353.200000047684,54956.132,54970.39999985695,54972.802,55356.182,,3,to
screen,html.Screen,0_2_0_1_4,2021-11-26T11:19:13.142Z,,,,,,,,,,,,,,,,53,,,,,,,,,,,,,,612.9179999046319,,response,,,99,,,,,,Space,keypress(Space),,,,,---- -- ----- -- having - ------- --- ----------<br>------------- ------ ------ ---- ---- ------- ----- -- ----<br>-------- ------- -- ---------- --- - --- ----- ----- ----<br>---- --- --- ----- --- ---- ---- ------- ----- ---- -------<br>--- --- -- ----- -- --- ---- -- --- ---- -- ------ ------<br>--- ----- -- ----,55970.200000047684,55969.09999990463,55339.512,55354.59999990463,55356.182,55973.156,,4,having
screen,html.Screen,0_2_0_1_5,2021-11-26T11:19:13.654Z,,,,,,,,,,,,,,,,53,,,,,,,,,,,,,,508.04400004768104,,response,,,99,,,,,,Space,keypress(Space),,,,,---- -- ----- -- ------ a ------- --- ----------<br>------------- ------ ------ ---- ---- ------- ----- -- ----<br>-------- ------- -- ---------- --- - --- ----- ----- ----<br>---- --- --- ----- --- ---- ---- ------- ----- ---- -------<br>--- --- -- ----- -- --- ---- -- --- ---- -- ------ ------<br>--- ----- -- ----,56482,56481.200000047684,55956.484,55970.59999990463,55973.156,56489.904,,5,a
screen,html.Screen,0_2_0_1_6,2021-11-26T11:19:14.190Z,,,,,,,,,,,,,,,,53,,,,,,,,,,,,,,527.1959999046303,,response,,,99,,,,,,Space,keypress(Space),,,,,---- -- ----- -- ------ - lasting --- ----------<br>------------- ------ ------ ---- ---- ------- ----- -- ----<br>-------- ------- -- ---------- --- - --- ----- ----- ----<br>---- --- --- ----- --- ---- ---- ------- ----- ---- -------<br>--- --- -- ----- -- --- ---- -- --- ---- -- ------ ------<br>--- ----- -- ----,57018.200000047684,57017.09999990463,56473.233,56482.59999990463,56489.904,57023.28,,6,lasting
screen,html.Screen,0_2_0_1_7,2021-11-26T11:19:14.718Z,,,,,,,,,,,,,,,,53,,,,,,,,,,,,,,521.9200000476849,,response,,,99,,,,,,Space,keypress(Space),,,,,---- -- ----- -- ------ - ------- and ----------<br>------------- ------ ------ ---- ---- ------- ----- -- ----<br>-------- ------- -- ---------- --- - --- ----- ----- ----<br>---- --- --- ----- --- ---- ---- ------- ----- ---- -------<br>--- --- -- ----- -- --- ---- -- --- ---- -- ------ ------<br>--- ----- -- ----,57546,57545.200000047684,57006.61,57018.39999985695,57023.28,57556.781,,7,and
screen,html.Screen,0_2_0_1_8,2021-11-26T11:19:15.222Z,,,,,,,,,,,,,,,,53,,,,,,,,,,,,,,492.3189999046299,,response,,,99,,,,,,Space,keypress(Space),,,,,---- -- ----- -- ------ - ------- --- fulfilling<br>------------- ------ ------ ---- ---- ------- ----- -- ----<br>-------- ------- -- ---------- --- - --- ----- ----- ----<br>---- --- --- ----- --- ---- ---- ------- ----- ---- -------<br>--- --- -- ----- -- --- ---- -- --- ---- -- ------ ------<br>--- ----- -- ----,58050.09999990463,58049.09999990463,57540.111,57546.39999985695,57556.781,58056.807,,8,fulfilling
screen,html.Screen,0_2_0_1_9,2021-11-26T11:19:15.694Z,,,,,,,,,,,,,,,,53,,,,,,,,,,,,,,464.1929999999993,,response,,,99,,,,,,Space,keypress(Space),,,,,"---- -- ----- -- ------ - ------- --- ----------<br>relationship, ------ ------ ---- ---- ------- ----- -- ----<br>-------- ------- -- ---------- --- - --- ----- ----- ----<br>---- --- --- ----- --- ---- ---- ------- ----- ---- -------<br>--- --- -- ----- -- --- ---- -- --- ---- -- ------ ------<br>--- ----- -- ----",58522,58521,58040.138,58050.5,58056.807,58523.73,,9,"relationship,"
screen,html.Screen,0_2_0_1_10,2021-11-26T11:19:16.118Z,,,,,,,,,,,,,,,,53,,,,,,,,,,,,,,421.66999985694565,,response,,,99,,,,,,Space,keypress(Space),,,,,---- -- ----- -- ------ - ------- --- ----------<br>------------- common ------ ---- ---- ------- ----- -- ----<br>-------- ------- -- ---------- --- - --- ----- ----- ----<br>---- --- --- ----- --- ---- ---- ------- ----- ---- -------<br>--- --- -- ----- -- --- ---- -- --- ---- -- ------ ------<br>--- ----- -- ----,58946.299999952316,58945.39999985695,58507.059,58522.200000047684,58523.73,58957.099,,10,common
screen,html.Screen,0_2_0_1_11,2021-11-26T11:19:16.518Z,,,,,,,,,,,,,,,,53,,,,,,,,,,,,,,387.900999999998,,response,,,99,,,,,,Space,keypress(Space),,,,,---- -- ----- -- ------ - ------- --- ----------<br>------------- ------ wisdom ---- ---- ------- ----- -- ----<br>-------- ------- -- ---------- --- - --- ----- ----- ----<br>---- --- --- ----- --- ---- ---- ------- ----- ---- -------<br>--- --- -- ----- -- --- ---- -- --- ---- -- ------ ------<br>--- ----- -- ----,59346,59345,58940.429,58946.5,58957.099,59357.21,,11,wisdom
screen,html.Screen,0_2_0_1_12,2021-11-26T11:19:17.054Z,,,,,,,,,,,,,,,,53,,,,,,,,,,,,,,523.7900000000009,,response,,,99,,,,,,Space,keypress(Space),,,,,---- -- ----- -- ------ - ------- --- ----------<br>------------- ------ ------ says ---- ------- ----- -- ----<br>-------- ------- -- ---------- --- - --- ----- ----- ----<br>---- --- --- ----- --- ---- ---- ------- ----- ---- -------<br>--- --- -- ----- -- --- ---- -- --- ---- -- ------ ------<br>--- ----- -- ----,59881.799999952316,59881,59340.54,59346.200000047684,59357.21,59890.517,,12,says
screen,html.Screen,0_2_0_1_13,2021-11-26T11:19:17.506Z,,,,,,,,,,,,,,,,53,,,,,,,,,,,,,,438.382999856949,,response,,,99,,,,,,Space,keypress(Space),,,,,---- -- ----- -- ------ - ------- --- ----------<br>------------- ------ ------ ---- that ------- ----- -- ----<br>-------- ------- -- ---------- --- - --- ----- ----- ----<br>---- --- --- ----- --- ---- ---- ------- ----- ---- -------<br>--- --- -- ----- -- --- ---- -- --- ---- -- ------ ------<br>--- ----- -- ----,60329.799999952316,60328.89999985695,59873.849,59882.09999990463,59890.517,60340.872,,13,that
screen,html.Screen,0_2_0_1_14,2021-11-26T11:19:18.290Z,,,,,,,,,,,,,,,,53,,,,,,,,,,,,,,772.0279998569458,,response,,,99,,,,,,Space,keypress(Space),,,,,---- -- ----- -- ------ - ------- --- ----------<br>------------- ------ ------ ---- ---- feeling ----- -- ----<br>-------- ------- -- ---------- --- - --- ----- ----- ----<br>---- --- --- ----- --- ---- ---- ------- ----- ---- -------<br>--- --- -- ----- -- --- ---- -- --- ---- -- ------ ------<br>--- ----- -- ----,61113.700000047684,61112.89999985695,60324.2,60330.09999990463,60340.872,61124.297,,14,feeling
screen,html.Screen,0_2_0_1_15,2021-11-26T11:19:18.738Z,,,,,,,,,,,,,,,,53,,,,,,,,,,,,,,436.6029998569502,,response,,,99,,,,,,Space,keypress(Space),,,,,---- -- ----- -- ------ - ------- --- ----------<br>------------- ------ ------ ---- ---- ------- close -- ----<br>-------- ------- -- ---------- --- - --- ----- ----- ----<br>---- --- --- ----- --- ---- ---- ------- ----- ---- -------<br>--- --- -- ----- -- --- ---- -- --- ---- -- ------ ------<br>--- ----- -- ----,61561.59999990463,61560.89999985695,61107.627,61114,61124.297,61574.431,,15,close
screen,html.Screen,0_2_0_1_16,2021-11-26T11:19:19.154Z,,,,,,,,,,,,,,,,53,,,,,,,,,,,,,,402.3689999523194,,response,,,99,,,,,,Space,keypress(Space),,,,,---- -- ----- -- ------ - ------- --- ----------<br>------------- ------ ------ ---- ---- ------- ----- to ----<br>-------- ------- -- ---------- --- - --- ----- ----- ----<br>---- --- --- ----- --- ---- ---- ------- ----- ---- -------<br>--- --- -- ----- -- --- ---- -- --- ---- -- ------ ------<br>--- ----- -- ----,61977.59999990463,61976.799999952316,61557.761,61561.89999985695,61574.431,61991.176,,16,to
screen,html.Screen,0_2_0_1_17,2021-11-26T11:19:19.554Z,,,,,,,,,,,,,,,,53,,,,,,,,,,,,,,385.52400004768424,,response,,,99,,,,,,Space,keypress(Space),,,,,---- -- ----- -- ------ - ------- --- ----------<br>------------- ------ ------ ---- ---- ------- ----- -- your<br>-------- ------- -- ---------- --- - --- ----- ----- ----<br>---- --- --- ----- --- ---- ---- ------- ----- ---- -------<br>--- --- -- ----- -- --- ---- -- --- ---- -- ------ ------<br>--- ----- -- ----,62377.59999990463,62376.700000047684,61974.506,61977.89999985695,61991.176,62391.267,,17,your
screen,html.Screen,0_2_0_1_18,2021-11-26T11:19:20.002Z,,,,,,,,,,,,,,,,53,,,,,,,,,,,,,,433.4330000476839,,response,,,99,,,,,,Space,keypress(Space),,,,,---- -- ----- -- ------ - ------- --- ----------<br>------------- ------ ------ ---- ---- ------- ----- -- ----<br>romantic ------- -- ---------- --- - --- ----- ----- ----<br>---- --- --- ----- --- ---- ---- ------- ----- ---- -------<br>--- --- -- ----- -- --- ---- -- --- ---- -- ------ ------<br>--- ----- -- ----,62825.5,62824.700000047684,62374.597,62377.89999985695,62391.267,62841.382,,18,romantic
screen,html.Screen,0_2_0_1_19,2021-11-26T11:19:20.714Z,,,,,,,,,,,,,,,,53,,,,,,,,,,,,,,695.3180000476859,,response,,,99,,,,,,Space,keypress(Space),,,,,---- -- ----- -- ------ - ------- --- ----------<br>------------- ------ ------ ---- ---- ------- ----- -- ----<br>-------- partner -- ---------- --- - --- ----- ----- ----<br>---- --- --- ----- --- ---- ---- ------- ----- ---- -------<br>--- --- -- ----- -- --- ---- -- --- ---- -- ------ ------<br>--- ----- -- ----,63537.5,63536.700000047684,62824.712,62825.700000047684,62841.382,63541.543,,19,partner
screen,html.Screen,0_2_0_1_20,2021-11-26T11:19:21.146Z,,,,,,,,,,,,,,,,53,,,,,,,,,,,,,,427.15700004768587,,response,,,99,,,,,,Space,keypress(Space),,,,,---- -- ----- -- ------ - ------- --- ----------<br>------------- ------ ------ ---- ---- ------- ----- -- ----<br>-------- ------- is ---------- --- - --- ----- ----- ----<br>---- --- --- ----- --- ---- ---- ------- ----- ---- -------<br>--- --- -- ----- -- --- ---- -- --- ---- -- ------ ------<br>--- ----- -- ----,63969.5,63968.700000047684,63524.873,63537.799999952316,63541.543,63975.011,,20,is
screen,html.Screen,0_2_0_1_21,2021-11-26T11:19:21.770Z,,,,,,,,,,,,,,,,53,,,,,,,,,,,,,,617.588999904634,,response,,,99,,,,,,Space,keypress(Space),,,,,---- -- ----- -- ------ - ------- --- ----------<br>------------- ------ ------ ---- ---- ------- ----- -- ----<br>-------- ------- -- paramount. --- - --- ----- ----- ----<br>---- --- --- ----- --- ---- ---- ------- ----- ---- -------<br>--- --- -- ----- -- --- ---- -- --- ---- -- ------ ------<br>--- ----- -- ----,64593.299999952316,64592.59999990463,63958.341,63969.700000047684,63975.011,64608.477,,21,paramount.
screen,html.Screen,0_2_0_1_22,2021-11-26T11:19:22.386Z,,,,,,,,,,,,,,,,53,,,,,,,,,,,,,,600.023000000001,,response,,,99,,,,,,Space,keypress(Space),,,,,---- -- ----- -- ------ - ------- --- ----------<br>------------- ------ ------ ---- ---- ------- ----- -- ----<br>-------- ------- -- ---------- But - --- ----- ----- ----<br>---- --- --- ----- --- ---- ---- ------- ----- ---- -------<br>--- --- -- ----- -- --- ---- -- --- ---- -- ------ ------<br>--- ----- -- ----,65209.299999952316,65208.5,64591.807,64593.700000047684,64608.477,65225.289,,22,But
screen,html.Screen,0_2_0_1_23,2021-11-26T11:19:22.754Z,,,,,,,,,,,,,,,,53,,,,,,,,,,,,,,351.31099990463554,,response,,,99,,,,,,Space,keypress(Space),,,,,---- -- ----- -- ------ - ------- --- ----------<br>------------- ------ ------ ---- ---- ------- ----- -- ----<br>-------- ------- -- ---------- --- a --- ----- ----- ----<br>---- --- --- ----- --- ---- ---- ------- ----- ---- -------<br>--- --- -- ----- -- --- ---- -- --- ---- -- ------ ------<br>--- ----- -- ----,65577.39999985695,65576.59999990463,65208.619,65209.59999990463,65225.289,65592.055,,23,a
screen,html.Screen,0_2_0_1_24,2021-11-26T11:19:22.978Z,,,,,,,,,,,,,,,,53,,,,,,,,,,,,,,208.34499985695584,,response,,,99,,,,,,Space,keypress(Space),,,,,---- -- ----- -- ------ - ------- --- ----------<br>------------- ------ ------ ---- ---- ------- ----- -- ----<br>-------- ------- -- ---------- --- - new ----- ----- ----<br>---- --- --- ----- --- ---- ---- ------- ----- ---- -------<br>--- --- -- ----- -- --- ---- -- --- ---- -- ------ ------<br>--- ----- -- ----,65801.20000004768,65800.39999985695,65575.385,65577.70000004768,65592.055,65808.655,,24,new
screen,html.Screen,0_2_0_1_25,2021-11-26T11:19:23.362Z,,,,,,,,,,,,,,,,53,,,,,,,,,,,,,,375.84500000000116,,response,,,99,,,,,,Space,keypress(Space),,,,,---- -- ----- -- ------ - ------- --- ----------<br>------------- ------ ------ ---- ---- ------- ----- -- ----<br>-------- ------- -- ---------- --- - --- study ----- ----<br>---- --- --- ----- --- ---- ---- ------- ----- ---- -------<br>--- --- -- ----- -- --- ---- -- --- ---- -- ------ ------<br>--- ----- -- ----,66185.29999995232,66184.5,65791.987,65801.39999985695,65808.655,66192.315,,25,study
screen,html.Screen,0_2_0_1_26,2021-11-26T11:19:23.810Z,,,,,,,,,,,,,,,,53,,,,,,,,,,,,,,440.1849999999977,,response,,,99,,,,,,Space,keypress(Space),,,,,---- -- ----- -- ------ - ------- --- ----------<br>------------- ------ ------ ---- ---- ------- ----- -- ----<br>-------- ------- -- ---------- --- - --- ----- finds ----<br>---- --- --- ----- --- ---- ---- ------- ----- ---- -------<br>--- --- -- ----- -- --- ---- -- --- ---- -- ------ ------<br>--- ----- -- ----,66633.29999995232,66632.5,66175.642,66185.59999990463,66192.315,66642.294,,26,finds
screen,html.Screen,0_2_0_1_27,2021-11-26T11:19:24.114Z,,,,,,,,,,,,,,,,53,,,,,,,,,,,,,,294.2060000000056,,response,,,99,,,,,,Space,keypress(Space),,,,,---- -- ----- -- ------ - ------- --- ----------<br>------------- ------ ------ ---- ---- ------- ----- -- ----<br>-------- ------- -- ---------- --- - --- ----- ----- that<br>---- --- --- ----- --- ---- ---- ------- ----- ---- -------<br>--- --- -- ----- -- --- ---- -- --- ---- -- ------ ------<br>--- ----- -- ----,66937.20000004768,66936.5,66625.624,66633.59999990463,66642.294,66942.264,,27,that
screen,html.Screen,0_2_0_1_28,2021-11-26T11:19:24.610Z,,,,,,,,,,,,,,,,53,,,,,,,,,,,,,,490.1359998569533,,response,,,99,,,,,,Space,keypress(Space),,,,,---- -- ----- -- ------ - ------- --- ----------<br>------------- ------ ------ ---- ---- ------- ----- -- ----<br>-------- ------- -- ---------- --- - --- ----- ----- ----<br>it's --- --- ----- --- ---- ---- ------- ----- ---- -------<br>--- --- -- ----- -- --- ---- -- --- ---- -- ------ ------<br>--- ----- -- ----,67433.20000004768,67432.39999985695,66925.596,66937.59999990463,66942.264,67442.583,,28,it's
screen,html.Screen,0_2_0_1_29,2021-11-26T11:19:24.962Z,,,,,,,,,,,,,,,,53,,,,,,,,,,,,,,341.81699985695013,,response,,,99,,,,,,Space,keypress(Space),,,,,---- -- ----- -- ------ - ------- --- ----------<br>------------- ------ ------ ---- ---- ------- ----- -- ----<br>-------- ------- -- ---------- --- - --- ----- ----- ----<br>---- not --- ----- --- ---- ---- ------- ----- ---- -------<br>--- --- -- ----- -- --- ---- -- --- ---- -- ------ ------<br>--- ----- -- ----,67785.39999985695,67784.39999985695,67425.911,67433.5,67442.583,67792.59,,29,not
screen,html.Screen,0_2_0_1_30,2021-11-26T11:19:25.330Z,,,,,,,,,,,,,,,,53,,,,,,,,,,,,,,359.80999985695234,,response,,,99,,,,,,Space,keypress(Space),,,,,---- -- ----- -- ------ - ------- --- ----------<br>------------- ------ ------ ---- ---- ------- ----- -- ----<br>-------- ------- -- ---------- --- - --- ----- ----- ----<br>---- --- how ----- --- ---- ---- ------- ----- ---- -------<br>--- --- -- ----- -- --- ---- -- --- ---- -- ------ ------<br>--- ----- -- ----,68153.20000004768,68152.39999985695,67775.92,67785.59999990463,67792.59,68159.206,,30,how
screen,html.Screen,0_2_0_1_31,2021-11-26T11:19:25.666Z,,,,,,,,,,,,,,,,53,,,,,,,,,,,,,,329.0939999523107,,response,,,99,,,,,,Space,keypress(Space),,,,,---- -- ----- -- ------ - ------- --- ----------<br>------------- ------ ------ ---- ---- ------- ----- -- ----<br>-------- ------- -- ---------- --- - --- ----- ----- ----<br>---- --- --- close --- ---- ---- ------- ----- ---- -------<br>--- --- -- ----- -- --- ---- -- --- ---- -- ------ ------<br>--- ----- -- ----,68489.09999990463,68488.29999995232,68142.538,68153.39999985695,68159.206,68492.751,,31,close
screen,html.Screen,0_2_0_1_32,2021-11-26T11:19:26.058Z,,,,,,,,,,,,,,,,53,,,,,,,,,,,,,,387.54899995231244,,response,,,99,,,,,,Space,keypress(Space),,,,,---- -- ----- -- ------ - ------- --- ----------<br>------------- ------ ------ ---- ---- ------- ----- -- ----<br>-------- ------- -- ---------- --- - --- ----- ----- ----<br>---- --- --- ----- you ---- ---- ------- ----- ---- -------<br>--- --- -- ----- -- --- ---- -- --- ---- -- ------ ------<br>--- ----- -- ----,68881.09999990463,68880.29999995232,68476.08,68489.39999985695,68492.751,68892.931,,32,you
screen,html.Screen,0_2_0_1_33,2021-11-26T11:19:26.386Z,,,,,,,,,,,,,,,,53,,,,,,,,,,,,,,315.76900004768686,,response,,,99,,,,,,Space,keypress(Space),,,,,---- -- ----- -- ------ - ------- --- ----------<br>------------- ------ ------ ---- ---- ------- ----- -- ----<br>-------- ------- -- ---------- --- - --- ----- ----- ----<br>---- --- --- ----- --- feel ---- ------- ----- ---- -------<br>--- --- -- ----- -- --- ---- -- --- ---- -- ------ ------<br>--- ----- -- ----,69209.5,69208.70000004768,68876.259,68881.39999985695,68892.931,69226.324,,33,feel
screen,html.Screen,0_2_0_1_34,2021-11-26T11:19:26.954Z,,,,,,,,,,,,,,,,53,,,,,,,,,,,,,,549.975999952323,,response,,,99,,,,,,Space,keypress(Space),,,,,---- -- ----- -- ------ - ------- --- ----------<br>------------- ------ ------ ---- ---- ------- ----- -- ----<br>-------- ------- -- ---------- --- - --- ----- ----- ----<br>---- --- --- ----- --- ---- that ------- ----- ---- -------<br>--- --- -- ----- -- --- ---- -- --- ---- -- ------ ------<br>--- ----- -- ----,69777,69776.29999995232,69209.653,69209.70000004768,69226.324,69792.913,,34,that
screen,html.Screen,0_2_0_1_35,2021-11-26T11:19:27.378Z,,,,,,,,,,,,,,,,53,,,,,,,,,,,,,,407.3869999523158,,response,,,99,,,,,,Space,keypress(Space),,,,,---- -- ----- -- ------ - ------- --- ----------<br>------------- ------ ------ ---- ---- ------- ----- -- ----<br>-------- ------- -- ---------- --- - --- ----- ----- ----<br>---- --- --- ----- --- ---- ---- matters ----- ---- -------<br>--- --- -- ----- -- --- ---- -- --- ---- -- ------ ------<br>--- ----- -- ----,70201.09999990463,70200.29999995232,69776.245,69777.29999995232,69792.913,70209.958,,35,matters
screen,html.Screen,0_2_0_1_36,2021-11-26T11:19:28.026Z,,,,,,,,,,,,,,,,53,,,,,,,,,,,,,,638.242000047685,,response,,,99,,,,,,Space,keypress(Space),,,,,"---- -- ----- -- ------ - ------- --- ----------<br>------------- ------ ------ ---- ---- ------- ----- -- ----<br>-------- ------- -- ---------- --- - --- ----- ----- ----<br>---- --- --- ----- --- ---- ---- ------- most, ---- -------<br>--- --- -- ----- -- --- ---- -- --- ---- -- ------ ------<br>--- ----- -- ----",70849.20000004768,70848.20000004768,70193.286,70201.29999995232,70209.958,70859.994,,36,"most,"
screen,html.Screen,0_2_0_1_37,2021-11-26T11:19:28.514Z,,,,,,,,,,,,,,,,53,,,,,,,,,,,,,,476.1059999046265,,response,,,99,,,,,,Space,keypress(Space),,,,,---- -- ----- -- ------ - ------- --- ----------<br>------------- ------ ------ ---- ---- ------- ----- -- ----<br>-------- ------- -- ---------- --- - --- ----- ----- ----<br>---- --- --- ----- --- ---- ---- ------- ----- it's -------<br>--- --- -- ----- -- --- ---- -- --- ---- -- ------ ------<br>--- ----- -- ----,71337,71336.09999990463,70843.324,70849.39999985695,70859.994,71343.449,,37,it's
screen,html.Screen,0_2_0_1_38,2021-11-26T11:19:28.818Z,,,,,,,,,,,,,,,,53,,,,,,,,,,,,,,296.6509999046393,,response,,,99,,,,,,Space,keypress(Space),,,,,---- -- ----- -- ------ - ------- --- ----------<br>------------- ------ ------ ---- ---- ------- ----- -- ----<br>-------- ------- -- ---------- --- - --- ----- ----- ----<br>---- --- --- ----- --- ---- ---- ------- ----- ---- whether<br>--- --- -- ----- -- --- ---- -- --- ---- -- ------ ------<br>--- ----- -- ----,71640.89999985695,71640.09999990463,71326.779,71337.20000004768,71343.449,71643.529,,38,whether
screen,html.Screen,0_2_0_1_39,2021-11-26T11:19:29.161Z,,,,,,,,,,,,,,,,53,,,,,,,,,,,,,,340.471000000005,,response,,,99,,,,,,Space,keypress(Space),,,,,---- -- ----- -- ------ - ------- --- ----------<br>------------- ------ ------ ---- ---- ------- ----- -- ----<br>-------- ------- -- ---------- --- - --- ----- ----- ----<br>---- --- --- ----- --- ---- ---- ------- ----- ---- -------<br>you --- -- ----- -- --- ---- -- --- ---- -- ------ ------<br>--- ----- -- ----,71984.89999985695,71984,71626.859,71641.20000004768,71643.529,71993.61,,39,you
screen,html.Screen,0_2_0_1_40,2021-11-26T11:19:29.457Z,,,,,,,,,,,,,,,,53,,,,,,,,,,,,,,286.489999904632,,response,,,99,,,,,,Space,keypress(Space),,,,,---- -- ----- -- ------ - ------- --- ----------<br>------------- ------ ------ ---- ---- ------- ----- -- ----<br>-------- ------- -- ---------- --- - --- ----- ----- ----<br>---- --- --- ----- --- ---- ---- ------- ----- ---- -------<br>--- are -- ----- -- --- ---- -- --- ---- -- ------ ------<br>--- ----- -- ----,72280.89999985695,72280.09999990463,71976.94,71985.09999990463,71993.61,72293.685,,40,are
screen,html.Screen,0_2_0_1_41,2021-11-26T11:19:29.705Z,,,,,,,,,,,,,,,,53,,,,,,,,,,,,,,234.31500000000233,,response,,,99,,,,,,Space,keypress(Space),,,,,---- -- ----- -- ------ - ------- --- ----------<br>------------- ------ ------ ---- ---- ------- ----- -- ----<br>-------- ------- -- ---------- --- - --- ----- ----- ----<br>---- --- --- ----- --- ---- ---- ------- ----- ---- -------<br>--- --- as ----- -- --- ---- -- --- ---- -- ------ ------<br>--- ----- -- ----,72528.79999995232,72528,72277.015,72281.09999990463,72293.685,72543.752,,41,as
screen,html.Screen,0_2_0_1_42,2021-11-26T11:19:30.049Z,,,,,,,,,,,,,,,,53,,,,,,,,,,,,,,328.24800000000687,,response,,,99,,,,,,Space,keypress(Space),,,,,---- -- ----- -- ------ - ------- --- ----------<br>------------- ------ ------ ---- ---- ------- ----- -- ----<br>-------- ------- -- ---------- --- - --- ----- ----- ----<br>---- --- --- ----- --- ---- ---- ------- ----- ---- -------<br>--- --- -- close -- --- ---- -- --- ---- -- ------ ------<br>--- ----- -- ----,72872.79999995232,72872,72527.082,72529.09999990463,72543.752,72877.067,,42,close
screen,html.Screen,0_2_0_1_43,2021-11-26T11:19:30.425Z,,,,,,,,,,,,,,,,53,,,,,,,,,,,,,,370.93300000000454,,response,,,99,,,,,,Space,keypress(Space),,,,,---- -- ----- -- ------ - ------- --- ----------<br>------------- ------ ------ ---- ---- ------- ----- -- ----<br>-------- ------- -- ---------- --- - --- ----- ----- ----<br>---- --- --- ----- --- ---- ---- ------- ----- ---- -------<br>--- --- -- ----- as --- ---- -- --- ---- -- ------ ------<br>--- ----- -- ----,73248.79999995232,73248,72860.399,72873.09999990463,72877.067,73260.619,,43,as
screen,html.Screen,0_2_0_1_44,2021-11-26T11:19:30.761Z,,,,,,,,,,,,,,,,53,,,,,,,,,,,,,,323.2809998569428,,response,,,99,,,,,,Space,keypress(Space),,,,,---- -- ----- -- ------ - ------- --- ----------<br>------------- ------ ------ ---- ---- ------- ----- -- ----<br>-------- ------- -- ---------- --- - --- ----- ----- ----<br>---- --- --- ----- --- ---- ---- ------- ----- ---- -------<br>--- --- -- ----- -- you ---- -- --- ---- -- ------ ------<br>--- ----- -- ----,73584.79999995232,73583.89999985695,73243.948,73249,73260.619,73593.921,,44,you
screen,html.Screen,0_2_0_1_45,2021-11-26T11:19:31.073Z,,,,,,,,,,,,,,,,53,,,,,,,,,,,,,,301.97899985694676,,response,,,99,,,,,,Space,keypress(Space),,,,,---- -- ----- -- ------ - ------- --- ----------<br>------------- ------ ------ ---- ---- ------- ----- -- ----<br>-------- ------- -- ---------- --- - --- ----- ----- ----<br>---- --- --- ----- --- ---- ---- ------- ----- ---- -------<br>--- --- -- ----- -- --- want -- --- ---- -- ------ ------<br>--- ----- -- ----,73896.70000004768,73895.89999985695,73577.252,73584.89999985695,73593.921,73910.822,,45,want
screen,html.Screen,0_2_0_1_46,2021-11-26T11:19:31.305Z,,,,,,,,,,,,,,,,53,,,,,,,,,,,,,,217.07799985694874,,response,,,99,,,,,,Space,keypress(Space),,,,,---- -- ----- -- ------ - ------- --- ----------<br>------------- ------ ------ ---- ---- ------- ----- -- ----<br>-------- ------- -- ---------- --- - --- ----- ----- ----<br>---- --- --- ----- --- ---- ---- ------- ----- ---- -------<br>--- --- -- ----- -- --- ---- to --- ---- -- ------ ------<br>--- ----- -- ----,74128.70000004768,74127.89999985695,73894.15,73897,73910.822,74144.133,,46,to
screen,html.Screen,0_2_0_1_47,2021-11-26T11:19:31.569Z,,,,,,,,,,,,,,,,53,,,,,,,,,,,,,,247.76699985694722,,response,,,99,,,,,,Space,keypress(Space),,,,,"---- -- ----- -- ------ - ------- --- ----------<br>------------- ------ ------ ---- ---- ------- ----- -- ----<br>-------- ------- -- ---------- --- - --- ----- ----- ----<br>---- --- --- ----- --- ---- ---- ------- ----- ---- -------<br>--- --- -- ----- -- --- ---- -- be, ---- -- ------ ------<br>--- ----- -- ----",74392.70000004768,74391.89999985695,74127.463,74129,74144.133,74394.183,,47,"be,"
screen,html.Screen,0_2_0_1_48,2021-11-26T11:19:31.969Z,,,,,,,,,,,,,,,,53,,,,,,,,,,,,,,397.7169998569443,,response,,,99,,,,,,Space,keypress(Space),,,,,---- -- ----- -- ------ - ------- --- ----------<br>------------- ------ ------ ---- ---- ------- ----- -- ----<br>-------- ------- -- ---------- --- - --- ----- ----- ----<br>---- --- --- ----- --- ---- ---- ------- ----- ---- -------<br>--- --- -- ----- -- --- ---- -- --- even -- ------ ------<br>--- ----- -- ----,74792.70000004768,74791.89999985695,74377.513,74392.89999985695,74394.183,74794.34,,48,even
screen,html.Screen,0_2_0_1_49,2021-11-26T11:19:32.305Z,,,,,,,,,,,,,,,,53,,,,,,,,,,,,,,333.55999985695234,,response,,,99,,,,,,Space,keypress(Space),,,,,---- -- ----- -- ------ - ------- --- ----------<br>------------- ------ ------ ---- ---- ------- ----- -- ----<br>-------- ------- -- ---------- --- - --- ----- ----- ----<br>---- --- --- ----- --- ---- ---- ------- ----- ---- -------<br>--- --- -- ----- -- --- ---- -- --- ---- if ------ ------<br>--- ----- -- ----,75128.79999995232,75127.89999985695,74777.669,74793,74794.34,75144.362,,49,if
screen,html.Screen,0_2_0_1_50,2021-11-26T11:19:32.649Z,,,,,,,,,,,,,,,,53,,,,,,,,,,,,,,327.53799985695514,,response,,,99,,,,,,Space,keypress(Space),,,,,---- -- ----- -- ------ - ------- --- ----------<br>------------- ------ ------ ---- ---- ------- ----- -- ----<br>-------- ------- -- ---------- --- - --- ----- ----- ----<br>---- --- --- ----- --- ---- ---- ------- ----- ---- -------<br>--- --- -- ----- -- --- ---- -- --- ---- -- that's ------<br>--- ----- -- ----,75472.70000004768,75471.89999985695,75127.692,75129,75144.362,75477.676,,50,that's
screen,html.Screen,0_2_0_1_51,2021-11-26T11:19:32.929Z,,,,,,,,,,,,,,,,53,,,,,,,,,,,,,,274.12399995230953,,response,,,99,,,,,,Space,keypress(Space),,,,,---- -- ----- -- ------ - ------- --- ----------<br>------------- ------ ------ ---- ---- ------- ----- -- ----<br>-------- ------- -- ---------- --- - --- ----- ----- ----<br>---- --- --- ----- --- ---- ---- ------- ----- ---- -------<br>--- --- -- ----- -- --- ---- -- --- ---- -- ------ really<br>--- ----- -- ----,75752.70000004768,75751.79999995232,75461.008,75472.89999985695,75477.676,75761.297,,51,really
screen,html.Screen,0_2_0_1_52,2021-11-26T11:19:33.273Z,,,,,,,,,,,,,,,,53,,,,,,,,,,,,,,334.50299995231035,,response,,,99,,,,,,Space,keypress(Space),,,,,---- -- ----- -- ------ - ------- --- ----------<br>------------- ------ ------ ---- ---- ------- ----- -- ----<br>-------- ------- -- ---------- --- - --- ----- ----- ----<br>---- --- --- ----- --- ---- ---- ------- ----- ---- -------<br>--- --- -- ----- -- --- ---- -- --- ---- -- ------ ------<br>not ----- -- ----,76096.70000004768,76095.79999995232,75744.624,75752.89999985695,75761.297,76111.277,,52,not
screen,html.Screen,0_2_0_1_53,2021-11-26T11:19:33.777Z,,,,,,,,,,,,,,,,53,,,,,,,,,,,,,,488.42300004768185,,response,,,99,,,,,,Space,keypress(Space),,,,,---- -- ----- -- ------ - ------- --- ----------<br>------------- ------ ------ ---- ---- ------- ----- -- ----<br>-------- ------- -- ---------- --- - --- ----- ----- ----<br>---- --- --- ----- --- ---- ---- ------- ----- ---- -------<br>--- --- -- ----- -- --- ---- -- --- ---- -- ------ ------<br>--- close -- ----,76600.59999990463,76599.70000004768,76094.607,76096.89999985695,76111.277,76611.378,,53,close
screen,html.Screen,0_2_0_1_54,2021-11-26T11:19:34.073Z,,,,,,,,,,,,,,,,53,,,,,,,,,,,,,,284.4219999523193,,response,,,99,,,,,,Space,keypress(Space),,,,,---- -- ----- -- ------ - ------- --- ----------<br>------------- ------ ------ ---- ---- ------- ----- -- ----<br>-------- ------- -- ---------- --- - --- ----- ----- ----<br>---- --- --- ----- --- ---- ---- ------- ----- ---- -------<br>--- --- -- ----- -- --- ---- -- --- ---- -- ------ ------<br>--- ----- at ----,76896.5,76895.79999995232,76594.708,76600.79999995232,76611.378,76911.483,,54,at
screen,html.Screen,0_2_0_1_55,2021-11-26T11:19:34.433Z,,,,,,,,,,,,,,,,53,,,,,,,,,,,,,,344.2170000476908,,response,,,99,,,,,,Space,keypress(Space),,,,,---- -- ----- -- ------ - ------- --- ----------<br>------------- ------ ------ ---- ---- ------- ----- -- ----<br>-------- ------- -- ---------- --- - --- ----- ----- ----<br>---- --- --- ----- --- ---- ---- ------- ----- ---- -------<br>--- --- -- ----- -- --- ---- -- --- ---- -- ------ ------<br>--- ----- -- all.,77256.59999990463,77255.70000004768,76894.813,76896.79999995232,76911.483,77278.244,,55,all.
Item 99,flow.Loop,0_2_0_1,2021-11-26T11:19:34.437Z,,,,,,,,,,,,,,,,,,,,,,,,,,,,,,25533.871000047686,,completion,,,,A,,,,,,,,,,silence,,77260.89999985695,77255.70000004768,51705.16,51710.89999985695,51721.829,77278.244,,,
Question 1,html.Screen,0_2_0_2,2021-11-26T11:19:39.025Z,,,,,,,,,,,,,,,,,,,,,,,,,,,false,FALSE,,4568.956000047678,,response,,,99,A,,,,,TRUE,click #choice-1,,,,silence,,81848.59999990463,81847.20000004768,77261.574,77261.20000004768,77278.244,81862.679,,,
Question 2,html.Screen,0_2_0_3,2021-11-26T11:19:47.224Z,,,,,,,,,,,,,,,,,,,,,,,,,,,true,TRUE,,8183.920999904629,,response,,,99,A,,,,,TRUE,click #choice-1,,,,silence,,90047.79999995232,90046.59999990463,81846.009,81848.89999985695,81862.679,90047.963,,,
Item 99,flow.Sequence,0_2_0,2021-11-26T11:19:47.225Z,,,,,,,,,,,,,,,,,,,,,,,,,,,,,,48327.41799990463,,completion,,,,,,,,,,,,,,,,90048.5,90046.59999990463,41702.514,41708.59999990463,41719.182,90047.963,,,
Holding screen,html.Screen,0_2_1_0,2021-11-26T11:19:57.211Z,,,,,,,,,,,,,,,,,,,,,,,,,,,,,,10002.384999999995,,timeout,,,,,,,,,,,,,,,,100034.79999995232,100033.678,90031.293,90048.89999985695,90047.963,100050.348,,,
screen,html.Screen,0_2_1_1_0,2021-11-26T11:19:58.656Z,,,,,,,,,,,,,,,,54,,,,,,,,,,,,,,1428.0519998569507,,response,,,100,,,,,,Space,keypress(Space),,,,,At --- ---- --- ------ ----- ------- ---- -- --- ------- --<br>------- ---------- ------ -- ----- -- ----- -- ---- ------<br>--- ----- --- --- ------ -------- ----- --- ------ ----- --<br>----- ----- ---------- --- --- ------ ------ ---- -- ------<br>------- --- ------ ----- --- ---- ------- -- ---- --- --<br>------- ------,101479.29999995232,101478.39999985695,100033.678,100035.29999995232,100050.348,101484.197,,0,At
screen,html.Screen,0_2_1_1_1,2021-11-26T11:19:59.303Z,,,,,,,,,,,,,,,,54,,,,,,,,,,,,,,641.8029999999999,,response,,,100,,,,,,Space,keypress(Space),,,,,-- the ---- --- ------ ----- ------- ---- -- --- ------- --<br>------- ---------- ------ -- ----- -- ----- -- ---- ------<br>--- ----- --- --- ------ -------- ----- --- ------ ----- --<br>----- ----- ---------- --- --- ------ ------ ---- -- ------<br>------- --- ------ ----- --- ---- ------- -- ---- --- --<br>------- ------,102126.70000004768,102126,101467.526,101479.59999990463,101484.197,102134.241,,1,the
screen,html.Screen,0_2_1_1_2,2021-11-26T11:19:59.831Z,,,,,,,,,,,,,,,,54,,,,,,,,,,,,,,519.858999904638,,response,,,100,,,,,,Space,keypress(Space),,,,,-- --- time --- ------ ----- ------- ---- -- --- ------- --<br>------- ---------- ------ -- ----- -- ----- -- ---- ------<br>--- ----- --- --- ------ -------- ----- --- ------ ----- --<br>----- ----- ---------- --- --- ------ ------ ---- -- ------<br>------- --- ------ ----- --- ---- ------- -- ---- --- --<br>------- ------,102654.79999995232,102654.09999990463,102117.571,102127,102134.241,102667.592,,2,time
screen,html.Screen,0_2_1_1_3,2021-11-26T11:20:00.551Z,,,,,,,,,,,,,,,,54,,,,,,,,,,,,,,706.3079998569447,,response,,,100,,,,,,Space,keypress(Space),,,,,-- --- ---- the ------ ----- ------- ---- -- --- ------- --<br>------- ---------- ------ -- ----- -- ----- -- ---- ------<br>--- ----- --- --- ------ -------- ----- --- ------ ----- --<br>----- ----- ---------- --- --- ------ ------ ---- -- ------<br>------- --- ------ ----- --- ---- ------- -- ---- --- --<br>------- ------,103374.70000004768,103373.89999985695,102650.923,102655.09999990463,102667.592,103384.703,,3,the
screen,html.Screen,0_2_1_1_4,2021-11-26T11:20:00.983Z,,,,,,,,,,,,,,,,54,,,,,,,,,,,,,,421.1969998569548,,response,,,100,,,,,,Space,keypress(Space),,,,,-- --- ---- --- French ----- ------- ---- -- --- ------- --<br>------- ---------- ------ -- ----- -- ----- -- ---- ------<br>--- ----- --- --- ------ -------- ----- --- ------ ----- --<br>----- ----- ---------- --- --- ------ ------ ---- -- ------<br>------- --- ------ ----- --- ---- ------- -- ---- --- --<br>------- ------,103806.79999995232,103805.89999985695,103368.031,103375,103384.703,103818.023,,4,French
screen,html.Screen,0_2_1_1_5,2021-11-26T11:20:01.439Z,,,,,,,,,,,,,,,,54,,,,,,,,,,,,,,443.8769998569478,,response,,,100,,,,,,Space,keypress(Space),,,,,-- --- ---- --- ------ crown ------- ---- -- --- ------- --<br>------- ---------- ------ -- ----- -- ----- -- ---- ------<br>--- ----- --- --- ------ -------- ----- --- ------ ----- --<br>----- ----- ---------- --- --- ------ ------ ---- -- ------<br>------- --- ------ ----- --- ---- ------- -- ---- --- --<br>------- ------,104262.59999990463,104261.89999985695,103801.353,103807.20000004768,103818.023,104268.123,,5,crown
screen,html.Screen,0_2_1_1_6,2021-11-26T11:20:01.847Z,,,,,,,,,,,,,,,,54,,,,,,,,,,,,,,401.6769999523094,,response,,,100,,,,,,Space,keypress(Space),,,,,-- --- ---- --- ------ ----- secured ---- -- --- ------- --<br>------- ---------- ------ -- ----- -- ----- -- ---- ------<br>--- ----- --- --- ------ -------- ----- --- ------ ----- --<br>----- ----- ---------- --- --- ------ ------ ---- -- ------<br>------- --- ------ ----- --- ---- ------- -- ---- --- --<br>------- ------,104670.59999990463,104669.79999995232,104251.453,104262.89999985695,104268.123,104684.727,,6,secured
screen,html.Screen,0_2_1_1_7,2021-11-26T11:20:02.303Z,,,,,,,,,,,,,,,,54,,,,,,,,,,,,,,441.07299995231733,,response,,,100,,,,,,Space,keypress(Space),,,,,-- --- ---- --- ------ ----- ------- much -- --- ------- --<br>------- ---------- ------ -- ----- -- ----- -- ---- ------<br>--- ----- --- --- ------ -------- ----- --- ------ ----- --<br>----- ----- ---------- --- --- ------ ------ ---- -- ------<br>------- --- ------ ----- --- ---- ------- -- ---- --- --<br>------- ------,105126.59999990463,105125.79999995232,104668.059,104670.89999985695,104684.727,105135.077,,7,much
screen,html.Screen,0_2_1_1_8,2021-11-26T11:20:02.743Z,,,,,,,,,,,,,,,,54,,,,,,,,,,,,,,430.7229999523115,,response,,,100,,,,,,Space,keypress(Space),,,,,-- --- ---- --- ------ ----- ------- ---- of --- ------- --<br>------- ---------- ------ -- ----- -- ----- -- ---- ------<br>--- ----- --- --- ------ -------- ----- --- ------ ----- --<br>----- ----- ---------- --- --- ------ ------ ---- -- ------<br>------- --- ------ ----- --- ---- ------- -- ---- --- --<br>------- ------,105566.5,105565.79999995232,105118.405,105126.79999995232,105135.077,105568.445,,8,of
screen,html.Screen,0_2_1_1_9,2021-11-26T11:20:03.175Z,,,,,,,,,,,,,,,,54,,,,,,,,,,,,,,429.25500004767673,,response,,,100,,,,,,Space,keypress(Space),,,,,-- --- ---- --- ------ ----- ------- ---- -- its ------- --<br>------- ---------- ------ -- ----- -- ----- -- ---- ------<br>--- ----- --- --- ------ -------- ----- --- ------ ----- --<br>----- ----- ---------- --- --- ------ ------ ---- -- ------<br>------- --- ------ ----- --- ---- ------- -- ---- --- --<br>------- ------,105998.5,105997.70000004768,105551.775,105566.79999995232,105568.445,106001.86,,9,its
screen,html.Screen,0_2_1_1_10,2021-11-26T11:20:03.551Z,,,,,,,,,,,,,,,,54,,,,,,,,,,,,,,371.84000004768313,,response,,,100,,,,,,Space,keypress(Space),,,,,-- --- ---- --- ------ ----- ------- ---- -- --- revenue --<br>------- ---------- ------ -- ----- -- ----- -- ---- ------<br>--- ----- --- --- ------ -------- ----- --- ------ ----- --<br>----- ----- ---------- --- --- ------ ------ ---- -- ------<br>------- --- ------ ----- --- ---- ------- -- ---- --- --<br>------- ------,106374.5,106373.70000004768,105985.19,105998.79999995232,106001.86,106385.3,,10,revenue
screen,html.Screen,0_2_1_1_11,2021-11-26T11:20:04.071Z,,,,,,,,,,,,,,,,54,,,,,,,,,,,,,,508.29999990462966,,response,,,100,,,,,,Space,keypress(Space),,,,,-- --- ---- --- ------ ----- ------- ---- -- --- ------- by<br>------- ---------- ------ -- ----- -- ----- -- ---- ------<br>--- ----- --- --- ------ -------- ----- --- ------ ----- --<br>----- ----- ---------- --- --- ------ ------ ---- -- ------<br>------- --- ------ ----- --- ---- ------- -- ---- --- --<br>------- ------,106894.39999985695,106893.59999990463,106368.63,106374.70000004768,106385.3,106901.943,,11,by
screen,html.Screen,0_2_1_1_12,2021-11-26T11:20:04.975Z,,,,,,,,,,,,,,,,54,,,,,,,,,,,,,,895.6569999046333,,response,,,100,,,,,,Space,keypress(Space),,,,,-- --- ---- --- ------ ----- ------- ---- -- --- ------- --<br>issuing ---------- ------ -- ----- -- ----- -- ---- ------<br>--- ----- --- --- ------ -------- ----- --- ------ ----- --<br>----- ----- ---------- --- --- ------ ------ ---- -- ------<br>------- --- ------ ----- --- ---- ------- -- ---- --- --<br>------- ------,107798.39999985695,107797.59999990463,106885.275,106894.59999990463,106901.943,107802.344,,12,issuing
screen,html.Screen,0_2_1_1_13,2021-11-26T11:20:05.815Z,,,,,,,,,,,,,,,,54,,,,,,,,,,,,,,835.1560000000027,,response,,,100,,,,,,Space,keypress(Space),,,,,-- --- ---- --- ------ ----- ------- ---- -- --- ------- --<br>------- government ------ -- ----- -- ----- -- ---- ------<br>--- ----- --- --- ------ -------- ----- --- ------ ----- --<br>----- ----- ---------- --- --- ------ ------ ---- -- ------<br>------- --- ------ ----- --- ---- ------- -- ---- --- --<br>------- ------,108638.20000004768,108637.5,107785.673,107798.59999990463,107802.344,108652.575,,13,government
screen,html.Screen,0_2_1_1_14,2021-11-26T11:20:07.479Z,,,,,,,,,,,,,,,,54,,,,,,,,,,,,,,1649.0249999046355,,response,,,100,,,,,,Space,keypress(Space),,,,,-- --- ---- --- ------ ----- ------- ---- -- --- ------- --<br>------- ---------- bonds. -- ----- -- ----- -- ---- ------<br>--- ----- --- --- ------ -------- ----- --- ------ ----- --<br>----- ----- ---------- --- --- ------ ------ ---- -- ------<br>------- --- ------ ----- --- ---- ------- -- ---- --- --<br>------- ------,110302.39999985695,110301.59999990463,108635.904,108638.5,108652.575,110319.533,,14,bonds.
screen,html.Screen,0_2_1_1_15,2021-11-26T11:20:08.375Z,,,,,,,,,,,,,,,,54,,,,,,,,,,,,,,877.866999856953,,response,,,100,,,,,,Space,keypress(Space),,,,,-- --- ---- --- ------ ----- ------- ---- -- --- ------- --<br>------- ---------- ------ In ----- -- ----- -- ---- ------<br>--- ----- --- --- ------ -------- ----- --- ------ ----- --<br>----- ----- ---------- --- --- ------ ------ ---- -- ------<br>------- --- ------ ----- --- ---- ------- -- ---- --- --<br>------- ------,111198.20000004768,111197.39999985695,110302.863,110302.59999990463,110319.533,111203.108,,15,In
screen,html.Screen,0_2_1_1_16,2021-11-26T11:20:08.855Z,,,,,,,,,,,,,,,,54,,,,,,,,,,,,,,474.6919999523234,,response,,,100,,,,,,Space,keypress(Space),,,,,"-- --- ---- --- ------ ----- ------- ---- -- --- ------- --<br>------- ---------- ------ -- 1727, -- ----- -- ---- ------<br>--- ----- --- --- ------ -------- ----- --- ------ ----- --<br>----- ----- ---------- --- --- ------ ------ ---- -- ------<br>------- --- ------ ----- --- ---- ------- -- ---- --- --<br>------- ------",111678.59999990463,111677.79999995232,111186.438,111198.39999985695,111203.108,111686.579,,16,"1727,"
screen,html.Screen,0_2_1_1_17,2021-11-26T11:20:09.527Z,,,,,,,,,,,,,,,,54,,,,,,,,,,,,,,662.7209999523184,,response,,,100,,,,,,Space,keypress(Space),,,,,-- --- ---- --- ------ ----- ------- ---- -- --- ------- --<br>------- ---------- ------ -- ----- in ----- -- ---- ------<br>--- ----- --- --- ------ -------- ----- --- ------ ----- --<br>----- ----- ---------- --- --- ------ ------ ---- -- ------<br>------- --- ------ ----- --- ---- ------- -- ---- --- --<br>------- ------,112350.09999990463,112349.29999995232,111669.909,111678.79999995232,111686.579,112353.41,,17,in
screen,html.Screen,0_2_1_1_18,2021-11-26T11:20:10.263Z,,,,,,,,,,,,,,,,54,,,,,,,,,,,,,,731.8899999523128,,response,,,100,,,,,,Space,keypress(Space),,,,,-- --- ---- --- ------ ----- ------- ---- -- --- ------- --<br>------- ---------- ------ -- ----- -- order -- ---- ------<br>--- ----- --- --- ------ -------- ----- --- ------ ----- --<br>----- ----- ---------- --- --- ------ ------ ---- -- ------<br>------- --- ------ ----- --- ---- ------- -- ---- --- --<br>------- ------,113086,113085.29999995232,112336.74,112350.39999985695,112353.41,113103.468,,18,order
screen,html.Screen,0_2_1_1_19,2021-11-26T11:20:10.759Z,,,,,,,,,,,,,,,,54,,,,,,,,,,,,,,477.73200004769024,,response,,,100,,,,,,Space,keypress(Space),,,,,-- --- ---- --- ------ ----- ------- ---- -- --- ------- --<br>------- ---------- ------ -- ----- -- ----- to ---- ------<br>--- ----- --- --- ------ -------- ----- --- ------ ----- --<br>----- ----- ---------- --- --- ------ ------ ---- -- ------<br>------- --- ------ ----- --- ---- ------- -- ---- --- --<br>------- ------,113581.89999985695,113581.20000004768,113086.799,113086.20000004768,113103.468,113587.119,,19,to
screen,html.Screen,0_2_1_1_20,2021-11-26T11:20:11.295Z,,,,,,,,,,,,,,,,54,,,,,,,,,,,,,,529.9809999046265,,response,,,100,,,,,,Space,keypress(Space),,,,,-- --- ---- --- ------ ----- ------- ---- -- --- ------- --<br>------- ---------- ------ -- ----- -- ----- -- save ------<br>--- ----- --- --- ------ -------- ----- --- ------ ----- --<br>----- ----- ---------- --- --- ------ ------ ---- -- ------<br>------- --- ------ ----- --- ---- ------- -- ---- --- --<br>------- ------,114118,114117.09999990463,113570.448,113582.20000004768,113587.119,114120.512,,20,save
screen,html.Screen,0_2_1_1_21,2021-11-26T11:20:11.703Z,,,,,,,,,,,,,,,,54,,,,,,,,,,,,,,404.68800004768127,,response,,,100,,,,,,Space,keypress(Space),,,,,"-- --- ---- --- ------ ----- ------- ---- -- --- ------- --<br>------- ---------- ------ -- ----- -- ----- -- ---- money,<br>--- ----- --- --- ------ -------- ----- --- ------ ----- --<br>----- ----- ---------- --- --- ------ ------ ---- -- ------<br>------- --- ------ ----- --- ---- ------- -- ---- --- --<br>------- ------",114526,114525.20000004768,114103.842,114118.20000004768,114120.512,114537.286,,21,"money,"
screen,html.Screen,0_2_1_1_22,2021-11-26T11:20:12.335Z,,,,,,,,,,,,,,,,54,,,,,,,,,,,,,,619.8139999046398,,response,,,100,,,,,,Space,keypress(Space),,,,,-- --- ---- --- ------ ----- ------- ---- -- --- ------- --<br>------- ---------- ------ -- ----- -- ----- -- ---- ------<br>the ----- --- --- ------ -------- ----- --- ------ ----- --<br>----- ----- ---------- --- --- ------ ------ ---- -- ------<br>------- --- ------ ----- --- ---- ------- -- ---- --- --<br>------- ------,115157.89999985695,115157.09999990463,114520.616,114526.29999995232,114537.286,115170.737,,22,the
screen,html.Screen,0_2_1_1_23,2021-11-26T11:20:12.854Z,,,,,,,,,,,,,,,,54,,,,,,,,,,,,,,506.36299990463885,,response,,,100,,,,,,Space,keypress(Space),,,,,-- --- ---- --- ------ ----- ------- ---- -- --- ------- --<br>------- ---------- ------ -- ----- -- ----- -- ---- ------<br>--- state --- --- ------ -------- ----- --- ------ ----- --<br>----- ----- ---------- --- --- ------ ------ ---- -- ------<br>------- --- ------ ----- --- ---- ------- -- ---- --- --<br>------- ------,115677.89999985695,115677.09999990463,115154.067,115158.20000004768,115170.737,115687.43,,23,state
screen,html.Screen,0_2_1_1_24,2021-11-26T11:20:13.334Z,,,,,,,,,,,,,,,,54,,,,,,,,,,,,,,469.66999990463955,,response,,,100,,,,,,Space,keypress(Space),,,,,-- --- ---- --- ------ ----- ------- ---- -- --- ------- --<br>------- ---------- ------ -- ----- -- ----- -- ---- ------<br>--- ----- cut --- ------ -------- ----- --- ------ ----- --<br>----- ----- ---------- --- --- ------ ------ ---- -- ------<br>------- --- ------ ----- --- ---- ------- -- ---- --- --<br>------- ------,116157.79999995232,116157.09999990463,115670.761,115678.09999990463,115687.43,116171.063,,24,cut
screen,html.Screen,0_2_1_1_25,2021-11-26T11:20:13.838Z,,,,,,,,,,,,,,,,54,,,,,,,,,,,,,,489.93700000000536,,response,,,100,,,,,,Space,keypress(Space),,,,,-- --- ---- --- ------ ----- ------- ---- -- --- ------- --<br>------- ---------- ------ -- ----- -- ----- -- ---- ------<br>--- ----- --- the ------ -------- ----- --- ------ ----- --<br>----- ----- ---------- --- --- ------ ------ ---- -- ------<br>------- --- ------ ----- --- ---- ------- -- ---- --- --<br>------- ------,116661.79999995232,116661,116154.392,116158.09999990463,116171.063,116671.115,,25,the
screen,html.Screen,0_2_1_1_26,2021-11-26T11:20:14.366Z,,,,,,,,,,,,,,,,54,,,,,,,,,,,,,,517.7849998569436,,response,,,100,,,,,,Space,keypress(Space),,,,,-- --- ---- --- ------ ----- ------- ---- -- --- ------- --<br>------- ---------- ------ -- ----- -- ----- -- ---- ------<br>--- ----- --- --- bonds' -------- ----- --- ------ ----- --<br>----- ----- ---------- --- --- ------ ------ ---- -- ------<br>------- --- ------ ----- --- ---- ------- -- ---- --- --<br>------- ------,117189.70000004768,117188.89999985695,116654.445,116662.09999990463,116671.115,117204.599,,26,bonds'
screen,html.Screen,0_2_1_1_27,2021-11-26T11:20:14.926Z,,,,,,,,,,,,,,,,54,,,,,,,,,,,,,,544.400999999998,,response,,,100,,,,,,Space,keypress(Space),,,,,-- --- ---- --- ------ ----- ------- ---- -- --- ------- --<br>------- ---------- ------ -- ----- -- ----- -- ---- ------<br>--- ----- --- --- ------ interest ----- --- ------ ----- --<br>----- ----- ---------- --- --- ------ ------ ---- -- ------<br>------- --- ------ ----- --- ---- ------- -- ---- --- --<br>------- ------,117749.79999995232,117749,117187.929,117190,117204.599,117754.739,,27,interest
screen,html.Screen,0_2_1_1_28,2021-11-26T11:20:15.454Z,,,,,,,,,,,,,,,,54,,,,,,,,,,,,,,522.1609998569475,,response,,,100,,,,,,Space,keypress(Space),,,,,-- --- ---- --- ------ ----- ------- ---- -- --- ------- --<br>------- ---------- ------ -- ----- -- ----- -- ---- ------<br>--- ----- --- --- ------ -------- rate. --- ------ ----- --<br>----- ----- ---------- --- --- ------ ------ ---- -- ------<br>------- --- ------ ----- --- ---- ------- -- ---- --- --<br>------- ------,118277.79999995232,118276.89999985695,117738.069,117750.09999990463,117754.739,118288.161,,28,rate.
screen,html.Screen,0_2_1_1_29,2021-11-26T11:20:15.966Z,,,,,,,,,,,,,,,,54,,,,,,,,,,,,,,500.73899985695607,,response,,,100,,,,,,Space,keypress(Space),,,,,-- --- ---- --- ------ ----- ------- ---- -- --- ------- --<br>------- ---------- ------ -- ----- -- ----- -- ---- ------<br>--- ----- --- --- ------ -------- ----- The ------ ----- --<br>----- ----- ---------- --- --- ------ ------ ---- -- ------<br>------- --- ------ ----- --- ---- ------- -- ---- --- --<br>------- ------,118789.59999990463,118788.89999985695,118271.491,118278.09999990463,118288.161,118804.99,,29,The
screen,html.Screen,0_2_1_1_30,2021-11-26T11:20:16.534Z,,,,,,,,,,,,,,,,54,,,,,,,,,,,,,,551.809999952311,,response,,,100,,,,,,Space,keypress(Space),,,,,-- --- ---- --- ------ ----- ------- ---- -- --- ------- --<br>------- ---------- ------ -- ----- -- ----- -- ---- ------<br>--- ----- --- --- ------ -------- ----- --- market ----- --<br>----- ----- ---------- --- --- ------ ------ ---- -- ------<br>------- --- ------ ----- --- ---- ------- -- ---- --- --<br>------- ------,119357.59999990463,119356.79999995232,118788.32,118790,118804.99,119371.676,,30,market
screen,html.Screen,0_2_1_1_31,2021-11-26T11:20:17.006Z,,,,,,,,,,,,,,,,54,,,,,,,,,,,,,,457.12399995230953,,response,,,100,,,,,,Space,keypress(Space),,,,,-- --- ---- --- ------ ----- ------- ---- -- --- ------- --<br>------- ---------- ------ -- ----- -- ----- -- ---- ------<br>--- ----- --- --- ------ -------- ----- --- ------ value --<br>----- ----- ---------- --- --- ------ ------ ---- -- ------<br>------- --- ------ ----- --- ---- ------- -- ---- --- --<br>------- ------,119829.59999990463,119828.79999995232,119355.007,119357.79999995232,119371.676,119838.51,,31,value
screen,html.Screen,0_2_1_1_32,2021-11-26T11:20:17.562Z,,,,,,,,,,,,,,,,54,,,,,,,,,,,,,,542.190000047689,,response,,,100,,,,,,Space,keypress(Space),,,,,-- --- ---- --- ------ ----- ------- ---- -- --- ------- --<br>------- ---------- ------ -- ----- -- ----- -- ---- ------<br>--- ----- --- --- ------ -------- ----- --- ------ ----- of<br>----- ----- ---------- --- --- ------ ------ ---- -- ------<br>------- --- ------ ----- --- ---- ------- -- ---- --- --<br>------- ------,120381.5,120380.70000004768,119821.84,119829.89999985695,119838.51,120388.757,,32,of
screen,html.Screen,0_2_1_1_33,2021-11-26T11:20:18.170Z,,,,,,,,,,,,,,,,54,,,,,,,,,,,,,,599.9430000476859,,response,,,100,,,,,,Space,keypress(Space),,,,,-- --- ---- --- ------ ----- ------- ---- -- --- ------- --<br>------- ---------- ------ -- ----- -- ----- -- ---- ------<br>--- ----- --- --- ------ -------- ----- --- ------ ----- --<br>these ----- ---------- --- --- ------ ------ ---- -- ------<br>------- --- ------ ----- --- ---- ------- -- ---- --- --<br>------- ------,120989.5,120988.70000004768,120372.086,120381.79999995232,120388.757,121005.503,,33,these
screen,html.Screen,0_2_1_1_34,2021-11-26T11:20:18.738Z,,,,,,,,,,,,,,,,54,,,,,,,,,,,,,,551.1970000476867,,response,,,100,,,,,,Space,keypress(Space),,,,,-- --- ---- --- ------ ----- ------- ---- -- --- ------- --<br>------- ---------- ------ -- ----- -- ----- -- ---- ------<br>--- ----- --- --- ------ -------- ----- --- ------ ----- --<br>----- bonds ---------- --- --- ------ ------ ---- -- ------<br>------- --- ------ ----- --- ---- ------- -- ---- --- --<br>------- ------,121557.39999985695,121556.70000004768,120988.833,120989.70000004768,121005.503,121572.309,,34,bonds
screen,html.Screen,0_2_1_1_35,2021-11-26T11:20:19.690Z,,,,,,,,,,,,,,,,54,,,,,,,,,,,,,,936.590999856955,,response,,,100,,,,,,Space,keypress(Space),,,,,"-- --- ---- --- ------ ----- ------- ---- -- --- ------- --<br>------- ---------- ------ -- ----- -- ----- -- ---- ------<br>--- ----- --- --- ------ -------- ----- --- ------ ----- --<br>----- ----- plummeted, --- --- ------ ------ ---- -- ------<br>------- --- ------ ----- --- ---- ------- -- ---- --- --<br>------- ------",122509.79999995232,122508.89999985695,121555.639,121557.70000004768,121572.309,122522.524,,35,"plummeted,"
screen,html.Screen,0_2_1_1_36,2021-11-26T11:20:20.162Z,,,,,,,,,,,,,,,,54,,,,,,,,,,,,,,457.9759999999951,,response,,,100,,,,,,Space,keypress(Space),,,,,-- --- ---- --- ------ ----- ------- ---- -- --- ------- --<br>------- ---------- ------ -- ----- -- ----- -- ---- ------<br>--- ----- --- --- ------ -------- ----- --- ------ ----- --<br>----- ----- ---------- and --- ------ ------ ---- -- ------<br>------- --- ------ ----- --- ---- ------- -- ---- --- --<br>------- ------,122981.39999985695,122980.5,122505.854,122510,122522.524,122989.323,,36,and
screen,html.Screen,0_2_1_1_37,2021-11-26T11:20:20.578Z,,,,,,,,,,,,,,,,54,,,,,,,,,,,,,,407.2769999046286,,response,,,100,,,,,,Space,keypress(Space),,,,,-- --- ---- --- ------ ----- ------- ---- -- --- ------- --<br>------- ---------- ------ -- ----- -- ----- -- ---- ------<br>--- ----- --- --- ------ -------- ----- --- ------ ----- --<br>----- ----- ---------- --- the ------ ------ ---- -- ------<br>------- --- ------ ----- --- ---- ------- -- ---- --- --<br>------- ------,123397.39999985695,123396.59999990463,122972.653,122981.59999990463,122989.323,123406.1,,37,the
screen,html.Screen,0_2_1_1_38,2021-11-26T11:20:20.994Z,,,,,,,,,,,,,,,,54,,,,,,,,,,,,,,406.3999999999942,,response,,,100,,,,,,Space,keypress(Space),,,,,-- --- ---- --- ------ ----- ------- ---- -- --- ------- --<br>------- ---------- ------ -- ----- -- ----- -- ---- ------<br>--- ----- --- --- ------ -------- ----- --- ------ ----- --<br>----- ----- ---------- --- --- market ------ ---- -- ------<br>------- --- ------ ----- --- ---- ------- -- ---- --- --<br>------- ------,123813.29999995232,123812.5,123389.43,123397.59999990463,123406.1,123822.888,,38,market
screen,html.Screen,0_2_1_1_39,2021-11-26T11:20:21.418Z,,,,,,,,,,,,,,,,54,,,,,,,,,,,,,,413.6119999999937,,response,,,100,,,,,,Space,keypress(Space),,,,,-- --- ---- --- ------ ----- ------- ---- -- --- ------- --<br>------- ---------- ------ -- ----- -- ----- -- ---- ------<br>--- ----- --- --- ------ -------- ----- --- ------ ----- --<br>----- ----- ---------- --- --- ------ became ---- -- ------<br>------- --- ------ ----- --- ---- ------- -- ---- --- --<br>------- ------,124237.20000004768,124236.5,123806.218,123813.5,123822.888,124239.504,,39,became
screen,html.Screen,0_2_1_1_40,2021-11-26T11:20:21.825Z,,,,,,,,,,,,,,,,54,,,,,,,,,,,,,,404.89599985694804,,response,,,100,,,,,,Space,keypress(Space),,,,,-- --- ---- --- ------ ----- ------- ---- -- --- ------- --<br>------- ---------- ------ -- ----- -- ----- -- ---- ------<br>--- ----- --- --- ------ -------- ----- --- ------ ----- --<br>----- ----- ---------- --- --- ------ ------ wary -- ------<br>------- --- ------ ----- --- ---- ------- -- ---- --- --<br>------- ------,124645.20000004768,124644.39999985695,124222.836,124237.5,124239.504,124656.497,,40,wary
screen,html.Screen,0_2_1_1_41,2021-11-26T11:20:22.321Z,,,,,,,,,,,,,,,,54,,,,,,,,,,,,,,483.9029998569458,,response,,,100,,,,,,Space,keypress(Space),,,,,-- --- ---- --- ------ ----- ------- ---- -- --- ------- --<br>------- ---------- ------ -- ----- -- ----- -- ---- ------<br>--- ----- --- --- ------ -------- ----- --- ------ ----- --<br>----- ----- ---------- --- --- ------ ------ ---- of ------<br>------- --- ------ ----- --- ---- ------- -- ---- --- --<br>------- ------,125141.20000004768,125140.39999985695,124639.825,124645.39999985695,124656.497,125156.516,,41,of
screen,html.Screen,0_2_1_1_42,2021-11-26T11:20:22.873Z,,,,,,,,,,,,,,,,54,,,,,,,,,,,,,,535.783999952313,,response,,,100,,,,,,Space,keypress(Space),,,,,-- --- ---- --- ------ ----- ------- ---- -- --- ------- --<br>------- ---------- ------ -- ----- -- ----- -- ---- ------<br>--- ----- --- --- ------ -------- ----- --- ------ ----- --<br>----- ----- ---------- --- --- ------ ------ ---- -- French<br>------- --- ------ ----- --- ---- ------- -- ---- --- --<br>------- ------,125693.20000004768,125692.29999995232,125139.846,125141.39999985695,125156.516,125706.641,,42,French
screen,html.Screen,0_2_1_1_43,2021-11-26T11:20:23.321Z,,,,,,,,,,,,,,,,54,,,,,,,,,,,,,,433.658999952313,,response,,,100,,,,,,Space,keypress(Space),,,,,-- --- ---- --- ------ ----- ------- ---- -- --- ------- --<br>------- ---------- ------ -- ----- -- ----- -- ---- ------<br>--- ----- --- --- ------ -------- ----- --- ------ ----- --<br>----- ----- ---------- --- --- ------ ------ ---- -- ------<br>credit. --- ------ ----- --- ---- ------- -- ---- --- --<br>------- ------,126141.20000004768,126140.29999995232,125689.971,125693.39999985695,125706.641,126156.765,,43,credit.
screen,html.Screen,0_2_1_1_44,2021-11-26T11:20:24.193Z,,,,,,,,,,,,,,,,54,,,,,,,,,,,,,,855.4350000476843,,response,,,100,,,,,,Space,keypress(Space),,,,,-- --- ---- --- ------ ----- ------- ---- -- --- ------- --<br>------- ---------- ------ -- ----- -- ----- -- ---- ------<br>--- ----- --- --- ------ -------- ----- --- ------ ----- --<br>----- ----- ---------- --- --- ------ ------ ---- -- ------<br>------- The ------ ----- --- ---- ------- -- ---- --- --<br>------- ------,127013,127012.20000004768,126140.095,126141.39999985695,126156.765,127023.625,,44,The
screen,html.Screen,0_2_1_1_45,2021-11-26T11:20:24.585Z,,,,,,,,,,,,,,,,54,,,,,,,,,,,,,,380.5750000476837,,response,,,100,,,,,,Space,keypress(Space),,,,,-- --- ---- --- ------ ----- ------- ---- -- --- ------- --<br>------- ---------- ------ -- ----- -- ----- -- ---- ------<br>--- ----- --- --- ------ -------- ----- --- ------ ----- --<br>----- ----- ---------- --- --- ------ ------ ---- -- ------<br>------- --- French ----- --- ---- ------- -- ---- --- --<br>------- ------,127405,127404.20000004768,127006.955,127013.20000004768,127023.625,127407.096,,45,French
screen,html.Screen,0_2_1_1_46,2021-11-26T11:20:25.169Z,,,,,,,,,,,,,,,,54,,,,,,,,,,,,,,581.2039999523113,,response,,,100,,,,,,Space,keypress(Space),,,,,-- --- ---- --- ------ ----- ------- ---- -- --- ------- --<br>------- ---------- ------ -- ----- -- ----- -- ---- ------<br>--- ----- --- --- ------ -------- ----- --- ------ ----- --<br>----- ----- ---------- --- --- ------ ------ ---- -- ------<br>------- --- ------ state --- ---- ------- -- ---- --- --<br>------- ------,127989,127988.29999995232,127390.426,127405.20000004768,127407.096,127990.531,,46,state
screen,html.Screen,0_2_1_1_47,2021-11-26T11:20:25.577Z,,,,,,,,,,,,,,,,54,,,,,,,,,,,,,,405.66900004768104,,response,,,100,,,,,,Space,keypress(Space),,,,,-- --- ---- --- ------ ----- ------- ---- -- --- ------- --<br>------- ---------- ------ -- ----- -- ----- -- ---- ------<br>--- ----- --- --- ------ -------- ----- --- ------ ----- --<br>----- ----- ---------- --- --- ------ ------ ---- -- ------<br>------- --- ------ ----- was ---- ------- -- ---- --- --<br>------- ------,128397,128396.20000004768,127973.861,127989.29999995232,127990.531,128407.368,,47,was
screen,html.Screen,0_2_1_1_48,2021-11-26T11:20:26.177Z,,,,,,,,,,,,,,,,54,,,,,,,,,,,,,,588.7319999046304,,response,,,100,,,,,,Space,keypress(Space),,,,,-- --- ---- --- ------ ----- ------- ---- -- --- ------- --<br>------- ---------- ------ -- ----- -- ----- -- ---- ------<br>--- ----- --- --- ------ -------- ----- --- ------ ----- --<br>----- ----- ---------- --- --- ------ ------ ---- -- ------<br>------- --- ------ ----- --- left ------- -- ---- --- --<br>------- ------,128996.89999985695,128996.09999990463,128390.697,128397.20000004768,128407.368,129007.34,,48,left
screen,html.Screen,0_2_1_1_49,2021-11-26T11:20:26.561Z,,,,,,,,,,,,,,,,54,,,,,,,,,,,,,,372.75999990463606,,response,,,100,,,,,,Space,keypress(Space),,,,,-- --- ---- --- ------ ----- ------- ---- -- --- ------- --<br>------- ---------- ------ -- ----- -- ----- -- ---- ------<br>--- ----- --- --- ------ -------- ----- --- ------ ----- --<br>----- ----- ---------- --- --- ------ ------ ---- -- ------<br>------- --- ------ ----- --- ---- without -- ---- --- --<br>------- ------,129380.89999985695,129380.09999990463,128990.671,128997.09999990463,129007.34,129390.98,,49,without
screen,html.Screen,0_2_1_1_50,2021-11-26T11:20:26.921Z,,,,,,,,,,,,,,,,54,,,,,,,,,,,,,,349.11999990463664,,response,,,100,,,,,,Space,keypress(Space),,,,,-- --- ---- --- ------ ----- ------- ---- -- --- ------- --<br>------- ---------- ------ -- ----- -- ----- -- ---- ------<br>--- ----- --- --- ------ -------- ----- --- ------ ----- --<br>----- ----- ---------- --- --- ------ ------ ---- -- ------<br>------- --- ------ ----- --- ---- ------- an ---- --- --<br>------- ------,129741,129740.09999990463,129374.308,129381.20000004768,129390.98,129757.655,,50,an
screen,html.Screen,0_2_1_1_51,2021-11-26T11:20:27.281Z,,,,,,,,,,,,,,,,54,,,,,,,,,,,,,,342.44499990463373,,response,,,100,,,,,,Space,keypress(Space),,,,,-- --- ---- --- ------ ----- ------- ---- -- --- ------- --<br>------- ---------- ------ -- ----- -- ----- -- ---- ------<br>--- ----- --- --- ------ -------- ----- --- ------ ----- --<br>----- ----- ---------- --- --- ------ ------ ---- -- ------<br>------- --- ------ ----- --- ---- ------- -- easy --- --<br>------- ------,130100.79999995232,130100.09999990463,129740.985,129741.20000004768,129757.655,130107.747,,51,easy
screen,html.Screen,0_2_1_1_52,2021-11-26T11:20:27.697Z,,,,,,,,,,,,,,,,54,,,,,,,,,,,,,,408.252999999997,,response,,,100,,,,,,Space,keypress(Space),,,,,-- --- ---- --- ------ ----- ------- ---- -- --- ------- --<br>------- ---------- ------ -- ----- -- ----- -- ---- ------<br>--- ----- --- --- ------ -------- ----- --- ------ ----- --<br>----- ----- ---------- --- --- ------ ------ ---- -- ------<br>------- --- ------ ----- --- ---- ------- -- ---- way --<br>------- ------,130516.89999985695,130516,130091.077,130101.09999990463,130107.747,130524.492,,52,way
screen,html.Screen,0_2_1_1_53,2021-11-26T11:20:28.057Z,,,,,,,,,,,,,,,,54,,,,,,,,,,,,,,351.50800000000163,,response,,,100,,,,,,Space,keypress(Space),,,,,-- --- ---- --- ------ ----- ------- ---- -- --- ------- --<br>------- ---------- ------ -- ----- -- ----- -- ---- ------<br>--- ----- --- --- ------ -------- ----- --- ------ ----- --<br>----- ----- ---------- --- --- ------ ------ ---- -- ------<br>------- --- ------ ----- --- ---- ------- -- ---- --- of<br>------- ------,130876.79999995232,130876,130507.822,130517,130524.492,130891.246,,53,of
screen,html.Screen,0_2_1_1_54,2021-11-26T11:20:28.433Z,,,,,,,,,,,,,,,,54,,,,,,,,,,,,,,360.7540000000008,,response,,,100,,,,,,Space,keypress(Space),,,,,-- --- ---- --- ------ ----- ------- ---- -- --- ------- --<br>------- ---------- ------ -- ----- -- ----- -- ---- ------<br>--- ----- --- --- ------ -------- ----- --- ------ ----- --<br>----- ----- ---------- --- --- ------ ------ ---- -- ------<br>------- --- ------ ----- --- ---- ------- -- ---- --- --<br>raising ------,131252.79999995232,131252,130874.576,130877.09999990463,130891.246,131257.999,,54,raising
screen,html.Screen,0_2_1_1_55,2021-11-26T11:20:28.953Z,,,,,,,,,,,,,,,,54,,,,,,,,,,,,,,513.9009998569381,,response,,,100,,,,,,Space,keypress(Space),,,,,-- --- ---- --- ------ ----- ------- ---- -- --- ------- --<br>------- ---------- ------ -- ----- -- ----- -- ---- ------<br>--- ----- --- --- ------ -------- ----- --- ------ ----- --<br>----- ----- ---------- --- --- ------ ------ ---- -- ------<br>------- --- ------ ----- --- ---- ------- -- ---- --- --<br>------- money.,131772.79999995232,131771.89999985695,131241.329,131253.09999990463,131257.999,131774.793,,55,money.
Item 100,flow.Loop,0_2_1_1,2021-11-26T11:20:28.954Z,,,,,,,,,,,,,,,,,,,,,,,,,,,,,,31721.55199985695,,completion,,,,A,,,,,,,,,,silence,,131773.20000004768,131771.89999985695,100033.678,100035.09999990463,100050.348,131774.793,,,
Question 1,html.Screen,0_2_1_2,2021-11-26T11:20:32.617Z,,,,,,,,,,,,,,,,,,,,,,,,,,,true,TRUE,,3660.706999999995,,response,,,100,A,,,,,TRUE,click #choice-1,,,,silence,,135436.89999985695,135435.5,131758.123,131773.39999985695,131774.793,135442.335,,,
Question 2,html.Screen,0_2_1_3,2021-11-26T11:20:36.185Z,,,,,,,,,,,,,,,,,,,,,,,,,,,false,FALSE,,3560.865000047692,,response,,,100,A,,,,,TRUE,click #choice-1,,,,silence,,139004.5,139003.20000004768,135425.666,135437.09999990463,135442.335,139009.891,,,
Item 100,flow.Sequence,0_2_1,2021-11-26T11:20:36.185Z,,,,,,,,,,,,,,,,,,,,,,,,,,,,,,48955.23700004768,,completion,,,,,,,,,,,,,,,,139004.89999985695,139003.20000004768,90031.293,90048.79999995232,90047.963,139009.891,,,
End of Practice,html.Page,0_2_2,2021-11-26T11:20:42.393Z,,,,,,,,,,,,,,,,,,,,,,,,,,,,,,6202.608999999997,,form submission,,,,,,,,,,,,,,,,145213.09999990463,145212.5,138993.221,139005.09999990463,139009.891,145211.368,,,
Practice,flow.Sequence,0_2,2021-11-26T11:20:42.394Z,,,,,,,,,,,,,,,,,,,,,,,,,,,,,,103493.318,,completion,,,,,,,,,,,,,,,,145213.70000004768,145212.5,41702.514,41708.5,41719.182,145211.368,,,
Trap_instruction,html.Page,0_3_0,2021-11-26T11:20:52.512Z,,,,,,,,,,,,,,,,,,,,,,,,,,,,,,10120.231999904645,,form submission,,,,,,,,,,,,,,,,155332.20000004768,155331.59999990463,145194.698,145214,145211.368,155363.628,,,
trap_trial,html.Screen,0_3_1,2021-11-26T11:20:56.543Z,,,,,,,,,,,,,,,,,,,,,,,,,,,true,1,,3998.1719999523193,,response,,,,,,,,,1,click #choice-1,,,,,,159363.09999990463,159361.79999995232,155330.288,155332.39999985695,155363.628,159364.624,,,
end of trap trial,html.Page,0_3_2,2021-11-26T11:20:58.904Z,,,,,,,,,,,,,,,,,,,,,,,,,,,,,,2358.3759999999893,,form submission,,,,,,,,,,,,,,,,161723.5,161723,159347.954,159363.29999995232,159364.624,161732.051,,,
Trap 1,flow.Sequence,0_3,2021-11-26T11:20:58.904Z,,,,,,,,,,,,,,,,,,,,,,,,,,,,,,16511.632000000012,,completion,,,,,,,,,,,,,,,,161723.89999985695,161723,145194.698,145213.89999985695,145211.368,161732.051,,,
Standby,html.Page,0_4_0,2021-11-26T11:21:06.898Z,,,,,,,,,,,,,,,,,,,,,,,,,,,,,,8001.593999999983,,timeout,,,,,,,,,,,,,,,,169718,169716.975,161715.381,161724.09999990463,161732.051,169733.645,,,
Holding screen,html.Screen,0_4_1_0_0,2021-11-26T11:21:13.900Z,,,,,,,,,,,,,,,,,,,,,,,,,,,,,,7002.059999999998,,timeout,,,,,,,,,,,,,,,,176719.89999985695,176719.035,169716.975,169718.39999985695,169733.645,176735.705,,,
screen,html.Screen,0_4_1_0_1_0,2021-11-26T11:21:15.358Z,,,,,,,,,,,,,,,,11,,,,,,,,,,,,,,1441.3949999046454,,response,,,4,A,,,,,Space,keypress(Space),,,,silence,Known -- ---- --- -- --- -------- ------------ ---------- --<br>- ------- ------ --------- -- ------------ -- --- ---- -----<br>------ ---- ---- ------ ------ ------- --- ----- ---------<br>---- --- -------- -------- --- --- -- ------- --- --- -----<br>-- --- ------ ------- --- --- -------- ---- --------- --<br>---------- -- -------- ----------------,178178.09999990463,178177.09999990463,176719.035,176720.20000004768,176735.705,178185.845,,0,Known
screen,html.Screen,0_4_1_0_1_1,2021-11-26T11:21:15.862Z,,,,,,,,,,,,,,,,11,,,,,,,,,,,,,,494.85500004768255,,response,,,4,A,,,,,Space,keypress(Space),,,,silence,----- as ---- --- -- --- -------- ------------ ---------- --<br>- ------- ------ --------- -- ------------ -- --- ---- -----<br>------ ---- ---- ------ ------ ------- --- ----- ---------<br>---- --- -------- -------- --- --- -- ------- --- --- -----<br>-- --- ------ ------- --- --- -------- ---- --------- --<br>---------- -- -------- ----------------,178681.5,178680.70000004768,178169.176,178178.39999985695,178185.845,178686.264,,1,as
screen,html.Screen,0_4_1_0_1_2,2021-11-26T11:21:16.286Z,,,,,,,,,,,,,,,,11,,,,,,,,,,,,,,418.335999904637,,response,,,4,A,,,,,Space,keypress(Space),,,,silence,----- -- Rapa --- -- --- -------- ------------ ---------- --<br>- ------- ------ --------- -- ------------ -- --- ---- -----<br>------ ---- ---- ------ ------ ------- --- ----- ---------<br>---- --- -------- -------- --- --- -- ------- --- --- -----<br>-- --- ------ ------- --- --- -------- ---- --------- --<br>---------- -- -------- ----------------,179105.5,179104.59999990463,178669.593,178681.79999995232,178686.264,179119.638,,2,Rapa
screen,html.Screen,0_4_1_0_1_3,2021-11-26T11:21:16.998Z,,,,,,,,,,,,,,,,11,,,,,,,,,,,,,,696.8619999999937,,response,,,4,A,,,,,Space,keypress(Space),,,,silence,----- -- ---- Nui -- --- -------- ------------ ---------- --<br>- ------- ------ --------- -- ------------ -- --- ---- -----<br>------ ---- ---- ------ ------ ------- --- ----- ---------<br>---- --- -------- -------- --- --- -- ------- --- --- -----<br>-- --- ------ ------- --- --- -------- ---- --------- --<br>---------- -- -------- ----------------,179817.39999985695,179816.5,179102.968,179105.79999995232,179119.638,179819.796,,3,Nui
screen,html.Screen,0_4_1_0_1_4,2021-11-26T11:21:17.470Z,,,,,,,,,,,,,,,,11,,,,,,,,,,,,,,468.8039999046305,,response,,,4,A,,,,,Space,keypress(Space),,,,silence,----- -- ---- --- to --- -------- ------------ ---------- --<br>- ------- ------ --------- -- ------------ -- --- ---- -----<br>------ ---- ---- ------ ------ ------- --- ----- ---------<br>---- --- -------- -------- --- --- -- ------- --- --- -----<br>-- --- ------ ------- --- --- -------- ---- --------- --<br>---------- -- -------- ----------------,180289.5,180288.59999990463,179803.126,179817.70000004768,179819.796,180303.237,,4,to
screen,html.Screen,0_4_1_0_1_5,2021-11-26T11:21:17.970Z,,,,,,,,,,,,,,,,11,,,,,,,,,,,,,,481.36299990463885,,response,,,4,A,,,,,Space,keypress(Space),,,,silence,----- -- ---- --- -- the -------- ------------ ---------- --<br>- ------- ------ --------- -- ------------ -- --- ---- -----<br>------ ---- ---- ------ ------ ------- --- ----- ---------<br>---- --- -------- -------- --- --- -- ------- --- --- -----<br>-- --- ------ ------- --- --- -------- ---- --------- --<br>---------- -- -------- ----------------,180785.29999995232,180784.59999990463,180286.567,180289.89999985695,180303.237,180786.7,,5,the
screen,html.Screen,0_4_1_0_1_6,2021-11-26T11:21:18.746Z,,,,,,,,,,,,,,,,11,,,,,,,,,,,,,,773.7999999999884,,response,,,4,A,,,,,Space,keypress(Space),,,,silence,----- -- ---- --- -- --- island's ------------ ---------- --<br>- ------- ------ --------- -- ------------ -- --- ---- -----<br>------ ---- ---- ------ ------ ------- --- ----- ---------<br>---- --- -------- -------- --- --- -- ------- --- --- -----<br>-- --- ------ ------- --- --- -------- ---- --------- --<br>---------- -- -------- ----------------,181561.39999985695,181560.5,180770.03,180785.70000004768,180786.7,181570.229,,6,island's
screen,html.Screen,0_4_1_0_1_7,2021-11-26T11:21:19.482Z,,,,,,,,,,,,,,,,11,,,,,,,,,,,,,,726.1709998569568,,response,,,4,A,,,,,Space,keypress(Space),,,,silence,"----- -- ---- --- -- --- -------- inhabitants, ---------- --<br>- ------- ------ --------- -- ------------ -- --- ---- -----<br>------ ---- ---- ------ ------ ------- --- ----- ---------<br>---- --- -------- -------- --- --- -- ------- --- --- -----<br>-- --- ------ ------- --- --- -------- ---- --------- --<br>---------- -- -------- ----------------",182297.39999985695,182296.39999985695,181553.559,181561.59999990463,181570.229,182303.516,,7,"inhabitants,"
screen,html.Screen,0_4_1_0_1_8,2021-11-26T11:21:20.450Z,,,,,,,,,,,,,,,,11,,,,,,,,,,,,,,960.783999952313,,response,,,4,A,,,,,Space,keypress(Space),,,,silence,----- -- ---- --- -- --- -------- ------------ Rongorongo --<br>- ------- ------ --------- -- ------------ -- --- ---- -----<br>------ ---- ---- ------ ------ ------- --- ----- ---------<br>---- --- -------- -------- --- --- -- ------- --- --- -----<br>-- --- ------ ------- --- --- -------- ---- --------- --<br>---------- -- -------- ----------------,183265.29999995232,183264.29999995232,182286.848,182297.70000004768,182303.516,183270.714,,8,Rongorongo
screen,html.Screen,0_4_1_0_1_9,2021-11-26T11:21:20.954Z,,,,,,,,,,,,,,,,11,,,,,,,,,,,,,,497.58599995230907,,response,,,4,A,,,,,Space,keypress(Space),,,,silence,----- -- ---- --- -- --- -------- ------------ ---------- is<br>- ------- ------ --------- -- ------------ -- --- ---- -----<br>------ ---- ---- ------ ------ ------- --- ----- ---------<br>---- --- -------- -------- --- --- -- ------- --- --- -----<br>-- --- ------ ------- --- --- -------- ---- --------- --<br>---------- -- -------- ----------------,183769.09999990463,183768.29999995232,183254.043,183265.59999990463,183270.714,183770.643,,9,is
screen,html.Screen,0_4_1_0_1_10,2021-11-26T11:21:21.386Z,,,,,,,,,,,,,,,,11,,,,,,,,,,,,,,429.65699995230534,,response,,,4,A,,,,,Space,keypress(Space),,,,silence,----- -- ---- --- -- --- -------- ------------ ---------- --<br>a ------- ------ --------- -- ------------ -- --- ---- -----<br>------ ---- ---- ------ ------ ------- --- ----- ---------<br>---- --- -------- -------- --- --- -- ------- --- --- -----<br>-- --- ------ ------- --- --- -------- ---- --------- --<br>---------- -- -------- ----------------,184201.09999990463,184200.29999995232,183753.974,183769.39999985695,183770.643,184204.193,,10,a
screen,html.Screen,0_4_1_0_1_11,2021-11-26T11:21:21.922Z,,,,,,,,,,,,,,,,11,,,,,,,,,,,,,,532.106999952317,,response,,,4,A,,,,,Space,keypress(Space),,,,silence,----- -- ---- --- -- --- -------- ------------ ---------- --<br>- writing ------ --------- -- ------------ -- --- ---- -----<br>------ ---- ---- ------ ------ ------- --- ----- ---------<br>---- --- -------- -------- --- --- -- ------- --- --- -----<br>-- --- ------ ------- --- --- -------- ---- --------- --<br>---------- -- -------- ----------------,184737.09999990463,184736.29999995232,184187.523,184201.39999985695,184204.193,184754.281,,11,writing
screen,html.Screen,0_4_1_0_1_12,2021-11-26T11:21:22.450Z,,,,,,,,,,,,,,,,11,,,,,,,,,,,,,,509.9190000476956,,response,,,4,A,,,,,Space,keypress(Space),,,,silence,----- -- ---- --- -- --- -------- ------------ ---------- --<br>- ------- system --------- -- ------------ -- --- ---- -----<br>------ ---- ---- ------ ------ ------- --- ----- ---------<br>---- --- -------- -------- --- --- -- ------- --- --- -----<br>-- --- ------ ------- --- --- -------- ---- --------- --<br>---------- -- -------- ----------------,185265,185264.20000004768,184737.611,184737.39999985695,184754.281,185271.248,,12,system
screen,html.Screen,0_4_1_0_1_13,2021-11-26T11:21:22.986Z,,,,,,,,,,,,,,,,11,,,,,,,,,,,,,,528.9520000476914,,response,,,4,A,,,,,Space,keypress(Space),,,,silence,----- -- ---- --- -- --- -------- ------------ ---------- --<br>- ------- ------ comprised -- ------------ -- --- ---- -----<br>------ ---- ---- ------ ------ ------- --- ----- ---------<br>---- --- -------- -------- --- --- -- ------- --- --- -----<br>-- --- ------ ------- --- --- -------- ---- --------- --<br>---------- -- -------- ----------------,185801,185800.20000004768,185254.576,185265.29999995232,185271.248,185804.49,,13,comprised
screen,html.Screen,0_4_1_0_1_14,2021-11-26T11:21:23.506Z,,,,,,,,,,,,,,,,11,,,,,,,,,,,,,,515.710000047693,,response,,,4,A,,,,,Space,keypress(Space),,,,silence,----- -- ---- --- -- --- -------- ------------ ---------- --<br>- ------- ------ --------- of ------------ -- --- ---- -----<br>------ ---- ---- ------ ------ ------- --- ----- ---------<br>---- --- -------- -------- --- --- -- ------- --- --- -----<br>-- --- ------ ------- --- --- -------- ---- --------- --<br>---------- -- -------- ----------------,186320.89999985695,186320.20000004768,185787.821,185801.29999995232,185804.49,186338.108,,14,of
screen,html.Screen,0_4_1_0_1_15,2021-11-26T11:21:24.330Z,,,,,,,,,,,,,,,,11,,,,,,,,,,,,,,806.0920000476763,,response,,,4,A,,,,,Space,keypress(Space),,,,silence,----- -- ---- --- -- --- -------- ------------ ---------- --<br>- ------- ------ --------- -- pictographs. -- --- ---- -----<br>------ ---- ---- ------ ------ ------- --- ----- ---------<br>---- --- -------- -------- --- --- -- ------- --- --- -----<br>-- --- ------ ------- --- --- -------- ---- --------- --<br>---------- -- -------- ----------------,187144.89999985695,187144.20000004768,186321.437,186321.20000004768,186338.108,187154.798,,15,pictographs.
screen,html.Screen,0_4_1_0_1_16,2021-11-26T11:21:24.754Z,,,,,,,,,,,,,,,,11,,,,,,,,,,,,,,413.2019999999902,,response,,,4,A,,,,,Space,keypress(Space),,,,silence,----- -- ---- --- -- --- -------- ------------ ---------- --<br>- ------- ------ --------- -- ------------ It --- ---- -----<br>------ ---- ---- ------ ------ ------- --- ----- ---------<br>---- --- -------- -------- --- --- -- ------- --- --- -----<br>-- --- ------ ------- --- --- -------- ---- --------- --<br>---------- -- -------- ----------------,187568.79999995232,187568,187138.129,187145.09999990463,187154.798,187571.755,,16,It
screen,html.Screen,0_4_1_0_1_17,2021-11-26T11:21:25.154Z,,,,,,,,,,,,,,,,11,,,,,,,,,,,,,,396.24499999999534,,response,,,4,A,,,,,Space,keypress(Space),,,,silence,----- -- ---- --- -- --- -------- ------------ ---------- --<br>- ------- ------ --------- -- ------------ -- has ---- -----<br>------ ---- ---- ------ ------ ------- --- ----- ---------<br>---- --- -------- -------- --- --- -- ------- --- --- -----<br>-- --- ------ ------- --- --- -------- ---- --------- --<br>---------- -- -------- ----------------,187968.89999985695,187968,187555.084,187569,187571.755,187971.797,,17,has
screen,html.Screen,0_4_1_0_1_18,2021-11-26T11:21:25.762Z,,,,,,,,,,,,,,,,11,,,,,,,,,,,,,,604.5029999523249,,response,,,4,A,,,,,Space,keypress(Space),,,,silence,----- -- ---- --- -- --- -------- ------------ ---------- --<br>- ------- ------ --------- -- ------------ -- --- been -----<br>------ ---- ---- ------ ------ ------- --- ----- ---------<br>---- --- -------- -------- --- --- -- ------- --- --- -----<br>-- --- ------ ------- --- --- -------- ---- --------- --<br>---------- -- -------- ----------------,188577.09999990463,188576.29999995232,187955.127,187969.20000004768,187971.797,188588.575,,18,been
screen,html.Screen,0_4_1_0_1_19,2021-11-26T11:21:26.282Z,,,,,,,,,,,,,,,,11,,,,,,,,,,,,,,507.42499999998836,,response,,,4,A,,,,,Space,keypress(Space),,,,silence,----- -- ---- --- -- --- -------- ------------ ---------- --<br>- ------- ------ --------- -- ------------ -- --- ---- found<br>------ ---- ---- ------ ------ ------- --- ----- ---------<br>---- --- -------- -------- --- --- -- ------- --- --- -----<br>-- --- ------ ------- --- --- -------- ---- --------- --<br>---------- -- -------- ----------------,189096.79999995232,189096,188571.905,188577.39999985695,188588.575,189105.399,,19,found
screen,html.Screen,0_4_1_0_1_20,2021-11-26T11:21:27.322Z,,,,,,,,,,,,,,,,11,,,,,,,,,,,,,,1030.500999856944,,response,,,4,A,,,,,Space,keypress(Space),,,,silence,----- -- ---- --- -- --- -------- ------------ ---------- --<br>- ------- ------ --------- -- ------------ -- --- ---- -----<br>carved ---- ---- ------ ------ ------- --- ----- ---------<br>---- --- -------- -------- --- --- -- ------- --- --- -----<br>-- --- ------ ------- --- --- -------- ---- --------- --<br>---------- -- -------- ----------------,190136.70000004768,190135.89999985695,189088.729,189097.09999990463,189105.399,190138.968,,20,carved
screen,html.Screen,0_4_1_0_1_21,2021-11-26T11:21:27.818Z,,,,,,,,,,,,,,,,11,,,,,,,,,,,,,,492.9319998569554,,response,,,4,A,,,,,Space,keypress(Space),,,,silence,----- -- ---- --- -- --- -------- ------------ ---------- --<br>- ------- ------ --------- -- ------------ -- --- ---- -----<br>------ into ---- ------ ------ ------- --- ----- ---------<br>---- --- -------- -------- --- --- -- ------- --- --- -----<br>-- --- ------ ------- --- --- -------- ---- --------- --<br>---------- -- -------- ----------------,190632.70000004768,190631.89999985695,190122.298,190136.89999985695,190138.968,190639.074,,21,into
screen,html.Screen,0_4_1_0_1_22,2021-11-26T11:21:28.242Z,,,,,,,,,,,,,,,,11,,,,,,,,,,,,,,416.8259998569556,,response,,,4,A,,,,,Space,keypress(Space),,,,silence,----- -- ---- --- -- --- -------- ------------ ---------- --<br>- ------- ------ --------- -- ------------ -- --- ---- -----<br>------ ---- many ------ ------ ------- --- ----- ---------<br>---- --- -------- -------- --- --- -- ------- --- --- -----<br>-- --- ------ ------- --- --- -------- ---- --------- --<br>---------- -- -------- ----------------,191056.70000004768,191055.89999985695,190622.404,190632.89999985695,190639.074,191072.543,,22,many
screen,html.Screen,0_4_1_0_1_23,2021-11-26T11:21:28.666Z,,,,,,,,,,,,,,,,11,,,,,,,,,,,,,,407.25699995231116,,response,,,4,A,,,,,Space,keypress(Space),,,,silence,----- -- ---- --- -- --- -------- ------------ ---------- --<br>- ------- ------ --------- -- ------------ -- --- ---- -----<br>------ ---- ---- oblong ------ ------- --- ----- ---------<br>---- --- -------- -------- --- --- -- ------- --- --- -----<br>-- --- ------ ------- --- --- -------- ---- --------- --<br>---------- -- -------- ----------------,191480.59999990463,191479.79999995232,191055.873,191056.79999995232,191072.543,191489.31,,23,oblong
screen,html.Screen,0_4_1_0_1_24,2021-11-26T11:21:29.298Z,,,,,,,,,,,,,,,,11,,,,,,,,,,,,,,622.4899999523186,,response,,,4,A,,,,,Space,keypress(Space),,,,silence,----- -- ---- --- -- --- -------- ------------ ---------- --<br>- ------- ------ --------- -- ------------ -- --- ---- -----<br>------ ---- ---- ------ wooden ------- --- ----- ---------<br>---- --- -------- -------- --- --- -- ------- --- --- -----<br>-- --- ------ ------- --- --- -------- ---- --------- --<br>---------- -- -------- ----------------,192112.59999990463,192111.79999995232,191472.64,191481,191489.31,192122.787,,24,wooden
screen,html.Screen,0_4_1_0_1_25,2021-11-26T11:21:29.761Z,,,,,,,,,,,,,,,,11,,,,,,,,,,,,,,452.91300004767254,,response,,,4,A,,,,,Space,keypress(Space),,,,silence,----- -- ---- --- -- --- -------- ------------ ---------- --<br>- ------- ------ --------- -- ------------ -- --- ---- -----<br>------ ---- ---- ------ ------ tablets --- ----- ---------<br>---- --- -------- -------- --- --- -- ------- --- --- -----<br>-- --- ------ ------- --- --- -------- ---- --------- --<br>---------- -- -------- ----------------,192576.5,192575.70000004768,192106.117,192112.79999995232,192122.787,192589.558,,25,tablets
screen,html.Screen,0_4_1_0_1_26,2021-11-26T11:21:30.249Z,,,,,,,,,,,,,,,,11,,,,,,,,,,,,,,474.1420000476937,,response,,,4,A,,,,,Space,keypress(Space),,,,silence,----- -- ---- --- -- --- -------- ------------ ---------- --<br>- ------- ------ --------- -- ------------ -- --- ---- -----<br>------ ---- ---- ------ ------ ------- and ----- ---------<br>---- --- -------- -------- --- --- -- ------- --- --- -----<br>-- --- ------ ------- --- --- -------- ---- --------- --<br>---------- -- -------- ----------------,193064.5,193063.70000004768,192572.888,192576.89999985695,192589.558,193073.037,,26,and
screen,html.Screen,0_4_1_0_1_27,2021-11-26T11:21:30.705Z,,,,,,,,,,,,,,,,11,,,,,,,,,,,,,,446.66300004767254,,response,,,4,A,,,,,Space,keypress(Space),,,,silence,----- -- ---- --- -- --- -------- ------------ ---------- --<br>- ------- ------ --------- -- ------------ -- --- ---- -----<br>------ ---- ---- ------ ------ ------- --- other ---------<br>---- --- -------- -------- --- --- -- ------- --- --- -----<br>-- --- ------ ------- --- --- -------- ---- --------- --<br>---------- -- -------- ----------------,193520.39999985695,193519.70000004768,193056.367,193064.70000004768,193073.037,193523.139,,27,other
screen,html.Screen,0_4_1_0_1_28,2021-11-26T11:21:31.065Z,,,,,,,,,,,,,,,,11,,,,,,,,,,,,,,356.56100004768814,,response,,,4,A,,,,,Space,keypress(Space),,,,silence,----- -- ---- --- -- --- -------- ------------ ---------- --<br>- ------- ------ --------- -- ------------ -- --- ---- -----<br>------ ---- ---- ------ ------ ------- --- ----- artifacts<br>---- --- -------- -------- --- --- -- ------- --- --- -----<br>-- --- ------ ------- --- --- -------- ---- --------- --<br>---------- -- -------- ----------------,193880.5,193879.70000004768,193506.469,193520.70000004768,193523.139,193889.88,,28,artifacts
screen,html.Screen,0_4_1_0_1_29,2021-11-26T11:21:31.857Z,,,,,,,,,,,,,,,,11,,,,,,,,,,,,,,781.7199999046279,,response,,,4,A,,,,,Space,keypress(Space),,,,silence,----- -- ---- --- -- --- -------- ------------ ---------- --<br>- ------- ------ --------- -- ------------ -- --- ---- -----<br>------ ---- ---- ------ ------ ------- --- ----- ---------<br>from --- -------- -------- --- --- -- ------- --- --- -----<br>-- --- ------ ------- --- --- -------- ---- --------- --<br>---------- -- -------- ----------------,194672.39999985695,194671.59999990463,193873.21,193880.70000004768,193889.88,194690.078,,29,from
screen,html.Screen,0_4_1_0_1_30,2021-11-26T11:21:32.361Z,,,,,,,,,,,,,,,,11,,,,,,,,,,,,,,485.4219999999914,,response,,,4,A,,,,,Space,keypress(Space),,,,silence,----- -- ---- --- -- --- -------- ------------ ---------- --<br>- ------- ------ --------- -- ------------ -- --- ---- -----<br>------ ---- ---- ------ ------ ------- --- ----- ---------<br>---- the -------- -------- --- --- -- ------- --- --- -----<br>-- --- ------ ------- --- --- -------- ---- --------- --<br>---------- -- -------- ----------------,195176.29999995232,195175.5,194673.408,194672.79999995232,194690.078,195190.187,,30,the
screen,html.Screen,0_4_1_0_1_31,2021-11-26T11:21:32.929Z,,,,,,,,,,,,,,,,11,,,,,,,,,,,,,,553.3129999999946,,response,,,4,A,,,,,Space,keypress(Space),,,,silence,----- -- ---- --- -- --- -------- ------------ ---------- --<br>- ------- ------ --------- -- ------------ -- --- ---- -----<br>------ ---- ---- ------ ------ ------- --- ----- ---------<br>---- --- island's -------- --- --- -- ------- --- --- -----<br>-- --- ------ ------- --- --- -------- ---- --------- --<br>---------- -- -------- ----------------,195744.29999995232,195743.5,195173.517,195176.59999990463,195190.187,195757.024,,31,island's
screen,html.Screen,0_4_1_0_1_32,2021-11-26T11:21:33.673Z,,,,,,,,,,,,,,,,11,,,,,,,,,,,,,,730.375999856944,,response,,,4,A,,,,,Space,keypress(Space),,,,silence,----- -- ---- --- -- --- -------- ------------ ---------- --<br>- ------- ------ --------- -- ------------ -- --- ---- -----<br>------ ---- ---- ------ ------ ------- --- ----- ---------<br>---- --- -------- history. --- --- -- ------- --- --- -----<br>-- --- ------ ------- --- --- -------- ---- --------- --<br>---------- -- -------- ----------------,196488.20000004768,196487.39999985695,195740.354,195744.59999990463,195757.024,196490.381,,32,history.
screen,html.Screen,0_4_1_0_1_33,2021-11-26T11:21:34.369Z,,,,,,,,,,,,,,,,11,,,,,,,,,,,,,,693.0189998569549,,response,,,4,A,,,,,Space,keypress(Space),,,,silence,----- -- ---- --- -- --- -------- ------------ ---------- --<br>- ------- ------ --------- -- ------------ -- --- ---- -----<br>------ ---- ---- ------ ------ ------- --- ----- ---------<br>---- --- -------- -------- The --- -- ------- --- --- -----<br>-- --- ------ ------- --- --- -------- ---- --------- --<br>---------- -- -------- ----------------,197184.29999995232,197183.39999985695,196473.712,196488.39999985695,196490.381,197190.774,,33,The
screen,html.Screen,0_4_1_0_1_34,2021-11-26T11:21:34.985Z,,,,,,,,,,,,,,,,11,,,,,,,,,,,,,,608.5259999523114,,response,,,4,A,,,,,Space,keypress(Space),,,,silence,----- -- ---- --- -- --- -------- ------------ ---------- --<br>- ------- ------ --------- -- ------------ -- --- ---- -----<br>------ ---- ---- ------ ------ ------- --- ----- ---------<br>---- --- -------- -------- --- art -- ------- --- --- -----<br>-- --- ------ ------- --- --- -------- ---- --------- --<br>---------- -- -------- ----------------,197800.20000004768,197799.29999995232,197174.103,197184.59999990463,197190.774,197807.371,,34,art
screen,html.Screen,0_4_1_0_1_35,2021-11-26T11:21:35.473Z,,,,,,,,,,,,,,,,11,,,,,,,,,,,,,,479.92899995230255,,response,,,4,A,,,,,Space,keypress(Space),,,,silence,----- -- ---- --- -- --- -------- ------------ ---------- --<br>- ------- ------ --------- -- ------------ -- --- ---- -----<br>------ ---- ---- ------ ------ ------- --- ----- ---------<br>---- --- -------- -------- --- --- of ------- --- --- -----<br>-- --- ------ ------- --- --- -------- ---- --------- --<br>---------- -- -------- ----------------,198288.20000004768,198287.29999995232,197790.702,197800.39999985695,197807.371,198290.932,,35,of
screen,html.Screen,0_4_1_0_1_36,2021-11-26T11:21:36.041Z,,,,,,,,,,,,,,,,11,,,,,,,,,,,,,,564.768000047683,,response,,,4,A,,,,,Space,keypress(Space),,,,silence,----- -- ---- --- -- --- -------- ------------ ---------- --<br>- ------- ------ --------- -- ------------ -- --- ---- -----<br>------ ---- ---- ------ ------ ------- --- ----- ---------<br>---- --- -------- -------- --- --- -- writing --- --- -----<br>-- --- ------ ------- --- --- -------- ---- --------- --<br>---------- -- -------- ----------------,198856.5,198855.70000004768,198274.262,198288.5,198290.932,198857.706,,36,writing
screen,html.Screen,0_4_1_0_1_37,2021-11-26T11:21:36.425Z,,,,,,,,,,,,,,,,11,,,,,,,,,,,,,,381.5939999523107,,response,,,4,A,,,,,Space,keypress(Space),,,,silence,----- -- ---- --- -- --- -------- ------------ ---------- --<br>- ------- ------ --------- -- ------------ -- --- ---- -----<br>------ ---- ---- ------ ------ ------- --- ----- ---------<br>---- --- -------- -------- --- --- -- ------- was --- -----<br>-- --- ------ ------- --- --- -------- ---- --------- --<br>---------- -- -------- ----------------,199240.09999990463,199239.29999995232,198841.036,198856.79999995232,198857.706,199257.957,,37,was
screen,html.Screen,0_4_1_0_1_38,2021-11-26T11:21:36.849Z,,,,,,,,,,,,,,,,11,,,,,,,,,,,,,,405.24300004768884,,response,,,4,A,,,,,Space,keypress(Space),,,,silence,----- -- ---- --- -- --- -------- ------------ ---------- --<br>- ------- ------ --------- -- ------------ -- --- ---- -----<br>------ ---- ---- ------ ------ ------- --- ----- ---------<br>---- --- -------- -------- --- --- -- ------- --- not -----<br>-- --- ------ ------- --- --- -------- ---- --------- --<br>---------- -- -------- ----------------,199664.09999990463,199663.20000004768,199241.285,199240.39999985695,199257.957,199674.633,,38,not
screen,html.Screen,0_4_1_0_1_39,2021-11-26T11:21:37.225Z,,,,,,,,,,,,,,,,11,,,,,,,,,,,,,,364.5670000476821,,response,,,4,A,,,,,Space,keypress(Space),,,,silence,----- -- ---- --- -- --- -------- ------------ ---------- --<br>- ------- ------ --------- -- ------------ -- --- ---- -----<br>------ ---- ---- ------ ------ ------- --- ----- ---------<br>---- --- -------- -------- --- --- -- ------- --- --- known<br>-- --- ------ ------- --- --- -------- ---- --------- --<br>---------- -- -------- ----------------,200040,200039.20000004768,199657.963,199664.39999985695,199674.633,200041.376,,39,known
screen,html.Screen,0_4_1_0_1_40,2021-11-26T11:21:38.009Z,,,,,,,,,,,,,,,,11,,,,,,,,,,,,,,781.8240000476944,,response,,,4,A,,,,,Space,keypress(Space),,,,silence,----- -- ---- --- -- --- -------- ------------ ---------- --<br>- ------- ------ --------- -- ------------ -- --- ---- -----<br>------ ---- ---- ------ ------ ------- --- ----- ---------<br>---- --- -------- -------- --- --- -- ------- --- --- -----<br>in --- ------ ------- --- --- -------- ---- --------- --<br>---------- -- -------- ----------------,200823.89999985695,200823.20000004768,200024.706,200040.20000004768,200041.376,200841.578,,40,in
screen,html.Screen,0_4_1_0_1_41,2021-11-26T11:21:39.537Z,,,,,,,,,,,,,,,,11,,,,,,,,,,,,,,1509.4219999999914,,response,,,4,A,,,,,Space,keypress(Space),,,,silence,----- -- ---- --- -- --- -------- ------------ ---------- --<br>- ------- ------ --------- -- ------------ -- --- ---- -----<br>------ ---- ---- ------ ------ ------- --- ----- ---------<br>---- --- -------- -------- --- --- -- ------- --- --- -----<br>-- any ------ ------- --- --- -------- ---- --------- --<br>---------- -- -------- ----------------,202351.89999985695,202351,200824.908,200824.20000004768,200841.578,202358.554,,41,any
screen,html.Screen,0_4_1_0_1_42,2021-11-26T11:21:39.937Z,,,,,,,,,,,,,,,,11,,,,,,,,,,,,,,392.4459999999963,,response,,,4,A,,,,,Space,keypress(Space),,,,silence,----- -- ---- --- -- --- -------- ------------ ---------- --<br>- ------- ------ --------- -- ------------ -- --- ---- -----<br>------ ---- ---- ------ ------ ------- --- ----- ---------<br>---- --- -------- -------- --- --- -- ------- --- --- -----<br>-- --- nearby ------- --- --- -------- ---- --------- --<br>---------- -- -------- ----------------,202751.89999985695,202751,202341.884,202352.20000004768,202358.554,202758.709,,42,nearby
screen,html.Screen,0_4_1_0_1_43,2021-11-26T11:21:40.441Z,,,,,,,,,,,,,,,,11,,,,,,,,,,,,,,496.1909998569463,,response,,,4,A,,,,,Space,keypress(Space),,,,silence,----- -- ---- --- -- --- -------- ------------ ---------- --<br>- ------- ------ --------- -- ------------ -- --- ---- -----<br>------ ---- ---- ------ ------ ------- --- ----- ---------<br>---- --- -------- -------- --- --- -- ------- --- --- -----<br>-- --- ------ islands --- --- -------- ---- --------- --<br>---------- -- -------- ----------------,203255.79999995232,203254.89999985695,202742.039,202752.09999990463,202758.709,203258.831,,43,islands
screen,html.Screen,0_4_1_0_1_44,2021-11-26T11:21:40.977Z,,,,,,,,,,,,,,,,11,,,,,,,,,,,,,,532.0689998569433,,response,,,4,A,,,,,Space,keypress(Space),,,,silence,----- -- ---- --- -- --- -------- ------------ ---------- --<br>- ------- ------ --------- -- ------------ -- --- ---- -----<br>------ ---- ---- ------ ------ ------- --- ----- ---------<br>---- --- -------- -------- --- --- -- ------- --- --- -----<br>-- --- ------ ------- and --- -------- ---- --------- --<br>---------- -- -------- ----------------,203791.79999995232,203790.89999985695,203242.161,203256.09999990463,203258.831,203808.962,,44,and
screen,html.Screen,0_4_1_0_1_45,2021-11-26T11:21:41.489Z,,,,,,,,,,,,,,,,11,,,,,,,,,,,,,,493.9379998569493,,response,,,4,A,,,,,Space,keypress(Space),,,,silence,----- -- ---- --- -- --- -------- ------------ ---------- --<br>- ------- ------ --------- -- ------------ -- --- ---- -----<br>------ ---- ---- ------ ------ ------- --- ----- ---------<br>---- --- -------- -------- --- --- -- ------- --- --- -----<br>-- --- ------ ------- --- the -------- ---- --------- --<br>---------- -- -------- ----------------,204303.79999995232,204302.89999985695,203792.292,203792.09999990463,203808.962,204309.085,,45,the
screen,html.Screen,0_4_1_0_1_46,2021-11-26T11:21:41.969Z,,,,,,,,,,,,,,,,11,,,,,,,,,,,,,,473.814999856957,,response,,,4,A,,,,,Space,keypress(Space),,,,silence,----- -- ---- --- -- --- -------- ------------ ---------- --<br>- ------- ------ --------- -- ------------ -- --- ---- -----<br>------ ---- ---- ------ ------ ------- --- ----- ---------<br>---- --- -------- -------- --- --- -- ------- --- --- -----<br>-- --- ------ ------- --- --- script's ---- --------- --<br>---------- -- -------- ----------------,204783.70000004768,204782.89999985695,204292.415,204304,204309.085,204792.556,,46,script's
screen,html.Screen,0_4_1_0_1_47,2021-11-26T11:21:42.425Z,,,,,,,,,,,,,,,,11,,,,,,,,,,,,,,446.2439999523049,,response,,,4,A,,,,,Space,keypress(Space),,,,silence,----- -- ---- --- -- --- -------- ------------ ---------- --<br>- ------- ------ --------- -- ------------ -- --- ---- -----<br>------ ---- ---- ------ ------ ------- --- ----- ---------<br>---- --- -------- -------- --- --- -- ------- --- --- -----<br>-- --- ------ ------- --- --- -------- mere --------- --<br>---------- -- -------- ----------------,205239.70000004768,205238.79999995232,204775.886,204783.89999985695,204792.556,205242.654,,47,mere
screen,html.Screen,0_4_1_0_1_48,2021-11-26T11:21:42.897Z,,,,,,,,,,,,,,,,11,,,,,,,,,,,,,,468.14599995230674,,response,,,4,A,,,,,Space,keypress(Space),,,,silence,----- -- ---- --- -- --- -------- ------------ ---------- --<br>- ------- ------ --------- -- ------------ -- --- ---- -----<br>------ ---- ---- ------ ------ ------- --- ----- ---------<br>---- --- -------- -------- --- --- -- ------- --- --- -----<br>-- --- ------ ------- --- --- -------- ---- existence --<br>---------- -- -------- ----------------,205711.70000004768,205710.79999995232,205225.984,205239.89999985695,205242.654,205726.086,,48,existence
screen,html.Screen,0_4_1_0_1_49,2021-11-26T11:21:43.345Z,,,,,,,,,,,,,,,,11,,,,,,,,,,,,,,432.61400004767347,,response,,,4,A,,,,,Space,keypress(Space),,,,silence,----- -- ---- --- -- --- -------- ------------ ---------- --<br>- ------- ------ --------- -- ------------ -- --- ---- -----<br>------ ---- ---- ------ ------ ------- --- ----- ---------<br>---- --- -------- -------- --- --- -- ------- --- --- -----<br>-- --- ------ ------- --- --- -------- ---- --------- is<br>---------- -- -------- ----------------,206159.59999990463,206158.70000004768,205709.416,205711.89999985695,205726.086,206176.204,,49,is
screen,html.Screen,0_4_1_0_1_50,2021-11-26T11:21:43.872Z,,,,,,,,,,,,,,,,11,,,,,,,,,,,,,,510.4960000476858,,response,,,4,A,,,,,Space,keypress(Space),,,,silence,----- -- ---- --- -- --- -------- ------------ ---------- --<br>- ------- ------ --------- -- ------------ -- --- ---- -----<br>------ ---- ---- ------ ------ ------- --- ----- ---------<br>---- --- -------- -------- --- --- -- ------- --- --- -----<br>-- --- ------ ------- --- --- -------- ---- --------- --<br>sufficient -- -------- ----------------,206687.59999990463,206686.70000004768,206159.534,206159.79999995232,206176.204,206692.976,,50,sufficient
