sender,sender_type,sender_id,timestamp,meta,,Blues,Classical,Country,Dance,Electronic,Folk,Gospel,Hip-Hop,Jazz,Latin,Musical/Film,New-age,Pop,Provo_ID,R&B,Rap,Reggae,Religious,Rock,Soul,Swing,Traditional,age,artist_name,correct,correctResponse,distraction,duration,education,ended_on,familiarity,gender,item,list,music_frequency,offensiveness,pleasantness,preference,response,response_action,snippet_file,song_name,song_rating,sound,text,time_commit,time_end,time_render,time_run,time_show,time_switch,url,word,word_ID
Instructions,html.Page,0_0,2021-12-03T10:04:23.095Z,"{""labjs_version"":""20.2.3"",""labjs_build"":{""flavor"":""production"",""commit"":""7ea907d66ca8aeef8054924ca5d82ffbe11e34e5""},""location"":""https://run.pavlovia.org/mvasilev/lab_music_f/"",""userAgent"":""Mozilla/5.0 (Windows NT 6.1; Win64; x64) AppleWebKit/537.36 (KHTML, like Gecko) Chrome/96.0.4664.45 Safari/537.36"",""platform"":""Win32"",""language"":""en-US"",""locale"":""en-US"",""timeZone"":""Europe/London"",""timezoneOffset"":0,""screen_width"":1920,""screen_height"":1080,""scroll_width"":1920,""scroll_height"":959,""window_innerWidth"":1920,""window_innerHeight"":1007,""devicePixelRatio"":1}",,,,,,,,,,,,,,,,,,,,,,,,,,,,,59586.509,,form submission,,,,,,,,,,,,,,,,81888.69999998808,81888,22268.161,22281.19999998808,22301.491,81890.093,{},,
Headphones,html.Page,0_1,2021-12-03T10:04:26.797Z,,,,,,,,,,,,,,,,,,,,,,,,,,,,,,3700.0070000238484,,form submission,,,,,,,,,,,,,,,,85590.40000003576,85590.10000002384,81873.415,81889.19999998808,81890.093,85599.924,,,
Holding screen,html.Screen,0_2_0_0,2021-12-03T10:04:36.794Z,,,,,,,,,,,,,,,,,,,,,,,,,,,,,,9999.903999999995,,timeout,,,,,,,,,,,,,,,,95587.10000002384,95583.163,85583.259,85590.69999998808,85599.924,95599.828,,,
screen,html.Screen,0_2_0_1_0,2021-12-03T10:04:37.516Z,,,,,,,,,,,,,,,,53,,,,,,,,,,,,,,708.4720000119269,,response,,,99,,,,,,Space,keypress(Space),,,,,When -- ----- -- ------ - ------- --- ----------<br>------------- ------ ------ ---- ---- ------- ----- -- ----<br>-------- ------- -- ---------- --- - --- ----- ----- ----<br>---- --- --- ----- --- ---- ---- ------- ----- ---- -------<br>--- --- -- ----- -- --- ---- -- --- ---- -- ------ ------<br>--- ----- -- ----,96309.30000001192,96308.30000001192,95583.163,95587.40000003576,95599.828,96316.486,,0,When
screen,html.Screen,0_2_0_1_1,2021-12-03T10:04:37.907Z,,,,,,,,,,,,,,,,53,,,,,,,,,,,,,,383.5139999999956,,response,,,99,,,,,,Space,keypress(Space),,,,,---- it ----- -- ------ - ------- --- ----------<br>------------- ------ ------ ---- ---- ------- ----- -- ----<br>-------- ------- -- ---------- --- - --- ----- ----- ----<br>---- --- --- ----- --- ---- ---- ------- ----- ---- -------<br>--- --- -- ----- -- --- ---- -- --- ---- -- ------ ------<br>--- ----- -- ----,96700.69999998808,96700,96299.821,96309.60000002384,96316.486,96716.575,,1,it
screen,html.Screen,0_2_0_1_2,2021-12-03T10:04:38.219Z,,,,,,,,,,,,,,,,53,,,,,,,,,,,,,,295.4250000000029,,response,,,99,,,,,,Space,keypress(Space),,,,,---- -- comes -- ------ - ------- --- ----------<br>------------- ------ ------ ---- ---- ------- ----- -- ----<br>-------- ------- -- ---------- --- - --- ----- ----- ----<br>---- --- --- ----- --- ---- ---- ------- ----- ---- -------<br>--- --- -- ----- -- --- ---- -- --- ---- -- ------ ------<br>--- ----- -- ----,97012.5,97012,96699.909,96700.80000001192,96716.575,97016.503,,2,comes
screen,html.Screen,0_2_0_1_3,2021-12-03T10:04:38.571Z,,,,,,,,,,,,,,,,53,,,,,,,,,,,,,,347.3970000357658,,response,,,99,,,,,,Space,keypress(Space),,,,,---- -- ----- to ------ - ------- --- ----------<br>------------- ------ ------ ---- ---- ------- ----- -- ----<br>-------- ------- -- ---------- --- - --- ----- ----- ----<br>---- --- --- ----- --- ---- ---- ------- ----- ---- -------<br>--- --- -- ----- -- --- ---- -- --- ---- -- ------ ------<br>--- ----- -- ----,97364.69999998808,97363.90000003576,96999.838,97012.80000001192,97016.503,97366.541,,3,to
screen,html.Screen,0_2_0_1_4,2021-12-03T10:04:38.923Z,,,,,,,,,,,,,,,,53,,,,,,,,,,,,,,349.35900003576535,,response,,,99,,,,,,Space,keypress(Space),,,,,---- -- ----- -- having - ------- --- ----------<br>------------- ------ ------ ---- ---- ------- ----- -- ----<br>-------- ------- -- ---------- --- - --- ----- ----- ----<br>---- --- --- ----- --- ---- ---- ------- ----- ---- -------<br>--- --- -- ----- -- --- ---- -- --- ---- -- ------ ------<br>--- ----- -- ----,97716.80000001192,97715.90000003576,97349.875,97365,97366.541,97733.162,,4,having
screen,html.Screen,0_2_0_1_5,2021-12-03T10:04:39.275Z,,,,,,,,,,,,,,,,53,,,,,,,,,,,,,,334.8380000000034,,response,,,99,,,,,,Space,keypress(Space),,,,,---- -- ----- -- ------ a ------- --- ----------<br>------------- ------ ------ ---- ---- ------- ----- -- ----<br>-------- ------- -- ---------- --- - --- ----- ----- ----<br>---- --- --- ----- --- ---- ---- ------- ----- ---- -------<br>--- --- -- ----- -- --- ---- -- --- ---- -- ------ ------<br>--- ----- -- ----,98068.60000002384,98068,97716.497,97717,97733.162,98083.121,,5,a
screen,html.Screen,0_2_0_1_6,2021-12-03T10:04:39.667Z,,,,,,,,,,,,,,,,53,,,,,,,,,,,,,,376.7790000357636,,response,,,99,,,,,,Space,keypress(Space),,,,,---- -- ----- -- ------ - lasting --- ----------<br>------------- ------ ------ ---- ---- ------- ----- -- ----<br>-------- ------- -- ---------- --- - --- ----- ----- ----<br>---- --- --- ----- --- ---- ---- ------- ----- ---- -------<br>--- --- -- ----- -- --- ---- -- --- ---- -- ------ ------<br>--- ----- -- ----,98460.5,98459.90000003576,98066.456,98068.90000003576,98083.121,98466.481,,6,lasting
screen,html.Screen,0_2_0_1_7,2021-12-03T10:04:40.051Z,,,,,,,,,,,,,,,,53,,,,,,,,,,,,,,377.419000035763,,response,,,99,,,,,,Space,keypress(Space),,,,,---- -- ----- -- ------ - ------- and ----------<br>------------- ------ ------ ---- ---- ------- ----- -- ----<br>-------- ------- -- ---------- --- - --- ----- ----- ----<br>---- --- --- ----- --- ---- ---- ------- ----- ---- -------<br>--- --- -- ----- -- --- ---- -- --- ---- -- ------ ------<br>--- ----- -- ----,98844.60000002384,98843.90000003576,98449.815,98460.90000003576,98466.481,98849.803,,7,and
screen,html.Screen,0_2_0_1_8,2021-12-03T10:04:40.419Z,,,,,,,,,,,,,,,,53,,,,,,,,,,,,,,362.0970000357629,,response,,,99,,,,,,Space,keypress(Space),,,,,---- -- ----- -- ------ - ------- --- fulfilling<br>------------- ------ ------ ---- ---- ------- ----- -- ----<br>-------- ------- -- ---------- --- - --- ----- ----- ----<br>---- --- --- ----- --- ---- ---- ------- ----- ---- -------<br>--- --- -- ----- -- --- ---- -- --- ---- -- ------ ------<br>--- ----- -- ----,99212.60000002384,99211.90000003576,98833.137,98844.80000001192,98849.803,99216.424,,8,fulfilling
screen,html.Screen,0_2_0_1_9,2021-12-03T10:04:40.787Z,,,,,,,,,,,,,,,,53,,,,,,,,,,,,,,363.4760000357637,,response,,,99,,,,,,Space,keypress(Space),,,,,"---- -- ----- -- ------ - ------- --- ----------<br>relationship, ------ ------ ---- ---- ------- ----- -- ----<br>-------- ------- -- ---------- --- - --- ----- ----- ----<br>---- --- --- ----- --- ---- ---- ------- ----- ---- -------<br>--- --- -- ----- -- --- ---- -- --- ---- -- ------ ------<br>--- ----- -- ----",99580.60000002384,99579.90000003576,99199.759,99212.80000001192,99216.424,99583.063,,9,"relationship,"
screen,html.Screen,0_2_0_1_10,2021-12-03T10:04:41.179Z,,,,,,,,,,,,,,,,53,,,,,,,,,,,,,,388.83700003576814,,response,,,99,,,,,,Space,keypress(Space),,,,,---- -- ----- -- ------ - ------- --- ----------<br>------------- common ------ ---- ---- ------- ----- -- ----<br>-------- ------- -- ---------- --- - --- ----- ----- ----<br>---- --- --- ----- --- ---- ---- ------- ----- ---- -------<br>--- --- -- ----- -- --- ---- -- --- ---- -- ------ ------<br>--- ----- -- ----,99972.69999998808,99971.90000003576,99566.398,99580.80000001192,99583.063,99983.09,,10,common
screen,html.Screen,0_2_0_1_11,2021-12-03T10:04:41.539Z,,,,,,,,,,,,,,,,53,,,,,,,,,,,,,,348.9100000000035,,response,,,99,,,,,,Space,keypress(Space),,,,,---- -- ----- -- ------ - ------- --- ----------<br>------------- ------ wisdom ---- ---- ------- ----- -- ----<br>-------- ------- -- ---------- --- - --- ----- ----- ----<br>---- --- --- ----- --- ---- ---- ------- ----- ---- -------<br>--- --- -- ----- -- --- ---- -- --- ---- -- ------ ------<br>--- ----- -- ----,100332.69999998808,100332,99966.424,99972.80000001192,99983.09,100349.701,,11,wisdom
screen,html.Screen,0_2_0_1_12,2021-12-03T10:04:41.891Z,,,,,,,,,,,,,,,,53,,,,,,,,,,,,,,334.09900001192,,response,,,99,,,,,,Space,keypress(Space),,,,,---- -- ----- -- ------ - ------- --- ----------<br>------------- ------ ------ says ---- ------- ----- -- ----<br>-------- ------- -- ---------- --- - --- ----- ----- ----<br>---- --- --- ----- --- ---- ---- ------- ----- ---- -------<br>--- --- -- ----- -- --- ---- -- --- ---- -- ------ ------<br>--- ----- -- ----,100684.40000003576,100683.80000001192,100333.036,100332.80000001192,100349.701,100699.682,,12,says
screen,html.Screen,0_2_0_1_13,2021-12-03T10:04:42.227Z,,,,,,,,,,,,,,,,53,,,,,,,,,,,,,,320.11800001192023,,response,,,99,,,,,,Space,keypress(Space),,,,,---- -- ----- -- ------ - ------- --- ----------<br>------------- ------ ------ ---- that ------- ----- -- ----<br>-------- ------- -- ---------- --- - --- ----- ----- ----<br>---- --- --- ----- --- ---- ---- ------- ----- ---- -------<br>--- --- -- ----- -- --- ---- -- --- ---- -- ------ ------<br>--- ----- -- ----,101020.40000003576,101019.80000001192,100683.017,100684.60000002384,100699.682,101033.007,,13,that
screen,html.Screen,0_2_0_1_14,2021-12-03T10:04:42.571Z,,,,,,,,,,,,,,,,53,,,,,,,,,,,,,,330.79300001192314,,response,,,99,,,,,,Space,keypress(Space),,,,,---- -- ----- -- ------ - ------- --- ----------<br>------------- ------ ------ ---- ---- feeling ----- -- ----<br>-------- ------- -- ---------- --- - --- ----- ----- ----<br>---- --- --- ----- --- ---- ---- ------- ----- ---- -------<br>--- --- -- ----- -- --- ---- -- --- ---- -- ------ ------<br>--- ----- -- ----,101364.40000003576,101363.80000001192,101016.342,101020.60000002384,101033.007,101366.36,,14,feeling
screen,html.Screen,0_2_0_1_15,2021-12-03T10:04:42.939Z,,,,,,,,,,,,,,,,53,,,,,,,,,,,,,,365.44000001192035,,response,,,99,,,,,,Space,keypress(Space),,,,,---- -- ----- -- ------ - ------- --- ----------<br>------------- ------ ------ ---- ---- ------- close -- ----<br>-------- ------- -- ---------- --- - --- ----- ----- ----<br>---- --- --- ----- --- ---- ---- ------- ----- ---- -------<br>--- --- -- ----- -- --- ---- -- --- ---- -- ------ ------<br>--- ----- -- ----,101732.40000003576,101731.80000001192,101349.694,101364.60000002384,101366.36,101749.588,,15,close
screen,html.Screen,0_2_0_1_16,2021-12-03T10:04:43.291Z,,,,,,,,,,,,,,,,53,,,,,,,,,,,,,,334.21200001191755,,response,,,99,,,,,,Space,keypress(Space),,,,,---- -- ----- -- ------ - ------- --- ----------<br>------------- ------ ------ ---- ---- ------- ----- to ----<br>-------- ------- -- ---------- --- - --- ----- ----- ----<br>---- --- --- ----- --- ---- ---- ------- ----- ---- -------<br>--- --- -- ----- -- --- ---- -- --- ---- -- ------ ------<br>--- ----- -- ----,102084.30000001192,102083.80000001192,101732.924,101732.60000002384,101749.588,102099.732,,16,to
screen,html.Screen,0_2_0_1_17,2021-12-03T10:04:43.675Z,,,,,,,,,,,,,,,,53,,,,,,,,,,,,,,368.0680000119173,,response,,,99,,,,,,Space,keypress(Space),,,,,---- -- ----- -- ------ - ------- --- ----------<br>------------- ------ ------ ---- ---- ------- ----- -- your<br>-------- ------- -- ---------- --- - --- ----- ----- ----<br>---- --- --- ----- --- ---- ---- ------- ----- ---- -------<br>--- --- -- ----- -- --- ---- -- --- ---- -- ------ ------<br>--- ----- -- ----,102468.40000003576,102467.80000001192,102083.065,102084.5,102099.732,102483.013,,17,your
screen,html.Screen,0_2_0_1_18,2021-12-03T10:04:44.091Z,,,,,,,,,,,,,,,,53,,,,,,,,,,,,,,400.78700001191464,,response,,,99,,,,,,Space,keypress(Space),,,,,---- -- ----- -- ------ - ------- --- ----------<br>------------- ------ ------ ---- ---- ------- ----- -- ----<br>romantic ------- -- ---------- --- - --- ----- ----- ----<br>---- --- --- ----- --- ---- ---- ------- ----- ---- -------<br>--- --- -- ----- -- --- ---- -- --- ---- -- ------ ------<br>--- ----- -- ----,102884.30000001192,102883.80000001192,102466.347,102468.5,102483.013,102899.558,,18,romantic
screen,html.Screen,0_2_0_1_19,2021-12-03T10:04:44.395Z,,,,,,,,,,,,,,,,53,,,,,,,,,,,,,,288.14199998807453,,response,,,99,,,,,,Space,keypress(Space),,,,,---- -- ----- -- ------ - ------- --- ----------<br>------------- ------ ------ ---- ---- ------- ----- -- ----<br>-------- partner -- ---------- --- - --- ----- ----- ----<br>---- --- --- ----- --- ---- ---- ------- ----- ---- -------<br>--- --- -- ----- -- --- ---- -- --- ---- -- ------ ------<br>--- ----- -- ----,103188.19999998808,103187.69999998808,102882.894,102884.5,102899.558,103199.69,,19,partner
screen,html.Screen,0_2_0_1_20,2021-12-03T10:04:44.731Z,,,,,,,,,,,,,,,,53,,,,,,,,,,,,,,323.91000002383953,,response,,,99,,,,,,Space,keypress(Space),,,,,---- -- ----- -- ------ - ------- --- ----------<br>------------- ------ ------ ---- ---- ------- ----- -- ----<br>-------- ------- is ---------- --- - --- ----- ----- ----<br>---- --- --- ----- --- ---- ---- ------- ----- ---- -------<br>--- --- -- ----- -- --- ---- -- --- ---- -- ------ ------<br>--- ----- -- ----,103524.19999998808,103523.60000002384,103183.023,103188.5,103199.69,103532.942,,20,is
screen,html.Screen,0_2_0_1_21,2021-12-03T10:04:45.051Z,,,,,,,,,,,,,,,,53,,,,,,,,,,,,,,310.7579999880836,,response,,,99,,,,,,Space,keypress(Space),,,,,---- -- ----- -- ------ - ------- --- ----------<br>------------- ------ ------ ---- ---- ------- ----- -- ----<br>-------- ------- -- paramount. --- - --- ----- ----- ----<br>---- --- --- ----- --- ---- ---- ------- ----- ---- -------<br>--- --- -- ----- -- --- ---- -- --- ---- -- ------ ------<br>--- ----- -- ----,103844.30000001192,103843.69999998808,103516.277,103524.5,103532.942,103849.54,,21,paramount.
screen,html.Screen,0_2_0_1_22,2021-12-03T10:04:45.419Z,,,,,,,,,,,,,,,,53,,,,,,,,,,,,,,362.1599999880855,,response,,,99,,,,,,Space,keypress(Space),,,,,---- -- ----- -- ------ - ------- --- ----------<br>------------- ------ ------ ---- ---- ------- ----- -- ----<br>-------- ------- -- ---------- But - --- ----- ----- ----<br>---- --- --- ----- --- ---- ---- ------- ----- ---- -------<br>--- --- -- ----- -- --- ---- -- --- ---- -- ------ ------<br>--- ----- -- ----,104212.30000001192,104211.69999998808,103832.876,103844.60000002384,103849.54,104216.315,,22,But
screen,html.Screen,0_2_0_1_23,2021-12-03T10:04:45.779Z,,,,,,,,,,,,,,,,53,,,,,,,,,,,,,,355.4850000119186,,response,,,99,,,,,,Space,keypress(Space),,,,,---- -- ----- -- ------ - ------- --- ----------<br>------------- ------ ------ ---- ---- ------- ----- -- ----<br>-------- ------- -- ---------- --- a --- ----- ----- ----<br>---- --- --- ----- --- ---- ---- ------- ----- ---- -------<br>--- --- -- ----- -- --- ---- -- --- ---- -- ------ ------<br>--- ----- -- ----,104572.40000003576,104571.80000001192,104199.648,104212.5,104216.315,104582.83,,23,a
screen,html.Screen,0_2_0_1_24,2021-12-03T10:04:46.155Z,,,,,,,,,,,,,,,,53,,,,,,,,,,,,,,364.8699999880773,,response,,,99,,,,,,Space,keypress(Space),,,,,---- -- ----- -- ------ - ------- --- ----------<br>------------- ------ ------ ---- ---- ------- ----- -- ----<br>-------- ------- -- ---------- --- - new ----- ----- ----<br>---- --- --- ----- --- ---- ---- ------- ----- ---- -------<br>--- --- -- ----- -- --- ---- -- --- ---- -- ------ ------<br>--- ----- -- ----,104948.19999998808,104947.69999998808,104566.166,104572.60000002384,104582.83,104949.559,,24,new
screen,html.Screen,0_2_0_1_25,2021-12-03T10:04:46.595Z,,,,,,,,,,,,,,,,53,,,,,,,,,,,,,,438.14099998808524,,response,,,99,,,,,,Space,keypress(Space),,,,,---- -- ----- -- ------ - ------- --- ----------<br>------------- ------ ------ ---- ---- ------- ----- -- ----<br>-------- ------- -- ---------- --- - --- study ----- ----<br>---- --- --- ----- --- ---- ---- ------- ----- ---- -------<br>--- --- -- ----- -- --- ---- -- --- ---- -- ------ ------<br>--- ----- -- ----,105388.19999998808,105387.69999998808,104932.893,104948.5,104949.559,105399.613,,25,study
screen,html.Screen,0_2_0_1_26,2021-12-03T10:04:46.947Z,,,,,,,,,,,,,,,,53,,,,,,,,,,,,,,340.0869999880815,,response,,,99,,,,,,Space,keypress(Space),,,,,---- -- ----- -- ------ - ------- --- ----------<br>------------- ------ ------ ---- ---- ------- ----- -- ----<br>-------- ------- -- ---------- --- - --- ----- finds ----<br>---- --- --- ----- --- ---- ---- ------- ----- ---- -------<br>--- --- -- ----- -- --- ---- -- --- ---- -- ------ ------<br>--- ----- -- ----,105740.30000001192,105739.69999998808,105382.946,105388.40000003576,105399.613,105749.458,,26,finds
screen,html.Screen,0_2_0_1_27,2021-12-03T10:04:47.379Z,,,,,,,,,,,,,,,,53,,,,,,,,,,,,,,422.14200002384314,,response,,,99,,,,,,Space,keypress(Space),,,,,---- -- ----- -- ------ - ------- --- ----------<br>------------- ------ ------ ---- ---- ------- ----- -- ----<br>-------- ------- -- ---------- --- - --- ----- ----- that<br>---- --- --- ----- --- ---- ---- ------- ----- ---- -------<br>--- --- -- ----- -- --- ---- -- --- ---- -- ------ ------<br>--- ----- -- ----,106172.10000002384,106171.60000002384,105732.794,105740.40000003576,105749.458,106182.815,,27,that
screen,html.Screen,0_2_0_1_28,2021-12-03T10:04:47.715Z,,,,,,,,,,,,,,,,53,,,,,,,,,,,,,,325.08500003576046,,response,,,99,,,,,,Space,keypress(Space),,,,,---- -- ----- -- ------ - ------- --- ----------<br>------------- ------ ------ ---- ---- ------- ----- -- ----<br>-------- ------- -- ---------- --- - --- ----- ----- ----<br>it's --- --- ----- --- ---- ---- ------- ----- ---- -------<br>--- --- -- ----- -- --- ---- -- --- ---- -- ------ ------<br>--- ----- -- ----,106508.40000003576,106507.90000003576,106166.15,106172.30000001192,106182.815,106516.178,,28,it's
screen,html.Screen,0_2_0_1_29,2021-12-03T10:04:48.027Z,,,,,,,,,,,,,,,,53,,,,,,,,,,,,,,303.422000023842,,response,,,99,,,,,,Space,keypress(Space),,,,,---- -- ----- -- ------ - ------- --- ----------<br>------------- ------ ------ ---- ---- ------- ----- -- ----<br>-------- ------- -- ---------- --- - --- ----- ----- ----<br>---- not --- ----- --- ---- ---- ------- ----- ---- -------<br>--- --- -- ----- -- --- ---- -- --- ---- -- ------ ------<br>--- ----- -- ----,106820.10000002384,106819.60000002384,106499.512,106508.60000002384,106516.178,106832.848,,29,not
screen,html.Screen,0_2_0_1_30,2021-12-03T10:04:48.411Z,,,,,,,,,,,,,,,,53,,,,,,,,,,,,,,370.7520000238437,,response,,,99,,,,,,Space,keypress(Space),,,,,---- -- ----- -- ------ - ------- --- ----------<br>------------- ------ ------ ---- ---- ------- ----- -- ----<br>-------- ------- -- ---------- --- - --- ----- ----- ----<br>---- --- how ----- --- ---- ---- ------- ----- ---- -------<br>--- --- -- ----- -- --- ---- -- --- ---- -- ------ ------<br>--- ----- -- ----,107204.10000002384,107203.60000002384,106816.182,106820.40000003576,106832.848,107216.009,,30,how
screen,html.Screen,0_2_0_1_31,2021-12-03T10:04:48.739Z,,,,,,,,,,,,,,,,53,,,,,,,,,,,,,,315.49099999999453,,response,,,99,,,,,,Space,keypress(Space),,,,,---- -- ----- -- ------ - ------- --- ----------<br>------------- ------ ------ ---- ---- ------- ----- -- ----<br>-------- ------- -- ---------- --- - --- ----- ----- ----<br>---- --- --- close --- ---- ---- ------- ----- ---- -------<br>--- --- -- ----- -- --- ---- -- --- ---- -- ------ ------<br>--- ----- -- ----,107532.10000002384,107531.5,107199.346,107204.30000001192,107216.009,107549.55,,31,close
screen,html.Screen,0_2_0_1_32,2021-12-03T10:04:49.259Z,,,,,,,,,,,,,,,,53,,,,,,,,,,,,,,502.05000002383895,,response,,,99,,,,,,Space,keypress(Space),,,,,---- -- ----- -- ------ - ------- --- ----------<br>------------- ------ ------ ---- ---- ------- ----- -- ----<br>-------- ------- -- ---------- --- - --- ----- ----- ----<br>---- --- --- ----- you ---- ---- ------- ----- ---- -------<br>--- --- -- ----- -- --- ---- -- --- ---- -- ------ ------<br>--- ----- -- ----,108052.19999998808,108051.60000002384,107532.882,107532.30000001192,107549.55,108066.141,,32,you
screen,html.Screen,0_2_0_1_33,2021-12-03T10:04:49.547Z,,,,,,,,,,,,,,,,53,,,,,,,,,,,,,,273.4590000238386,,response,,,99,,,,,,Space,keypress(Space),,,,,---- -- ----- -- ------ - ------- --- ----------<br>------------- ------ ------ ---- ---- ------- ----- -- ----<br>-------- ------- -- ---------- --- - --- ----- ----- ----<br>---- --- --- ----- --- feel ---- ------- ----- ---- -------<br>--- --- -- ----- -- --- ---- -- --- ---- -- ------ ------<br>--- ----- -- ----,108340.10000002384,108339.60000002384,108049.475,108052.40000003576,108066.141,108349.423,,33,feel
screen,html.Screen,0_2_0_1_34,2021-12-03T10:04:49.843Z,,,,,,,,,,,,,,,,53,,,,,,,,,,,,,,286.0770000000048,,response,,,99,,,,,,Space,keypress(Space),,,,,---- -- ----- -- ------ - ------- --- ----------<br>------------- ------ ------ ---- ---- ------- ----- -- ----<br>-------- ------- -- ---------- --- - --- ----- ----- ----<br>---- --- --- ----- --- ---- that ------- ----- ---- -------<br>--- --- -- ----- -- --- ---- -- --- ---- -- ------ ------<br>--- ----- -- ----,108636.10000002384,108635.5,108332.758,108340.30000001192,108349.423,108649.421,,34,that
screen,html.Screen,0_2_0_1_35,2021-12-03T10:04:50.195Z,,,,,,,,,,,,,,,,53,,,,,,,,,,,,,,338.0789999999979,,response,,,99,,,,,,Space,keypress(Space),,,,,---- -- ----- -- ------ - ------- --- ----------<br>------------- ------ ------ ---- ---- ------- ----- -- ----<br>-------- ------- -- ---------- --- - --- ----- ----- ----<br>---- --- --- ----- --- ---- ---- matters ----- ---- -------<br>--- --- -- ----- -- --- ---- -- --- ---- -- ------ ------<br>--- ----- -- ----,108988.10000002384,108987.5,108632.756,108636.19999998808,108649.421,108999.34,,35,matters
screen,html.Screen,0_2_0_1_36,2021-12-03T10:04:50.531Z,,,,,,,,,,,,,,,,53,,,,,,,,,,,,,,324.1600000000035,,response,,,99,,,,,,Space,keypress(Space),,,,,"---- -- ----- -- ------ - ------- --- ----------<br>------------- ------ ------ ---- ---- ------- ----- -- ----<br>-------- ------- -- ---------- --- - --- ----- ----- ----<br>---- --- --- ----- --- ---- ---- ------- most, ---- -------<br>--- --- -- ----- -- --- ---- -- --- ---- -- ------ ------<br>--- ----- -- ----",109324.19999998808,109323.5,108982.676,108988.30000001192,108999.34,109332.622,,36,"most,"
screen,html.Screen,0_2_0_1_37,2021-12-03T10:04:50.875Z,,,,,,,,,,,,,,,,53,,,,,,,,,,,,,,334.97800002383883,,response,,,99,,,,,,Space,keypress(Space),,,,,---- -- ----- -- ------ - ------- --- ----------<br>------------- ------ ------ ---- ---- ------- ----- -- ----<br>-------- ------- -- ---------- --- - --- ----- ----- ----<br>---- --- --- ----- --- ---- ---- ------- ----- it's -------<br>--- --- -- ----- -- --- ---- -- --- ---- -- ------ ------<br>--- ----- -- ----,109668.10000002384,109667.60000002384,109315.958,109324.40000003576,109332.622,109682.759,,37,it's
screen,html.Screen,0_2_0_1_38,2021-12-03T10:04:51.211Z,,,,,,,,,,,,,,,,53,,,,,,,,,,,,,,320.74099999999453,,response,,,99,,,,,,Space,keypress(Space),,,,,---- -- ----- -- ------ - ------- --- ----------<br>------------- ------ ------ ---- ---- ------- ----- -- ----<br>-------- ------- -- ---------- --- - --- ----- ----- ----<br>---- --- --- ----- --- ---- ---- ------- ----- ---- whether<br>--- --- -- ----- -- --- ---- -- --- ---- -- ------ ------<br>--- ----- -- ----,110004.19999998808,110003.5,109666.092,109668.30000001192,109682.759,110016.098,,38,whether
screen,html.Screen,0_2_0_1_39,2021-12-03T10:04:51.571Z,,,,,,,,,,,,,,,,53,,,,,,,,,,,,,,347.40200000000186,,response,,,99,,,,,,Space,keypress(Space),,,,,---- -- ----- -- ------ - ------- --- ----------<br>------------- ------ ------ ---- ---- ------- ----- -- ----<br>-------- ------- -- ---------- --- - --- ----- ----- ----<br>---- --- --- ----- --- ---- ---- ------- ----- ---- -------<br>you --- -- ----- -- --- ---- -- --- ---- -- ------ ------<br>--- ----- -- ----,110364.10000002384,110363.5,109999.431,110004.30000001192,110016.098,110366.049,,39,you
screen,html.Screen,0_2_0_1_40,2021-12-03T10:04:51.883Z,,,,,,,,,,,,,,,,53,,,,,,,,,,,,,,309.45100000000093,,response,,,99,,,,,,Space,keypress(Space),,,,,---- -- ----- -- ------ - ------- --- ----------<br>------------- ------ ------ ---- ---- ------- ----- -- ----<br>-------- ------- -- ---------- --- - --- ----- ----- ----<br>---- --- --- ----- --- ---- ---- ------- ----- ---- -------<br>--- are -- ----- -- --- ---- -- --- ---- -- ------ ------<br>--- ----- -- ----,110676.10000002384,110675.5,110349.383,110364.19999998808,110366.049,110682.656,,40,are
screen,html.Screen,0_2_0_1_41,2021-12-03T10:04:52.147Z,,,,,,,,,,,,,,,,53,,,,,,,,,,,,,,256.8439999999973,,response,,,99,,,,,,Space,keypress(Space),,,,,---- -- ----- -- ------ - ------- --- ----------<br>------------- ------ ------ ---- ---- ------- ----- -- ----<br>-------- ------- -- ---------- --- - --- ----- ----- ----<br>---- --- --- ----- --- ---- ---- ------- ----- ---- -------<br>--- --- as ----- -- --- ---- -- --- ---- -- ------ ------<br>--- ----- -- ----,110940,110939.5,110665.991,110676.30000001192,110682.656,110949.329,,41,as
screen,html.Screen,0_2_0_1_42,2021-12-03T10:04:52.443Z,,,,,,,,,,,,,,,,53,,,,,,,,,,,,,,286.0710000357649,,response,,,99,,,,,,Space,keypress(Space),,,,,---- -- ----- -- ------ - ------- --- ----------<br>------------- ------ ------ ---- ---- ------- ----- -- ----<br>-------- ------- -- ---------- --- - --- ----- ----- ----<br>---- --- --- ----- --- ---- ---- ------- ----- ---- -------<br>--- --- -- close -- --- ---- -- --- ---- -- ------ ------<br>--- ----- -- ----,111236,111235.40000003576,110932.664,110940.19999998808,110949.329,111249.355,,42,close
screen,html.Screen,0_2_0_1_43,2021-12-03T10:04:52.763Z,,,,,,,,,,,,,,,,53,,,,,,,,,,,,,,306.1450000000041,,response,,,99,,,,,,Space,keypress(Space),,,,,---- -- ----- -- ------ - ------- --- ----------<br>------------- ------ ------ ---- ---- ------- ----- -- ----<br>-------- ------- -- ---------- --- - --- ----- ----- ----<br>---- --- --- ----- --- ---- ---- ------- ----- ---- -------<br>--- --- -- ----- as --- ---- -- --- ---- -- ------ ------<br>--- ----- -- ----,111556.10000002384,111555.5,111232.689,111236.19999998808,111249.355,111565.883,,43,as
screen,html.Screen,0_2_0_1_44,2021-12-03T10:04:53.115Z,,,,,,,,,,,,,,,,53,,,,,,,,,,,,,,341.51700003576116,,response,,,99,,,,,,Space,keypress(Space),,,,,---- -- ----- -- ------ - ------- --- ----------<br>------------- ------ ------ ---- ---- ------- ----- -- ----<br>-------- ------- -- ---------- --- - --- ----- ----- ----<br>---- --- --- ----- --- ---- ---- ------- ----- ---- -------<br>--- --- -- ----- -- you ---- -- --- ---- -- ------ ------<br>--- ----- -- ----,111908.10000002384,111907.40000003576,111549.22,111556.30000001192,111565.883,111915.931,,44,you
screen,html.Screen,0_2_0_1_45,2021-12-03T10:04:53.443Z,,,,,,,,,,,,,,,,53,,,,,,,,,,,,,,319.3690000119241,,response,,,99,,,,,,Space,keypress(Space),,,,,---- -- ----- -- ------ - ------- --- ----------<br>------------- ------ ------ ---- ---- ------- ----- -- ----<br>-------- ------- -- ---------- --- - --- ----- ----- ----<br>---- --- --- ----- --- ---- ---- ------- ----- ---- -------<br>--- --- -- ----- -- --- want -- --- ---- -- ------ ------<br>--- ----- -- ----,112236,112235.30000001192,111899.266,111908.19999998808,111915.931,112249.338,,45,want
screen,html.Screen,0_2_0_1_46,2021-12-03T10:04:53.819Z,,,,,,,,,,,,,,,,53,,,,,,,,,,,,,,362.0620000357594,,response,,,99,,,,,,Space,keypress(Space),,,,,---- -- ----- -- ------ - ------- --- ----------<br>------------- ------ ------ ---- ---- ------- ----- -- ----<br>-------- ------- -- ---------- --- - --- ----- ----- ----<br>---- --- --- ----- --- ---- ---- ------- ----- ---- -------<br>--- --- -- ----- -- --- ---- to --- ---- -- ------ ------<br>--- ----- -- ----,112612,112611.40000003576,112232.671,112236.10000002384,112249.338,112615.927,,46,to
screen,html.Screen,0_2_0_1_47,2021-12-03T10:04:54.187Z,,,,,,,,,,,,,,,,53,,,,,,,,,,,,,,363.47300003576674,,response,,,99,,,,,,Space,keypress(Space),,,,,"---- -- ----- -- ------ - ------- --- ----------<br>------------- ------ ------ ---- ---- ------- ----- -- ----<br>-------- ------- -- ---------- --- - --- ----- ----- ----<br>---- --- --- ----- --- ---- ---- ------- ----- ---- -------<br>--- --- -- ----- -- --- ---- -- be, ---- -- ------ ------<br>--- ----- -- ----",112980,112979.40000003576,112599.262,112612.19999998808,112615.927,112982.563,,47,"be,"
screen,html.Screen,0_2_0_1_48,2021-12-03T10:04:54.506Z,,,,,,,,,,,,,,,,53,,,,,,,,,,,,,,316.7370000119263,,response,,,99,,,,,,Space,keypress(Space),,,,,---- -- ----- -- ------ - ------- --- ----------<br>------------- ------ ------ ---- ---- ------- ----- -- ----<br>-------- ------- -- ---------- --- - --- ----- ----- ----<br>---- --- --- ----- --- ---- ---- ------- ----- ---- -------<br>--- --- -- ----- -- --- ---- -- --- even -- ------ ------<br>--- ----- -- ----,113300,113299.30000001192,112965.898,112980.19999998808,112982.563,113315.928,,48,even
screen,html.Screen,0_2_0_1_49,2021-12-03T10:04:54.891Z,,,,,,,,,,,,,,,,53,,,,,,,,,,,,,,367.7719999880792,,response,,,99,,,,,,Space,keypress(Space),,,,,---- -- ----- -- ------ - ------- --- ----------<br>------------- ------ ------ ---- ---- ------- ----- -- ----<br>-------- ------- -- ---------- --- - --- ----- ----- ----<br>---- --- --- ----- --- ---- ---- ------- ----- ---- -------<br>--- --- -- ----- -- --- ---- -- --- ---- if ------ ------<br>--- ----- -- ----,113684.19999998808,113683.69999998808,113299.262,113300.10000002384,113315.928,113699.086,,49,if
screen,html.Screen,0_2_0_1_50,2021-12-03T10:04:55.250Z,,,,,,,,,,,,,,,,53,,,,,,,,,,,,,,344.21400001192524,,response,,,99,,,,,,Space,keypress(Space),,,,,---- -- ----- -- ------ - ------- --- ----------<br>------------- ------ ------ ---- ---- ------- ----- -- ----<br>-------- ------- -- ---------- --- - --- ----- ----- ----<br>---- --- --- ----- --- ---- ---- ------- ----- ---- -------<br>--- --- -- ----- -- --- ---- -- --- ---- -- that's ------<br>--- ----- -- ----,114043.90000003576,114043.30000001192,113682.423,113684.40000003576,113699.086,114049.337,,50,that's
screen,html.Screen,0_2_0_1_51,2021-12-03T10:04:55.610Z,,,,,,,,,,,,,,,,53,,,,,,,,,,,,,,353.9630000119214,,response,,,99,,,,,,Space,keypress(Space),,,,,---- -- ----- -- ------ - ------- --- ----------<br>------------- ------ ------ ---- ---- ------- ----- -- ----<br>-------- ------- -- ---------- --- - --- ----- ----- ----<br>---- --- --- ----- --- ---- ---- ------- ----- ---- -------<br>--- --- -- ----- -- --- ---- -- --- ---- -- ------ really<br>--- ----- -- ----,114403.90000003576,114403.30000001192,114032.668,114044,114049.337,114415.803,,51,really
screen,html.Screen,0_2_0_1_52,2021-12-03T10:04:55.914Z,,,,,,,,,,,,,,,,53,,,,,,,,,,,,,,291.49700001192105,,response,,,99,,,,,,Space,keypress(Space),,,,,---- -- ----- -- ------ - ------- --- ----------<br>------------- ------ ------ ---- ---- ------- ----- -- ----<br>-------- ------- -- ---------- --- - --- ----- ----- ----<br>---- --- --- ----- --- ---- ---- ------- ----- ---- -------<br>--- --- -- ----- -- --- ---- -- --- ---- -- ------ ------<br>not ----- -- ----,114707.80000001192,114707.30000001192,114399.139,114404.10000002384,114415.803,114715.839,,52,not
screen,html.Screen,0_2_0_1_53,2021-12-03T10:04:56.258Z,,,,,,,,,,,,,,,,53,,,,,,,,,,,,,,335.4610000119137,,response,,,99,,,,,,Space,keypress(Space),,,,,---- -- ----- -- ------ - ------- --- ----------<br>------------- ------ ------ ---- ---- ------- ----- -- ----<br>-------- ------- -- ---------- --- - --- ----- ----- ----<br>---- --- --- ----- --- ---- ---- ------- ----- ---- -------<br>--- --- -- ----- -- --- ---- -- --- ---- -- ------ ------<br>--- close -- ----,115051.80000001192,115051.30000001192,114699.174,114708,114715.839,115065.868,,53,close
screen,html.Screen,0_2_0_1_54,2021-12-03T10:04:56.642Z,,,,,,,,,,,,,,,,53,,,,,,,,,,,,,,369.33199998807686,,response,,,99,,,,,,Space,keypress(Space),,,,,---- -- ----- -- ------ - ------- --- ----------<br>------------- ------ ------ ---- ---- ------- ----- -- ----<br>-------- ------- -- ---------- --- - --- ----- ----- ----<br>---- --- --- ----- --- ---- ---- ------- ----- ---- -------<br>--- --- -- ----- -- --- ---- -- --- ---- -- ------ ------<br>--- ----- at ----,115435.90000003576,115435.19999998808,115049.202,115052,115065.868,115449.24,,54,at
screen,html.Screen,0_2_0_1_55,2021-12-03T10:04:57.026Z,,,,,,,,,,,,,,,,53,,,,,,,,,,,,,,370.0600000119157,,response,,,99,,,,,,Space,keypress(Space),,,,,---- -- ----- -- ------ - ------- --- ----------<br>------------- ------ ------ ---- ---- ------- ----- -- ----<br>-------- ------- -- ---------- --- - --- ----- ----- ----<br>---- --- --- ----- --- ---- ---- ------- ----- ---- -------<br>--- --- -- ----- -- --- ---- -- --- ---- -- ------ ------<br>--- ----- -- all.,115819.90000003576,115819.30000001192,115432.573,115436,115449.24,115832.472,,55,all.
Item 99,flow.Loop,0_2_0_1,2021-12-03T10:04:57.030Z,,,,,,,,,,,,,,,,,,,,,,,,,,,,,,20219.472000011927,,completion,,,,F,,,,,,,,,,silence,,115823.60000002384,115819.30000001192,95583.163,95587.30000001192,95599.828,115832.472,,,
Question 1,html.Screen,0_2_0_2,2021-12-03T10:05:04.623Z,,,,,,,,,,,,,,,,,,,,,,,,,,,true,FALSE,,7582.528000000006,,response,,,99,F,,,,,FALSE,click #choice-2,,,,silence,,123415.90000003576,123415,115815.807,115823.80000001192,115832.472,123432.164,,,
Question 2,html.Screen,0_2_0_3,2021-12-03T10:05:11.330Z,,,,,,,,,,,,,,,,,,,,,,,,,,,true,TRUE,,6690.2360000357585,,response,,,99,F,,,,,TRUE,click #choice-1,,,,silence,,130123.19999998808,130122.40000003576,123415.499,123416.19999998808,123432.164,130131.969,,,
Item 99,flow.Sequence,0_2_0,2021-12-03T10:05:11.330Z,,,,,,,,,,,,,,,,,,,,,,,,,,,,,,44522.476000035764,,completion,,,,,,,,,,,,,,,,130123.5,130122.40000003576,85583.259,85590.69999998808,85599.924,130131.969,,,
Holding screen,html.Screen,0_2_1_0,2021-12-03T10:05:21.323Z,,,,,,,,,,,,,,,,,,,,,,,,,,,,,,9999.544999999998,,timeout,,,,,,,,,,,,,,,,140115.60000002384,140114.849,130115.303,130123.69999998808,130131.969,140131.514,,,
screen,html.Screen,0_2_1_1_0,2021-12-03T10:05:21.939Z,,,,,,,,,,,,,,,,54,,,,,,,,,,,,,,599.0860000238463,,response,,,100,,,,,,Space,keypress(Space),,,,,At --- ---- --- ------ ----- ------- ---- -- --- ------- --<br>------- ---------- ------ -- ----- -- ----- -- ---- ------<br>--- ----- --- --- ------ -------- ----- --- ------ ----- --<br>----- ----- ---------- --- --- ------ ------ ---- -- ------<br>------- --- ------ ----- --- ---- ------- -- ---- --- --<br>------- ------,140731.40000003576,140730.60000002384,140114.849,140115.90000003576,140131.514,140748.254,,0,At
screen,html.Screen,0_2_1_1_1,2021-12-03T10:05:22.803Z,,,,,,,,,,,,,,,,54,,,,,,,,,,,,,,846.1460000357765,,response,,,100,,,,,,Space,keypress(Space),,,,,-- the ---- --- ------ ----- ------- ---- -- --- ------- --<br>------- ---------- ------ -- ----- -- ----- -- ---- ------<br>--- ----- --- --- ------ -------- ----- --- ------ ----- --<br>----- ----- ---------- --- --- ------ ------ ---- -- ------<br>------- --- ------ ----- --- ---- ------- -- ---- --- --<br>------- ------,141595,141594.40000003576,140731.588,140731.60000002384,140748.254,141598.225,,1,the
screen,html.Screen,0_2_1_1_2,2021-12-03T10:05:23.307Z,,,,,,,,,,,,,,,,54,,,,,,,,,,,,,,500.0750000119151,,response,,,100,,,,,,Space,keypress(Space),,,,,-- --- time --- ------ ----- ------- ---- -- --- ------- --<br>------- ---------- ------ -- ----- -- ----- -- ---- ------<br>--- ----- --- --- ------ -------- ----- --- ------ ----- --<br>----- ----- ---------- --- --- ------ ------ ---- -- ------<br>------- --- ------ ----- --- ---- ------- -- ---- --- --<br>------- ------,142098.90000003576,142098.30000001192,141581.559,141595.10000002384,141598.225,142114.77,,2,time
screen,html.Screen,0_2_1_1_3,2021-12-03T10:05:23.859Z,,,,,,,,,,,,,,,,54,,,,,,,,,,,,,,535.5300000119314,,response,,,100,,,,,,Space,keypress(Space),,,,,-- --- ---- the ------ ----- ------- ---- -- --- ------- --<br>------- ---------- ------ -- ----- -- ----- -- ---- ------<br>--- ----- --- --- ------ -------- ----- --- ------ ----- --<br>----- ----- ---------- --- --- ------ ------ ---- -- ------<br>------- --- ------ ----- --- ---- ------- -- ---- --- --<br>------- ------,142650.90000003576,142650.30000001192,142098.105,142099,142114.77,142664.782,,3,the
screen,html.Screen,0_2_1_1_4,2021-12-03T10:05:24.411Z,,,,,,,,,,,,,,,,54,,,,,,,,,,,,,,537.5180000119144,,response,,,100,,,,,,Space,keypress(Space),,,,,-- --- ---- --- French ----- ------- ---- -- --- ------- --<br>------- ---------- ------ -- ----- -- ----- -- ---- ------<br>--- ----- --- --- ------ -------- ----- --- ------ ----- --<br>----- ----- ---------- --- --- ------ ------ ---- -- ------<br>------- --- ------ ----- --- ---- ------- -- ---- --- --<br>------- ------,143202.90000003576,143202.30000001192,142648.117,142651,142664.782,143214.757,,4,French
screen,html.Screen,0_2_1_1_5,2021-12-03T10:05:24.763Z,,,,,,,,,,,,,,,,54,,,,,,,,,,,,,,339.5430000119086,,response,,,100,,,,,,Space,keypress(Space),,,,,-- --- ---- --- ------ crown ------- ---- -- --- ------- --<br>------- ---------- ------ -- ----- -- ----- -- ---- ------<br>--- ----- --- --- ------ -------- ----- --- ------ ----- --<br>----- ----- ---------- --- --- ------ ------ ---- -- ------<br>------- --- ------ ----- --- ---- ------- -- ---- --- --<br>------- ------,143554.80000001192,143554.30000001192,143198.092,143203,143214.757,143564.757,,5,crown
screen,html.Screen,0_2_1_1_6,2021-12-03T10:05:25.171Z,,,,,,,,,,,,,,,,54,,,,,,,,,,,,,,397.44299998806673,,response,,,100,,,,,,Space,keypress(Space),,,,,-- --- ---- --- ------ ----- secured ---- -- --- ------- --<br>------- ---------- ------ -- ----- -- ----- -- ---- ------<br>--- ----- --- --- ------ -------- ----- --- ------ ----- --<br>----- ----- ---------- --- --- ------ ------ ---- -- ------<br>------- --- ------ ----- --- ---- ------- -- ---- --- --<br>------- ------,143962.80000001192,143962.19999998808,143548.092,143555,143564.757,143964.705,,6,secured
screen,html.Screen,0_2_1_1_7,2021-12-03T10:05:25.562Z,,,,,,,,,,,,,,,,54,,,,,,,,,,,,,,389.4949999880919,,response,,,100,,,,,,Space,keypress(Space),,,,,-- --- ---- --- ------ ----- ------- much -- --- ------- --<br>------- ---------- ------ -- ----- -- ----- -- ---- ------<br>--- ----- --- --- ------ -------- ----- --- ------ ----- --<br>----- ----- ---------- --- --- ------ ------ ---- -- ------<br>------- --- ------ ----- --- ---- ------- -- ---- --- --<br>------- ------,144354.80000001192,144354.19999998808,143948.04,143963,143964.705,144364.748,,7,much
screen,html.Screen,0_2_1_1_8,2021-12-03T10:05:26.035Z,,,,,,,,,,,,,,,,54,,,,,,,,,,,,,,461.5520000119286,,response,,,100,,,,,,Space,keypress(Space),,,,,-- --- ---- --- ------ ----- ------- ---- of --- ------- --<br>------- ---------- ------ -- ----- -- ----- -- ---- ------<br>--- ----- --- --- ------ -------- ----- --- ------ ----- --<br>----- ----- ---------- --- --- ------ ------ ---- -- ------<br>------- --- ------ ----- --- ---- ------- -- ---- --- --<br>------- ------,144826.90000003576,144826.30000001192,144348.082,144354.90000003576,144364.748,144831.466,,8,of
screen,html.Screen,0_2_1_1_9,2021-12-03T10:05:26.298Z,,,,,,,,,,,,,,,,54,,,,,,,,,,,,,,258.7339999880933,,response,,,100,,,,,,Space,keypress(Space),,,,,-- --- ---- --- ------ ----- ------- ---- -- its ------- --<br>------- ---------- ------ -- ----- -- ----- -- ---- ------<br>--- ----- --- --- ------ -------- ----- --- ------ ----- --<br>----- ----- ---------- --- --- ------ ------ ---- -- ------<br>------- --- ------ ----- --- ---- ------- -- ---- --- --<br>------- ------,145090.69999998808,145090.19999998808,144814.799,144827.10000002384,144831.466,145098.115,,9,its
screen,html.Screen,0_2_1_1_10,2021-12-03T10:05:26.706Z,,,,,,,,,,,,,,,,54,,,,,,,,,,,,,,400.0849999880884,,response,,,100,,,,,,Space,keypress(Space),,,,,-- --- ---- --- ------ ----- ------- ---- -- --- revenue --<br>------- ---------- ------ -- ----- -- ----- -- ---- ------<br>--- ----- --- --- ------ -------- ----- --- ------ ----- --<br>----- ----- ---------- --- --- ------ ------ ---- -- ------<br>------- --- ------ ----- --- ---- ------- -- ---- --- --<br>------- ------,145498.69999998808,145498.19999998808,145081.449,145090.90000003576,145098.115,145514.715,,10,revenue
screen,html.Screen,0_2_1_1_11,2021-12-03T10:05:27.170Z,,,,,,,,,,,,,,,,54,,,,,,,,,,,,,,447.38500002384535,,response,,,100,,,,,,Space,keypress(Space),,,,,-- --- ---- --- ------ ----- ------- ---- -- --- ------- by<br>------- ---------- ------ -- ----- -- ----- -- ---- ------<br>--- ----- --- --- ------ -------- ----- --- ------ ----- --<br>----- ----- ---------- --- --- ------ ------ ---- -- ------<br>------- --- ------ ----- --- ---- ------- -- ---- --- --<br>------- ------,145962.69999998808,145962.10000002384,145498.05,145498.90000003576,145514.715,145964.606,,11,by
screen,html.Screen,0_2_1_1_12,2021-12-03T10:05:27.586Z,,,,,,,,,,,,,,,,54,,,,,,,,,,,,,,413.4940000238421,,response,,,100,,,,,,Space,keypress(Space),,,,,-- --- ---- --- ------ ----- ------- ---- -- --- ------- --<br>issuing ---------- ------ -- ----- -- ----- -- ---- ------<br>--- ----- --- --- ------ -------- ----- --- ------ ----- --<br>----- ----- ---------- --- --- ------ ------ ---- -- ------<br>------- --- ------ ----- --- ---- ------- -- ---- --- --<br>------- ------,146378.69999998808,146378.10000002384,145947.942,145962.90000003576,145964.606,146397.913,,12,issuing
screen,html.Screen,0_2_1_1_13,2021-12-03T10:05:28.018Z,,,,,,,,,,,,,,,,54,,,,,,,,,,,,,,412.2869999880786,,response,,,100,,,,,,Space,keypress(Space),,,,,-- --- ---- --- ------ ----- ------- ---- -- --- ------- --<br>------- government ------ -- ----- -- ----- -- ---- ------<br>--- ----- --- --- ------ -------- ----- --- ------ ----- --<br>----- ----- ---------- --- --- ------ ------ ---- -- ------<br>------- --- ------ ----- --- ---- ------- -- ---- --- --<br>------- ------,146810.69999998808,146810.19999998808,146381.249,146378.90000003576,146397.913,146814.757,,13,government
screen,html.Screen,0_2_1_1_14,2021-12-03T10:05:28.410Z,,,,,,,,,,,,,,,,54,,,,,,,,,,,,,,387.3430000238295,,response,,,100,,,,,,Space,keypress(Space),,,,,-- --- ---- --- ------ ----- ------- ---- -- --- ------- --<br>------- ---------- bonds. -- ----- -- ----- -- ---- ------<br>--- ----- --- --- ------ -------- ----- --- ------ ----- --<br>----- ----- ---------- --- --- ------ ------ ---- -- ------<br>------- --- ------ ----- --- ---- ------- -- ---- --- --<br>------- ------,147202.60000002384,147202.10000002384,146798.09,146810.90000003576,146814.757,147214.618,,14,bonds.
screen,html.Screen,0_2_1_1_15,2021-12-03T10:05:28.890Z,,,,,,,,,,,,,,,,54,,,,,,,,,,,,,,467.5819999880914,,response,,,100,,,,,,Space,keypress(Space),,,,,-- --- ---- --- ------ ----- ------- ---- -- --- ------- --<br>------- ---------- ------ In ----- -- ----- -- ---- ------<br>--- ----- --- --- ------ -------- ----- --- ------ ----- --<br>----- ----- ---------- --- --- ------ ------ ---- -- ------<br>------- --- ------ ----- --- ---- ------- -- ---- --- --<br>------- ------,147682.69999998808,147682.19999998808,147197.953,147202.69999998808,147214.618,147697.985,,15,In
screen,html.Screen,0_2_1_1_16,2021-12-03T10:05:29.322Z,,,,,,,,,,,,,,,,54,,,,,,,,,,,,,,416.1150000238558,,response,,,100,,,,,,Space,keypress(Space),,,,,"-- --- ---- --- ------ ----- ------- ---- -- --- ------- --<br>------- ---------- ------ -- 1727, -- ----- -- ---- ------<br>--- ----- --- --- ------ -------- ----- --- ------ ----- --<br>----- ----- ---------- --- --- ------ ------ ---- -- ------<br>------- --- ------ ----- --- ---- ------- -- ---- --- --<br>------- ------",148114.80000001192,148114.10000002384,147681.319,147682.80000001192,147697.985,148131.336,,16,"1727,"
screen,html.Screen,0_2_1_1_17,2021-12-03T10:05:31.194Z,,,,,,,,,,,,,,,,54,,,,,,,,,,,,,,1854.6639999999898,,response,,,100,,,,,,Space,keypress(Space),,,,,-- --- ---- --- ------ ----- ------- ---- -- --- ------- --<br>------- ---------- ------ -- ----- in ----- -- ---- ------<br>--- ----- --- --- ------ -------- ----- --- ------ ----- --<br>----- ----- ---------- --- --- ------ ------ ---- -- ------<br>------- --- ------ ----- --- ---- ------- -- ---- --- --<br>------- ------,149986.60000002384,149986,148114.67,148114.90000003576,148131.336,149997.771,,17,in
screen,html.Screen,0_2_1_1_18,2021-12-03T10:05:31.842Z,,,,,,,,,,,,,,,,54,,,,,,,,,,,,,,636.2289999999921,,response,,,100,,,,,,Space,keypress(Space),,,,,-- --- ---- --- ------ ----- ------- ---- -- --- ------- --<br>------- ---------- ------ -- ----- -- order -- ---- ------<br>--- ----- --- --- ------ -------- ----- --- ------ ----- --<br>----- ----- ---------- --- --- ------ ------ ---- -- ------<br>------- --- ------ ----- --- ---- ------- -- ---- --- --<br>------- ------,150634.60000002384,150634,149981.106,149986.80000001192,149997.771,150647.808,,18,order
screen,html.Screen,0_2_1_1_19,2021-12-03T10:05:32.298Z,,,,,,,,,,,,,,,,54,,,,,,,,,,,,,,442.3919999880891,,response,,,100,,,,,,Space,keypress(Space),,,,,-- --- ---- --- ------ ----- ------- ---- -- --- ------- --<br>------- ---------- ------ -- ----- -- ----- to ---- ------<br>--- ----- --- --- ------ -------- ----- --- ------ ----- --<br>----- ----- ---------- --- --- ------ ------ ---- -- ------<br>------- --- ------ ----- --- ---- ------- -- ---- --- --<br>------- ------,151090.69999998808,151090.19999998808,150631.143,150634.69999998808,150647.808,151097.869,,19,to
screen,html.Screen,0_2_1_1_20,2021-12-03T10:05:32.610Z,,,,,,,,,,,,,,,,54,,,,,,,,,,,,,,304.03100003575673,,response,,,100,,,,,,Space,keypress(Space),,,,,-- --- ---- --- ------ ----- ------- ---- -- --- ------- --<br>------- ---------- ------ -- ----- -- ----- -- save ------<br>--- ----- --- --- ------ -------- ----- --- ------ ----- --<br>----- ----- ---------- --- --- ------ ------ ---- -- ------<br>------- --- ------ ----- --- ---- ------- -- ---- --- --<br>------- ------,151402.60000002384,151401.90000003576,151081.203,151090.90000003576,151097.869,151414.478,,20,save
screen,html.Screen,0_2_1_1_21,2021-12-03T10:05:33.026Z,,,,,,,,,,,,,,,,54,,,,,,,,,,,,,,403.5219999999972,,response,,,100,,,,,,Space,keypress(Space),,,,,"-- --- ---- --- ------ ----- ------- ---- -- --- ------- --<br>------- ---------- ------ -- ----- -- ----- -- ---- money,<br>--- ----- --- --- ------ -------- ----- --- ------ ----- --<br>----- ----- ---------- --- --- ------ ------ ---- -- ------<br>------- --- ------ ----- --- ---- ------- -- ---- --- --<br>------- ------",151818.60000002384,151818,151397.813,151402.69999998808,151414.478,151831.117,,21,"money,"
screen,html.Screen,0_2_1_1_22,2021-12-03T10:05:33.434Z,,,,,,,,,,,,,,,,54,,,,,,,,,,,,,,394.7830000357644,,response,,,100,,,,,,Space,keypress(Space),,,,,-- --- ---- --- ------ ----- ------- ---- -- --- ------- --<br>------- ---------- ------ -- ----- -- ----- -- ---- ------<br>the ----- --- --- ------ -------- ----- --- ------ ----- --<br>----- ----- ---------- --- --- ------ ------ ---- -- ------<br>------- --- ------ ----- --- ---- ------- -- ---- --- --<br>------- ------,152226.5,152225.90000003576,151814.452,151818.69999998808,151831.117,152231.165,,22,the
screen,html.Screen,0_2_1_1_23,2021-12-03T10:05:33.762Z,,,,,,,,,,,,,,,,54,,,,,,,,,,,,,,322.73500003575464,,response,,,100,,,,,,Space,keypress(Space),,,,,-- --- ---- --- ------ ----- ------- ---- -- --- ------- --<br>------- ---------- ------ -- ----- -- ----- -- ---- ------<br>--- state --- --- ------ -------- ----- --- ------ ----- --<br>----- ----- ---------- --- --- ------ ------ ---- -- ------<br>------- --- ------ ----- --- ---- ------- -- ---- --- --<br>------- ------,152554.5,152553.90000003576,152214.499,152226.60000002384,152231.165,152564.477,,23,state
screen,html.Screen,0_2_1_1_24,2021-12-03T10:05:34.202Z,,,,,,,,,,,,,,,,54,,,,,,,,,,,,,,429.5229999999865,,response,,,100,,,,,,Space,keypress(Space),,,,,-- --- ---- --- ------ ----- ------- ---- -- --- ------- --<br>------- ---------- ------ -- ----- -- ----- -- ---- ------<br>--- ----- cut --- ------ -------- ----- --- ------ ----- --<br>----- ----- ---------- --- --- ------ ------ ---- -- ------<br>------- --- ------ ----- --- ---- ------- -- ---- --- --<br>------- ------,152994.5,152994,152547.811,152554.69999998808,152564.477,152997.735,,24,cut
screen,html.Screen,0_2_1_1_25,2021-12-03T10:05:34.562Z,,,,,,,,,,,,,,,,54,,,,,,,,,,,,,,356.16500003577676,,response,,,100,,,,,,Space,keypress(Space),,,,,-- --- ---- --- ------ ----- ------- ---- -- --- ------- --<br>------- ---------- ------ -- ----- -- ----- -- ---- ------<br>--- ----- --- the ------ -------- ----- --- ------ ----- --<br>----- ----- ---------- --- --- ------ ------ ---- -- ------<br>------- --- ------ ----- --- ---- ------- -- ---- --- --<br>------- ------,153354.40000003576,153353.90000003576,152981.07,152994.69999998808,152997.735,153364.448,,25,the
screen,html.Screen,0_2_1_1_26,2021-12-03T10:05:34.946Z,,,,,,,,,,,,,,,,54,,,,,,,,,,,,,,373.45200003575883,,response,,,100,,,,,,Space,keypress(Space),,,,,-- --- ---- --- ------ ----- ------- ---- -- --- ------- --<br>------- ---------- ------ -- ----- -- ----- -- ---- ------<br>--- ----- --- --- bonds' -------- ----- --- ------ ----- --<br>----- ----- ---------- --- --- ------ ------ ---- -- ------<br>------- --- ------ ----- --- ---- ------- -- ---- --- --<br>------- ------,153738.5,153737.90000003576,153347.782,153354.60000002384,153364.448,153747.764,,26,bonds'
screen,html.Screen,0_2_1_1_27,2021-12-03T10:05:35.322Z,,,,,,,,,,,,,,,,54,,,,,,,,,,,,,,366.03600001192535,,response,,,100,,,,,,Space,keypress(Space),,,,,-- --- ---- --- ------ ----- ------- ---- -- --- ------- --<br>------- ---------- ------ -- ----- -- ----- -- ---- ------<br>--- ----- --- --- ------ interest ----- --- ------ ----- --<br>----- ----- ---------- --- --- ------ ------ ---- -- ------<br>------- --- ------ ----- --- ---- ------- -- ---- --- --<br>------- ------,154114.40000003576,154113.80000001192,153731.098,153738.60000002384,153747.764,154131.05,,27,interest
screen,html.Screen,0_2_1_1_28,2021-12-03T10:05:35.794Z,,,,,,,,,,,,,,,,54,,,,,,,,,,,,,,454.8500000357744,,response,,,100,,,,,,Space,keypress(Space),,,,,-- --- ---- --- ------ ----- ------- ---- -- --- ------- --<br>------- ---------- ------ -- ----- -- ----- -- ---- ------<br>--- ----- --- --- ------ -------- rate. --- ------ ----- --<br>----- ----- ---------- --- --- ------ ------ ---- -- ------<br>------- --- ------ ----- --- ---- ------- -- ---- --- --<br>------- ------,154586.5,154585.90000003576,154114.385,154114.5,154131.05,154597.676,,28,rate.
screen,html.Screen,0_2_1_1_29,2021-12-03T10:05:36.242Z,,,,,,,,,,,,,,,,54,,,,,,,,,,,,,,436.22400003575603,,response,,,100,,,,,,Space,keypress(Space),,,,,-- --- ---- --- ------ ----- ------- ---- -- --- ------- --<br>------- ---------- ------ -- ----- -- ----- -- ---- ------<br>--- ----- --- --- ------ -------- ----- The ------ ----- --<br>----- ----- ---------- --- --- ------ ------ ---- -- ------<br>------- --- ------ ----- --- ---- ------- -- ---- --- --<br>------- ------,155034.40000003576,155033.90000003576,154581.011,154586.69999998808,154597.676,155047.646,,29,The
screen,html.Screen,0_2_1_1_30,2021-12-03T10:05:36.602Z,,,,,,,,,,,,,,,,54,,,,,,,,,,,,,,346.154000011913,,response,,,100,,,,,,Space,keypress(Space),,,,,-- --- ---- --- ------ ----- ------- ---- -- --- ------- --<br>------- ---------- ------ -- ----- -- ----- -- ---- ------<br>--- ----- --- --- ------ -------- ----- --- market ----- --<br>----- ----- ---------- --- --- ------ ------ ---- -- ------<br>------- --- ------ ----- --- ---- ------- -- ---- --- --<br>------- ------,155394.40000003576,155393.80000001192,155030.981,155034.69999998808,155047.646,155397.686,,30,market
screen,html.Screen,0_2_1_1_31,2021-12-03T10:05:36.970Z,,,,,,,,,,,,,,,,54,,,,,,,,,,,,,,364.11400001193397,,response,,,100,,,,,,Space,keypress(Space),,,,,-- --- ---- --- ------ ----- ------- ---- -- --- ------- --<br>------- ---------- ------ -- ----- -- ----- -- ---- ------<br>--- ----- --- --- ------ -------- ----- --- ------ value --<br>----- ----- ---------- --- --- ------ ------ ---- -- ------<br>------- --- ------ ----- --- ---- ------- -- ---- --- --<br>------- ------,155762.40000003576,155761.80000001192,155381.02,155394.69999998808,155397.686,155781.007,,31,value
screen,html.Screen,0_2_1_1_32,2021-12-03T10:05:37.378Z,,,,,,,,,,,,,,,,54,,,,,,,,,,,,,,388.69299998806673,,response,,,100,,,,,,Space,keypress(Space),,,,,-- --- ---- --- ------ ----- ------- ---- -- --- ------- --<br>------- ---------- ------ -- ----- -- ----- -- ---- ------<br>--- ----- --- --- ------ -------- ----- --- ------ ----- of<br>----- ----- ---------- --- --- ------ ------ ---- -- ------<br>------- --- ------ ----- --- ---- ------- -- ---- --- --<br>------- ------,156170.30000001192,156169.69999998808,155764.341,155763.80000001192,155781.007,156180.961,,32,of
screen,html.Screen,0_2_1_1_33,2021-12-03T10:05:37.714Z,,,,,,,,,,,,,,,,54,,,,,,,,,,,,,,324.7389999880688,,response,,,100,,,,,,Space,keypress(Space),,,,,-- --- ---- --- ------ ----- ------- ---- -- --- ------- --<br>------- ---------- ------ -- ----- -- ----- -- ---- ------<br>--- ----- --- --- ------ -------- ----- --- ------ ----- --<br>these ----- ---------- --- --- ------ ------ ---- -- ------<br>------- --- ------ ----- --- ---- ------- -- ---- --- --<br>------- ------,156506.40000003576,156505.69999998808,156164.296,156170.5,156180.961,156514.286,,33,these
screen,html.Screen,0_2_1_1_34,2021-12-03T10:05:38.090Z,,,,,,,,,,,,,,,,54,,,,,,,,,,,,,,367.4139999880863,,response,,,100,,,,,,Space,keypress(Space),,,,,-- --- ---- --- ------ ----- ------- ---- -- --- ------- --<br>------- ---------- ------ -- ----- -- ----- -- ---- ------<br>--- ----- --- --- ------ -------- ----- --- ------ ----- --<br>----- bonds ---------- --- --- ------ ------ ---- -- ------<br>------- --- ------ ----- --- ---- ------- -- ---- --- --<br>------- ------,156882.30000001192,156881.69999998808,156497.621,156506.5,156514.286,156897.524,,34,bonds
screen,html.Screen,0_2_1_1_35,2021-12-03T10:05:38.618Z,,,,,,,,,,,,,,,,54,,,,,,,,,,,,,,512.1759999880742,,response,,,100,,,,,,Space,keypress(Space),,,,,"-- --- ---- --- ------ ----- ------- ---- -- --- ------- --<br>------- ---------- ------ -- ----- -- ----- -- ---- ------<br>--- ----- --- --- ------ -------- ----- --- ------ ----- --<br>----- ----- plummeted, --- --- ------ ------ ---- -- ------<br>------- --- ------ ----- --- ---- ------- -- ---- --- --<br>------- ------",157410.30000001192,157409.69999998808,156880.86,156882.5,156897.524,157414.398,,35,"plummeted,"
screen,html.Screen,0_2_1_1_36,2021-12-03T10:05:39.058Z,,,,,,,,,,,,,,,,54,,,,,,,,,,,,,,435.40200001193443,,response,,,100,,,,,,Space,keypress(Space),,,,,-- --- ---- --- ------ ----- ------- ---- -- --- ------- --<br>------- ---------- ------ -- ----- -- ----- -- ---- ------<br>--- ----- --- --- ------ -------- ----- --- ------ ----- --<br>----- ----- ---------- and --- ------ ------ ---- -- ------<br>------- --- ------ ----- --- ---- ------- -- ---- --- --<br>------- ------,157850.40000003576,157849.80000001192,157397.73,157410.5,157414.398,157864.206,,36,and
screen,html.Screen,0_2_1_1_37,2021-12-03T10:05:39.426Z,,,,,,,,,,,,,,,,54,,,,,,,,,,,,,,353.4939999880735,,response,,,100,,,,,,Space,keypress(Space),,,,,-- --- ---- --- ------ ----- ------- ---- -- --- ------- --<br>------- ---------- ------ -- ----- -- ----- -- ---- ------<br>--- ----- --- --- ------ -------- ----- --- ------ ----- --<br>----- ----- ---------- --- the ------ ------ ---- -- ------<br>------- --- ------ ----- --- ---- ------- -- ---- --- --<br>------- ------,158218.30000001192,158217.69999998808,157847.541,157850.5,157864.206,158230.841,,37,the
screen,html.Screen,0_2_1_1_38,2021-12-03T10:05:39.738Z,,,,,,,,,,,,,,,,54,,,,,,,,,,,,,,298.75900002385606,,response,,,100,,,,,,Space,keypress(Space),,,,,-- --- ---- --- ------ ----- ------- ---- -- --- ------- --<br>------- ---------- ------ -- ----- -- ----- -- ---- ------<br>--- ----- --- --- ------ -------- ----- --- ------ ----- --<br>----- ----- ---------- --- --- market ------ ---- -- ------<br>------- --- ------ ----- --- ---- ------- -- ---- --- --<br>------- ------,158530.30000001192,158529.60000002384,158214.176,158218.40000003576,158230.841,158547.577,,38,market
screen,html.Screen,0_2_1_1_39,2021-12-03T10:05:40.066Z,,,,,,,,,,,,,,,,54,,,,,,,,,,,,,,310.12299998808885,,response,,,100,,,,,,Space,keypress(Space),,,,,-- --- ---- --- ------ ----- ------- ---- -- --- ------- --<br>------- ---------- ------ -- ----- -- ----- -- ---- ------<br>--- ----- --- --- ------ -------- ----- --- ------ ----- --<br>----- ----- ---------- --- --- ------ became ---- -- ------<br>------- --- ------ ----- --- ---- ------- -- ---- --- --<br>------- ------,158858.30000001192,158857.69999998808,158530.911,158530.40000003576,158547.577,158864.29,,39,became
screen,html.Screen,0_2_1_1_40,2021-12-03T10:05:40.410Z,,,,,,,,,,,,,,,,54,,,,,,,,,,,,,,337.3100000238337,,response,,,100,,,,,,Space,keypress(Space),,,,,-- --- ---- --- ------ ----- ------- ---- -- --- ------- --<br>------- ---------- ------ -- ----- -- ----- -- ---- ------<br>--- ----- --- --- ------ -------- ----- --- ------ ----- --<br>----- ----- ---------- --- --- ------ ------ wary -- ------<br>------- --- ------ ----- --- ---- ------- -- ---- --- --<br>------- ------,159202.19999998808,159201.60000002384,158847.623,158858.40000003576,158864.29,159214.21,,40,wary
screen,html.Screen,0_2_1_1_41,2021-12-03T10:05:40.818Z,,,,,,,,,,,,,,,,54,,,,,,,,,,,,,,395.39000002385,,response,,,100,,,,,,Space,keypress(Space),,,,,-- --- ---- --- ------ ----- ------- ---- -- --- ------- --<br>------- ---------- ------ -- ----- -- ----- -- ---- ------<br>--- ----- --- --- ------ -------- ----- --- ------ ----- --<br>----- ----- ---------- --- --- ------ ------ ---- of ------<br>------- --- ------ ----- --- ---- ------- -- ---- --- --<br>------- ------,159610.19999998808,159609.60000002384,159197.545,159202.30000001192,159214.21,159614.041,,41,of
screen,html.Screen,0_2_1_1_42,2021-12-03T10:05:41.290Z,,,,,,,,,,,,,,,,54,,,,,,,,,,,,,,467.5590000238444,,response,,,100,,,,,,Space,keypress(Space),,,,,-- --- ---- --- ------ ----- ------- ---- -- --- ------- --<br>------- ---------- ------ -- ----- -- ----- -- ---- ------<br>--- ----- --- --- ------ -------- ----- --- ------ ----- --<br>----- ----- ---------- --- --- ------ ------ ---- -- French<br>------- --- ------ ----- --- ---- ------- -- ---- --- --<br>------- ------,160082.19999998808,160081.60000002384,159597.378,159610.40000003576,159614.041,160097.513,,42,French
screen,html.Screen,0_2_1_1_43,2021-12-03T10:05:41.650Z,,,,,,,,,,,,,,,,54,,,,,,,,,,,,,,344.08700002383557,,response,,,100,,,,,,Space,keypress(Space),,,,,-- --- ---- --- ------ ----- ------- ---- -- --- ------- --<br>------- ---------- ------ -- ----- -- ----- -- ---- ------<br>--- ----- --- --- ------ -------- ----- --- ------ ----- --<br>----- ----- ---------- --- --- ------ ------ ---- -- ------<br>credit. --- ------ ----- --- ---- ------- -- ---- --- --<br>------- ------,160442.19999998808,160441.60000002384,160080.847,160082.40000003576,160097.513,160447.557,,43,credit.
screen,html.Screen,0_2_1_1_44,2021-12-03T10:05:42.026Z,,,,,,,,,,,,,,,,54,,,,,,,,,,,,,,370.04300002384116,,response,,,100,,,,,,Space,keypress(Space),,,,,-- --- ---- --- ------ ----- ------- ---- -- --- ------- --<br>------- ---------- ------ -- ----- -- ----- -- ---- ------<br>--- ----- --- --- ------ -------- ----- --- ------ ----- --<br>----- ----- ---------- --- --- ------ ------ ---- -- ------<br>------- The ------ ----- --- ---- ------- -- ---- --- --<br>------- ------,160818.19999998808,160817.60000002384,160430.89,160442.30000001192,160447.557,160847.449,,44,The
screen,html.Screen,0_2_1_1_45,2021-12-03T10:05:42.362Z,,,,,,,,,,,,,,,,54,,,,,,,,,,,,,,306.3510000119277,,response,,,100,,,,,,Space,keypress(Space),,,,,-- --- ---- --- ------ ----- ------- ---- -- --- ------- --<br>------- ---------- ------ -- ----- -- ----- -- ---- ------<br>--- ----- --- --- ------ -------- ----- --- ------ ----- --<br>----- ----- ---------- --- --- ------ ------ ---- -- ------<br>------- --- French ----- --- ---- ------- -- ---- --- --<br>------- ------,161154.30000001192,161153.80000001192,160830.784,160818.40000003576,160847.449,161164.112,,45,French
screen,html.Screen,0_2_1_1_46,2021-12-03T10:05:43.138Z,,,,,,,,,,,,,,,,54,,,,,,,,,,,,,,765.4880000238481,,response,,,100,,,,,,Space,keypress(Space),,,,,-- --- ---- --- ------ ----- ------- ---- -- --- ------- --<br>------- ---------- ------ -- ----- -- ----- -- ---- ------<br>--- ----- --- --- ------ -------- ----- --- ------ ----- --<br>----- ----- ---------- --- --- ------ ------ ---- -- ------<br>------- --- ------ state --- ---- ------- -- ---- --- --<br>------- ------,161930.19999998808,161929.60000002384,161147.447,161154.5,161164.112,161947.363,,46,state
screen,html.Screen,0_2_1_1_47,2021-12-03T10:05:43.562Z,,,,,,,,,,,,,,,,54,,,,,,,,,,,,,,406.23700002382975,,response,,,100,,,,,,Space,keypress(Space),,,,,-- --- ---- --- ------ ----- ------- ---- -- --- ------- --<br>------- ---------- ------ -- ----- -- ----- -- ---- ------<br>--- ----- --- --- ------ -------- ----- --- ------ ----- --<br>----- ----- ---------- --- --- ------ ------ ---- -- ------<br>------- --- ------ ----- was ---- ------- -- ---- --- --<br>------- ------,162354.10000002384,162353.60000002384,161930.698,161930.30000001192,161947.363,162364.176,,47,was
screen,html.Screen,0_2_1_1_48,2021-12-03T10:05:43.938Z,,,,,,,,,,,,,,,,54,,,,,,,,,,,,,,365.4240000238351,,response,,,100,,,,,,Space,keypress(Space),,,,,-- --- ---- --- ------ ----- ------- ---- -- --- ------- --<br>------- ---------- ------ -- ----- -- ----- -- ---- ------<br>--- ----- --- --- ------ -------- ----- --- ------ ----- --<br>----- ----- ---------- --- --- ------ ------ ---- -- ------<br>------- --- ------ ----- --- left ------- -- ---- --- --<br>------- ------,162730.10000002384,162729.60000002384,162347.509,162354.19999998808,162364.176,162747.383,,48,left
screen,html.Screen,0_2_1_1_49,2021-12-03T10:05:44.266Z,,,,,,,,,,,,,,,,54,,,,,,,,,,,,,,310.11699999999837,,response,,,100,,,,,,Space,keypress(Space),,,,,-- --- ---- --- ------ ----- ------- ---- -- --- ------- --<br>------- ---------- ------ -- ----- -- ----- -- ---- ------<br>--- ----- --- --- ------ -------- ----- --- ------ ----- --<br>----- ----- ---------- --- --- ------ ------ ---- -- ------<br>------- --- ------ ----- --- ---- without -- ---- --- --<br>------- ------,163058.10000002384,163057.5,162730.718,162730.19999998808,162747.383,163064.109,,49,without
screen,html.Screen,0_2_1_1_50,2021-12-03T10:05:44.634Z,,,,,,,,,,,,,,,,54,,,,,,,,,,,,,,361.39100000000326,,response,,,100,,,,,,Space,keypress(Space),,,,,-- --- ---- --- ------ ----- ------- ---- -- --- ------- --<br>------- ---------- ------ -- ----- -- ----- -- ---- ------<br>--- ----- --- --- ------ -------- ----- --- ------ ----- --<br>----- ----- ---------- --- --- ------ ------ ---- -- ------<br>------- --- ------ ----- --- ---- ------- an ---- --- --<br>------- ------,163426.10000002384,163425.5,163047.443,163058.19999998808,163064.109,163430.72,,50,an
screen,html.Screen,0_2_1_1_51,2021-12-03T10:05:45.026Z,,,,,,,,,,,,,,,,54,,,,,,,,,,,,,,386.77999999999884,,response,,,100,,,,,,Space,keypress(Space),,,,,-- --- ---- --- ------ ----- ------- ---- -- --- ------- --<br>------- ---------- ------ -- ----- -- ----- -- ---- ------<br>--- ----- --- --- ------ -------- ----- --- ------ ----- --<br>----- ----- ---------- --- --- ------ ------ ---- -- ------<br>------- --- ------ ----- --- ---- ------- -- easy --- --<br>------- ------,163818.10000002384,163817.5,163414.055,163426.19999998808,163430.72,163830.684,,51,easy
screen,html.Screen,0_2_1_1_52,2021-12-03T10:05:45.378Z,,,,,,,,,,,,,,,,54,,,,,,,,,,,,,,338.8159999999916,,response,,,100,,,,,,Space,keypress(Space),,,,,-- --- ---- --- ------ ----- ------- ---- -- --- ------- --<br>------- ---------- ------ -- ----- -- ----- -- ---- ------<br>--- ----- --- --- ------ -------- ----- --- ------ ----- --<br>----- ----- ---------- --- --- ------ ------ ---- -- ------<br>------- --- ------ ----- --- ---- ------- -- ---- way --<br>------- ------,164170,164169.5,163814.019,163818.30000001192,163830.684,164180.738,,52,way
screen,html.Screen,0_2_1_1_53,2021-12-03T10:05:45.690Z,,,,,,,,,,,,,,,,54,,,,,,,,,,,,,,300.7619999999879,,response,,,100,,,,,,Space,keypress(Space),,,,,-- --- ---- --- ------ ----- ------- ---- -- --- ------- --<br>------- ---------- ------ -- ----- -- ----- -- ---- ------<br>--- ----- --- --- ------ -------- ----- --- ------ ----- --<br>----- ----- ---------- --- --- ------ ------ ---- -- ------<br>------- --- ------ ----- --- ---- ------- -- ---- --- of<br>------- ------,164482.10000002384,164481.5,164164.072,164170.19999998808,164180.738,164497.337,,53,of
screen,html.Screen,0_2_1_1_54,2021-12-03T10:05:46.042Z,,,,,,,,,,,,,,,,54,,,,,,,,,,,,,,336.16300000000047,,response,,,100,,,,,,Space,keypress(Space),,,,,-- --- ---- --- ------ ----- ------- ---- -- --- ------- --<br>------- ---------- ------ -- ----- -- ----- -- ---- ------<br>--- ----- --- --- ------ -------- ----- --- ------ ----- --<br>----- ----- ---------- --- --- ------ ------ ---- -- ------<br>------- --- ------ ----- --- ---- ------- -- ---- --- --<br>raising ------,164834.10000002384,164833.5,164480.672,164482.30000001192,164497.337,164847.361,,54,raising
screen,html.Screen,0_2_1_1_55,2021-12-03T10:05:46.418Z,,,,,,,,,,,,,,,,54,,,,,,,,,,,,,,362.03900003575836,,response,,,100,,,,,,Space,keypress(Space),,,,,-- --- ---- --- ------ ----- ------- ---- -- --- ------- --<br>------- ---------- ------ -- ----- -- ----- -- ---- ------<br>--- ----- --- --- ------ -------- ----- --- ------ ----- --<br>----- ----- ---------- --- --- ------ ------ ---- -- ------<br>------- --- ------ ----- --- ---- ------- -- ---- --- --<br>------- money.,165210,165209.40000003576,164830.695,164834.19999998808,164847.361,165213.81,,55,money.
Item 100,flow.Loop,0_2_1_1,2021-12-03T10:05:46.418Z,,,,,,,,,,,,,,,,,,,,,,,,,,,,,,25077.886000035767,,completion,,,,F,,,,,,,,,,silence,,165210.30000001192,165209.40000003576,140114.849,140115.80000001192,140131.514,165213.81,,,
Question 1,html.Screen,0_2_1_2,2021-12-03T10:05:51.037Z,,,,,,,,,,,,,,,,,,,,,,,,,,,true,TRUE,,4614.590000035765,,response,,,100,F,,,,,TRUE,click #choice-1,,,,silence,,169829.10000002384,169828.40000003576,165197.148,165210.40000003576,165213.81,169830.603,,,
Question 2,html.Screen,0_2_1_3,2021-12-03T10:05:54.008Z,,,,,,,,,,,,,,,,,,,,,,,,,,,true,FALSE,,2969.197000011918,,response,,,100,F,,,,,FALSE,click #choice-2,,,,silence,,172800.5,172799.80000001192,169813.935,169829.30000001192,169830.603,172813.642,,,
Item 100,flow.Sequence,0_2_1,2021-12-03T10:05:54.008Z,,,,,,,,,,,,,,,,,,,,,,,,,,,,,,42667.83100001192,,completion,,,,,,,,,,,,,,,,172800.80000001192,172799.80000001192,130115.303,130123.60000002384,130131.969,172813.642,,,
End of Practice,html.Page,0_2_2,2021-12-03T10:06:00.159Z,,,,,,,,,,,,,,,,,,,,,,,,,,,,,,6137.658000011928,,form submission,,,,,,,,,,,,,,,,178951.60000002384,178951.30000001192,172796.978,172800.90000003576,172813.642,178963.513,,,
Practice,flow.Sequence,0_2,2021-12-03T10:06:00.159Z,,,,,,,,,,,,,,,,,,,,,,,,,,,,,,93351.37600001192,,completion,,,,,,,,,,,,,,,,178951.69999998808,178951.30000001192,85583.259,85590.69999998808,85599.924,178963.513,,,
Trap_instruction,html.Page,0_3_0,2021-12-03T10:06:06.084Z,,,,,,,,,,,,,,,,,,,,,,,,,,,,,,5911.986999999994,,form submission,,,,,,,,,,,,,,,,184875.90000003576,184875.5,178946.847,178951.80000001192,178963.513,184896.633,,,
trap_trial,html.Screen,0_3_1,2021-12-03T10:06:09.348Z,,,,,,,,,,,,,,,,,,,,,,,,,,,true,1,,3242.4670000238402,,response,,,,,,,,,1,click #choice-1,,,,,,188139.80000001192,188139.10000002384,184863.301,184876,184896.633,188146.433,,,
end of trap trial,html.Page,0_3_2,2021-12-03T10:06:11.369Z,,,,,,,,,,,,,,,,,,,,,,,,,,,,,,2014.1670000238519,,form submission,,,,,,,,,,,,,,,,190161,190160.60000002384,188129.767,188140,188146.433,190163.009,,,
Trap 1,flow.Sequence,0_3,2021-12-03T10:06:11.369Z,,,,,,,,,,,,,,,,,,,,,,,,,,,,,,11197.087000023836,,completion,,,,,,,,,,,,,,,,190161.30000001192,190160.60000002384,178946.847,178951.80000001192,178963.513,190163.009,,,
Standby,html.Page,0_4_0,2021-12-03T10:06:19.356Z,,,,,,,,,,,,,,,,,,,,,,,,,,,,,,7999.24000000002,,timeout,,,,,,,,,,,,,,,,198146.10000002384,198145.584,190146.344,190161.5,190163.009,198162.249,,,
Holding screen,html.Screen,0_4_1_0_0,2021-12-03T10:06:26.356Z,,,,,,,,,,,,,,,,,,,,,,,,,,,,,,7000.177999999985,,timeout,,,,,,,,,,,,,,,,205146.19999998808,205145.762,198145.584,198146.40000003576,198162.249,205162.427,,,
screen,html.Screen,0_4_1_0_1_0,2021-12-03T10:06:27.267Z,,,,,,,,,,,,,,,,11,,,,,,,,,,,,,,893.772999988083,,response,,,4,F,,,,,Space,keypress(Space),,,,instrumental,Known -- ---- --- -- --- -------- ------------ ---------- --<br>- ------- ------ --------- -- ------------ -- --- ---- -----<br>------ ---- ---- ------ ------ ------- --- ----- ---------<br>---- --- -------- -------- --- --- -- ------- --- --- -----<br>-- --- ------ ------- --- --- -------- ---- --------- --<br>---------- -- -------- ----------------,206057,206056.19999998808,205145.762,205146.5,205162.427,206062.399,,0,Known
screen,html.Screen,0_4_1_0_1_1,2021-12-03T10:06:27.650Z,,,,,,,,,,,,,,,,11,,,,,,,,,,,,,,377.5010000357579,,response,,,4,F,,,,,Space,keypress(Space),,,,instrumental,----- as ---- --- -- --- -------- ------------ ---------- --<br>- ------- ------ --------- -- ------------ -- --- ---- -----<br>------ ---- ---- ------ ------ ------- --- ----- ---------<br>---- --- -------- -------- --- --- -- ------- --- --- -----<br>-- --- ------ ------- --- --- -------- ---- --------- --<br>---------- -- -------- ----------------,206440.60000002384,206439.90000003576,206045.734,206057.10000002384,206062.399,206445.798,,1,as
screen,html.Screen,0_4_1_0_1_2,2021-12-03T10:06:27.962Z,,,,,,,,,,,,,,,,11,,,,,,,,,,,,,,306.102000035753,,response,,,4,F,,,,,Space,keypress(Space),,,,instrumental,----- -- Rapa --- -- --- -------- ------------ ---------- --<br>- ------- ------ --------- -- ------------ -- --- ---- -----<br>------ ---- ---- ------ ------ ------- --- ----- ---------<br>---- --- -------- -------- --- --- -- ------- --- --- -----<br>-- --- ------ ------- --- --- -------- ---- --------- --<br>---------- -- -------- ----------------,206752.40000003576,206751.90000003576,206429.132,206440.69999998808,206445.798,206762.403,,2,Rapa
screen,html.Screen,0_4_1_0_1_3,2021-12-03T10:06:28.610Z,,,,,,,,,,,,,,,,11,,,,,,,,,,,,,,637.4970000357716,,response,,,4,F,,,,,Space,keypress(Space),,,,instrumental,----- -- ---- Nui -- --- -------- ------------ ---------- --<br>- ------- ------ --------- -- ------------ -- --- ---- -----<br>------ ---- ---- ------ ------ ------- --- ----- ---------<br>---- --- -------- -------- --- --- -- ------- --- --- -----<br>-- --- ------ ------- --- --- -------- ---- --------- --<br>---------- -- -------- ----------------,207400.5,207399.90000003576,206745.738,206752.60000002384,206762.403,207412.426,,3,Nui
screen,html.Screen,0_4_1_0_1_4,2021-12-03T10:06:29.050Z,,,,,,,,,,,,,,,,11,,,,,,,,,,,,,,427.47400003575603,,response,,,4,F,,,,,Space,keypress(Space),,,,instrumental,----- -- ---- --- to --- -------- ------------ ---------- --<br>- ------- ------ --------- -- ------------ -- --- ---- -----<br>------ ---- ---- ------ ------ ------- --- ----- ---------<br>---- --- -------- -------- --- --- -- ------- --- --- -----<br>-- --- ------ ------- --- --- -------- ---- --------- --<br>---------- -- -------- ----------------,207840.5,207839.90000003576,207395.76,207400.69999998808,207412.426,207845.779,,4,to
screen,html.Screen,0_4_1_0_1_5,2021-12-03T10:06:29.410Z,,,,,,,,,,,,,,,,11,,,,,,,,,,,,,,354.0210000119114,,response,,,4,F,,,,,Space,keypress(Space),,,,instrumental,----- -- ---- --- -- the -------- ------------ ---------- --<br>- ------- ------ --------- -- ------------ -- --- ---- -----<br>------ ---- ---- ------ ------ ------- --- ----- ---------<br>---- --- -------- -------- --- --- -- ------- --- --- -----<br>-- --- ------ ------- --- --- -------- ---- --------- --<br>---------- -- -------- ----------------,208200.5,208199.80000001192,207829.113,207840.69999998808,207845.779,208212.434,,5,the
screen,html.Screen,0_4_1_0_1_6,2021-12-03T10:06:29.834Z,,,,,,,,,,,,,,,,11,,,,,,,,,,,,,,411.36600001191255,,response,,,4,F,,,,,Space,keypress(Space),,,,instrumental,----- -- ---- --- -- --- island's ------------ ---------- --<br>- ------- ------ --------- -- ------------ -- --- ---- -----<br>------ ---- ---- ------ ------ ------- --- ----- ---------<br>---- --- -------- -------- --- --- -- ------- --- --- -----<br>-- --- ------ ------- --- --- -------- ---- --------- --<br>---------- -- -------- ----------------,208624.5,208623.80000001192,208195.768,208200.60000002384,208212.434,208628.963,,6,island's
screen,html.Screen,0_4_1_0_1_7,2021-12-03T10:06:30.210Z,,,,,,,,,,,,,,,,11,,,,,,,,,,,,,,370.93700003577396,,response,,,4,F,,,,,Space,keypress(Space),,,,instrumental,"----- -- ---- --- -- --- -------- inhabitants, ---------- --<br>- ------- ------ --------- -- ------------ -- --- ---- -----<br>------ ---- ---- ------ ------ ------- --- ----- ---------<br>---- --- -------- -------- --- --- -- ------- --- --- -----<br>-- --- ------ ------- --- --- -------- ---- --------- --<br>---------- -- -------- ----------------",209000.40000003576,208999.90000003576,208612.299,208624.60000002384,208628.963,209012.379,,7,"inhabitants,"
screen,html.Screen,0_4_1_0_1_8,2021-12-03T10:06:31.378Z,,,,,,,,,,,,,,,,11,,,,,,,,,,,,,,1155.4210000119347,,response,,,4,F,,,,,Space,keypress(Space),,,,instrumental,----- -- ---- --- -- --- -------- ------------ Rongorongo --<br>- ------- ------ --------- -- ------------ -- --- ---- -----<br>------ ---- ---- ------ ------ ------- --- ----- ---------<br>---- --- -------- -------- --- --- -- ------- --- --- -----<br>-- --- ------ ------- --- --- -------- ---- --------- --<br>---------- -- -------- ----------------,210168.5,210167.80000001192,208995.713,209000.60000002384,209012.379,210178.9,,8,Rongorongo
screen,html.Screen,0_4_1_0_1_9,2021-12-03T10:06:31.698Z,,,,,,,,,,,,,,,,11,,,,,,,,,,,,,,308.90000001192675,,response,,,4,F,,,,,Space,keypress(Space),,,,instrumental,----- -- ---- --- -- --- -------- ------------ ---------- is<br>- ------- ------ --------- -- ------------ -- --- ---- -----<br>------ ---- ---- ------ ------ ------- --- ----- ---------<br>---- --- -------- -------- --- --- -- ------- --- --- -----<br>-- --- ------ ------- --- --- -------- ---- --------- --<br>---------- -- -------- ----------------,210488.40000003576,210487.80000001192,210162.235,210168.69999998808,210178.9,210495.729,,9,is
screen,html.Screen,0_4_1_0_1_10,2021-12-03T10:06:32.202Z,,,,,,,,,,,,,,,,11,,,,,,,,,,,,,,495.970999988087,,response,,,4,F,,,,,Space,keypress(Space),,,,instrumental,----- -- ---- --- -- --- -------- ------------ ---------- --<br>a ------- ------ --------- -- ------------ -- --- ---- -----<br>------ ---- ---- ------ ------ ------- --- ----- ---------<br>---- --- -------- -------- --- --- -- ------- --- --- -----<br>-- --- ------ ------- --- --- -------- ---- --------- --<br>---------- -- -------- ----------------,210992.40000003576,210991.69999998808,210479.062,210488.5,210495.729,210995.607,,10,a
screen,html.Screen,0_4_1_0_1_11,2021-12-03T10:06:32.562Z,,,,,,,,,,,,,,,,11,,,,,,,,,,,,,,356.1930000119319,,response,,,4,F,,,,,Space,keypress(Space),,,,instrumental,----- -- ---- --- -- --- -------- ------------ ---------- --<br>- writing ------ --------- -- ------------ -- --- ---- -----<br>------ ---- ---- ------ ------ ------- --- ----- ---------<br>---- --- -------- -------- --- --- -- ------- --- --- -----<br>-- --- ------ ------- --- --- -------- ---- --------- --<br>---------- -- -------- ----------------,211352.30000001192,211351.80000001192,210978.942,210992.5,210995.607,211362.184,,11,writing
screen,html.Screen,0_4_1_0_1_12,2021-12-03T10:06:32.890Z,,,,,,,,,,,,,,,,11,,,,,,,,,,,,,,317.5159999880707,,response,,,4,F,,,,,Space,keypress(Space),,,,instrumental,----- -- ---- --- -- --- -------- ------------ ---------- --<br>- ------- system --------- -- ------------ -- --- ---- -----<br>------ ---- ---- ------ ------ ------- --- ----- ---------<br>---- --- -------- -------- --- --- -- ------- --- --- -----<br>-- --- ------ ------- --- --- -------- ---- --------- --<br>---------- -- -------- ----------------,211680.40000003576,211679.69999998808,211345.52,211352.40000003576,211362.184,211695.6,,12,system
screen,html.Screen,0_4_1_0_1_13,2021-12-03T10:06:33.450Z,,,,,,,,,,,,,,,,11,,,,,,,,,,,,,,544.0999999880733,,response,,,4,F,,,,,Space,keypress(Space),,,,instrumental,----- -- ---- --- -- --- -------- ------------ ---------- --<br>- ------- ------ comprised -- ------------ -- --- ---- -----<br>------ ---- ---- ------ ------ ------- --- ----- ---------<br>---- --- -------- -------- --- --- -- ------- --- --- -----<br>-- --- ------ ------- --- --- -------- ---- --------- --<br>---------- -- -------- ----------------,212240.19999998808,212239.69999998808,211678.934,211680.5,211695.6,212245.594,,13,comprised
screen,html.Screen,0_4_1_0_1_14,2021-12-03T10:06:33.858Z,,,,,,,,,,,,,,,,11,,,,,,,,,,,,,,402.1059999880672,,response,,,4,F,,,,,Space,keypress(Space),,,,instrumental,----- -- ---- --- -- --- -------- ------------ ---------- --<br>- ------- ------ --------- of ------------ -- --- ---- -----<br>------ ---- ---- ------ ------ ------- --- ----- ---------<br>---- --- -------- -------- --- --- -- ------- --- --- -----<br>-- --- ------ ------- --- --- -------- ---- --------- --<br>---------- -- -------- ----------------,212648.30000001192,212647.69999998808,212228.928,212240.40000003576,212245.594,212662.172,,14,of
screen,html.Screen,0_4_1_0_1_15,2021-12-03T10:06:34.234Z,,,,,,,,,,,,,,,,11,,,,,,,,,,,,,,361.5279999880877,,response,,,4,F,,,,,Space,keypress(Space),,,,instrumental,----- -- ---- --- -- --- -------- ------------ ---------- --<br>- ------- ------ --------- -- pictographs. -- --- ---- -----<br>------ ---- ---- ------ ------ ------- --- ----- ---------<br>---- --- -------- -------- --- --- -- ------- --- --- -----<br>-- --- ------ ------- --- --- -------- ---- --------- --<br>---------- -- -------- ----------------,213024.30000001192,213023.69999998808,212645.507,212648.5,212662.172,213028.905,,15,pictographs.
screen,html.Screen,0_4_1_0_1_16,2021-12-03T10:06:35.010Z,,,,,,,,,,,,,,,,11,,,,,,,,,,,,,,770.7949999880802,,response,,,4,F,,,,,Space,keypress(Space),,,,instrumental,----- -- ---- --- -- --- -------- ------------ ---------- --<br>- ------- ------ --------- -- ------------ It --- ---- -----<br>------ ---- ---- ------ ------ ------- --- ----- ---------<br>---- --- -------- -------- --- --- -- ------- --- --- -----<br>-- --- ------ ------- --- --- -------- ---- --------- --<br>---------- -- -------- ----------------,213800.30000001192,213799.69999998808,213012.239,213024.40000003576,213028.905,213812.144,,16,It
screen,html.Screen,0_4_1_0_1_17,2021-12-03T10:06:35.530Z,,,,,,,,,,,,,,,,11,,,,,,,,,,,,,,507.4560000238416,,response,,,4,F,,,,,Space,keypress(Space),,,,instrumental,----- -- ---- --- -- --- -------- ------------ ---------- --<br>- ------- ------ --------- -- ------------ -- has ---- -----<br>------ ---- ---- ------ ------ ------- --- ----- ---------<br>---- --- -------- -------- --- --- -- ------- --- --- -----<br>-- --- ------ ------- --- --- -------- ---- --------- --<br>---------- -- -------- ----------------,214320.19999998808,214319.60000002384,213795.479,213800.5,213812.144,214328.866,,17,has
screen,html.Screen,0_4_1_0_1_18,2021-12-03T10:06:35.882Z,,,,,,,,,,,,,,,,11,,,,,,,,,,,,,,342.7340000238328,,response,,,4,F,,,,,Space,keypress(Space),,,,instrumental,----- -- ---- --- -- --- -------- ------------ ---------- --<br>- ------- ------ --------- -- ------------ -- --- been -----<br>------ ---- ---- ------ ------ ------- --- ----- ---------<br>---- --- -------- -------- --- --- -- ------- --- --- -----<br>-- --- ------ ------- --- --- -------- ---- --------- --<br>---------- -- -------- ----------------,214672.30000001192,214671.60000002384,214312.2,214320.40000003576,214328.866,214678.778,,18,been
screen,html.Screen,0_4_1_0_1_19,2021-12-03T10:06:36.242Z,,,,,,,,,,,,,,,,11,,,,,,,,,,,,,,352.8220000238507,,response,,,4,F,,,,,Space,keypress(Space),,,,instrumental,----- -- ---- --- -- --- -------- ------------ ---------- --<br>- ------- ------ --------- -- ------------ -- --- ---- found<br>------ ---- ---- ------ ------ ------- --- ----- ---------<br>---- --- -------- -------- --- --- -- ------- --- --- -----<br>-- --- ------ ------- --- --- -------- ---- --------- --<br>---------- -- -------- ----------------,215032.30000001192,215031.60000002384,214662.113,214672.5,214678.778,215045.439,,19,found
screen,html.Screen,0_4_1_0_1_20,2021-12-03T10:06:36.666Z,,,,,,,,,,,,,,,,11,,,,,,,,,,,,,,410.1610000238288,,response,,,4,F,,,,,Space,keypress(Space),,,,instrumental,----- -- ---- --- -- --- -------- ------------ ---------- --<br>- ------- ------ --------- -- ------------ -- --- ---- -----<br>carved ---- ---- ------ ------ ------- --- ----- ---------<br>---- --- -------- -------- --- --- -- ------- --- --- -----<br>-- --- ------ ------- --- --- -------- ---- --------- --<br>---------- -- -------- ----------------,215456.19999998808,215455.60000002384,215028.774,215032.40000003576,215045.439,215462.137,,20,carved
screen,html.Screen,0_4_1_0_1_21,2021-12-03T10:06:37.154Z,,,,,,,,,,,,,,,,11,,,,,,,,,,,,,,481.46300002385397,,response,,,4,F,,,,,Space,keypress(Space),,,,instrumental,----- -- ---- --- -- --- -------- ------------ ---------- --<br>- ------- ------ --------- -- ------------ -- --- ---- -----<br>------ into ---- ------ ------ ------- --- ----- ---------<br>---- --- -------- -------- --- --- -- ------- --- --- -----<br>-- --- ------ ------- --- --- -------- ---- --------- --<br>---------- -- -------- ----------------,215944.19999998808,215943.60000002384,215445.471,215456.40000003576,215462.137,215945.394,,21,into
screen,html.Screen,0_4_1_0_1_22,2021-12-03T10:06:37.514Z,,,,,,,,,,,,,,,,11,,,,,,,,,,,,,,358.30599998807884,,response,,,4,F,,,,,Space,keypress(Space),,,,instrumental,----- -- ---- --- -- --- -------- ------------ ---------- --<br>- ------- ------ --------- -- ------------ -- --- ---- -----<br>------ ---- many ------ ------ ------- --- ----- ---------<br>---- --- -------- -------- --- --- -- ------- --- --- -----<br>-- --- ------ ------- --- --- -------- ---- --------- --<br>---------- -- -------- ----------------,216304.5,216303.69999998808,215928.729,215944.30000001192,215945.394,216312.114,,22,many
screen,html.Screen,0_4_1_0_1_23,2021-12-03T10:06:37.874Z,,,,,,,,,,,,,,,,11,,,,,,,,,,,,,,351.48600002384046,,response,,,4,F,,,,,Space,keypress(Space),,,,instrumental,----- -- ---- --- -- --- -------- ------------ ---------- --<br>- ------- ------ --------- -- ------------ -- --- ---- -----<br>------ ---- ---- oblong ------ ------- --- ----- ---------<br>---- --- -------- -------- --- --- -- ------- --- --- -----<br>-- --- ------ ------- --- --- -------- ---- --------- --<br>---------- -- -------- ----------------,216664.10000002384,216663.60000002384,216295.448,216304.60000002384,216312.114,216678.709,,23,oblong
screen,html.Screen,0_4_1_0_1_24,2021-12-03T10:06:38.442Z,,,,,,,,,,,,,,,,11,,,,,,,,,,,,,,552.7909999999974,,response,,,4,F,,,,,Space,keypress(Space),,,,instrumental,----- -- ---- --- -- --- -------- ------------ ---------- --<br>- ------- ------ --------- -- ------------ -- --- ---- -----<br>------ ---- ---- ------ wooden ------- --- ----- ---------<br>---- --- -------- -------- --- --- -- ------- --- --- -----<br>-- --- ------ ------- --- --- -------- ---- --------- --<br>---------- -- -------- ----------------,217232.19999998808,217231.5,216662.044,216664.30000001192,216678.709,217245.415,,24,wooden
screen,html.Screen,0_4_1_0_1_25,2021-12-03T10:06:38.898Z,,,,,,,,,,,,,,,,11,,,,,,,,,,,,,,442.08499999999185,,response,,,4,F,,,,,Space,keypress(Space),,,,instrumental,----- -- ---- --- -- --- -------- ------------ ---------- --<br>- ------- ------ --------- -- ------------ -- --- ---- -----<br>------ ---- ---- ------ ------ tablets --- ----- ---------<br>---- --- -------- -------- --- --- -- ------- --- --- -----<br>-- --- ------ ------- --- --- -------- ---- --------- --<br>---------- -- -------- ----------------,217688.10000002384,217687.5,217228.749,217232.30000001192,217245.415,217695.345,,25,tablets
screen,html.Screen,0_4_1_0_1_26,2021-12-03T10:06:39.378Z,,,,,,,,,,,,,,,,11,,,,,,,,,,,,,,472.15499999999884,,response,,,4,F,,,,,Space,keypress(Space),,,,instrumental,----- -- ---- --- -- --- -------- ------------ ---------- --<br>- ------- ------ --------- -- ------------ -- --- ---- -----<br>------ ---- ---- ------ ------ ------- and ----- ---------<br>---- --- -------- -------- --- --- -- ------- --- --- -----<br>-- --- ------ ------- --- --- -------- ---- --------- --<br>---------- -- -------- ----------------,218168,218167.5,217678.68,217688.30000001192,217695.345,218178.643,,26,and
screen,html.Screen,0_4_1_0_1_27,2021-12-03T10:06:39.842Z,,,,,,,,,,,,,,,,11,,,,,,,,,,,,,,452.85699999998906,,response,,,4,F,,,,,Space,keypress(Space),,,,instrumental,----- -- ---- --- -- --- -------- ------------ ---------- --<br>- ------- ------ --------- -- ------------ -- --- ---- -----<br>------ ---- ---- ------ ------ ------- --- other ---------<br>---- --- -------- -------- --- --- -- ------- --- --- -----<br>-- --- ------ ------- --- --- -------- ---- --------- --<br>---------- -- -------- ----------------,218632,218631.5,218161.978,218168.30000001192,218178.643,218645.374,,27,other
screen,html.Screen,0_4_1_0_1_28,2021-12-03T10:06:40.354Z,,,,,,,,,,,,,,,,11,,,,,,,,,,,,,,498.1259999999893,,response,,,4,F,,,,,Space,keypress(Space),,,,instrumental,----- -- ---- --- -- --- -------- ------------ ---------- --<br>- ------- ------ --------- -- ------------ -- --- ---- -----<br>------ ---- ---- ------ ------ ------- --- ----- artifacts<br>---- --- -------- -------- --- --- -- ------- --- --- -----<br>-- --- ------ ------- --- --- -------- ---- --------- --<br>---------- -- -------- ----------------,219144,219143.5,218628.708,218632.19999998808,218645.374,219145.278,,28,artifacts
screen,html.Screen,0_4_1_0_1_29,2021-12-03T10:06:40.922Z,,,,,,,,,,,,,,,,11,,,,,,,,,,,,,,566.2220000000088,,response,,,4,F,,,,,Space,keypress(Space),,,,instrumental,----- -- ---- --- -- --- -------- ------------ ---------- --<br>- ------- ------ --------- -- ------------ -- --- ---- -----<br>------ ---- ---- ------ ------ ------- --- ----- ---------<br>from --- -------- -------- --- --- -- ------- --- --- -----<br>-- --- ------ ------- --- --- -------- ---- --------- --<br>---------- -- -------- ----------------,219712.10000002384,219711.5,219128.613,219144.19999998808,219145.278,219728.587,,29,from
screen,html.Screen,0_4_1_0_1_30,2021-12-03T10:06:41.250Z,,,,,,,,,,,,,,,,11,,,,,,,,,,,,,,310.91300000000047,,response,,,4,F,,,,,Space,keypress(Space),,,,instrumental,----- -- ---- --- -- --- -------- ------------ ---------- --<br>- ------- ------ --------- -- ------------ -- --- ---- -----<br>------ ---- ---- ------ ------ ------- --- ----- ---------<br>---- the -------- -------- --- --- -- ------- --- --- -----<br>-- --- ------ ------- --- --- -------- ---- --------- --<br>---------- -- -------- ----------------,220040,220039.5,219711.922,219712.30000001192,219728.587,220045.233,,30,the
screen,html.Screen,0_4_1_0_1_31,2021-12-03T10:06:41.578Z,,,,,,,,,,,,,,,,11,,,,,,,,,,,,,,322.5670000119135,,response,,,4,F,,,,,Space,keypress(Space),,,,instrumental,----- -- ---- --- -- --- -------- ------------ ---------- --<br>- ------- ------ --------- -- ------------ -- --- ---- -----<br>------ ---- ---- ------ ------ ------- --- ----- ---------<br>---- --- island's -------- --- --- -- ------- --- --- -----<br>-- --- ------ ------- --- --- -------- ---- --------- --<br>---------- -- -------- ----------------,220368.40000003576,220367.80000001192,220028.568,220040.19999998808,220045.233,220378.619,,31,island's
screen,html.Screen,0_4_1_0_1_32,2021-12-03T10:06:41.922Z,,,,,,,,,,,,,,,,11,,,,,,,,,,,,,,332.78100003575673,,response,,,4,F,,,,,Space,keypress(Space),,,,instrumental,----- -- ---- --- -- --- -------- ------------ ---------- --<br>- ------- ------ --------- -- ------------ -- --- ---- -----<br>------ ---- ---- ------ ------ ------- --- ----- ---------<br>---- --- -------- history. --- --- -- ------- --- --- -----<br>-- --- ------ ------- --- --- -------- ---- --------- --<br>---------- -- -------- ----------------,220712,220711.40000003576,220361.953,220368.60000002384,220378.619,220728.562,,32,history.
screen,html.Screen,0_4_1_0_1_33,2021-12-03T10:06:42.298Z,,,,,,,,,,,,,,,,11,,,,,,,,,,,,,,358.83800003575743,,response,,,4,F,,,,,Space,keypress(Space),,,,instrumental,----- -- ---- --- -- --- -------- ------------ ---------- --<br>- ------- ------ --------- -- ------------ -- --- ---- -----<br>------ ---- ---- ------ ------ ------- --- ----- ---------<br>---- --- -------- -------- The --- -- ------- --- --- -----<br>-- --- ------ ------- --- --- -------- ---- --------- --<br>---------- -- -------- ----------------,221088,221087.40000003576,220711.897,220712.10000002384,220728.562,221095.31,,33,The
screen,html.Screen,0_4_1_0_1_34,2021-12-03T10:06:42.690Z,,,,,,,,,,,,,,,,11,,,,,,,,,,,,,,383.99000001192326,,response,,,4,F,,,,,Space,keypress(Space),,,,instrumental,----- -- ---- --- -- --- -------- ------------ ---------- --<br>- ------- ------ --------- -- ------------ -- --- ---- -----<br>------ ---- ---- ------ ------ ------- --- ----- ---------<br>---- --- -------- -------- --- art -- ------- --- --- -----<br>-- --- ------ ------- --- --- -------- ---- --------- --<br>---------- -- -------- ----------------,221479.90000003576,221479.30000001192,221078.643,221088.10000002384,221095.31,221495.257,,34,art
screen,html.Screen,0_4_1_0_1_35,2021-12-03T10:06:43.042Z,,,,,,,,,,,,,,,,11,,,,,,,,,,,,,,336.14300003575045,,response,,,4,F,,,,,Space,keypress(Space),,,,instrumental,----- -- ---- --- -- --- -------- ------------ ---------- --<br>- ------- ------ --------- -- ------------ -- --- ---- -----<br>------ ---- ---- ------ ------ ------- --- ----- ---------<br>---- --- -------- -------- --- --- of ------- --- --- -----<br>-- --- ------ ------- --- --- -------- ---- --------- --<br>---------- -- -------- ----------------,221832,221831.40000003576,221478.591,221480,221495.257,221845.149,,35,of
screen,html.Screen,0_4_1_0_1_36,2021-12-03T10:06:43.338Z,,,,,,,,,,,,,,,,11,,,,,,,,,,,,,,282.15100001191604,,response,,,4,F,,,,,Space,keypress(Space),,,,instrumental,----- -- ---- --- -- --- -------- ------------ ---------- --<br>- ------- ------ --------- -- ------------ -- --- ---- -----<br>------ ---- ---- ------ ------ ------- --- ----- ---------<br>---- --- -------- -------- --- --- -- writing --- --- -----<br>-- --- ------ ------- --- --- -------- ---- --------- --<br>---------- -- -------- ----------------,222127.90000003576,222127.30000001192,221828.485,221832.10000002384,221845.149,222145.184,,36,writing
screen,html.Screen,0_4_1_0_1_37,2021-12-03T10:06:43.658Z,,,,,,,,,,,,,,,,11,,,,,,,,,,,,,,302.11600001191255,,response,,,4,F,,,,,Space,keypress(Space),,,,instrumental,----- -- ---- --- -- --- -------- ------------ ---------- --<br>- ------- ------ --------- -- ------------ -- --- ---- -----<br>------ ---- ---- ------ ------ ------- --- ----- ---------<br>---- --- -------- -------- --- --- -- ------- was --- -----<br>-- --- ------ ------- --- --- -------- ---- --------- --<br>---------- -- -------- ----------------,222447.90000003576,222447.30000001192,222128.519,222128,222145.184,222461.838,,37,was
screen,html.Screen,0_4_1_0_1_38,2021-12-03T10:06:44.042Z,,,,,,,,,,,,,,,,11,,,,,,,,,,,,,,369.4620000119321,,response,,,4,F,,,,,Space,keypress(Space),,,,instrumental,----- -- ---- --- -- --- -------- ------------ ---------- --<br>- ------- ------ --------- -- ------------ -- --- ---- -----<br>------ ---- ---- ------ ------ ------- --- ----- ---------<br>---- --- -------- -------- --- --- -- ------- --- not -----<br>-- --- ------ ------- --- --- -------- ---- --------- --<br>---------- -- -------- ----------------,222831.90000003576,222831.30000001192,222445.173,222448.10000002384,222461.838,222845.24,,38,not
screen,html.Screen,0_4_1_0_1_39,2021-12-03T10:06:44.386Z,,,,,,,,,,,,,,,,11,,,,,,,,,,,,,,330.06000001193024,,response,,,4,F,,,,,Space,keypress(Space),,,,instrumental,----- -- ---- --- -- --- -------- ------------ ---------- --<br>- ------- ------ --------- -- ------------ -- --- ---- -----<br>------ ---- ---- ------ ------ ------- --- ----- ---------<br>---- --- -------- -------- --- --- -- ------- --- --- known<br>-- --- ------ ------- --- --- -------- ---- --------- --<br>---------- -- -------- ----------------,223175.80000001192,223175.30000001192,222828.573,222832.10000002384,222845.24,223178.501,,39,known
screen,html.Screen,0_4_1_0_1_40,2021-12-03T10:06:44.738Z,,,,,,,,,,,,,,,,11,,,,,,,,,,,,,,348.79900001193164,,response,,,4,F,,,,,Space,keypress(Space),,,,instrumental,----- -- ---- --- -- --- -------- ------------ ---------- --<br>- ------- ------ --------- -- ------------ -- --- ---- -----<br>------ ---- ---- ------ ------ ------- --- ----- ---------<br>---- --- -------- -------- --- --- -- ------- --- --- -----<br>in --- ------ ------- --- --- -------- ---- --------- --<br>---------- -- -------- ----------------,223527.90000003576,223527.30000001192,223161.836,223176,223178.501,223545.089,,40,in
screen,html.Screen,0_4_1_0_1_41,2021-12-03T10:06:45.050Z,,,,,,,,,,,,,,,,11,,,,,,,,,,,,,,294.2110000119137,,response,,,4,F,,,,,Space,keypress(Space),,,,instrumental,----- -- ---- --- -- --- -------- ------------ ---------- --<br>- ------- ------ --------- -- ------------ -- --- ---- -----<br>------ ---- ---- ------ ------ ------- --- ----- ---------<br>---- --- -------- -------- --- --- -- ------- --- --- -----<br>-- any ------ ------- --- --- -------- ---- --------- --<br>---------- -- -------- ----------------,223839.80000001192,223839.30000001192,223528.425,223528.10000002384,223545.089,223845.151,,41,any
screen,html.Screen,0_4_1_0_1_42,2021-12-03T10:06:45.362Z,,,,,,,,,,,,,,,,11,,,,,,,,,,,,,,306.0489999880665,,response,,,4,F,,,,,Space,keypress(Space),,,,instrumental,----- -- ---- --- -- --- -------- ------------ ---------- --<br>- ------- ------ --------- -- ------------ -- --- ---- -----<br>------ ---- ---- ------ ------ ------- --- ----- ---------<br>---- --- -------- -------- --- --- -- ------- --- --- -----<br>-- --- nearby ------- --- --- -------- ---- --------- --<br>---------- -- -------- ----------------,224151.80000001192,224151.19999998808,223828.485,223840.10000002384,223845.151,224161.783,,42,nearby
screen,html.Screen,0_4_1_0_1_43,2021-12-03T10:06:45.730Z,,,,,,,,,,,,,,,,11,,,,,,,,,,,,,,357.5170000119251,,response,,,4,F,,,,,Space,keypress(Space),,,,instrumental,----- -- ---- --- -- --- -------- ------------ ---------- --<br>- ------- ------ --------- -- ------------ -- --- ---- -----<br>------ ---- ---- ------ ------ ------- --- ----- ---------<br>---- --- -------- -------- --- --- -- ------- --- --- -----<br>-- --- ------ islands --- --- -------- ---- --------- --<br>---------- -- -------- ----------------,224519.90000003576,224519.30000001192,224145.118,224152.10000002384,224161.783,224528.486,,43,islands
screen,html.Screen,0_4_1_0_1_44,2021-12-03T10:06:46.122Z,,,,,,,,,,,,,,,,11,,,,,,,,,,,,,,382.71399998807465,,response,,,4,F,,,,,Space,keypress(Space),,,,instrumental,----- -- ---- --- -- --- -------- ------------ ---------- --<br>- ------- ------ --------- -- ------------ -- --- ---- -----<br>------ ---- ---- ------ ------ ------- --- ----- ---------<br>---- --- -------- -------- --- --- -- ------- --- --- -----<br>-- --- ------ ------- and --- -------- ---- --------- --<br>---------- -- -------- ----------------,224911.90000003576,224911.19999998808,224511.82,224520.10000002384,224528.486,224928.371,,44,and
screen,html.Screen,0_4_1_0_1_45,2021-12-03T10:06:46.490Z,,,,,,,,,,,,,,,,11,,,,,,,,,,,,,,350.82899998806533,,response,,,4,F,,,,,Space,keypress(Space),,,,instrumental,----- -- ---- --- -- --- -------- ------------ ---------- --<br>- ------- ------ --------- -- ------------ -- --- ---- -----<br>------ ---- ---- ------ ------ ------- --- ----- ---------<br>---- --- -------- -------- --- --- -- ------- --- --- -----<br>-- --- ------ ------- --- the -------- ---- --------- --<br>---------- -- -------- ----------------,225279.80000001192,225279.19999998808,224911.707,224912,224928.371,225295.067,,45,the
screen,html.Screen,0_4_1_0_1_46,2021-12-03T10:06:46.842Z,,,,,,,,,,,,,,,,11,,,,,,,,,,,,,,336.13299998806906,,response,,,4,F,,,,,Space,keypress(Space),,,,instrumental,----- -- ---- --- -- --- -------- ------------ ---------- --<br>- ------- ------ --------- -- ------------ -- --- ---- -----<br>------ ---- ---- ------ ------ ------- --- ----- ---------<br>---- --- -------- -------- --- --- -- ------- --- --- -----<br>-- --- ------ ------- --- --- script's ---- --------- --<br>---------- -- -------- ----------------,225631.80000001192,225631.19999998808,225278.402,225279.90000003576,225295.067,225645.056,,46,script's
screen,html.Screen,0_4_1_0_1_47,2021-12-03T10:06:47.218Z,,,,,,,,,,,,,,,,11,,,,,,,,,,,,,,362.14399998806766,,response,,,4,F,,,,,Space,keypress(Space),,,,instrumental,----- -- ---- --- -- --- -------- ------------ ---------- --<br>- ------- ------ --------- -- ------------ -- --- ---- -----<br>------ ---- ---- ------ ------ ------- --- ----- ---------<br>---- --- -------- -------- --- --- -- ------- --- --- -----<br>-- --- ------ ------- --- --- -------- mere --------- --<br>---------- -- -------- ----------------,226007.80000001192,226007.19999998808,225628.391,225631.90000003576,225645.056,226011.696,,47,mere
screen,html.Screen,0_4_1_0_1_48,2021-12-03T10:06:47.618Z,,,,,,,,,,,,,,,,11,,,,,,,,,,,,,,395.60400001192465,,response,,,4,F,,,,,Space,keypress(Space),,,,instrumental,----- -- ---- --- -- --- -------- ------------ ---------- --<br>- ------- ------ --------- -- ------------ -- --- ---- -----<br>------ ---- ---- ------ ------ ------- --- ----- ---------<br>---- --- -------- -------- --- --- -- ------- --- --- -----<br>-- --- ------ ------- --- --- -------- ---- existence --<br>---------- -- -------- ----------------,226408,226407.30000001192,225995.031,226008,226011.696,226411.778,,48,existence
screen,html.Screen,0_4_1_0_1_49,2021-12-03T10:06:48.042Z,,,,,,,,,,,,,,,,11,,,,,,,,,,,,,,419.4219999880879,,response,,,4,F,,,,,Space,keypress(Space),,,,instrumental,----- -- ---- --- -- --- -------- ------------ ---------- --<br>- ------- ------ --------- -- ------------ -- --- ---- -----<br>------ ---- ---- ------ ------ ------- --- ----- ---------<br>---- --- -------- -------- --- --- -- ------- --- --- -----<br>-- --- ------ ------- --- --- -------- ---- --------- is<br>---------- -- -------- ----------------,226831.80000001192,226831.19999998808,226395.111,226408.10000002384,226411.778,226845.007,,49,is
screen,html.Screen,0_4_1_0_1_50,2021-12-03T10:06:48.410Z,,,,,,,,,,,,,,,,11,,,,,,,,,,,,,,354.19299998806673,,response,,,4,F,,,,,Space,keypress(Space),,,,instrumental,----- -- ---- --- -- --- -------- ------------ ---------- --<br>- ------- ------ --------- -- ------------ -- --- ---- -----<br>------ ---- ---- ------ ------ ------- --- ----- ---------<br>---- --- -------- -------- --- --- -- ------- --- --- -----<br>-- --- ------ ------- --- --- -------- ---- --------- --<br>sufficient -- -------- ----------------,227199.80000001192,227199.19999998808,226828.342,226832,226845.007,227211.671,,50,sufficient
