sender,sender_type,sender_id,timestamp,meta,,Blues,Classical,Country,Dance,Electronic,Folk,Gospel,Hip-Hop,Jazz,Latin,Musical/Film,New-age,Pop,Provo_ID,R&B,Rap,Reggae,Religious,Rock,Soul,Swing,Traditional,age,artist_name,correct,correctResponse,distraction,duration,education,ended_on,familiarity,gender,item,list,music_frequency,offensiveness,pleasantness,preference,response,response_action,snippet_file,song_name,song_rating,sound,text,time_commit,time_end,time_render,time_run,time_show,time_switch,url,word,word_ID
Instructions,html.Page,0_0,2021-12-13T14:26:16.650Z,"{""labjs_version"":""20.2.3"",""labjs_build"":{""flavor"":""production"",""commit"":""7ea907d66ca8aeef8054924ca5d82ffbe11e34e5""},""location"":""https://run.pavlovia.org/mvasilev/lab_music_d/"",""userAgent"":""Mozilla/5.0 (Windows NT 6.1; Win64; x64) AppleWebKit/537.36 (KHTML, like Gecko) Chrome/96.0.4664.93 Safari/537.36"",""platform"":""Win32"",""language"":""en-US"",""locale"":""en-US"",""timeZone"":""Europe/London"",""timezoneOffset"":0,""screen_width"":1920,""screen_height"":1080,""scroll_width"":1920,""scroll_height"":959,""window_innerWidth"":1920,""window_innerHeight"":1007,""devicePixelRatio"":1}",,,,,,,,,,,,,,,,,,,,,,,,,,,,,10430.775000000045,,form submission,,,,,,,,,,,,,,,,28782.300000000047,28780.800000000047,18333.358,18347.800000000047,18350.025,28787.275,{},,
Headphones,html.Page,0_1,2021-12-13T14:26:18.667Z,,,,,,,,,,,,,,,,,,,,,,,,,,,,,,2011.1249999999054,,form submission,,,,,,,,,,,,,,,,30798.600000000093,30798.399999999907,28770.607,28783.100000000093,28787.275,30804.484,,,
Holding screen,html.Screen,0_2_0_0,2021-12-13T14:26:28.663Z,,,,,,,,,,,,,,,,,,,,,,,,,,,,,,10185.869999999999,,timeout,,,,,,,,,,,,,,,,40795,40790.314,30787.814,30798.699999999953,30804.484,40990.354,,,
screen,html.Screen,0_2_0_1_0,2021-12-13T14:26:30.266Z,,,,,,,,,,,,,,,,53,,,,,,,,,,,,,,1407.2460000000938,,response,,,99,,,,,,Space,keypress(Space),,,,,When -- ----- -- ------ - ------- --- ----------<br>------------- ------ ------ ---- ---- ------- ----- -- ----<br>-------- ------- -- ---------- --- - --- ----- ----- ----<br>---- --- --- ----- --- ---- ---- ------- ----- ---- -------<br>--- --- -- ----- -- --- ---- -- --- ---- -- ------ ------<br>--- ----- -- ----,42398.30000000005,42397.60000000009,40790.314,40795.19999999995,40990.354,42407.536,,0,When
screen,html.Screen,0_2_0_1_1,2021-12-13T14:26:30.618Z,,,,,,,,,,,,,,,,53,,,,,,,,,,,,,,341.7640000000465,,response,,,99,,,,,,Space,keypress(Space),,,,,---- it ----- -- ------ - ------- --- ----------<br>------------- ------ ------ ---- ---- ------- ----- -- ----<br>-------- ------- -- ---------- --- - --- ----- ----- ----<br>---- --- --- ----- --- ---- ---- ------- ----- ---- -------<br>--- --- -- ----- -- --- ---- -- --- ---- -- ------ ------<br>--- ----- -- ----,42750,42749.30000000005,42390.865,42398.5,42407.536,42757.477,,1,it
screen,html.Screen,0_2_0_1_2,2021-12-13T14:26:31.002Z,,,,,,,,,,,,,,,,53,,,,,,,,,,,,,,375.7229999999545,,response,,,99,,,,,,Space,keypress(Space),,,,,---- -- comes -- ------ - ------- --- ----------<br>------------- ------ ------ ---- ---- ------- ----- -- ----<br>-------- ------- -- ---------- --- - --- ----- ----- ----<br>---- --- --- ----- --- ---- ---- ------- ----- ---- -------<br>--- --- -- ----- -- --- ---- -- --- ---- -- ------ ------<br>--- ----- -- ----,43133.69999999995,43133.19999999995,42740.807,42750.10000000009,42757.477,43140.938,,2,comes
screen,html.Screen,0_2_0_1_3,2021-12-13T14:26:31.402Z,,,,,,,,,,,,,,,,53,,,,,,,,,,,,,,392.0619999999981,,response,,,99,,,,,,Space,keypress(Space),,,,,---- -- ----- to ------ - ------- --- ----------<br>------------- ------ ------ ---- ---- ------- ----- -- ----<br>-------- ------- -- ---------- --- - --- ----- ----- ----<br>---- --- --- ----- --- ---- ---- ------- ----- ---- -------<br>--- --- -- ----- -- --- ---- -- --- ---- -- ------ ------<br>--- ----- -- ----,43533.39999999991,43533,43124.268,43133.89999999991,43140.938,43541.043,,3,to
screen,html.Screen,0_2_0_1_4,2021-12-13T14:26:31.771Z,,,,,,,,,,,,,,,,53,,,,,,,,,,,,,,360.356999999909,,response,,,99,,,,,,Space,keypress(Space),,,,,---- -- ----- -- having - ------- --- ----------<br>------------- ------ ------ ---- ---- ------- ----- -- ----<br>-------- ------- -- ---------- --- - --- ----- ----- ----<br>---- --- --- ----- --- ---- ---- ------- ----- ---- -------<br>--- --- -- ----- -- --- ---- -- --- ---- -- ------ ------<br>--- ----- -- ----,43902.5,43901.39999999991,43524.373,43533.5,43541.043,43907.927,,4,having
screen,html.Screen,0_2_0_1_5,2021-12-13T14:26:32.090Z,,,,,,,,,,,,,,,,53,,,,,,,,,,,,,,313.0729999999967,,response,,,99,,,,,,Space,keypress(Space),,,,,---- -- ----- -- ------ a ------- --- ----------<br>------------- ------ ------ ---- ---- ------- ----- -- ----<br>-------- ------- -- ---------- --- - --- ----- ----- ----<br>---- --- --- ----- --- ---- ---- ------- ----- ---- -------<br>--- --- -- ----- -- --- ---- -- --- ---- -- ------ ------<br>--- ----- -- ----,44221.5,44221,43891.255,43902.80000000005,43907.927,44224.617,,5,a
screen,html.Screen,0_2_0_1_6,2021-12-13T14:26:32.490Z,,,,,,,,,,,,,,,,53,,,,,,,,,,,,,,396.48300000009476,,response,,,99,,,,,,Space,keypress(Space),,,,,---- -- ----- -- ------ - lasting --- ----------<br>------------- ------ ------ ---- ---- ------- ----- -- ----<br>-------- ------- -- ---------- --- - --- ----- ----- ----<br>---- --- --- ----- --- ---- ---- ------- ----- ---- -------<br>--- --- -- ----- -- --- ---- -- --- ---- -- ------ ------<br>--- ----- -- ----,44621.60000000009,44621.10000000009,44207.946,44221.5,44224.617,44624.558,,6,lasting
screen,html.Screen,0_2_0_1_7,2021-12-13T14:26:32.930Z,,,,,,,,,,,,,,,,53,,,,,,,,,,,,,,436.44200000000274,,response,,,99,,,,,,Space,keypress(Space),,,,,---- -- ----- -- ------ - ------- and ----------<br>------------- ------ ------ ---- ---- ------- ----- -- ----<br>-------- ------- -- ---------- --- - --- ----- ----- ----<br>---- --- --- ----- --- ---- ---- ------- ----- ---- -------<br>--- --- -- ----- -- --- ---- -- --- ---- -- ------ ------<br>--- ----- -- ----,45061.39999999991,45061,44607.89,44621.69999999995,44624.558,45074.76,,7,and
screen,html.Screen,0_2_0_1_8,2021-12-13T14:26:33.273Z,,,,,,,,,,,,,,,,53,,,,,,,,,,,,,,330.13999999990483,,response,,,99,,,,,,Space,keypress(Space),,,,,---- -- ----- -- ------ - ------- --- fulfilling<br>------------- ------ ------ ---- ---- ------- ----- -- ----<br>-------- ------- -- ---------- --- - --- ----- ----- ----<br>---- --- --- ----- --- ---- ---- ------- ----- ---- -------<br>--- --- -- ----- -- --- ---- -- --- ---- -- ------ ------<br>--- ----- -- ----,45405.30000000005,45404.89999999991,45058.09,45061.5,45074.76,45408.171,,8,fulfilling
screen,html.Screen,0_2_0_1_9,2021-12-13T14:26:33.682Z,,,,,,,,,,,,,,,,53,,,,,,,,,,,,,,404.8289999999979,,response,,,99,,,,,,Space,keypress(Space),,,,,"---- -- ----- -- ------ - ------- --- ----------<br>relationship, ------ ------ ---- ---- ------- ----- -- ----<br>-------- ------- -- ---------- --- - --- ----- ----- ----<br>---- --- --- ----- --- ---- ---- ------- ----- ---- -------<br>--- --- -- ----- -- --- ---- -- --- ---- -- ------ ------<br>--- ----- -- ----",45813.69999999995,45813,45391.501,45405.39999999991,45408.171,45824.948,,9,"relationship,"
screen,html.Screen,0_2_0_1_10,2021-12-13T14:26:34.049Z,,,,,,,,,,,,,,,,53,,,,,,,,,,,,,,355.9519999999102,,response,,,99,,,,,,Space,keypress(Space),,,,,---- -- ----- -- ------ - ------- --- ----------<br>------------- common ------ ---- ---- ------- ----- -- ----<br>-------- ------- -- ---------- --- - --- ----- ----- ----<br>---- --- --- ----- --- ---- ---- ------- ----- ---- -------<br>--- --- -- ----- -- --- ---- -- --- ---- -- ------ ------<br>--- ----- -- ----,46181.19999999995,46180.89999999991,45808.278,45813.80000000005,45824.948,46191.828,,10,common
screen,html.Screen,0_2_0_1_11,2021-12-13T14:26:34.361Z,,,,,,,,,,,,,,,,53,,,,,,,,,,,,,,301.07199999990553,,response,,,99,,,,,,Space,keypress(Space),,,,,---- -- ----- -- ------ - ------- --- ----------<br>------------- ------ wisdom ---- ---- ------- ----- -- ----<br>-------- ------- -- ---------- --- - --- ----- ----- ----<br>---- --- --- ----- --- ---- ---- ------- ----- ---- -------<br>--- --- -- ----- -- --- ---- -- --- ---- -- ------ ------<br>--- ----- -- ----,46493.19999999995,46492.89999999991,46175.155,46181.30000000005,46191.828,46508.425,,11,wisdom
screen,html.Screen,0_2_0_1_12,2021-12-13T14:26:34.753Z,,,,,,,,,,,,,,,,53,,,,,,,,,,,,,,376.37500000004366,,response,,,99,,,,,,Space,keypress(Space),,,,,---- -- ----- -- ------ - ------- --- ----------<br>------------- ------ ------ says ---- ------- ----- -- ----<br>-------- ------- -- ---------- --- - --- ----- ----- ----<br>---- --- --- ----- --- ---- ---- ------- ----- ---- -------<br>--- --- -- ----- -- --- ---- -- --- ---- -- ------ ------<br>--- ----- -- ----,46885.10000000009,46884.80000000005,46491.756,46493.30000000005,46508.425,46891.845,,12,says
screen,html.Screen,0_2_0_1_13,2021-12-13T14:26:35.097Z,,,,,,,,,,,,,,,,53,,,,,,,,,,,,,,337.0549999999057,,response,,,99,,,,,,Space,keypress(Space),,,,,---- -- ----- -- ------ - ------- --- ----------<br>------------- ------ ------ ---- that ------- ----- -- ----<br>-------- ------- -- ---------- --- - --- ----- ----- ----<br>---- --- --- ----- --- ---- ---- ------- ----- ---- -------<br>--- --- -- ----- -- --- ---- -- --- ---- -- ------ ------<br>--- ----- -- ----,47229.19999999995,47228.89999999991,46875.176,46885.19999999995,46891.845,47242.026,,13,that
screen,html.Screen,0_2_0_1_14,2021-12-13T14:26:35.410Z,,,,,,,,,,,,,,,,53,,,,,,,,,,,,,,298.974000000002,,response,,,99,,,,,,Space,keypress(Space),,,,,---- -- ----- -- ------ - ------- --- ----------<br>------------- ------ ------ ---- ---- feeling ----- -- ----<br>-------- ------- -- ---------- --- - --- ----- ----- ----<br>---- --- --- ----- --- ---- ---- ------- ----- ---- -------<br>--- --- -- ----- -- --- ---- -- --- ---- -- ------ ------<br>--- ----- -- ----,47541.60000000009,47541,47225.355,47229.30000000005,47242.026,47558.759,,14,feeling
screen,html.Screen,0_2_0_1_15,2021-12-13T14:26:35.722Z,,,,,,,,,,,,,,,,53,,,,,,,,,,,,,,294.1409999999087,,response,,,99,,,,,,Space,keypress(Space),,,,,---- -- ----- -- ------ - ------- --- ----------<br>------------- ------ ------ ---- ---- ------- close -- ----<br>-------- ------- -- ---------- --- - --- ----- ----- ----<br>---- --- --- ----- --- ---- ---- ------- ----- ---- -------<br>--- --- -- ----- -- --- ---- -- --- ---- -- ------ ------<br>--- ----- -- ----,47853.60000000009,47852.89999999991,47542.088,47541.80000000005,47558.759,47858.719,,15,close
screen,html.Screen,0_2_0_1_16,2021-12-13T14:26:36.122Z,,,,,,,,,,,,,,,,53,,,,,,,,,,,,,,394.3810000000958,,response,,,99,,,,,,Space,keypress(Space),,,,,---- -- ----- -- ------ - ------- --- ----------<br>------------- ------ ------ ---- ---- ------- ----- to ----<br>-------- ------- -- ---------- --- - --- ----- ----- ----<br>---- --- --- ----- --- ---- ---- ------- ----- ---- -------<br>--- --- -- ----- -- --- ---- -- --- ---- -- ------ ------<br>--- ----- -- ----,48254,48253.10000000009,47842.051,47853.80000000005,47858.719,48259.059,,16,to
screen,html.Screen,0_2_0_1_17,2021-12-13T14:26:36.537Z,,,,,,,,,,,,,,,,53,,,,,,,,,,,,,,409.74100000004546,,response,,,99,,,,,,Space,keypress(Space),,,,,---- -- ----- -- ------ - ------- --- ----------<br>------------- ------ ------ ---- ---- ------- ----- -- your<br>-------- ------- -- ---------- --- - --- ----- ----- ----<br>---- --- --- ----- --- ---- ---- ------- ----- ---- -------<br>--- --- -- ----- -- --- ---- -- --- ---- -- ------ ------<br>--- ----- -- ----,48669.10000000009,48668.80000000005,48242.386,48254.19999999995,48259.059,48675.566,,17,your
screen,html.Screen,0_2_0_1_18,2021-12-13T14:26:36.953Z,,,,,,,,,,,,,,,,53,,,,,,,,,,,,,,409.13399999995454,,response,,,99,,,,,,Space,keypress(Space),,,,,---- -- ----- -- ------ - ------- --- ----------<br>------------- ------ ------ ---- ---- ------- ----- -- ----<br>romantic ------- -- ---------- --- - --- ----- ----- ----<br>---- --- --- ----- --- ---- ---- ------- ----- ---- -------<br>--- --- -- ----- -- --- ---- -- --- ---- -- ------ ------<br>--- ----- -- ----,49085,49084.69999999995,48658.898,48669.19999999995,48675.566,49092.415,,18,romantic
screen,html.Screen,0_2_0_1_19,2021-12-13T14:26:37.289Z,,,,,,,,,,,,,,,,53,,,,,,,,,,,,,,328.28499999995256,,response,,,99,,,,,,Space,keypress(Space),,,,,---- -- ----- -- ------ - ------- --- ----------<br>------------- ------ ------ ---- ---- ------- ----- -- ----<br>-------- partner -- ---------- --- - --- ----- ----- ----<br>---- --- --- ----- --- ---- ---- ------- ----- ---- -------<br>--- --- -- ----- -- --- ---- -- --- ---- -- ------ ------<br>--- ----- -- ----,49421.10000000009,49420.69999999995,49075.745,49085.10000000009,49092.415,49425.961,,19,partner
screen,html.Screen,0_2_0_1_20,2021-12-13T14:26:37.713Z,,,,,,,,,,,,,,,,53,,,,,,,,,,,,,,418.73899999995047,,response,,,99,,,,,,Space,keypress(Space),,,,,---- -- ----- -- ------ - ------- --- ----------<br>------------- ------ ------ ---- ---- ------- ----- -- ----<br>-------- ------- is ---------- --- - --- ----- ----- ----<br>---- --- --- ----- --- ---- ---- ------- ----- ---- -------<br>--- --- -- ----- -- --- ---- -- --- ---- -- ------ ------<br>--- ----- -- ----,49844.89999999991,49844.69999999995,49409.288,49421.19999999995,49425.961,49859.197,,20,is
screen,html.Screen,0_2_0_1_21,2021-12-13T14:26:39.730Z,,,,,,,,,,,,,,,,53,,,,,,,,,,,,,,2001.7029999999068,,response,,,99,,,,,,Space,keypress(Space),,,,,---- -- ----- -- ------ - ------- --- ----------<br>------------- ------ ------ ---- ---- ------- ----- -- ----<br>-------- ------- -- paramount. --- - --- ----- ----- ----<br>---- --- --- ----- --- ---- ---- ------- ----- ---- -------<br>--- --- -- ----- -- --- ---- -- --- ---- -- ------ ------<br>--- ----- -- ----,51861.69999999995,51860.89999999991,49842.529,49845,49859.197,51876.519,,21,paramount.
screen,html.Screen,0_2_0_1_22,2021-12-13T14:26:40.121Z,,,,,,,,,,,,,,,,53,,,,,,,,,,,,,,375.88099999990663,,response,,,99,,,,,,Space,keypress(Space),,,,,---- -- ----- -- ------ - ------- --- ----------<br>------------- ------ ------ ---- ---- ------- ----- -- ----<br>-------- ------- -- ---------- But - --- ----- ----- ----<br>---- --- --- ----- --- ---- ---- ------- ----- ---- -------<br>--- --- -- ----- -- --- ---- -- --- ---- -- ------ ------<br>--- ----- -- ----,52252.69999999995,52252.39999999991,51859.848,51862.10000000009,51876.519,52259.856,,22,But
screen,html.Screen,0_2_0_1_23,2021-12-13T14:26:40.465Z,,,,,,,,,,,,,,,,53,,,,,,,,,,,,,,336.74400000009337,,response,,,99,,,,,,Space,keypress(Space),,,,,---- -- ----- -- ------ - ------- --- ----------<br>------------- ------ ------ ---- ---- ------- ----- -- ----<br>-------- ------- -- ---------- --- a --- ----- ----- ----<br>---- --- --- ----- --- ---- ---- ------- ----- ---- -------<br>--- --- -- ----- -- --- ---- -- --- ---- -- ------ ------<br>--- ----- -- ----,52597.10000000009,52596.60000000009,52243.186,52252.80000000005,52259.856,52609.991,,23,a
screen,html.Screen,0_2_0_1_24,2021-12-13T14:26:40.730Z,,,,,,,,,,,,,,,,53,,,,,,,,,,,,,,250.80900000004476,,response,,,99,,,,,,Space,keypress(Space),,,,,---- -- ----- -- ------ - ------- --- ----------<br>------------- ------ ------ ---- ---- ------- ----- -- ----<br>-------- ------- -- ---------- --- - new ----- ----- ----<br>---- --- --- ----- --- ---- ---- ------- ----- ---- -------<br>--- --- -- ----- -- --- ---- -- --- ---- -- ------ ------<br>--- ----- -- ----,52861.60000000009,52860.80000000005,52593.321,52597.19999999995,52609.991,52876.806,,24,new
screen,html.Screen,0_2_0_1_25,2021-12-13T14:26:41.001Z,,,,,,,,,,,,,,,,53,,,,,,,,,,,,,,255.69400000000314,,response,,,99,,,,,,Space,keypress(Space),,,,,---- -- ----- -- ------ - ------- --- ----------<br>------------- ------ ------ ---- ---- ------- ----- -- ----<br>-------- ------- -- ---------- --- - --- study ----- ----<br>---- --- --- ----- --- ---- ---- ------- ----- ---- -------<br>--- --- -- ----- -- --- ---- -- --- ---- -- ------ ------<br>--- ----- -- ----,53132.89999999991,53132.5,52860.133,52861.89999999991,52876.806,53143.408,,25,study
screen,html.Screen,0_2_0_1_26,2021-12-13T14:26:41.329Z,,,,,,,,,,,,,,,,53,,,,,,,,,,,,,,316.9919999999038,,response,,,99,,,,,,Space,keypress(Space),,,,,---- -- ----- -- ------ - ------- --- ----------<br>------------- ------ ------ ---- ---- ------- ----- -- ----<br>-------- ------- -- ---------- --- - --- ----- finds ----<br>---- --- --- ----- --- ---- ---- ------- ----- ---- -------<br>--- --- -- ----- -- --- ---- -- --- ---- -- ------ ------<br>--- ----- -- ----,53460.80000000005,53460.39999999991,53126.74,53132.89999999991,53143.408,53476.977,,26,finds
screen,html.Screen,0_2_0_1_27,2021-12-13T14:26:41.721Z,,,,,,,,,,,,,,,,53,,,,,,,,,,,,,,375.4229999999079,,response,,,99,,,,,,Space,keypress(Space),,,,,---- -- ----- -- ------ - ------- --- ----------<br>------------- ------ ------ ---- ---- ------- ----- -- ----<br>-------- ------- -- ---------- --- - --- ----- ----- that<br>---- --- --- ----- --- ---- ---- ------- ----- ---- -------<br>--- --- -- ----- -- --- ---- -- --- ---- -- ------ ------<br>--- ----- -- ----,53852.89999999991,53852.39999999991,53460.304,53460.80000000005,53476.977,53860.305,,27,that
screen,html.Screen,0_2_0_1_28,2021-12-13T14:26:42.098Z,,,,,,,,,,,,,,,,53,,,,,,,,,,,,,,368.39499999995314,,response,,,99,,,,,,Space,keypress(Space),,,,,---- -- ----- -- ------ - ------- --- ----------<br>------------- ------ ------ ---- ---- ------- ----- -- ----<br>-------- ------- -- ---------- --- - --- ----- ----- ----<br>it's --- --- ----- --- ---- ---- ------- ----- ---- -------<br>--- --- -- ----- -- --- ---- -- --- ---- -- ------ ------<br>--- ----- -- ----,54229.5,54228.69999999995,53843.636,53852.89999999991,53860.305,54243.64,,28,it's
screen,html.Screen,0_2_0_1_29,2021-12-13T14:26:42.426Z,,,,,,,,,,,,,,,,53,,,,,,,,,,,,,,313.059999999954,,response,,,99,,,,,,Space,keypress(Space),,,,,---- -- ----- -- ------ - ------- --- ----------<br>------------- ------ ------ ---- ---- ------- ----- -- ----<br>-------- ------- -- ---------- --- - --- ----- ----- ----<br>---- not --- ----- --- ---- ---- ------- ----- ---- -------<br>--- --- -- ----- -- --- ---- -- --- ---- -- ------ ------<br>--- ----- -- ----,54557.60000000009,54556.69999999995,54226.972,54229.69999999995,54243.64,54560.582,,29,not
screen,html.Screen,0_2_0_1_30,2021-12-13T14:26:42.729Z,,,,,,,,,,,,,,,,53,,,,,,,,,,,,,,299.7180000000444,,response,,,99,,,,,,Space,keypress(Space),,,,,---- -- ----- -- ------ - ------- --- ----------<br>------------- ------ ------ ---- ---- ------- ----- -- ----<br>-------- ------- -- ---------- --- - --- ----- ----- ----<br>---- --- how ----- --- ---- ---- ------- ----- ---- -------<br>--- --- -- ----- -- --- ---- -- --- ---- -- ------ ------<br>--- ----- -- ----,54860.69999999995,54860.30000000005,54543.91,54557.80000000005,54560.582,54877.159,,30,how
screen,html.Screen,0_2_0_1_31,2021-12-13T14:26:43.041Z,,,,,,,,,,,,,,,,53,,,,,,,,,,,,,,295.2409999999072,,response,,,99,,,,,,Space,keypress(Space),,,,,---- -- ----- -- ------ - ------- --- ----------<br>------------- ------ ------ ---- ---- ------- ----- -- ----<br>-------- ------- -- ---------- --- - --- ----- ----- ----<br>---- --- --- close --- ---- ---- ------- ----- ---- -------<br>--- --- -- ----- -- --- ---- -- --- ---- -- ------ ------<br>--- ----- -- ----,55172.69999999995,55172.39999999991,54860.491,54860.89999999991,54877.159,55177.38,,31,close
screen,html.Screen,0_2_0_1_32,2021-12-13T14:26:43.346Z,,,,,,,,,,,,,,,,53,,,,,,,,,,,,,,299.31999999995605,,response,,,99,,,,,,Space,keypress(Space),,,,,---- -- ----- -- ------ - ------- --- ----------<br>------------- ------ ------ ---- ---- ------- ----- -- ----<br>-------- ------- -- ---------- --- - --- ----- ----- ----<br>---- --- --- ----- you ---- ---- ------- ----- ---- -------<br>--- --- -- ----- -- --- ---- -- --- ---- -- ------ ------<br>--- ----- -- ----,55477.69999999995,55476.69999999995,55160.708,55172.89999999991,55177.38,55493.968,,32,you
screen,html.Screen,0_2_0_1_33,2021-12-13T14:26:43.673Z,,,,,,,,,,,,,,,,53,,,,,,,,,,,,,,310.3320000000458,,response,,,99,,,,,,Space,keypress(Space),,,,,---- -- ----- -- ------ - ------- --- ----------<br>------------- ------ ------ ---- ---- ------- ----- -- ----<br>-------- ------- -- ---------- --- - --- ----- ----- ----<br>---- --- --- ----- --- feel ---- ------- ----- ---- -------<br>--- --- -- ----- -- --- ---- -- --- ---- -- ------ ------<br>--- ----- -- ----,55804.69999999995,55804.30000000005,55477.3,55477.89999999991,55493.968,55810.821,,33,feel
screen,html.Screen,0_2_0_1_34,2021-12-13T14:26:44.017Z,,,,,,,,,,,,,,,,53,,,,,,,,,,,,,,337.7790000000896,,response,,,99,,,,,,Space,keypress(Space),,,,,---- -- ----- -- ------ - ------- --- ----------<br>------------- ------ ------ ---- ---- ------- ----- -- ----<br>-------- ------- -- ---------- --- - --- ----- ----- ----<br>---- --- --- ----- --- ---- that ------- ----- ---- -------<br>--- --- -- ----- -- --- ---- -- --- ---- -- ------ ------<br>--- ----- -- ----,56149.30000000005,56148.60000000009,55794.15,55804.80000000005,55810.821,56160.921,,34,that
screen,html.Screen,0_2_0_1_35,2021-12-13T14:26:44.457Z,,,,,,,,,,,,,,,,53,,,,,,,,,,,,,,427.37900000004447,,response,,,99,,,,,,Space,keypress(Space),,,,,---- -- ----- -- ------ - ------- --- ----------<br>------------- ------ ------ ---- ---- ------- ----- -- ----<br>-------- ------- -- ---------- --- - --- ----- ----- ----<br>---- --- --- ----- --- ---- ---- matters ----- ---- -------<br>--- --- -- ----- -- --- ---- -- --- ---- -- ------ ------<br>--- ----- -- ----,56588.69999999995,56588.30000000005,56144.25,56149.5,56160.921,56594.269,,35,matters
screen,html.Screen,0_2_0_1_36,2021-12-13T14:26:44.985Z,,,,,,,,,,,,,,,,53,,,,,,,,,,,,,,521.9309999999532,,response,,,99,,,,,,Space,keypress(Space),,,,,"---- -- ----- -- ------ - ------- --- ----------<br>------------- ------ ------ ---- ---- ------- ----- -- ----<br>-------- ------- -- ---------- --- - --- ----- ----- ----<br>---- --- --- ----- --- ---- ---- ------- most, ---- -------<br>--- --- -- ----- -- --- ---- -- --- ---- -- ------ ------<br>--- ----- -- ----",57116.69999999995,57116.19999999995,56577.6,56588.69999999995,56594.269,57127.835,,36,"most,"
screen,html.Screen,0_2_0_1_37,2021-12-13T14:26:45.385Z,,,,,,,,,,,,,,,,53,,,,,,,,,,,,,,388.765000000094,,response,,,99,,,,,,Space,keypress(Space),,,,,---- -- ----- -- ------ - ------- --- ----------<br>------------- ------ ------ ---- ---- ------- ----- -- ----<br>-------- ------- -- ---------- --- - --- ----- ----- ----<br>---- --- --- ----- --- ---- ---- ------- ----- it's -------<br>--- --- -- ----- -- --- ---- -- --- ---- -- ------ ------<br>--- ----- -- ----,57517.30000000005,57516.60000000009,57111.164,57116.69999999995,57127.835,57527.94,,37,it's
screen,html.Screen,0_2_0_1_38,2021-12-13T14:26:45.577Z,,,,,,,,,,,,,,,,53,,,,,,,,,,,,,,180.55999999999767,,response,,,99,,,,,,Space,keypress(Space),,,,,---- -- ----- -- ------ - ------- --- ----------<br>------------- ------ ------ ---- ---- ------- ----- -- ----<br>-------- ------- -- ---------- --- - --- ----- ----- ----<br>---- --- --- ----- --- ---- ---- ------- ----- ---- whether<br>--- --- -- ----- -- --- ---- -- --- ---- -- ------ ------<br>--- ----- -- ----,57709.30000000005,57708.5,57511.269,57517.5,57527.94,57711.269,,38,whether
screen,html.Screen,0_2_0_1_39,2021-12-13T14:26:46.953Z,,,,,,,,,,,,,,,,53,,,,,,,,,,,,,,1372.831000000093,,response,,,99,,,,,,Space,keypress(Space),,,,,---- -- ----- -- ------ - ------- --- ----------<br>------------- ------ ------ ---- ---- ------- ----- -- ----<br>-------- ------- -- ---------- --- - --- ----- ----- ----<br>---- --- --- ----- --- ---- ---- ------- ----- ---- -------<br>you --- -- ----- -- --- ---- -- --- ---- -- ------ ------<br>--- ----- -- ----,59084.39999999991,59084.10000000009,57694.599,57709.5,57711.269,59095.007,,39,you
screen,html.Screen,0_2_0_1_40,2021-12-13T14:26:47.425Z,,,,,,,,,,,,,,,,53,,,,,,,,,,,,,,461.2930000000488,,response,,,99,,,,,,Space,keypress(Space),,,,,---- -- ----- -- ------ - ------- --- ----------<br>------------- ------ ------ ---- ---- ------- ----- -- ----<br>-------- ------- -- ---------- --- - --- ----- ----- ----<br>---- --- --- ----- --- ---- ---- ------- ----- ---- -------<br>--- are -- ----- -- --- ---- -- --- ---- -- ------ ------<br>--- ----- -- ----,59556.80000000005,59556.30000000005,59078.336,59084.39999999991,59095.007,59561.497,,40,are
screen,html.Screen,0_2_0_1_41,2021-12-13T14:26:47.849Z,,,,,,,,,,,,,,,,53,,,,,,,,,,,,,,418.7029999999504,,response,,,99,,,,,,Space,keypress(Space),,,,,---- -- ----- -- ------ - ------- --- ----------<br>------------- ------ ------ ---- ---- ------- ----- -- ----<br>-------- ------- -- ---------- --- - --- ----- ----- ----<br>---- --- --- ----- --- ---- ---- ------- ----- ---- -------<br>--- --- as ----- -- --- ---- -- --- ---- -- ------ ------<br>--- ----- -- ----,59980.69999999995,59980.19999999995,59544.829,59557,59561.497,59995.171,,41,as
screen,html.Screen,0_2_0_1_42,2021-12-13T14:26:48.243Z,,,,,,,,,,,,,,,,53,,,,,,,,,,,,,,376.7289999999048,,response,,,99,,,,,,Space,keypress(Space),,,,,---- -- ----- -- ------ - ------- --- ----------<br>------------- ------ ------ ---- ---- ------- ----- -- ----<br>-------- ------- -- ---------- --- - --- ----- ----- ----<br>---- --- --- ----- --- ---- ---- ------- ----- ---- -------<br>--- --- -- close -- --- ---- -- --- ---- -- ------ ------<br>--- ----- -- ----,60372.30000000005,60371.89999999991,59978.501,59980.80000000005,59995.171,60378.657,,42,close
screen,html.Screen,0_2_0_1_43,2021-12-13T14:26:48.587Z,,,,,,,,,,,,,,,,53,,,,,,,,,,,,,,337.34300000000076,,response,,,99,,,,,,Space,keypress(Space),,,,,---- -- ----- -- ------ - ------- --- ----------<br>------------- ------ ------ ---- ---- ------- ----- -- ----<br>-------- ------- -- ---------- --- - --- ----- ----- ----<br>---- --- --- ----- --- ---- ---- ------- ----- ---- -------<br>--- --- -- ----- as --- ---- -- --- ---- -- ------ ------<br>--- ----- -- ----,60716.30000000005,60716,60361.986,60372.30000000005,60378.657,60728.697,,43,as
screen,html.Screen,0_2_0_1_44,2021-12-13T14:26:48.948Z,,,,,,,,,,,,,,,,53,,,,,,,,,,,,,,347.3029999999999,,response,,,99,,,,,,Space,keypress(Space),,,,,---- -- ----- -- ------ - ------- --- ----------<br>------------- ------ ------ ---- ---- ------- ----- -- ----<br>-------- ------- -- ---------- --- - --- ----- ----- ----<br>---- --- --- ----- --- ---- ---- ------- ----- ---- -------<br>--- --- -- ----- -- you ---- -- --- ---- -- ------ ------<br>--- ----- -- ----,61076.69999999995,61076,60712.027,60716.39999999991,60728.697,61078.792,,44,you
screen,html.Screen,0_2_0_1_45,2021-12-13T14:26:49.324Z,,,,,,,,,,,,,,,,53,,,,,,,,,,,,,,373.2079999999987,,response,,,99,,,,,,Space,keypress(Space),,,,,---- -- ----- -- ------ - ------- --- ----------<br>------------- ------ ------ ---- ---- ------- ----- -- ----<br>-------- ------- -- ---------- --- - --- ----- ----- ----<br>---- --- --- ----- --- ---- ---- ------- ----- ---- -------<br>--- --- -- ----- -- --- want -- --- ---- -- ------ ------<br>--- ----- -- ----,61452.5,61452,61062.122,61076.89999999991,61078.792,61462.209,,45,want
screen,html.Screen,0_2_0_1_46,2021-12-13T14:26:49.684Z,,,,,,,,,,,,,,,,53,,,,,,,,,,,,,,349.89100000009057,,response,,,99,,,,,,Space,keypress(Space),,,,,---- -- ----- -- ------ - ------- --- ----------<br>------------- ------ ------ ---- ---- ------- ----- -- ----<br>-------- ------- -- ---------- --- - --- ----- ----- ----<br>---- --- --- ----- --- ---- ---- ------- ----- ---- -------<br>--- --- -- ----- -- --- ---- to --- ---- -- ------ ------<br>--- ----- -- ----,61812.69999999995,61812.10000000009,61445.539,61452.60000000009,61462.209,61828.976,,46,to
screen,html.Screen,0_2_0_1_47,2021-12-13T14:26:49.996Z,,,,,,,,,,,,,,,,53,,,,,,,,,,,,,,295.3240000000442,,response,,,99,,,,,,Space,keypress(Space),,,,,"---- -- ----- -- ------ - ------- --- ----------<br>------------- ------ ------ ---- ---- ------- ----- -- ----<br>-------- ------- -- ---------- --- - --- ----- ----- ----<br>---- --- --- ----- --- ---- ---- ------- ----- ---- -------<br>--- --- -- ----- -- --- ---- -- be, ---- -- ------ ------<br>--- ----- -- ----",62125,62124.30000000005,61812.306,61812.89999999991,61828.976,62129.044,,47,"be,"
screen,html.Screen,0_2_0_1_48,2021-12-13T14:26:50.420Z,,,,,,,,,,,,,,,,53,,,,,,,,,,,,,,419.2560000000449,,response,,,99,,,,,,Space,keypress(Space),,,,,---- -- ----- -- ------ - ------- --- ----------<br>------------- ------ ------ ---- ---- ------- ----- -- ----<br>-------- ------- -- ---------- --- - --- ----- ----- ----<br>---- --- --- ----- --- ---- ---- ------- ----- ---- -------<br>--- --- -- ----- -- --- ---- -- --- even -- ------ ------<br>--- ----- -- ----,62549.10000000009,62548.30000000005,62112.374,62125.30000000005,62129.044,62562.491,,48,even
screen,html.Screen,0_2_0_1_49,2021-12-13T14:26:50.732Z,,,,,,,,,,,,,,,,53,,,,,,,,,,,,,,297.6090000000913,,response,,,99,,,,,,Space,keypress(Space),,,,,---- -- ----- -- ------ - ------- --- ----------<br>------------- ------ ------ ---- ---- ------- ----- -- ----<br>-------- ------- -- ---------- --- - --- ----- ----- ----<br>---- --- --- ----- --- ---- ---- ------- ----- ---- -------<br>--- --- -- ----- -- --- ---- -- --- ---- if ------ ------<br>--- ----- -- ----,62860.5,62860.10000000009,62545.821,62549.30000000005,62562.491,62862.558,,49,if
screen,html.Screen,0_2_0_1_50,2021-12-13T14:26:51.140Z,,,,,,,,,,,,,,,,53,,,,,,,,,,,,,,405.3419999999096,,response,,,99,,,,,,Space,keypress(Space),,,,,---- -- ----- -- ------ - ------- --- ----------<br>------------- ------ ------ ---- ---- ------- ----- -- ----<br>-------- ------- -- ---------- --- - --- ----- ----- ----<br>---- --- --- ----- --- ---- ---- ------- ----- ---- -------<br>--- --- -- ----- -- --- ---- -- --- ---- -- that's ------<br>--- ----- -- ----,63268.30000000005,63267.89999999991,62845.888,62860.5,62862.558,63279.333,,50,that's
screen,html.Screen,0_2_0_1_51,2021-12-13T14:26:51.540Z,,,,,,,,,,,,,,,,53,,,,,,,,,,,,,,388.56699999990815,,response,,,99,,,,,,Space,keypress(Space),,,,,---- -- ----- -- ------ - ------- --- ----------<br>------------- ------ ------ ---- ---- ------- ----- -- ----<br>-------- ------- -- ---------- --- - --- ----- ----- ----<br>---- --- --- ----- --- ---- ---- ------- ----- ---- -------<br>--- --- -- ----- -- --- ---- -- --- ---- -- ------ really<br>--- ----- -- ----,63668.30000000005,63667.89999999991,63262.663,63268.39999999991,63279.333,63679.431,,51,really
screen,html.Screen,0_2_0_1_52,2021-12-13T14:26:51.907Z,,,,,,,,,,,,,,,,53,,,,,,,,,,,,,,356.3690000000497,,response,,,99,,,,,,Space,keypress(Space),,,,,---- -- ----- -- ------ - ------- --- ----------<br>------------- ------ ------ ---- ---- ------- ----- -- ----<br>-------- ------- -- ---------- --- - --- ----- ----- ----<br>---- --- --- ----- --- ---- ---- ------- ----- ---- -------<br>--- --- -- ----- -- --- ---- -- --- ---- -- ------ ------<br>not ----- -- ----,64036.10000000009,64035.80000000005,63662.761,63668.39999999991,63679.431,64046.195,,52,not
screen,html.Screen,0_2_0_1_53,2021-12-13T14:26:52.212Z,,,,,,,,,,,,,,,,53,,,,,,,,,,,,,,293.70499999990716,,response,,,99,,,,,,Space,keypress(Space),,,,,---- -- ----- -- ------ - ------- --- ----------<br>------------- ------ ------ ---- ---- ------- ----- -- ----<br>-------- ------- -- ---------- --- - --- ----- ----- ----<br>---- --- --- ----- --- ---- ---- ------- ----- ---- -------<br>--- --- -- ----- -- --- ---- -- --- ---- -- ------ ------<br>--- close -- ----,64340.60000000009,64339.89999999991,64029.525,64036.30000000005,64046.195,64346.39,,53,close
screen,html.Screen,0_2_0_1_54,2021-12-13T14:26:52.539Z,,,,,,,,,,,,,,,,53,,,,,,,,,,,,,,321.41000000004715,,response,,,99,,,,,,Space,keypress(Space),,,,,---- -- ----- -- ------ - ------- --- ----------<br>------------- ------ ------ ---- ---- ------- ----- -- ----<br>-------- ------- -- ---------- --- - --- ----- ----- ----<br>---- --- --- ----- --- ---- ---- ------- ----- ---- -------<br>--- --- -- ----- -- --- ---- -- --- ---- -- ------ ------<br>--- ----- at ----,64668.19999999995,64667.80000000005,64329.718,64340.69999999995,64346.39,64679.628,,54,at
screen,html.Screen,0_2_0_1_55,2021-12-13T14:26:52.811Z,,,,,,,,,,,,,,,,53,,,,,,,,,,,,,,260.2719999999099,,response,,,99,,,,,,Space,keypress(Space),,,,,---- -- ----- -- ------ - ------- --- ----------<br>------------- ------ ------ ---- ---- ------- ----- -- ----<br>-------- ------- -- ---------- --- - --- ----- ----- ----<br>---- --- --- ----- --- ---- ---- ------- ----- ---- -------<br>--- --- -- ----- -- --- ---- -- --- ---- -- ------ ------<br>--- ----- -- all.,64940.10000000009,64939.89999999991,64662.96,64668.39999999991,64679.628,64946.424,,55,all.
Item 99,flow.Loop,0_2_0_1,2021-12-13T14:26:52.812Z,,,,,,,,,,,,,,,,,,,,,,,,,,,,,,23949.545999999908,,completion,,,,D,,,,,,,,,,silence,,64941.19999999995,64939.89999999991,40790.314,40795.19999999995,40990.354,64946.424,,,
Question 1,html.Screen,0_2_0_2,2021-12-13T14:26:56.939Z,,,,,,,,,,,,,,,,,,,,,,,,,,,true,FALSE,,4121.176000000094,,response,,,99,D,,,,,FALSE,click #choice-2,,,,silence,,69068.30000000005,69067.6000000001,64929.754,64941.19999999995,64946.424,69080.782,,,
Question 2,html.Screen,0_2_0_3,2021-12-13T14:27:02.116Z,,,,,,,,,,,,,,,,,,,,,,,,,,,true,TRUE,,5162.6179999999,,response,,,99,D,,,,,TRUE,click #choice-1,,,,silence,,74244.6000000001,74243.3999999999,69064.113,69068.3999999999,69080.782,74248.766,,,
Item 99,flow.Sequence,0_2_0,2021-12-13T14:27:02.116Z,,,,,,,,,,,,,,,,,,,,,,,,,,,,,,43438.91599999991,,completion,,,,,,,,,,,,,,,,74245,74243.3999999999,30787.814,30798.699999999953,30804.484,74248.766,,,
Holding screen,html.Screen,0_2_1_0,2021-12-13T14:27:12.107Z,,,,,,,,,,,,,,,,,,,,,,,,,,,,,,10002.483999999997,,timeout,,,,,,,,,,,,,,,,84236.1000000001,84234.58,74232.096,74245.3999999999,74248.766,84251.25,,,
screen,html.Screen,0_2_1_1_0,2021-12-13T14:27:14.090Z,,,,,,,,,,,,,,,,54,,,,,,,,,,,,,,1967.4499999999534,,response,,,100,,,,,,Space,keypress(Space),,,,,At --- ---- --- ------ ----- ------- ---- -- --- ------- --<br>------- ---------- ------ -- ----- -- ----- -- ---- ------<br>--- ----- --- --- ------ -------- ----- --- ------ ----- --<br>----- ----- ---------- --- --- ------ ------ ---- -- ------<br>------- --- ------ ----- --- ---- ------- -- ---- --- --<br>------- ------,86219.1000000001,86218.69999999995,84234.58,84236.19999999995,84251.25,86235.194,,0,At
screen,html.Screen,0_2_1_1_1,2021-12-13T14:27:14.530Z,,,,,,,,,,,,,,,,54,,,,,,,,,,,,,,423.2059999999037,,response,,,100,,,,,,Space,keypress(Space),,,,,-- the ---- --- ------ ----- ------- ---- -- --- ------- --<br>------- ---------- ------ -- ----- -- ----- -- ---- ------<br>--- ----- --- --- ------ -------- ----- --- ------ ----- --<br>----- ----- ---------- --- --- ------ ------ ---- -- ------<br>------- --- ------ ----- --- ---- ------- -- ---- --- --<br>------- ------,86658.8999999999,86658.3999999999,86218.523,86219.1000000001,86235.194,86668.584,,1,the
screen,html.Screen,0_2_1_1_2,2021-12-13T14:27:15.202Z,,,,,,,,,,,,,,,,54,,,,,,,,,,,,,,661.716000000044,,response,,,100,,,,,,Space,keypress(Space),,,,,-- --- time --- ------ ----- ------- ---- -- --- ------- --<br>------- ---------- ------ -- ----- -- ----- -- ---- ------<br>--- ----- --- --- ------ -------- ----- --- ------ ----- --<br>----- ----- ---------- --- --- ------ ------ ---- -- ------<br>------- --- ------ ----- --- ---- ------- -- ---- --- --<br>------- ------,87330.6000000001,87330.30000000005,86651.914,86658.8999999999,86668.584,87335.352,,2,time
screen,html.Screen,0_2_1_1_3,2021-12-13T14:27:15.650Z,,,,,,,,,,,,,,,,54,,,,,,,,,,,,,,442.9480000000476,,response,,,100,,,,,,Space,keypress(Space),,,,,-- --- ---- the ------ ----- ------- ---- -- --- ------- --<br>------- ---------- ------ -- ----- -- ----- -- ---- ------<br>--- ----- --- --- ------ -------- ----- --- ------ ----- --<br>----- ----- ---------- --- --- ------ ------ ---- -- ------<br>------- --- ------ ----- --- ---- ------- -- ---- --- --<br>------- ------,87778.6000000001,87778.30000000005,87318.682,87330.69999999995,87335.352,87785.533,,3,the
screen,html.Screen,0_2_1_1_4,2021-12-13T14:27:16.074Z,,,,,,,,,,,,,,,,54,,,,,,,,,,,,,,416.86699999991106,,response,,,100,,,,,,Space,keypress(Space),,,,,-- --- ---- --- French ----- ------- ---- -- --- ------- --<br>------- ---------- ------ -- ----- -- ----- -- ---- ------<br>--- ----- --- --- ------ -------- ----- --- ------ ----- --<br>----- ----- ---------- --- --- ------ ------ ---- -- ------<br>------- --- ------ ----- --- ---- ------- -- ---- --- --<br>------- ------,88203,88202.3999999999,87768.862,87778.69999999995,87785.533,88218.98,,4,French
screen,html.Screen,0_2_1_1_5,2021-12-13T14:27:16.482Z,,,,,,,,,,,,,,,,54,,,,,,,,,,,,,,391.32000000005064,,response,,,100,,,,,,Space,keypress(Space),,,,,-- --- ---- --- ------ crown ------- ---- -- --- ------- --<br>------- ---------- ------ -- ----- -- ----- -- ---- ------<br>--- ----- --- --- ------ -------- ----- --- ------ ----- --<br>----- ----- ---------- --- --- ------ ------ ---- -- ------<br>------- --- ------ ----- --- ---- ------- -- ---- --- --<br>------- ------,88610.8999999999,88610.30000000005,88202.309,88203.1000000001,88218.98,88619.032,,5,crown
screen,html.Screen,0_2_1_1_6,2021-12-13T14:27:16.874Z,,,,,,,,,,,,,,,,54,,,,,,,,,,,,,,383.26800000004005,,response,,,100,,,,,,Space,keypress(Space),,,,,-- --- ---- --- ------ ----- secured ---- -- --- ------- --<br>------- ---------- ------ -- ----- -- ----- -- ---- ------<br>--- ----- --- --- ------ -------- ----- --- ------ ----- --<br>----- ----- ---------- --- --- ------ ------ ---- -- ------<br>------- --- ------ ----- --- ---- ------- -- ---- --- --<br>------- ------,89002.6000000001,89002.30000000005,88602.362,88611,88619.032,89019.142,,6,secured
screen,html.Screen,0_2_1_1_7,2021-12-13T14:27:17.218Z,,,,,,,,,,,,,,,,54,,,,,,,,,,,,,,327.15800000003946,,response,,,100,,,,,,Space,keypress(Space),,,,,-- --- ---- --- ------ ----- ------- much -- --- ------- --<br>------- ---------- ------ -- ----- -- ----- -- ---- ------<br>--- ----- --- --- ------ -------- ----- --- ------ ----- --<br>----- ----- ---------- --- --- ------ ------ ---- -- ------<br>------- --- ------ ----- --- ---- ------- -- ---- --- --<br>------- ------,89346.6000000001,89346.30000000005,89002.472,89002.6000000001,89019.142,89352.612,,7,much
screen,html.Screen,0_2_1_1_8,2021-12-13T14:27:17.610Z,,,,,,,,,,,,,,,,54,,,,,,,,,,,,,,385.5879999999597,,response,,,100,,,,,,Space,keypress(Space),,,,,-- --- ---- --- ------ ----- ------- ---- of --- ------- --<br>------- ---------- ------ -- ----- -- ----- -- ---- ------<br>--- ----- --- --- ------ -------- ----- --- ------ ----- --<br>----- ----- ---------- --- --- ------ ------ ---- -- ------<br>------- --- ------ ----- --- ---- ------- -- ---- --- --<br>------- ------,89738.6000000001,89738.19999999995,89335.941,89346.69999999995,89352.612,89752.649,,8,of
screen,html.Screen,0_2_1_1_9,2021-12-13T14:27:17.866Z,,,,,,,,,,,,,,,,54,,,,,,,,,,,,,,241.55099999994854,,response,,,100,,,,,,Space,keypress(Space),,,,,-- --- ---- --- ------ ----- ------- ---- -- its ------- --<br>------- ---------- ------ -- ----- -- ----- -- ---- ------<br>--- ----- --- --- ------ -------- ----- --- ------ ----- --<br>----- ----- ---------- --- --- ------ ------ ---- -- ------<br>------- --- ------ ----- --- ---- ------- -- ---- --- --<br>------- ------,89994.5,89994.19999999995,89735.979,89738.69999999995,89752.649,90002.732,,9,its
screen,html.Screen,0_2_1_1_10,2021-12-13T14:27:18.250Z,,,,,,,,,,,,,,,,54,,,,,,,,,,,,,,375.4679999999498,,response,,,100,,,,,,Space,keypress(Space),,,,,-- --- ---- --- ------ ----- ------- ---- -- --- revenue --<br>------- ---------- ------ -- ----- -- ----- -- ---- ------<br>--- ----- --- --- ------ -------- ----- --- ------ ----- --<br>----- ----- ---------- --- --- ------ ------ ---- -- ------<br>------- --- ------ ----- --- ---- ------- -- ---- --- --<br>------- ------,90378.5,90378.19999999995,89986.062,89994.6000000001,90002.732,90386.144,,10,revenue
screen,html.Screen,0_2_1_1_11,2021-12-13T14:27:18.722Z,,,,,,,,,,,,,,,,54,,,,,,,,,,,,,,463.9560000000929,,response,,,100,,,,,,Space,keypress(Space),,,,,-- --- ---- --- ------ ----- ------- ---- -- --- ------- by<br>------- ---------- ------ -- ----- -- ----- -- ---- ------<br>--- ----- --- --- ------ -------- ----- --- ------ ----- --<br>----- ----- ---------- --- --- ------ ------ ---- -- ------<br>------- --- ------ ----- --- ---- ------- -- ---- --- --<br>------- ------,90850.3999999999,90850.1000000001,90369.474,90378.5,90386.144,90852.987,,11,by
screen,html.Screen,0_2_1_1_12,2021-12-13T14:27:19.170Z,,,,,,,,,,,,,,,,54,,,,,,,,,,,,,,445.41299999991315,,response,,,100,,,,,,Space,keypress(Space),,,,,-- --- ---- --- ------ ----- ------- ---- -- --- ------- --<br>issuing ---------- ------ -- ----- -- ----- -- ---- ------<br>--- ----- --- --- ------ -------- ----- --- ------ ----- --<br>----- ----- ---------- --- --- ------ ------ ---- -- ------<br>------- --- ------ ----- --- ---- ------- -- ---- --- --<br>------- ------,91299.19999999995,91298.3999999999,90836.316,90850.5,90852.987,91303.099,,12,issuing
screen,html.Screen,0_2_1_1_13,2021-12-13T14:27:19.722Z,,,,,,,,,,,,,,,,54,,,,,,,,,,,,,,547.3009999999049,,response,,,100,,,,,,Space,keypress(Space),,,,,-- --- ---- --- ------ ----- ------- ---- -- --- ------- --<br>------- government ------ -- ----- -- ----- -- ---- ------<br>--- ----- --- --- ------ -------- ----- --- ------ ----- --<br>----- ----- ---------- --- --- ------ ------ ---- -- ------<br>------- --- ------ ----- --- ---- ------- -- ---- --- --<br>------- ------,91851.19999999995,91850.3999999999,91286.428,91299.5,91303.099,91853.254,,13,government
screen,html.Screen,0_2_1_1_14,2021-12-13T14:27:20.235Z,,,,,,,,,,,,,,,,54,,,,,,,,,,,,,,509.14599999990605,,response,,,100,,,,,,Space,keypress(Space),,,,,-- --- ---- --- ------ ----- ------- ---- -- --- ------- --<br>------- ---------- bonds. -- ----- -- ----- -- ---- ------<br>--- ----- --- --- ------ -------- ----- --- ------ ----- --<br>----- ----- ---------- --- --- ------ ------ ---- -- ------<br>------- --- ------ ----- --- ---- ------- -- ---- --- --<br>------- ------,92363.30000000005,92362.3999999999,91836.583,91851.5,91853.254,92369.85,,14,bonds.
screen,html.Screen,0_2_1_1_15,2021-12-13T14:27:22.121Z,,,,,,,,,,,,,,,,54,,,,,,,,,,,,,,1880.049999999901,,response,,,100,,,,,,Space,keypress(Space),,,,,-- --- ---- --- ------ ----- ------- ---- -- --- ------- --<br>------- ---------- ------ In ----- -- ----- -- ---- ------<br>--- ----- --- --- ------ -------- ----- --- ------ ----- --<br>----- ----- ---------- --- --- ------ ------ ---- -- ------<br>------- --- ------ ----- --- ---- ------- -- ---- --- --<br>------- ------,94250.19999999995,94249.8999999999,92353.182,92363.6000000001,92369.85,94253.714,,15,In
screen,html.Screen,0_2_1_1_16,2021-12-13T14:27:22.906Z,,,,,,,,,,,,,,,,54,,,,,,,,,,,,,,780.2859999999928,,response,,,100,,,,,,Space,keypress(Space),,,,,"-- --- ---- --- ------ ----- ------- ---- -- --- ------- --<br>------- ---------- ------ -- 1727, -- ----- -- ---- ------<br>--- ----- --- --- ------ -------- ----- --- ------ ----- --<br>----- ----- ---------- --- --- ------ ------ ---- -- ------<br>------- --- ------ ----- --- ---- ------- -- ---- --- --<br>------- ------",95034.30000000005,95034,94237.044,94250.30000000005,94253.714,95037.297,,16,"1727,"
screen,html.Screen,0_2_1_1_17,2021-12-13T14:27:23.386Z,,,,,,,,,,,,,,,,54,,,,,,,,,,,,,,476.70299999999406,,response,,,100,,,,,,Space,keypress(Space),,,,,-- --- ---- --- ------ ----- ------- ---- -- --- ------- --<br>------- ---------- ------ -- ----- in ----- -- ---- ------<br>--- ----- --- --- ------ -------- ----- --- ------ ----- --<br>----- ----- ---------- --- --- ------ ------ ---- -- ------<br>------- --- ------ ----- --- ---- ------- -- ---- --- --<br>------- ------,95514.3999999999,95514,95020.627,95034.5,95037.297,95520.846,,17,in
screen,html.Screen,0_2_1_1_18,2021-12-13T14:27:23.698Z,,,,,,,,,,,,,,,,54,,,,,,,,,,,,,,305.3539999999484,,response,,,100,,,,,,Space,keypress(Space),,,,,-- --- ---- --- ------ ----- ------- ---- -- --- ------- --<br>------- ---------- ------ -- ----- -- order -- ---- ------<br>--- ----- --- --- ------ -------- ----- --- ------ ----- --<br>----- ----- ---------- --- --- ------ ------ ---- -- ------<br>------- --- ------ ----- --- ---- ------- -- ---- --- --<br>------- ------,95827.1000000001,95826.19999999995,95504.175,95514.6000000001,95520.846,95837.608,,18,order
screen,html.Screen,0_2_1_1_19,2021-12-13T14:27:24.025Z,,,,,,,,,,,,,,,,54,,,,,,,,,,,,,,316.29199999991397,,response,,,100,,,,,,Space,keypress(Space),,,,,-- --- ---- --- ------ ----- ------- ---- -- --- ------- --<br>------- ---------- ------ -- ----- -- ----- to ---- ------<br>--- ----- --- --- ------ -------- ----- --- ------ ----- --<br>----- ----- ---------- --- --- ------ ------ ---- -- ------<br>------- --- ------ ----- --- ---- ------- -- ---- --- --<br>------- ------,96154.19999999995,96153.8999999999,95820.937,95827.30000000005,95837.608,96170.99,,19,to
screen,html.Screen,0_2_1_1_20,2021-12-13T14:27:24.305Z,,,,,,,,,,,,,,,,54,,,,,,,,,,,,,,262.90999999990163,,response,,,100,,,,,,Space,keypress(Space),,,,,-- --- ---- --- ------ ----- ------- ---- -- --- ------- --<br>------- ---------- ------ -- ----- -- ----- -- save ------<br>--- ----- --- --- ------ -------- ----- --- ------ ----- --<br>----- ----- ---------- --- --- ------ ------ ---- -- ------<br>------- --- ------ ----- --- ---- ------- -- ---- --- --<br>------- ------,96434.19999999995,96433.8999999999,96154.32,96154.3999999999,96170.99,96437.771,,20,save
screen,html.Screen,0_2_1_1_21,2021-12-13T14:27:24.561Z,,,,,,,,,,,,,,,,54,,,,,,,,,,,,,,252.0290000000532,,response,,,100,,,,,,Space,keypress(Space),,,,,"-- --- ---- --- ------ ----- ------- ---- -- --- ------- --<br>------- ---------- ------ -- ----- -- ----- -- ---- money,<br>--- ----- --- --- ------ -------- ----- --- ------ ----- --<br>----- ----- ---------- --- --- ------ ------ ---- -- ------<br>------- --- ------ ----- --- ---- ------- -- ---- --- --<br>------- ------",96690.19999999995,96689.80000000005,96421.1,96434.3999999999,96437.771,96704.48,,21,"money,"
screen,html.Screen,0_2_1_1_22,2021-12-13T14:27:25.130Z,,,,,,,,,,,,,,,,54,,,,,,,,,,,,,,553.6200000000972,,response,,,100,,,,,,Space,keypress(Space),,,,,-- --- ---- --- ------ ----- ------- ---- -- --- ------- --<br>------- ---------- ------ -- ----- -- ----- -- ---- ------<br>the ----- --- --- ------ -------- ----- --- ------ ----- --<br>----- ----- ---------- --- --- ------ ------ ---- -- ------<br>------- --- ------ ----- --- ---- ------- -- ---- --- --<br>------- ------,97258.8999999999,97258.1000000001,96687.81,96690.19999999995,96704.48,97271.061,,22,the
screen,html.Screen,0_2_1_1_23,2021-12-13T14:27:25.434Z,,,,,,,,,,,,,,,,54,,,,,,,,,,,,,,291.0390000000916,,response,,,100,,,,,,Space,keypress(Space),,,,,-- --- ---- --- ------ ----- ------- ---- -- --- ------- --<br>------- ---------- ------ -- ----- -- ----- -- ---- ------<br>--- state --- --- ------ -------- ----- --- ------ ----- --<br>----- ----- ---------- --- --- ------ ------ ---- -- ------<br>------- --- ------ ----- --- ---- ------- -- ---- --- --<br>------- ------,97562.8999999999,97562.1000000001,97254.394,97259.1000000001,97271.061,97571.457,,23,state
screen,html.Screen,0_2_1_1_24,2021-12-13T14:27:25.706Z,,,,,,,,,,,,,,,,54,,,,,,,,,,,,,,262.64300000009825,,response,,,100,,,,,,Space,keypress(Space),,,,,-- --- ---- --- ------ ----- ------- ---- -- --- ------- --<br>------- ---------- ------ -- ----- -- ----- -- ---- ------<br>--- ----- cut --- ------ -------- ----- --- ------ ----- --<br>----- ----- ---------- --- --- ------ ------ ---- -- ------<br>------- --- ------ ----- --- ---- ------- -- ---- --- --<br>------- ------,97834.80000000005,97834.1000000001,97554.783,97563.1000000001,97571.457,97838.022,,24,cut
screen,html.Screen,0_2_1_1_25,2021-12-13T14:27:26.050Z,,,,,,,,,,,,,,,,54,,,,,,,,,,,,,,340.0780000000959,,response,,,100,,,,,,Space,keypress(Space),,,,,-- --- ---- --- ------ ----- ------- ---- -- --- ------- --<br>------- ---------- ------ -- ----- -- ----- -- ---- ------<br>--- ----- --- the ------ -------- ----- --- ------ ----- --<br>----- ----- ---------- --- --- ------ ------ ---- -- ------<br>------- --- ------ ----- --- ---- ------- -- ---- --- --<br>------- ------,98178.8999999999,98178.1000000001,97821.353,97835.1000000001,97838.022,98188.075,,25,the
screen,html.Screen,0_2_1_1_26,2021-12-13T14:27:26.378Z,,,,,,,,,,,,,,,,54,,,,,,,,,,,,,,317.9250000000029,,response,,,100,,,,,,Space,keypress(Space),,,,,-- --- ---- --- ------ ----- ------- ---- -- --- ------- --<br>------- ---------- ------ -- ----- -- ----- -- ---- ------<br>--- ----- --- --- bonds' -------- ----- --- ------ ----- --<br>----- ----- ---------- --- --- ------ ------ ---- -- ------<br>------- --- ------ ----- --- ---- ------- -- ---- --- --<br>------- ------,98506.69999999995,98506,98171.406,98179.1000000001,98188.075,98521.566,,26,bonds'
screen,html.Screen,0_2_1_1_27,2021-12-13T14:27:26.882Z,,,,,,,,,,,,,,,,54,,,,,,,,,,,,,,488.43399999999383,,response,,,100,,,,,,Space,keypress(Space),,,,,-- --- ---- --- ------ ----- ------- ---- -- --- ------- --<br>------- ---------- ------ -- ----- -- ----- -- ---- ------<br>--- ----- --- --- ------ interest ----- --- ------ ----- --<br>----- ----- ---------- --- --- ------ ------ ---- -- ------<br>------- --- ------ ----- --- ---- ------- -- ---- --- --<br>------- ------,99010.69999999995,99010,98504.895,98506.8999999999,98521.566,99021.709,,27,interest
screen,html.Screen,0_2_1_1_28,2021-12-13T14:27:27.241Z,,,,,,,,,,,,,,,,54,,,,,,,,,,,,,,347.9909999999509,,response,,,100,,,,,,Space,keypress(Space),,,,,-- --- ---- --- ------ ----- ------- ---- -- --- ------- --<br>------- ---------- ------ -- ----- -- ----- -- ---- ------<br>--- ----- --- --- ------ -------- rate. --- ------ ----- --<br>----- ----- ---------- --- --- ------ ------ ---- -- ------<br>------- --- ------ ----- --- ---- ------- -- ---- --- --<br>------- ------,99370,99369.69999999995,99005.038,99011.1000000001,99021.709,99371.907,,28,rate.
screen,html.Screen,0_2_1_1_29,2021-12-13T14:27:27.746Z,,,,,,,,,,,,,,,,54,,,,,,,,,,,,,,501.99299999990035,,response,,,100,,,,,,Space,keypress(Space),,,,,-- --- ---- --- ------ ----- ------- ---- -- --- ------- --<br>------- ---------- ------ -- ----- -- ----- -- ---- ------<br>--- ----- --- --- ------ -------- ----- The ------ ----- --<br>----- ----- ---------- --- --- ------ ------ ---- -- ------<br>------- --- ------ ----- --- ---- ------- -- ---- --- --<br>------- ------,99874.80000000005,99873.8999999999,99355.235,99370.1000000001,99371.907,99888.492,,29,The
screen,html.Screen,0_2_1_1_30,2021-12-13T14:27:28.058Z,,,,,,,,,,,,,,,,54,,,,,,,,,,,,,,297.4079999999085,,response,,,100,,,,,,Space,keypress(Space),,,,,-- --- ---- --- ------ ----- ------- ---- -- --- ------- --<br>------- ---------- ------ -- ----- -- ----- -- ---- ------<br>--- ----- --- --- ------ -------- ----- --- market ----- --<br>----- ----- ---------- --- --- ------ ------ ---- -- ------<br>------- --- ------ ----- --- ---- ------- -- ---- --- --<br>------- ------,100186.69999999995,100185.8999999999,99871.823,99875,99888.492,100188.751,,30,market
screen,html.Screen,0_2_1_1_31,2021-12-13T14:27:28.402Z,,,,,,,,,,,,,,,,54,,,,,,,,,,,,,,341.0490000000427,,response,,,100,,,,,,Space,keypress(Space),,,,,-- --- ---- --- ------ ----- ------- ---- -- --- ------- --<br>------- ---------- ------ -- ----- -- ----- -- ---- ------<br>--- ----- --- --- ------ -------- ----- --- ------ value --<br>----- ----- ---------- --- --- ------ ------ ---- -- ------<br>------- --- ------ ----- --- ---- ------- -- ---- --- --<br>------- ------,100530.69999999995,100529.80000000005,100172.079,100187,100188.751,100538.642,,31,value
screen,html.Screen,0_2_1_1_32,2021-12-13T14:27:28.794Z,,,,,,,,,,,,,,,,54,,,,,,,,,,,,,,383.25799999989977,,response,,,100,,,,,,Space,keypress(Space),,,,,-- --- ---- --- ------ ----- ------- ---- -- --- ------- --<br>------- ---------- ------ -- ----- -- ----- -- ---- ------<br>--- ----- --- --- ------ -------- ----- --- ------ ----- of<br>----- ----- ---------- --- --- ------ ------ ---- -- ------<br>------- --- ------ ----- --- ---- ------- -- ---- --- --<br>------- ------,100922.80000000005,100921.8999999999,100521.974,100530.8999999999,100538.642,100938.848,,32,of
screen,html.Screen,0_2_1_1_33,2021-12-13T14:27:29.129Z,,,,,,,,,,,,,,,,54,,,,,,,,,,,,,,318.8519999999553,,response,,,100,,,,,,Space,keypress(Space),,,,,-- --- ---- --- ------ ----- ------- ---- -- --- ------- --<br>------- ---------- ------ -- ----- -- ----- -- ---- ------<br>--- ----- --- --- ------ -------- ----- --- ------ ----- --<br>these ----- ---------- --- --- ------ ------ ---- -- ------<br>------- --- ------ ----- --- ---- ------- -- ---- --- --<br>------- ------,101258.19999999995,101257.69999999995,100922.177,100922.8999999999,100938.848,101272.227,,33,these
screen,html.Screen,0_2_1_1_34,2021-12-13T14:27:29.377Z,,,,,,,,,,,,,,,,54,,,,,,,,,,,,,,233.37300000009418,,response,,,100,,,,,,Space,keypress(Space),,,,,-- --- ---- --- ------ ----- ------- ---- -- --- ------- --<br>------- ---------- ------ -- ----- -- ----- -- ---- ------<br>--- ----- --- --- ------ -------- ----- --- ------ ----- --<br>----- bonds ---------- --- --- ------ ------ ---- -- ------<br>------- --- ------ ----- --- ---- ------- -- ---- --- --<br>------- ------,101506,101505.6000000001,101255.557,101258.3999999999,101272.227,101522.33,,34,bonds
screen,html.Screen,0_2_1_1_35,2021-12-13T14:27:29.945Z,,,,,,,,,,,,,,,,54,,,,,,,,,,,,,,551.0699999999051,,response,,,100,,,,,,Space,keypress(Space),,,,,"-- --- ---- --- ------ ----- ------- ---- -- --- ------- --<br>------- ---------- ------ -- ----- -- ----- -- ---- ------<br>--- ----- --- --- ------ -------- ----- --- ------ ----- --<br>----- ----- plummeted, --- --- ------ ------ ---- -- ------<br>------- --- ------ ----- --- ---- ------- -- ---- --- --<br>------- ------",102073.69999999995,102073.3999999999,101505.659,101506.1000000001,101522.33,102089.234,,35,"plummeted,"
screen,html.Screen,0_2_1_1_36,2021-12-13T14:27:30.426Z,,,,,,,,,,,,,,,,54,,,,,,,,,,,,,,464.3660000000964,,response,,,100,,,,,,Space,keypress(Space),,,,,-- --- ---- --- ------ ----- ------- ---- -- --- ------- --<br>------- ---------- ------ -- ----- -- ----- -- ---- ------<br>--- ----- --- --- ------ -------- ----- --- ------ ----- --<br>----- ----- ---------- and --- ------ ------ ---- -- ------<br>------- --- ------ ----- --- ---- ------- -- ---- --- --<br>------- ------,102554.3999999999,102553.6000000001,102072.562,102073.80000000005,102089.234,102555.904,,36,and
screen,html.Screen,0_2_1_1_37,2021-12-13T14:27:30.770Z,,,,,,,,,,,,,,,,54,,,,,,,,,,,,,,341.8960000000516,,response,,,100,,,,,,Space,keypress(Space),,,,,-- --- ---- --- ------ ----- ------- ---- -- --- ------- --<br>------- ---------- ------ -- ----- -- ----- -- ---- ------<br>--- ----- --- --- ------ -------- ----- --- ------ ----- --<br>----- ----- ---------- --- the ------ ------ ---- -- ------<br>------- --- ------ ----- --- ---- ------- -- ---- --- --<br>------- ------,102898.6000000001,102897.80000000005,102539.234,102554.5,102555.904,102905.941,,37,the
screen,html.Screen,0_2_1_1_38,2021-12-13T14:27:31.057Z,,,,,,,,,,,,,,,,54,,,,,,,,,,,,,,279.4589999999007,,response,,,100,,,,,,Space,keypress(Space),,,,,-- --- ---- --- ------ ----- ------- ---- -- --- ------- --<br>------- ---------- ------ -- ----- -- ----- -- ---- ------<br>--- ----- --- --- ------ -------- ----- --- ------ ----- --<br>----- ----- ---------- --- --- market ------ ---- -- ------<br>------- --- ------ ----- --- ---- ------- -- ---- --- --<br>------- ------,103185.8999999999,103185.3999999999,102889.272,102898.8999999999,102905.941,103189.5,,38,market
screen,html.Screen,0_2_1_1_39,2021-12-13T14:27:31.457Z,,,,,,,,,,,,,,,,54,,,,,,,,,,,,,,395.89999999990687,,response,,,100,,,,,,Space,keypress(Space),,,,,-- --- ---- --- ------ ----- ------- ---- -- --- ------- --<br>------- ---------- ------ -- ----- -- ----- -- ---- ------<br>--- ----- --- --- ------ -------- ----- --- ------ ----- --<br>----- ----- ---------- --- --- ------ became ---- -- ------<br>------- --- ------ ----- --- ---- ------- -- ---- --- --<br>------- ------,103585.8999999999,103585.3999999999,103172.828,103186.1000000001,103189.5,103589.411,,39,became
screen,html.Screen,0_2_1_1_40,2021-12-13T14:27:31.833Z,,,,,,,,,,,,,,,,54,,,,,,,,,,,,,,371.9889999999141,,response,,,100,,,,,,Space,keypress(Space),,,,,-- --- ---- --- ------ ----- ------- ---- -- --- ------- --<br>------- ---------- ------ -- ----- -- ----- -- ---- ------<br>--- ----- --- --- ------ -------- ----- --- ------ ----- --<br>----- ----- ---------- --- --- ------ ------ wary -- ------<br>------- --- ------ ----- --- ---- ------- -- ---- --- --<br>------- ------,103961.69999999995,103961.3999999999,103572.743,103586.1000000001,103589.411,103973.06,,40,wary
screen,html.Screen,0_2_1_1_41,2021-12-13T14:27:32.178Z,,,,,,,,,,,,,,,,54,,,,,,,,,,,,,,332.63999999995576,,response,,,100,,,,,,Space,keypress(Space),,,,,-- --- ---- --- ------ ----- ------- ---- -- --- ------- --<br>------- ---------- ------ -- ----- -- ----- -- ---- ------<br>--- ----- --- --- ------ -------- ----- --- ------ ----- --<br>----- ----- ---------- --- --- ------ ------ ---- of ------<br>------- --- ------ ----- --- ---- ------- -- ---- --- --<br>------- ------,104306.6000000001,104305.69999999995,103956.387,103961.8999999999,103973.06,104323.023,,41,of
screen,html.Screen,0_2_1_1_42,2021-12-13T14:27:32.561Z,,,,,,,,,,,,,,,,54,,,,,,,,,,,,,,366.2770000000455,,response,,,100,,,,,,Space,keypress(Space),,,,,-- --- ---- --- ------ ----- ------- ---- -- --- ------- --<br>------- ---------- ------ -- ----- -- ----- -- ---- ------<br>--- ----- --- --- ------ -------- ----- --- ------ ----- --<br>----- ----- ---------- --- --- ------ ------ ---- -- French<br>------- --- ------ ----- --- ---- ------- -- ---- --- --<br>------- ------,104689.6000000001,104689.30000000005,104306.353,104306.80000000005,104323.023,104706.334,,42,French
screen,html.Screen,0_2_1_1_43,2021-12-13T14:27:32.978Z,,,,,,,,,,,,,,,,54,,,,,,,,,,,,,,399.16599999999744,,response,,,100,,,,,,Space,keypress(Space),,,,,-- --- ---- --- ------ ----- ------- ---- -- --- ------- --<br>------- ---------- ------ -- ----- -- ----- -- ---- ------<br>--- ----- --- --- ------ -------- ----- --- ------ ----- --<br>----- ----- ---------- --- --- ------ ------ ---- -- ------<br>credit. --- ------ ----- --- ---- ------- -- ---- --- --<br>------- ------,105106.3999999999,105105.5,104689.666,104689.80000000005,104706.334,105123.265,,43,credit.
screen,html.Screen,0_2_1_1_44,2021-12-13T14:27:33.513Z,,,,,,,,,,,,,,,,54,,,,,,,,,,,,,,518.0350000000471,,response,,,100,,,,,,Space,keypress(Space),,,,,-- --- ---- --- ------ ----- ------- ---- -- --- ------- --<br>------- ---------- ------ -- ----- -- ----- -- ---- ------<br>--- ----- --- --- ------ -------- ----- --- ------ ----- --<br>----- ----- ---------- --- --- ------ ------ ---- -- ------<br>------- The ------ ----- --- ---- ------- -- ---- --- --<br>------- ------,105641.80000000005,105641.30000000005,105106.594,105106.69999999995,105123.265,105656.765,,44,The
screen,html.Screen,0_2_1_1_45,2021-12-13T14:27:33.857Z,,,,,,,,,,,,,,,,54,,,,,,,,,,,,,,328.7350000000006,,response,,,100,,,,,,Space,keypress(Space),,,,,-- --- ---- --- ------ ----- ------- ---- -- --- ------- --<br>------- ---------- ------ -- ----- -- ----- -- ---- ------<br>--- ----- --- --- ------ -------- ----- --- ------ ----- --<br>----- ----- ---------- --- --- ------ ------ ---- -- ------<br>------- --- French ----- --- ---- ------- -- ---- --- --<br>------- ------,105986.19999999995,105985.5,105640.093,105641.8999999999,105656.765,105989.965,,45,French
screen,html.Screen,0_2_1_1_46,2021-12-13T14:27:34.185Z,,,,,,,,,,,,,,,,54,,,,,,,,,,,,,,323.2349999999569,,response,,,100,,,,,,Space,keypress(Space),,,,,-- --- ---- --- ------ ----- ------- ---- -- --- ------- --<br>------- ---------- ------ -- ----- -- ----- -- ---- ------<br>--- ----- --- --- ------ -------- ----- --- ------ ----- --<br>----- ----- ---------- --- --- ------ ------ ---- -- ------<br>------- --- ------ state --- ---- ------- -- ---- --- --<br>------- ------,106313.5,106313.19999999995,105973.297,105986.3999999999,105989.965,106323.531,,46,state
screen,html.Screen,0_2_1_1_47,2021-12-13T14:27:34.618Z,,,,,,,,,,,,,,,,54,,,,,,,,,,,,,,422.3689999999042,,response,,,100,,,,,,Space,keypress(Space),,,,,-- --- ---- --- ------ ----- ------- ---- -- --- ------- --<br>------- ---------- ------ -- ----- -- ----- -- ---- ------<br>--- ----- --- --- ------ -------- ----- --- ------ ----- --<br>----- ----- ---------- --- --- ------ ------ ---- -- ------<br>------- --- ------ ----- was ---- ------- -- ---- --- --<br>------- ------,106746.80000000005,106745.8999999999,106306.86,106313.6000000001,106323.531,106756.922,,47,was
screen,html.Screen,0_2_1_1_48,2021-12-13T14:27:34.993Z,,,,,,,,,,,,,,,,54,,,,,,,,,,,,,,364.2779999999475,,response,,,100,,,,,,Space,keypress(Space),,,,,-- --- ---- --- ------ ----- ------- ---- -- --- ------- --<br>------- ---------- ------ -- ----- -- ----- -- ---- ------<br>--- ----- --- --- ------ -------- ----- --- ------ ----- --<br>----- ----- ---------- --- --- ------ ------ ---- -- ------<br>------- --- ------ ----- --- left ------- -- ---- --- --<br>------- ------,107121.6000000001,107121.19999999995,106740.252,106746.8999999999,106756.922,107123.88,,48,left
screen,html.Screen,0_2_1_1_49,2021-12-13T14:27:35.345Z,,,,,,,,,,,,,,,,54,,,,,,,,,,,,,,349.2200000000885,,response,,,100,,,,,,Space,keypress(Space),,,,,-- --- ---- --- ------ ----- ------- ---- -- --- ------- --<br>------- ---------- ------ -- ----- -- ----- -- ---- ------<br>--- ----- --- --- ------ -------- ----- --- ------ ----- --<br>----- ----- ---------- --- --- ------ ------ ---- -- ------<br>------- --- ------ ----- --- ---- without -- ---- --- --<br>------- ------,107473.5,107473.1000000001,107107.207,107121.69999999995,107123.88,107490.418,,49,without
screen,html.Screen,0_2_1_1_50,2021-12-13T14:27:35.665Z,,,,,,,,,,,,,,,,54,,,,,,,,,,,,,,302.7819999999483,,response,,,100,,,,,,Space,keypress(Space),,,,,-- --- ---- --- ------ ----- ------- ---- -- --- ------- --<br>------- ---------- ------ -- ----- -- ----- -- ---- ------<br>--- ----- --- --- ------ -------- ----- --- ------ ----- --<br>----- ----- ---------- --- --- ------ ------ ---- -- ------<br>------- --- ------ ----- --- ---- ------- an ---- --- --<br>------- ------,107793.6000000001,107793.19999999995,107473.749,107473.6000000001,107490.418,107807.28,,50,an
screen,html.Screen,0_2_1_1_51,2021-12-13T14:27:35.977Z,,,,,,,,,,,,,,,,54,,,,,,,,,,,,,,298.22000000000116,,response,,,100,,,,,,Space,keypress(Space),,,,,-- --- ---- --- ------ ----- ------- ---- -- --- ------- --<br>------- ---------- ------ -- ----- -- ----- -- ---- ------<br>--- ----- --- --- ------ -------- ----- --- ------ ----- --<br>----- ----- ---------- --- --- ------ ------ ---- -- ------<br>------- --- ------ ----- --- ---- ------- -- easy --- --<br>------- ------,108106.30000000005,108105.5,107790.608,107793.69999999995,107807.28,108107.196,,51,easy
screen,html.Screen,0_2_1_1_52,2021-12-13T14:27:36.361Z,,,,,,,,,,,,,,,,54,,,,,,,,,,,,,,382.00399999995716,,response,,,100,,,,,,Space,keypress(Space),,,,,-- --- ---- --- ------ ----- ------- ---- -- --- ------- --<br>------- ---------- ------ -- ----- -- ----- -- ---- ------<br>--- ----- --- --- ------ -------- ----- --- ------ ----- --<br>----- ----- ---------- --- --- ------ ------ ---- -- ------<br>------- --- ------ ----- --- ---- ------- -- ---- way --<br>------- ------,108489.5,108489.19999999995,108090.528,108106.5,108107.196,108490.812,,52,way
screen,html.Screen,0_2_1_1_53,2021-12-13T14:27:36.705Z,,,,,,,,,,,,,,,,54,,,,,,,,,,,,,,342.18799999999464,,response,,,100,,,,,,Space,keypress(Space),,,,,-- --- ---- --- ------ ----- ------- ---- -- --- ------- --<br>------- ---------- ------ -- ----- -- ----- -- ---- ------<br>--- ----- --- --- ------ -------- ----- --- ------ ----- --<br>----- ----- ---------- --- --- ------ ------ ---- -- ------<br>------- --- ------ ----- --- ---- ------- -- ---- --- of<br>------- ------,108833.3999999999,108833,108474.139,108489.6000000001,108490.812,108840.665,,53,of
screen,html.Screen,0_2_1_1_54,2021-12-13T14:27:37.025Z,,,,,,,,,,,,,,,,54,,,,,,,,,,,,,,312.53499999995984,,response,,,100,,,,,,Space,keypress(Space),,,,,-- --- ---- --- ------ ----- ------- ---- -- --- ------- --<br>------- ---------- ------ -- ----- -- ----- -- ---- ------<br>--- ----- --- --- ------ -------- ----- --- ------ ----- --<br>----- ----- ---------- --- --- ------ ------ ---- -- ------<br>------- --- ------ ----- --- ---- ------- -- ---- --- --<br>raising ------,109153.3999999999,109153.19999999995,108823.998,108833.5,108840.665,109157.619,,54,raising
screen,html.Screen,0_2_1_1_55,2021-12-13T14:27:37.417Z,,,,,,,,,,,,,,,,54,,,,,,,,,,,,,,387.7809999999008,,response,,,100,,,,,,Space,keypress(Space),,,,,-- --- ---- --- ------ ----- ------- ---- -- --- ------- --<br>------- ---------- ------ -- ----- -- ----- -- ---- ------<br>--- ----- --- --- ------ -------- ----- --- ------ ----- --<br>----- ----- ---------- --- --- ------ ------ ---- -- ------<br>------- --- ------ ----- --- ---- ------- -- ---- --- --<br>------- money.,109546.1000000001,109545.3999999999,109140.947,109153.6000000001,109157.619,109557.55,,55,money.
Item 100,flow.Loop,0_2_1_1,2021-12-13T14:27:37.418Z,,,,,,,,,,,,,,,,,,,,,,,,,,,,,,25294.149999999907,,completion,,,,D,,,,,,,,,,silence,,109546.6000000001,109545.3999999999,84234.58,84236.1000000001,84251.25,109557.55,,,
Question 1,html.Screen,0_2_1_2,2021-12-13T14:27:40.409Z,,,,,,,,,,,,,,,,,,,,,,,,,,,true,TRUE,,2979.349999999904,,response,,,100,D,,,,,TRUE,click #choice-1,,,,silence,,112538.19999999995,112536.8999999999,109540.882,109546.69999999995,109557.55,112541.783,,,
Question 2,html.Screen,0_2_1_3,2021-12-13T14:27:42.913Z,,,,,,,,,,,,,,,,,,,,,,,,,,,true,FALSE,,2499.0170000000508,,response,,,100,D,,,,,FALSE,click #choice-2,,,,silence,,115042.19999999995,115040.80000000005,112525.113,112538.3999999999,112541.783,115042.413,,,
Item 100,flow.Sequence,0_2_1,2021-12-13T14:27:42.914Z,,,,,,,,,,,,,,,,,,,,,,,,,,,,,,40792.03400000004,,completion,,,,,,,,,,,,,,,,115042.6000000001,115040.80000000005,74232.096,74245.30000000005,74248.766,115042.413,,,
End of Practice,html.Page,0_2_2,2021-12-13T14:27:47.809Z,,,,,,,,,,,,,,,,,,,,,,,,,,,,,,4894.887000000046,,form submission,,,,,,,,,,,,,,,,119937.6000000001,119937.30000000005,115025.742,115042.69999999995,115042.413,119943.619,,,
Practice,flow.Sequence,0_2,2021-12-13T14:27:47.809Z,,,,,,,,,,,,,,,,,,,,,,,,,,,,,,89132.81600000005,,completion,,,,,,,,,,,,,,,,119937.80000000005,119937.30000000005,30787.814,30798.699999999953,30804.484,119943.619,,,
Trap_instruction,html.Page,0_3_0,2021-12-13T14:27:50.557Z,,,,,,,,,,,,,,,,,,,,,,,,,,,,,,2738.1810000000405,,form submission,,,,,,,,,,,,,,,,122682.19999999995,122681.80000000005,119926.949,119937.8999999999,119943.619,122710.822,,,
trap_trial,html.Screen,0_3_1,2021-12-13T14:27:53.428Z,,,,,,,,,,,,,,,,,,,,,,,,,,,true,1,,2841.178,,response,,,,,,,,,1,click #choice-1,,,,,,125552.80000000005,125552,122677.482,122682.5,122710.822,125562.267,,,
end of trap trial,html.Page,0_3_2,2021-12-13T14:27:55.173Z,,,,,,,,,,,,,,,,,,,,,,,,,,,,,,1735.333000000086,,form submission,,,,,,,,,,,,,,,,127298.1000000001,127297.6000000001,125545.593,125553,125562.267,127312.105,,,
Trap 1,flow.Sequence,0_3,2021-12-13T14:27:55.173Z,,,,,,,,,,,,,,,,,,,,,,,,,,,,,,7353.981000000087,,completion,,,,,,,,,,,,,,,,127298.3999999999,127297.6000000001,119926.949,119937.8999999999,119943.619,127312.105,,,
Standby,html.Page,0_4_0,2021-12-13T14:28:03.173Z,,,,,,,,,,,,,,,,,,,,,,,,,,,,,,8001.623000000007,,timeout,,,,,,,,,,,,,,,,135297.69999999995,135297.058,127295.435,127298.6000000001,127312.105,135313.728,,,
Holding screen,html.Screen,0_4_1_0_0,2021-12-13T14:28:10.176Z,,,,,,,,,,,,,,,,,,,,,,,,,,,,,,7002.093999999983,,timeout,,,,,,,,,,,,,,,,142300.69999999995,142299.152,135297.058,135297.80000000005,135313.728,142315.822,,,
screen,html.Screen,0_4_1_0_1_0,2021-12-13T14:28:12.147Z,,,,,,,,,,,,,,,,51,,,,,,,,,,,,,,1955.2780000001076,,response,,,13,D,,,,,Space,keypress(Space),,,,silence,American -------- --- --- ---- --- --- ------ -- --------<br>---- --------- --- ------- ------------ ---------- ---------<br>--- ---------- ------- ---------- ------- -- -------- ----<br>---- --- ------ ----- ------ -- ---- --- ----- -- - -------<br>-------- -- --- --- -- ----- ----------- ----- -----------<br>---- --- ---------- --- ---- --- -- ----------,144271.5,144271.1000000001,142299.152,142301,142315.822,144282.953,,0,American
screen,html.Screen,0_4_1_0_1_1,2021-12-13T14:28:12.659Z,,,,,,,,,,,,,,,,51,,,,,,,,,,,,,,500.2469999999448,,response,,,13,D,,,,,Space,keypress(Space),,,,silence,-------- industry --- --- ---- --- --- ------ -- --------<br>---- --------- --- ------- ------------ ---------- ---------<br>--- ---------- ------- ---------- ------- -- -------- ----<br>---- --- ------ ----- ------ -- ---- --- ----- -- - -------<br>-------- -- --- --- -- ----- ----------- ----- -----------<br>---- --- ---------- --- ---- --- -- ----------,144784.19999999995,144783.19999999995,144266.283,144271.6000000001,144282.953,144799.94,,1,industry
screen,html.Screen,0_4_1_0_1_2,2021-12-13T14:28:13.066Z,,,,,,,,,,,,,,,,51,,,,,,,,,,,,,,390.95999999990454,,response,,,13,D,,,,,Space,keypress(Space),,,,silence,-------- -------- may --- ---- --- --- ------ -- --------<br>---- --------- --- ------- ------------ ---------- ---------<br>--- ---------- ------- ---------- ------- -- -------- ----<br>---- --- ------ ----- ------ -- ---- --- ----- -- - -------<br>-------- -- --- --- -- ----- ----------- ----- -----------<br>---- --- ---------- --- ---- --- -- ----------,145191.19999999995,145190.8999999999,144783.269,144784.3999999999,144799.94,145199.94,,2,may
screen,html.Screen,0_4_1_0_1_3,2021-12-13T14:28:13.467Z,,,,,,,,,,,,,,,,51,,,,,,,,,,,,,,390.95999999990454,,response,,,13,D,,,,,Space,keypress(Space),,,,silence,-------- -------- --- not ---- --- --- ------ -- --------<br>---- --------- --- ------- ------------ ---------- ---------<br>--- ---------- ------- ---------- ------- -- -------- ----<br>---- --- ------ ----- ------ -- ---- --- ----- -- - -------<br>-------- -- --- --- -- ----- ----------- ----- -----------<br>---- --- ---------- --- ---- --- -- ----------,145591.3999999999,145590.8999999999,145183.27,145191.30000000005,145199.94,145600.033,,3,not
screen,html.Screen,0_4_1_0_1_4,2021-12-13T14:28:13.866Z,,,,,,,,,,,,,,,,51,,,,,,,,,,,,,,390.86699999991106,,response,,,13,D,,,,,Space,keypress(Space),,,,silence,-------- -------- --- --- know --- --- ------ -- --------<br>---- --------- --- ------- ------------ ---------- ---------<br>--- ---------- ------- ---------- ------- -- -------- ----<br>---- --- ------ ----- ------ -- ---- --- ----- -- - -------<br>-------- -- --- --- -- ----- ----------- ----- -----------<br>---- --- ---------- --- ---- --- -- ----------,145991.19999999995,145990.8999999999,145583.363,145591.6000000001,145600.033,146000.24,,4,know
screen,html.Screen,0_4_1_0_1_5,2021-12-13T14:28:14.234Z,,,,,,,,,,,,,,,,51,,,,,,,,,,,,,,358.5600000000559,,response,,,13,D,,,,,Space,keypress(Space),,,,silence,"-------- -------- --- --- ---- it, --- ------ -- --------<br>---- --------- --- ------- ------------ ---------- ---------<br>--- ---------- ------- ---------- ------- -- -------- ----<br>---- --- ------ ----- ------ -- ---- --- ----- -- - -------<br>-------- -- --- --- -- ----- ----------- ----- -----------<br>---- --- ---------- --- ---- --- -- ----------",146359.1000000001,146358.80000000005,145983.568,145991.30000000005,146000.24,146366.804,,5,"it,"
screen,html.Screen,0_4_1_0_1_6,2021-12-13T14:28:14.795Z,,,,,,,,,,,,,,,,51,,,,,,,,,,,,,,552.0959999999031,,response,,,13,D,,,,,Space,keypress(Space),,,,silence,-------- -------- --- --- ---- --- but ------ -- --------<br>---- --------- --- ------- ------------ ---------- ---------<br>--- ---------- ------- ---------- ------- -- -------- ----<br>---- --- ------ ----- ------ -- ---- --- ----- -- - -------<br>-------- -- --- --- -- ----- ----------- ----- -----------<br>---- --- ---------- --- ---- --- -- ----------,146919.6000000001,146918.8999999999,146350.136,146359.1000000001,146366.804,146933.841,,6,but
screen,html.Screen,0_4_1_0_1_7,2021-12-13T14:28:15.146Z,,,,,,,,,,,,,,,,51,,,,,,,,,,,,,,336.85899999996764,,response,,,13,D,,,,,Space,keypress(Space),,,,silence,-------- -------- --- --- ---- --- --- debate -- --------<br>---- --------- --- ------- ------------ ---------- ---------<br>--- ---------- ------- ---------- ------- -- -------- ----<br>---- --- ------ ----- ------ -- ---- --- ----- -- - -------<br>-------- -- --- --- -- ----- ----------- ----- -----------<br>---- --- ---------- --- ---- --- -- ----------,147271,147270.69999999995,146917.168,146919.80000000005,146933.841,147283.68,,7,debate
screen,html.Screen,0_4_1_0_1_8,2021-12-13T14:28:15.530Z,,,,,,,,,,,,,,,,51,,,,,,,,,,,,,,371.0199999999604,,response,,,13,D,,,,,Space,keypress(Space),,,,silence,-------- -------- --- --- ---- --- --- ------ in --------<br>---- --------- --- ------- ------------ ---------- ---------<br>--- ---------- ------- ---------- ------- -- -------- ----<br>---- --- ------ ----- ------ -- ---- --- ----- -- - -------<br>-------- -- --- --- -- ----- ----------- ----- -----------<br>---- --- ---------- --- ---- --- -- ----------,147655.1000000001,147654.69999999995,147267.012,147271.1000000001,147283.68,147667.282,,8,in
screen,html.Screen,0_4_1_0_1_9,2021-12-13T14:28:16.035Z,,,,,,,,,,,,,,,,51,,,,,,,,,,,,,,491.8180000000866,,response,,,13,D,,,,,Space,keypress(Space),,,,silence,-------- -------- --- --- ---- --- --- ------ -- Congress<br>---- --------- --- ------- ------------ ---------- ---------<br>--- ---------- ------- ---------- ------- -- -------- ----<br>---- --- ------ ----- ------ -- ---- --- ----- -- - -------<br>-------- -- --- --- -- ----- ----------- ----- -----------<br>---- --- ---------- --- ---- --- -- ----------,148159.8999999999,148159.1000000001,147650.611,147655.19999999995,147667.282,148167.225,,9,Congress
screen,html.Screen,0_4_1_0_1_10,2021-12-13T14:28:16.411Z,,,,,,,,,,,,,,,,51,,,,,,,,,,,,,,367.7749999999942,,response,,,13,D,,,,,Space,keypress(Space),,,,silence,-------- -------- --- --- ---- --- --- ------ -- --------<br>over --------- --- ------- ------------ ---------- ---------<br>--- ---------- ------- ---------- ------- -- -------- ----<br>---- --- ------ ----- ------ -- ---- --- ----- -- - -------<br>-------- -- --- --- -- ----- ----------- ----- -----------<br>---- --- ---------- --- ---- --- -- ----------,148535.69999999995,148535,148150.557,148160.19999999995,148167.225,148550.988,,10,over
screen,html.Screen,0_4_1_0_1_11,2021-12-13T14:28:16.915Z,,,,,,,,,,,,,,,,51,,,,,,,,,,,,,,488.0119999999879,,response,,,13,D,,,,,Space,keypress(Space),,,,silence,-------- -------- --- --- ---- --- --- ------ -- --------<br>---- reforming --- ------- ------------ ---------- ---------<br>--- ---------- ------- ---------- ------- -- -------- ----<br>---- --- ------ ----- ------ -- ---- --- ----- -- - -------<br>-------- -- --- --- -- ----- ----------- ----- -----------<br>---- --- ---------- --- ---- --- -- ----------,149039.80000000005,149039,148534.315,148535.80000000005,148550.988,149050.794,,11,reforming
screen,html.Screen,0_4_1_0_1_12,2021-12-13T14:28:17.298Z,,,,,,,,,,,,,,,,51,,,,,,,,,,,,,,371.8060000000987,,response,,,13,D,,,,,Space,keypress(Space),,,,silence,-------- -------- --- --- ---- --- --- ------ -- --------<br>---- --------- the ------- ------------ ---------- ---------<br>--- ---------- ------- ---------- ------- -- -------- ----<br>---- --- ------ ----- ------ -- ---- --- ----- -- - -------<br>-------- -- --- --- -- ----- ----------- ----- -----------<br>---- --- ---------- --- ---- --- -- ----------,149422.8999999999,149422.6000000001,149034.126,149040,149050.794,149434.335,,12,the
screen,html.Screen,0_4_1_0_1_13,2021-12-13T14:28:17.530Z,,,,,,,,,,,,,,,,51,,,,,,,,,,,,,,220.26500000010128,,response,,,13,D,,,,,Space,keypress(Space),,,,silence,-------- -------- --- --- ---- --- --- ------ -- --------<br>---- --------- --- federal ------------ ---------- ---------<br>--- ---------- ------- ---------- ------- -- -------- ----<br>---- --- ------ ----- ------ -- ---- --- ----- -- - -------<br>-------- -- --- --- -- ----- ----------- ----- -----------<br>---- --- ---------- --- ---- --- -- ----------,149654.8999999999,149654.6000000001,149417.665,149423.1000000001,149434.335,149667.824,,13,federal
screen,html.Screen,0_4_1_0_1_14,2021-12-13T14:28:17.978Z,,,,,,,,,,,,,,,,51,,,,,,,,,,,,,,434.8759999999602,,response,,,13,D,,,,,Space,keypress(Space),,,,silence,-------- -------- --- --- ---- --- --- ------ -- --------<br>---- --------- --- ------- government's ---------- ---------<br>--- ---------- ------- ---------- ------- -- -------- ----<br>---- --- ------ ----- ------ -- ---- --- ----- -- - -------<br>-------- -- --- --- -- ----- ----------- ----- -----------<br>---- --- ---------- --- ---- --- -- ----------,150103.3999999999,150102.69999999995,149651.152,149655,149667.824,150117.946,,14,government's
screen,html.Screen,0_4_1_0_1_15,2021-12-13T14:28:18.410Z,,,,,,,,,,,,,,,,51,,,,,,,,,,,,,,416.65400000009686,,response,,,13,D,,,,,Space,keypress(Space),,,,silence,-------- -------- --- --- ---- --- --- ------ -- --------<br>---- --------- --- ------- ------------ regulatory ---------<br>--- ---------- ------- ---------- ------- -- -------- ----<br>---- --- ------ ----- ------ -- ---- --- ----- -- - -------<br>-------- -- --- --- -- ----- ----------- ----- -----------<br>---- --- ---------- --- ---- --- -- ----------,150534.8999999999,150534.6000000001,150101.275,150103.6000000001,150117.946,150551.231,,15,regulatory
screen,html.Screen,0_4_1_0_1_16,2021-12-13T14:28:19.322Z,,,,,,,,,,,,,,,,51,,,,,,,,,,,,,,895.3690000000934,,response,,,13,D,,,,,Space,keypress(Space),,,,silence,-------- -------- --- --- ---- --- --- ------ -- --------<br>---- --------- --- ------- ------------ ---------- apparatus<br>--- ---------- ------- ---------- ------- -- -------- ----<br>---- --- ------ ----- ------ -- ---- --- ----- -- - -------<br>-------- -- --- --- -- ----- ----------- ----- -----------<br>---- --- ---------- --- ---- --- -- ----------,151447.30000000005,151446.6000000001,150534.563,150535,150551.231,151451.505,,16,apparatus
screen,html.Screen,0_4_1_0_1_17,2021-12-13T14:28:19.723Z,,,,,,,,,,,,,,,,51,,,,,,,,,,,,,,395.2950000000419,,response,,,13,D,,,,,Space,keypress(Space),,,,silence,-------- -------- --- --- ---- --- --- ------ -- --------<br>---- --------- --- ------- ------------ ---------- ---------<br>may ---------- ------- ---------- ------- -- -------- ----<br>---- --- ------ ----- ------ -- ---- --- ----- -- - -------<br>-------- -- --- --- -- ----- ----------- ----- -----------<br>---- --- ---------- --- ---- --- -- ----------,151847.6000000001,151846.80000000005,151434.835,151447.5,151451.505,151851.55,,17,may
screen,html.Screen,0_4_1_0_1_18,2021-12-13T14:28:20.042Z,,,,,,,,,,,,,,,,51,,,,,,,,,,,,,,314.95000000001164,,response,,,13,D,,,,,Space,keypress(Space),,,,silence,-------- -------- --- --- ---- --- --- ------ -- --------<br>---- --------- --- ------- ------------ ---------- ---------<br>--- profoundly ------- ---------- ------- -- -------- ----<br>---- --- ------ ----- ------ -- ---- --- ----- -- - -------<br>-------- -- --- --- -- ----- ----------- ----- -----------<br>---- --- ---------- --- ---- --- -- ----------,152166.8999999999,152166.5,151834.881,151847.8999999999,151851.55,152168.438,,18,profoundly
screen,html.Screen,0_4_1_0_1_19,2021-12-13T14:28:20.451Z,,,,,,,,,,,,,,,,51,,,,,,,,,,,,,,406.2619999999588,,response,,,13,D,,,,,Space,keypress(Space),,,,silence,-------- -------- --- --- ---- --- --- ------ -- --------<br>---- --------- --- ------- ------------ ---------- ---------<br>--- ---------- improve ---------- ------- -- -------- ----<br>---- --- ------ ----- ------ -- ---- --- ----- -- - -------<br>-------- -- --- --- -- ----- ----------- ----- -----------<br>---- --- ---------- --- ---- --- -- ----------,152575.6000000001,152574.69999999995,152151.767,152167,152168.438,152585.054,,19,improve
screen,html.Screen,0_4_1_0_1_20,2021-12-13T14:28:20.762Z,,,,,,,,,,,,,,,,51,,,,,,,,,,,,,,301.34599999990314,,response,,,13,D,,,,,Space,keypress(Space),,,,silence,-------- -------- --- --- ---- --- --- ------ -- --------<br>---- --------- --- ------- ------------ ---------- ---------<br>--- ---------- ------- companies' ------- -- -------- ----<br>---- --- ------ ----- ------ -- ---- --- ----- -- - -------<br>-------- -- --- --- -- ----- ----------- ----- -----------<br>---- --- ---------- --- ---- --- -- ----------,152886.80000000005,152886.3999999999,152568.386,152575.80000000005,152585.054,152901.87,,20,companies'
screen,html.Screen,0_4_1_0_1_21,2021-12-13T14:28:21.242Z,,,,,,,,,,,,,,,,51,,,,,,,,,,,,,,464.5299999999115,,response,,,13,D,,,,,Space,keypress(Space),,,,silence,-------- -------- --- --- ---- --- --- ------ -- --------<br>---- --------- --- ------- ------------ ---------- ---------<br>--- ---------- ------- ---------- ability -- -------- ----<br>---- --- ------ ----- ------ -- ---- --- ----- -- - -------<br>-------- -- --- --- -- ----- ----------- ----- -----------<br>---- --- ---------- --- ---- --- -- ----------,153366.69999999995,153366.3999999999,152885.2,152886.8999999999,152901.87,153368.652,,21,ability
screen,html.Screen,0_4_1_0_1_22,2021-12-13T14:28:21.554Z,,,,,,,,,,,,,,,,51,,,,,,,,,,,,,,309.94800000009127,,response,,,13,D,,,,,Space,keypress(Space),,,,silence,-------- -------- --- --- ---- --- --- ------ -- --------<br>---- --------- --- ------- ------------ ---------- ---------<br>--- ---------- ------- ---------- ------- to -------- ----<br>---- --- ------ ----- ------ -- ---- --- ----- -- - -------<br>-------- -- --- --- -- ----- ----------- ----- -----------<br>---- --- ---------- --- ---- --- -- ----------,153679.30000000005,153678.6000000001,153351.982,153366.80000000005,153368.652,153685.408,,22,to
screen,html.Screen,0_4_1_0_1_23,2021-12-13T14:28:21.786Z,,,,,,,,,,,,,,,,51,,,,,,,,,,,,,,224.99199999991106,,response,,,13,D,,,,,Space,keypress(Space),,,,silence,-------- -------- --- --- ---- --- --- ------ -- --------<br>---- --------- --- ------- ------------ ---------- ---------<br>--- ---------- ------- ---------- ------- -- survive. ----<br>---- --- ------ ----- ------ -- ---- --- ----- -- - -------<br>-------- -- --- --- -- ----- ----------- ----- -----------<br>---- --- ---------- --- ---- --- -- ----------,153910.8999999999,153910.3999999999,153668.738,153679.3999999999,153685.408,153918.79,,23,survive.
screen,html.Screen,0_4_1_0_1_24,2021-12-13T14:28:22.467Z,,,,,,,,,,,,,,,,51,,,,,,,,,,,,,,672.0100000000384,,response,,,13,D,,,,,Space,keypress(Space),,,,silence,-------- -------- --- --- ---- --- --- ------ -- --------<br>---- --------- --- ------- ------------ ---------- ---------<br>--- ---------- ------- ---------- ------- -- -------- This<br>---- --- ------ ----- ------ -- ---- --- ----- -- - -------<br>-------- -- --- --- -- ----- ----------- ----- -----------<br>---- --- ---------- --- ---- --- -- ----------,154591.5,154590.80000000005,153902.12,153911,153918.79,154602.484,,24,This
screen,html.Screen,0_4_1_0_1_25,2021-12-13T14:28:22.842Z,,,,,,,,,,,,,,,,51,,,,,,,,,,,,,,363.7159999999567,,response,,,13,D,,,,,Space,keypress(Space),,,,silence,-------- -------- --- --- ---- --- --- ------ -- --------<br>---- --------- --- ------- ------------ ---------- ---------<br>--- ---------- ------- ---------- ------- -- -------- ----<br>week --- ------ ----- ------ -- ---- --- ----- -- - -------<br>-------- -- --- --- -- ----- ----------- ----- -----------<br>---- --- ---------- --- ---- --- -- ----------,154966.5,154966.19999999995,154585.811,154591.69999999995,154602.484,154969.149,,25,week
screen,html.Screen,0_4_1_0_1_26,2021-12-13T14:28:23.146Z,,,,,,,,,,,,,,,,51,,,,,,,,,,,,,,301.45100000008824,,response,,,13,D,,,,,Space,keypress(Space),,,,silence,-------- -------- --- --- ---- --- --- ------ -- --------<br>---- --------- --- ------- ------------ ---------- ---------<br>--- ---------- ------- ---------- ------- -- -------- ----<br>---- the ------ ----- ------ -- ---- --- ----- -- - -------<br>-------- -- --- --- -- ----- ----------- ----- -----------<br>---- --- ---------- --- ---- --- -- ----------,155271.3999999999,155270.6000000001,154952.478,154966.6000000001,154969.149,155285.87,,26,the
screen,html.Screen,0_4_1_0_1_27,2021-12-13T14:28:23.442Z,,,,,,,,,,,,,,,,51,,,,,,,,,,,,,,280.5299999999115,,response,,,13,D,,,,,Space,keypress(Space),,,,silence,-------- -------- --- --- ---- --- --- ------ -- --------<br>---- --------- --- ------- ------------ ---------- ---------<br>--- ---------- ------- ---------- ------- -- -------- ----<br>---- --- Senate ----- ------ -- ---- --- ----- -- - -------<br>-------- -- --- --- -- ----- ----------- ----- -----------<br>---- --- ---------- --- ---- --- -- ----------,155567,155566.3999999999,155269.2,155271.6000000001,155285.87,155569.163,,27,Senate
screen,html.Screen,0_4_1_0_1_28,2021-12-13T14:28:23.802Z,,,,,,,,,,,,,,,,51,,,,,,,,,,,,,,357.03699999995297,,response,,,13,D,,,,,Space,keypress(Space),,,,silence,-------- -------- --- --- ---- --- --- ------ -- --------<br>---- --------- --- ------- ------------ ---------- ---------<br>--- ---------- ------- ---------- ------- -- -------- ----<br>---- --- ------ seems ------ -- ---- --- ----- -- - -------<br>-------- -- --- --- -- ----- ----------- ----- -----------<br>---- --- ---------- --- ---- --- -- ----------,155926.6000000001,155926.19999999995,155552.495,155567.19999999995,155569.163,155935.937,,28,seems
screen,html.Screen,0_4_1_0_1_29,2021-12-13T14:28:24.138Z,,,,,,,,,,,,,,,,51,,,,,,,,,,,,,,326.2629999999481,,response,,,13,D,,,,,Space,keypress(Space),,,,silence,-------- -------- --- --- ---- --- --- ------ -- --------<br>---- --------- --- ------- ------------ ---------- ---------<br>--- ---------- ------- ---------- ------- -- -------- ----<br>---- --- ------ ----- poised -- ---- --- ----- -- - -------<br>-------- -- --- --- -- ----- ----------- ----- -----------<br>---- --- ---------- --- ---- --- -- ----------,156262.6000000001,156262.19999999995,155919.268,155926.69999999995,155935.937,156269.432,,29,poised
screen,html.Screen,0_4_1_0_1_30,2021-12-13T14:28:24.618Z,,,,,,,,,,,,,,,,51,,,,,,,,,,,,,,472.86800000004587,,response,,,13,D,,,,,Space,keypress(Space),,,,silence,-------- -------- --- --- ---- --- --- ------ -- --------<br>---- --------- --- ------- ------------ ---------- ---------<br>--- ---------- ------- ---------- ------- -- -------- ----<br>---- --- ------ ----- ------ to ---- --- ----- -- - -------<br>-------- -- --- --- -- ----- ----------- ----- -----------<br>---- --- ---------- --- ---- --- -- ----------,156742.8999999999,156742.30000000005,156252.761,156262.69999999995,156269.432,156752.827,,30,to
screen,html.Screen,0_4_1_0_1_31,2021-12-13T14:28:24.938Z,,,,,,,,,,,,,,,,51,,,,,,,,,,,,,,309.3729999999632,,response,,,13,D,,,,,Space,keypress(Space),,,,silence,-------- -------- --- --- ---- --- --- ------ -- --------<br>---- --------- --- ------- ------------ ---------- ---------<br>--- ---------- ------- ---------- ------- -- -------- ----<br>---- --- ------ ----- ------ -- join --- ----- -- - -------<br>-------- -- --- --- -- ----- ----------- ----- -----------<br>---- --- ---------- --- ---- --- -- ----------,157062.69999999995,157062.19999999995,156736.157,156743.1000000001,156752.827,157069.596,,31,join
screen,html.Screen,0_4_1_0_1_32,2021-12-13T14:28:25.186Z,,,,,,,,,,,,,,,,51,,,,,,,,,,,,,,240.60399999996298,,response,,,13,D,,,,,Space,keypress(Space),,,,silence,-------- -------- --- --- ---- --- --- ------ -- --------<br>---- --------- --- ------- ------------ ---------- ---------<br>--- ---------- ------- ---------- ------- -- -------- ----<br>---- --- ------ ----- ------ -- ---- the ----- -- - -------<br>-------- -- --- --- -- ----- ----------- ----- -----------<br>---- --- ---------- --- ---- --- -- ----------,157310.6000000001,157310.19999999995,157052.926,157062.8999999999,157069.596,157319.66,,32,the
screen,html.Screen,0_4_1_0_1_33,2021-12-13T14:28:25.498Z,,,,,,,,,,,,,,,,51,,,,,,,,,,,,,,302.7399999999034,,response,,,13,D,,,,,Space,keypress(Space),,,,silence,-------- -------- --- --- ---- --- --- ------ -- --------<br>---- --------- --- ------- ------------ ---------- ---------<br>--- ---------- ------- ---------- ------- -- -------- ----<br>---- --- ------ ----- ------ -- ---- --- House -- - -------<br>-------- -- --- --- -- ----- ----------- ----- -----------<br>---- --- ---------- --- ---- --- -- ----------,157623.30000000005,157622.3999999999,157302.99,157310.69999999995,157319.66,157636.489,,33,House
screen,html.Screen,0_4_1_0_1_34,2021-12-13T14:28:25.809Z,,,,,,,,,,,,,,,,51,,,,,,,,,,,,,,297.5109999999986,,response,,,13,D,,,,,Space,keypress(Space),,,,silence,-------- -------- --- --- ---- --- --- ------ -- --------<br>---- --------- --- ------- ------------ ---------- ---------<br>--- ---------- ------- ---------- ------- -- -------- ----<br>---- --- ------ ----- ------ -- ---- --- ----- in - -------<br>-------- -- --- --- -- ----- ----------- ----- -----------<br>---- --- ---------- --- ---- --- -- ----------,157934.3999999999,157934,157619.816,157623.5,157636.489,157936.401,,34,in
screen,html.Screen,0_4_1_0_1_35,2021-12-13T14:28:26.050Z,,,,,,,,,,,,,,,,51,,,,,,,,,,,,,,237.899000000034,,response,,,13,D,,,,,Space,keypress(Space),,,,silence,-------- -------- --- --- ---- --- --- ------ -- --------<br>---- --------- --- ------- ------------ ---------- ---------<br>--- ---------- ------- ---------- ------- -- -------- ----<br>---- --- ------ ----- ------ -- ---- --- ----- -- a -------<br>-------- -- --- --- -- ----- ----------- ----- -----------<br>---- --- ---------- --- ---- --- -- ----------,158175.19999999995,158174.30000000005,157919.733,157934.3999999999,157936.401,158186.53,,35,a
screen,html.Screen,0_4_1_0_1_36,2021-12-13T14:28:26.402Z,,,,,,,,,,,,,,,,51,,,,,,,,,,,,,,339.86999999990803,,response,,,13,D,,,,,Space,keypress(Space),,,,silence,-------- -------- --- --- ---- --- --- ------ -- --------<br>---- --------- --- ------- ------------ ---------- ---------<br>--- ---------- ------- ---------- ------- -- -------- ----<br>---- --- ------ ----- ------ -- ---- --- ----- -- - massive<br>-------- -- --- --- -- ----- ----------- ----- -----------<br>---- --- ---------- --- ---- --- -- ----------,158527.19999999995,158526.3999999999,158169.86,158175.3999999999,158186.53,158536.79,,36,massive
screen,html.Screen,0_4_1_0_1_37,2021-12-13T14:28:26.754Z,,,,,,,,,,,,,,,,51,,,,,,,,,,,,,,341.5100000000384,,response,,,13,D,,,,,Space,keypress(Space),,,,silence,-------- -------- --- --- ---- --- --- ------ -- --------<br>---- --------- --- ------- ------------ ---------- ---------<br>--- ---------- ------- ---------- ------- -- -------- ----<br>---- --- ------ ----- ------ -- ---- --- ----- -- - -------<br>overhaul -- --- --- -- ----- ----------- ----- -----------<br>---- --- ---------- --- ---- --- -- ----------,158879.19999999995,158878.30000000005,158520.116,158527.5,158536.79,158886.552,,37,overhaul
screen,html.Screen,0_4_1_0_1_38,2021-12-13T14:28:27.081Z,,,,,,,,,,,,,,,,51,,,,,,,,,,,,,,319.44800000000396,,response,,,13,D,,,,,Space,keypress(Space),,,,silence,-------- -------- --- --- ---- --- --- ------ -- --------<br>---- --------- --- ------- ------------ ---------- ---------<br>--- ---------- ------- ---------- ------- -- -------- ----<br>---- --- ------ ----- ------ -- ---- --- ----- -- - -------<br>-------- of --- --- -- ----- ----------- ----- -----------<br>---- --- ---------- --- ---- --- -- ----------,159206.30000000005,159206,158869.886,158879.3999999999,158886.552,159220.14,,38,of
screen,html.Screen,0_4_1_0_1_39,2021-12-13T14:28:27.370Z,,,,,,,,,,,,,,,,51,,,,,,,,,,,,,,274.05999999993946,,response,,,13,D,,,,,Space,keypress(Space),,,,silence,-------- -------- --- --- ---- --- --- ------ -- --------<br>---- --------- --- ------- ------------ ---------- ---------<br>--- ---------- ------- ---------- ------- -- -------- ----<br>---- --- ------ ----- ------ -- ---- --- ----- -- - -------<br>-------- -- the --- -- ----- ----------- ----- -----------<br>---- --- ---------- --- ---- --- -- ----------,159495,159494.19999999995,159203.47,159206.3999999999,159220.14,159503.629,,39,the
screen,html.Screen,0_4_1_0_1_40,2021-12-13T14:28:27.585Z,,,,,,,,,,,,,,,,51,,,,,,,,,,,,,,206.37100000001374,,response,,,13,D,,,,,Space,keypress(Space),,,,silence,-------- -------- --- --- ---- --- --- ------ -- --------<br>---- --------- --- ------- ------------ ---------- ---------<br>--- ---------- ------- ---------- ------- -- -------- ----<br>---- --- ------ ----- ------ -- ---- --- ----- -- - -------<br>-------- -- --- way -- ----- ----------- ----- -----------<br>---- --- ---------- --- ---- --- -- ----------,159710.30000000005,159710,159486.956,159495.19999999995,159503.629,159720.142,,40,way
screen,html.Screen,0_4_1_0_1_41,2021-12-13T14:28:27.874Z,,,,,,,,,,,,,,,,51,,,,,,,,,,,,,,278.0579999999609,,response,,,13,D,,,,,Space,keypress(Space),,,,silence,-------- -------- --- --- ---- --- --- ------ -- --------<br>---- --------- --- ------- ------------ ---------- ---------<br>--- ---------- ------- ---------- ------- -- -------- ----<br>---- --- ------ ----- ------ -- ---- --- ----- -- - -------<br>-------- -- --- --- in ----- ----------- ----- -----------<br>---- --- ---------- --- ---- --- -- ----------,159998.8999999999,159998.19999999995,159703.476,159710.3999999999,159720.142,160003.733,,41,in
screen,html.Screen,0_4_1_0_1_42,2021-12-13T14:28:28.177Z,,,,,,,,,,,,,,,,51,,,,,,,,,,,,,,298.1669999998994,,response,,,13,D,,,,,Space,keypress(Space),,,,silence,-------- -------- --- --- ---- --- --- ------ -- --------<br>---- --------- --- ------- ------------ ---------- ---------<br>--- ---------- ------- ---------- ------- -- -------- ----<br>---- --- ------ ----- ------ -- ---- --- ----- -- - -------<br>-------- -- --- --- -- which ----------- ----- -----------<br>---- --- ---------- --- ---- --- -- ----------,160302.19999999995,160301.8999999999,159987.061,159999,160003.733,160303.793,,42,which
screen,html.Screen,0_4_1_0_1_43,2021-12-13T14:28:28.498Z,,,,,,,,,,,,,,,,51,,,,,,,,,,,,,,318.307000000088,,response,,,13,D,,,,,Space,keypress(Space),,,,silence,-------- -------- --- --- ---- --- --- ------ -- --------<br>---- --------- --- ------- ------------ ---------- ---------<br>--- ---------- ------- ---------- ------- -- -------- ----<br>---- --- ------ ----- ------ -- ---- --- ----- -- - -------<br>-------- -- --- --- -- ----- bureaucrats ----- -----------<br>---- --- ---------- --- ---- --- -- ----------,160622.69999999995,160622.1000000001,160287.122,160302.30000000005,160303.793,160637.119,,43,bureaucrats
screen,html.Screen,0_4_1_0_1_44,2021-12-13T14:28:28.914Z,,,,,,,,,,,,,,,,51,,,,,,,,,,,,,,401.0809999999474,,response,,,13,D,,,,,Space,keypress(Space),,,,silence,-------- -------- --- --- ---- --- --- ------ -- --------<br>---- --------- --- ------- ------------ ---------- ---------<br>--- ---------- ------- ---------- ------- -- -------- ----<br>---- --- ------ ----- ------ -- ---- --- ----- -- - -------<br>-------- -- --- --- -- ----- ----------- enact -----------<br>---- --- ---------- --- ---- --- -- ----------,161039,161038.19999999995,160620.45,160623,160637.119,161053.913,,44,enact
screen,html.Screen,0_4_1_0_1_45,2021-12-13T14:28:29.210Z,,,,,,,,,,,,,,,,51,,,,,,,,,,,,,,280.28699999995297,,response,,,13,D,,,,,Space,keypress(Space),,,,silence,-------- -------- --- --- ---- --- --- ------ -- --------<br>---- --------- --- ------- ------------ ---------- ---------<br>--- ---------- ------- ---------- ------- -- -------- ----<br>---- --- ------ ----- ------ -- ---- --- ----- -- - -------<br>-------- -- --- --- -- ----- ----------- ----- regulations<br>---- --- ---------- --- ---- --- -- ----------,161335.1000000001,161334.19999999995,161037.243,161039.19999999995,161053.913,161337.36,,45,regulations
screen,html.Screen,0_4_1_0_1_46,2021-12-13T14:28:29.539Z,,,,,,,,,,,,,,,,51,,,,,,,,,,,,,,324.8399999999674,,response,,,13,D,,,,,Space,keypress(Space),,,,silence,-------- -------- --- --- ---- --- --- ------ -- --------<br>---- --------- --- ------- ------------ ---------- ---------<br>--- ---------- ------- ---------- ------- -- -------- ----<br>---- --- ------ ----- ------ -- ---- --- ----- -- - -------<br>-------- -- --- --- -- ----- ----------- ----- -----------<br>that --- ---------- --- ---- --- -- ----------,161663.80000000005,161662.19999999995,161320.689,161335.30000000005,161337.36,161670.874,,46,that
screen,html.Screen,0_4_1_0_1_47,2021-12-13T14:28:29.818Z,,,,,,,,,,,,,,,,51,,,,,,,,,,,,,,271.3259999999427,,response,,,13,D,,,,,Space,keypress(Space),,,,silence,-------- -------- --- --- ---- --- --- ------ -- --------<br>---- --------- --- ------- ------------ ---------- ---------<br>--- ---------- ------- ---------- ------- -- -------- ----<br>---- --- ------ ----- ------ -- ---- --- ----- -- - -------<br>-------- -- --- --- -- ----- ----------- ----- -----------<br>---- are ---------- --- ---- --- -- ----------,161942.8999999999,161942.19999999995,161654.202,161664.19999999995,161670.874,161954.054,,47,are
screen,html.Screen,0_4_1_0_1_48,2021-12-13T14:28:30.073Z,,,,,,,,,,,,,,,,51,,,,,,,,,,,,,,243.74600000004284,,response,,,13,D,,,,,Space,keypress(Space),,,,silence,-------- -------- --- --- ---- --- --- ------ -- --------<br>---- --------- --- ------- ------------ ---------- ---------<br>--- ---------- ------- ---------- ------- -- -------- ----<br>---- --- ------ ----- ------ -- ---- --- ----- -- - -------<br>-------- -- --- --- -- ----- ----------- ----- -----------<br>---- --- strangling --- ---- --- -- ----------,162198.1000000001,162197.80000000005,161937.387,161943.19999999995,161954.054,162204.323,,48,strangling
screen,html.Screen,0_4_1_0_1_49,2021-12-13T14:28:30.394Z,,,,,,,,,,,,,,,,51,,,,,,,,,,,,,,313.8769999999495,,response,,,13,D,,,,,Space,keypress(Space),,,,silence,-------- -------- --- --- ---- --- --- ------ -- --------<br>---- --------- --- ------- ------------ ---------- ---------<br>--- ---------- ------- ---------- ------- -- -------- ----<br>---- --- ------ ----- ------ -- ---- --- ----- -- - -------<br>-------- -- --- --- -- ----- ----------- ----- -----------<br>---- --- ---------- the ---- --- -- ----------,162519.1000000001,162518.19999999995,162187.651,162198.30000000005,162204.323,162520.999,,49,the
screen,html.Screen,0_4_1_0_1_50,2021-12-13T14:28:30.682Z,,,,,,,,,,,,,,,,51,,,,,,,,,,,,,,285.1010000000824,,response,,,13,D,,,,,Space,keypress(Space),,,,silence,-------- -------- --- --- ---- --- --- ------ -- --------<br>---- --------- --- ------- ------------ ---------- ---------<br>--- ---------- ------- ---------- ------- -- -------- ----<br>---- --- ------ ----- ------ -- ---- --- ----- -- - -------<br>-------- -- --- --- -- ----- ----------- ----- -----------<br>---- --- ---------- --- life --- -- ----------,162806.8999999999,162806.1000000001,162504.329,162519.30000000005,162520.999,162821.109,,50,life
