sender,sender_type,sender_id,timestamp,meta,,Blues,Classical,Country,Dance,Electronic,Folk,Gospel,Hip-Hop,Jazz,Latin,Musical/Film,New-age,Pop,Provo_ID,R&B,Rap,Reggae,Religious,Rock,Soul,Swing,Traditional,age,artist_name,correct,correctResponse,distraction,duration,education,ended_on,familiarity,gender,item,list,music_frequency,offensiveness,pleasantness,preference,response,response_action,snippet_file,song_name,song_rating,sound,text,time_commit,time_end,time_render,time_run,time_show,time_switch,url,word,word_ID
Instructions,html.Page,0_0,2021-12-02T13:59:35.473Z,"{""labjs_version"":""20.2.3"",""labjs_build"":{""flavor"":""production"",""commit"":""7ea907d66ca8aeef8054924ca5d82ffbe11e34e5""},""location"":""https://run.pavlovia.org/mvasilev/lab_music_b/"",""userAgent"":""Mozilla/5.0 (Windows NT 6.1; Win64; x64) AppleWebKit/537.36 (KHTML, like Gecko) Chrome/96.0.4664.45 Safari/537.36"",""platform"":""Win32"",""language"":""en-US"",""locale"":""en-US"",""timeZone"":""Europe/London"",""timezoneOffset"":0,""screen_width"":1920,""screen_height"":1080,""scroll_width"":1920,""scroll_height"":959,""window_innerWidth"":1920,""window_innerHeight"":1007,""devicePixelRatio"":1}",,,,,,,,,,,,,,,,,,,,,,,,,,,,,34207.773999976154,,form submission,,,,,,,,,,,,,,,,46339.59999996424,46338.89999997616,12114.46,12125.699999988079,12131.126,46345.286,{},,
Headphones,html.Page,0_1,2021-12-02T13:59:39.349Z,,,,,,,,,,,,,,,,,,,,,,,,,,,,,,3870.413999988079,,form submission,,,,,,,,,,,,,,,,50216,50215.69999998808,46328.645,46340.09999996424,46345.286,50229.458,,,
Holding screen,html.Screen,0_2_0_0,2021-12-02T13:59:49.351Z,,,,,,,,,,,,,,,,,,,,,,,,,,,,,,9999.845000000001,,timeout,,,,,,,,,,,,,,,,60216,60212.638,50212.794,50216.39999997616,50229.458,60229.303,,,
screen,html.Screen,0_2_0_1_0,2021-12-02T13:59:50.125Z,,,,,,,,,,,,,,,,53,,,,,,,,,,,,,,759.997000011921,,response,,,99,,,,,,Space,keypress(Space),,,,,When -- ----- -- ------ - ------- --- ----------<br>------------- ------ ------ ---- ---- ------- ----- -- ----<br>-------- ------- -- ---------- --- - --- ----- ----- ----<br>---- --- --- ----- --- ---- ---- ------- ----- ---- -------<br>--- --- -- ----- -- --- ---- -- --- ---- -- ------ ------<br>--- ----- -- ----,60990.39999997616,60989.30000001192,60212.638,60216.30000001192,60229.303,60995.957,,0,When
screen,html.Screen,0_2_0_1_1,2021-12-02T13:59:50.797Z,,,,,,,,,,,,,,,,53,,,,,,,,,,,,,,665.0429999999978,,response,,,99,,,,,,Space,keypress(Space),,,,,---- it ----- -- ------ - ------- --- ----------<br>------------- ------ ------ ---- ---- ------- ----- -- ----<br>-------- ------- -- ---------- --- - --- ----- ----- ----<br>---- --- --- ----- --- ---- ---- ------- ----- ---- -------<br>--- --- -- ----- -- --- ---- -- --- ---- -- ------ ------<br>--- ----- -- ----,61661.59999996424,61661,60979.292,60990.59999996424,60995.957,61662.694,,1,it
screen,html.Screen,0_2_0_1_2,2021-12-02T13:59:51.245Z,,,,,,,,,,,,,,,,53,,,,,,,,,,,,,,446.30599999999686,,response,,,99,,,,,,Space,keypress(Space),,,,,---- -- comes -- ------ - ------- --- ----------<br>------------- ------ ------ ---- ---- ------- ----- -- ----<br>-------- ------- -- ---------- --- - --- ----- ----- ----<br>---- --- --- ----- --- ---- ---- ------- ----- ---- -------<br>--- --- -- ----- -- --- ---- -- --- ---- -- ------ ------<br>--- ----- -- ----,62109.69999998808,62109,61646.028,61661.89999997616,61662.694,62112.633,,2,comes
screen,html.Screen,0_2_0_1_3,2021-12-02T13:59:51.757Z,,,,,,,,,,,,,,,,53,,,,,,,,,,,,,,508.36699999999837,,response,,,99,,,,,,Space,keypress(Space),,,,,---- -- ----- to ------ - ------- --- ----------<br>------------- ------ ------ ---- ---- ------- ----- -- ----<br>-------- ------- -- ---------- --- - --- ----- ----- ----<br>---- --- --- ----- --- ---- ---- ------- ----- ---- -------<br>--- --- -- ----- -- --- ---- -- --- ---- -- ------ ------<br>--- ----- -- ----,62621.80000001192,62621,62095.968,62109.89999997616,62112.633,62629.241,,3,to
screen,html.Screen,0_2_0_1_4,2021-12-02T13:59:52.165Z,,,,,,,,,,,,,,,,53,,,,,,,,,,,,,,399.7589999999982,,response,,,99,,,,,,Space,keypress(Space),,,,,---- -- ----- -- having - ------- --- ----------<br>------------- ------ ------ ---- ---- ------- ----- -- ----<br>-------- ------- -- ---------- --- - --- ----- ----- ----<br>---- --- --- ----- --- ---- ---- ------- ----- ---- -------<br>--- --- -- ----- -- --- ---- -- --- ---- -- ------ ------<br>--- ----- -- ----,63029.89999997616,63029,62612.576,62622.09999996424,62629.241,63045.91,,4,having
screen,html.Screen,0_2_0_1_5,2021-12-02T13:59:52.589Z,,,,,,,,,,,,,,,,53,,,,,,,,,,,,,,407.0899999999965,,response,,,99,,,,,,Space,keypress(Space),,,,,---- -- ----- -- ------ a ------- --- ----------<br>------------- ------ ------ ---- ---- ------- ----- -- ----<br>-------- ------- -- ---------- --- - --- ----- ----- ----<br>---- --- --- ----- --- ---- ---- ------- ----- ---- -------<br>--- --- -- ----- -- --- ---- -- --- ---- -- ------ ------<br>--- ----- -- ----,63453.69999998808,63453,63029.245,63030,63045.91,63462.644,,5,a
screen,html.Screen,0_2_0_1_6,2021-12-02T13:59:53.117Z,,,,,,,,,,,,,,,,53,,,,,,,,,,,,,,518.3559999999998,,response,,,99,,,,,,Space,keypress(Space),,,,,---- -- ----- -- ------ - lasting --- ----------<br>------------- ------ ------ ---- ---- ------- ----- -- ----<br>-------- ------- -- ---------- --- - --- ----- ----- ----<br>---- --- --- ----- --- ---- ---- ------- ----- ---- -------<br>--- --- -- ----- -- --- ---- -- --- ---- -- ------ ------<br>--- ----- -- ----,63981.69999998808,63981,63445.977,63453.89999997616,63462.644,63995.887,,6,lasting
screen,html.Screen,0_2_0_1_7,2021-12-02T13:59:53.589Z,,,,,,,,,,,,,,,,53,,,,,,,,,,,,,,457.0129999761557,,response,,,99,,,,,,Space,keypress(Space),,,,,---- -- ----- -- ------ - ------- and ----------<br>------------- ------ ------ ---- ---- ------- ----- -- ----<br>-------- ------- -- ---------- --- - --- ----- ----- ----<br>---- --- --- ----- --- ---- ---- ------- ----- ---- -------<br>--- --- -- ----- -- --- ---- -- --- ---- -- ------ ------<br>--- ----- -- ----,64453.59999996424,64452.89999997616,63979.222,63981.89999997616,63995.887,64462.468,,7,and
screen,html.Screen,0_2_0_1_8,2021-12-02T13:59:54.189Z,,,,,,,,,,,,,,,,53,,,,,,,,,,,,,,590.4319999761574,,response,,,99,,,,,,Space,keypress(Space),,,,,---- -- ----- -- ------ - ------- --- fulfilling<br>------------- ------ ------ ---- ---- ------- ----- -- ----<br>-------- ------- -- ---------- --- - --- ----- ----- ----<br>---- --- --- ----- --- ---- ---- ------- ----- ---- -------<br>--- --- -- ----- -- --- ---- -- --- ---- -- ------ ------<br>--- ----- -- ----,65053.80000001192,65052.89999997616,64445.804,64453.80000001192,64462.468,65062.562,,8,fulfilling
screen,html.Screen,0_2_0_1_9,2021-12-02T13:59:54.709Z,,,,,,,,,,,,,,,,53,,,,,,,,,,,,,,510.23800001192285,,response,,,99,,,,,,Space,keypress(Space),,,,,"---- -- ----- -- ------ - ------- --- ----------<br>relationship, ------ ------ ---- ---- ------- ----- -- ----<br>-------- ------- -- ---------- --- - --- ----- ----- ----<br>---- --- --- ----- --- ---- ---- ------- ----- ---- -------<br>--- --- -- ----- -- --- ---- -- --- ---- -- ------ ------<br>--- ----- -- ----",65573.5,65572.80000001192,65045.896,65054,65062.562,65579.08,,9,"relationship,"
screen,html.Screen,0_2_0_1_10,2021-12-02T13:59:55.269Z,,,,,,,,,,,,,,,,53,,,,,,,,,,,,,,553.7200000119192,,response,,,99,,,,,,Space,keypress(Space),,,,,---- -- ----- -- ------ - ------- --- ----------<br>------------- common ------ ---- ---- ------- ----- -- ----<br>-------- ------- -- ---------- --- - --- ----- ----- ----<br>---- --- --- ----- --- ---- ---- ------- ----- ---- -------<br>--- --- -- ----- -- --- ---- -- --- ---- -- ------ ------<br>--- ----- -- ----,66133.59999996424,66132.80000001192,65562.416,65573.69999998808,65579.08,66145.838,,10,common
screen,html.Screen,0_2_0_1_11,2021-12-02T13:59:55.989Z,,,,,,,,,,,,,,,,53,,,,,,,,,,,,,,706.9620000119176,,response,,,99,,,,,,Space,keypress(Space),,,,,---- -- ----- -- ------ - ------- --- ----------<br>------------- ------ wisdom ---- ---- ------- ----- -- ----<br>-------- ------- -- ---------- --- - --- ----- ----- ----<br>---- --- --- ----- --- ---- ---- ------- ----- ---- -------<br>--- --- -- ----- -- --- ---- -- --- ---- -- ------ ------<br>--- ----- -- ----,66853.5,66852.80000001192,66129.172,66133.80000001192,66145.838,66862.406,,11,wisdom
screen,html.Screen,0_2_0_1_12,2021-12-02T13:59:56.580Z,,,,,,,,,,,,,,,,53,,,,,,,,,,,,,,582.3940000119183,,response,,,99,,,,,,Space,keypress(Space),,,,,---- -- ----- -- ------ - ------- --- ----------<br>------------- ------ ------ says ---- ------- ----- -- ----<br>-------- ------- -- ---------- --- - --- ----- ----- ----<br>---- --- --- ----- --- ---- ---- ------- ----- ---- -------<br>--- --- -- ----- -- --- ---- -- --- ---- -- ------ ------<br>--- ----- -- ----,67445.39999997616,67444.80000001192,66845.741,66853.69999998808,66862.406,67462.451,,12,says
screen,html.Screen,0_2_0_1_13,2021-12-02T13:59:57.100Z,,,,,,,,,,,,,,,,53,,,,,,,,,,,,,,502.34900001192,,response,,,99,,,,,,Space,keypress(Space),,,,,---- -- ----- -- ------ - ------- --- ----------<br>------------- ------ ------ ---- that ------- ----- -- ----<br>-------- ------- -- ---------- --- - --- ----- ----- ----<br>---- --- --- ----- --- ---- ---- ------- ----- ---- -------<br>--- --- -- ----- -- --- ---- -- --- ---- -- ------ ------<br>--- ----- -- ----,67965.5,67964.80000001192,67445.785,67445.59999996424,67462.451,67979.005,,13,that
screen,html.Screen,0_2_0_1_14,2021-12-02T13:59:57.724Z,,,,,,,,,,,,,,,,53,,,,,,,,,,,,,,609.7950000119163,,response,,,99,,,,,,Space,keypress(Space),,,,,---- -- ----- -- ------ - ------- --- ----------<br>------------- ------ ------ ---- ---- feeling ----- -- ----<br>-------- ------- -- ---------- --- - --- ----- ----- ----<br>---- --- --- ----- --- ---- ---- ------- ----- ---- -------<br>--- --- -- ----- -- --- ---- -- --- ---- -- ------ ------<br>--- ----- -- ----,68589.5,68588.80000001192,67962.34,67965.59999996424,67979.005,68595.761,,14,feeling
screen,html.Screen,0_2_0_1_15,2021-12-02T13:59:58.284Z,,,,,,,,,,,,,,,,53,,,,,,,,,,,,,,553.0390000119223,,response,,,99,,,,,,Space,keypress(Space),,,,,---- -- ----- -- ------ - ------- --- ----------<br>------------- ------ ------ ---- ---- ------- close -- ----<br>-------- ------- -- ---------- --- - --- ----- ----- ----<br>---- --- --- ----- --- ---- ---- ------- ----- ---- -------<br>--- --- -- ----- -- --- ---- -- --- ---- -- ------ ------<br>--- ----- -- ----,69149.39999997616,69148.80000001192,68579.095,68589.59999996424,68595.761,69162.343,,15,close
screen,html.Screen,0_2_0_1_16,2021-12-02T13:59:58.748Z,,,,,,,,,,,,,,,,53,,,,,,,,,,,,,,450.3569999880856,,response,,,99,,,,,,Space,keypress(Space),,,,,---- -- ----- -- ------ - ------- --- ----------<br>------------- ------ ------ ---- ---- ------- ----- to ----<br>-------- ------- -- ---------- --- - --- ----- ----- ----<br>---- --- --- ----- --- ---- ---- ------- ----- ---- -------<br>--- --- -- ----- -- --- ---- -- --- ---- -- ------ ------<br>--- ----- -- ----,69613.30000001192,69612.69999998808,69145.678,69149.59999996424,69162.343,69628.998,,16,to
screen,html.Screen,0_2_0_1_17,2021-12-02T13:59:59.324Z,,,,,,,,,,,,,,,,53,,,,,,,,,,,,,,559.8020000119141,,response,,,99,,,,,,Space,keypress(Space),,,,,---- -- ----- -- ------ - ------- --- ----------<br>------------- ------ ------ ---- ---- ------- ----- -- your<br>-------- ------- -- ---------- --- - --- ----- ----- ----<br>---- --- --- ----- --- ---- ---- ------- ----- ---- -------<br>--- --- -- ----- -- --- ---- -- --- ---- -- ------ ------<br>--- ----- -- ----,70189.30000001192,70188.80000001192,69612.333,69613.39999997616,69628.998,70195.635,,17,your
screen,html.Screen,0_2_0_1_18,2021-12-02T13:59:59.828Z,,,,,,,,,,,,,,,,53,,,,,,,,,,,,,,497.0649999880843,,response,,,99,,,,,,Space,keypress(Space),,,,,---- -- ----- -- ------ - ------- --- ----------<br>------------- ------ ------ ---- ---- ------- ----- -- ----<br>romantic ------- -- ---------- --- - --- ----- ----- ----<br>---- --- --- ----- --- ---- ---- ------- ----- ---- -------<br>--- --- -- ----- -- --- ---- -- --- ---- -- ------ ------<br>--- ----- -- ----,70693.19999998808,70692.69999998808,70178.97,70189.59999996424,70195.635,70695.621,,18,romantic
screen,html.Screen,0_2_0_1_19,2021-12-02T14:00:00.461Z,,,,,,,,,,,,,,,,53,,,,,,,,,,,,,,629.3790000000008,,response,,,99,,,,,,Space,keypress(Space),,,,,---- -- ----- -- ------ - ------- --- ----------<br>------------- ------ ------ ---- ---- ------- ----- -- ----<br>-------- partner -- ---------- --- - --- ----- ----- ----<br>---- --- --- ----- --- ---- ---- ------- ----- ---- -------<br>--- --- -- ----- -- --- ---- -- --- ---- -- ------ ------<br>--- ----- -- ----,71325.5,71325,70678.956,70693.39999997616,70695.621,71328.972,,19,partner
screen,html.Screen,0_2_0_1_20,2021-12-02T14:00:00.956Z,,,,,,,,,,,,,,,,53,,,,,,,,,,,,,,491.7279999880848,,response,,,99,,,,,,Space,keypress(Space),,,,,---- -- ----- -- ------ - ------- --- ----------<br>------------- ------ ------ ---- ---- ------- ----- -- ----<br>-------- ------- is ---------- --- - --- ----- ----- ----<br>---- --- --- ----- --- ---- ---- ------- ----- ---- -------<br>--- --- -- ----- -- --- ---- -- --- ---- -- ------ ------<br>--- ----- -- ----,71821.39999997616,71820.69999998808,71312.306,71325.69999998808,71328.972,71828.906,,20,is
screen,html.Screen,0_2_0_1_21,2021-12-02T14:00:01.972Z,,,,,,,,,,,,,,,,53,,,,,,,,,,,,,,1007.7939999880764,,response,,,99,,,,,,Space,keypress(Space),,,,,---- -- ----- -- ------ - ------- --- ----------<br>------------- ------ ------ ---- ---- ------- ----- -- ----<br>-------- ------- -- paramount. --- - --- ----- ----- ----<br>---- --- --- ----- --- ---- ---- ------- ----- ---- -------<br>--- --- -- ----- -- --- ---- -- --- ---- -- ------ ------<br>--- ----- -- ----,72837.39999997616,72836.69999998808,71812.241,71821.5,71828.906,72845.579,,21,paramount.
screen,html.Screen,0_2_0_1_22,2021-12-02T14:00:02.524Z,,,,,,,,,,,,,,,,53,,,,,,,,,,,,,,543.0209999642393,,response,,,99,,,,,,Space,keypress(Space),,,,,---- -- ----- -- ------ - ------- --- ----------<br>------------- ------ ------ ---- ---- ------- ----- -- ----<br>-------- ------- -- ---------- But - --- ----- ----- ----<br>---- --- --- ----- --- ---- ---- ------- ----- ---- -------<br>--- --- -- ----- -- --- ---- -- --- ---- -- ------ ------<br>--- ----- -- ----,73389.19999998808,73388.59999996424,72828.913,72837.59999996424,72845.579,73395.511,,22,But
screen,html.Screen,0_2_0_1_23,2021-12-02T14:00:02.908Z,,,,,,,,,,,,,,,,53,,,,,,,,,,,,,,376.9890000000014,,response,,,99,,,,,,Space,keypress(Space),,,,,---- -- ----- -- ------ - ------- --- ----------<br>------------- ------ ------ ---- ---- ------- ----- -- ----<br>-------- ------- -- ---------- --- a --- ----- ----- ----<br>---- --- --- ----- --- ---- ---- ------- ----- ---- -------<br>--- --- -- ----- -- --- ---- -- --- ---- -- ------ ------<br>--- ----- -- ----,73773.09999996424,73772.5,73378.846,73389.39999997616,73395.511,73778.846,,23,a
screen,html.Screen,0_2_0_1_24,2021-12-02T14:00:03.644Z,,,,,,,,,,,,,,,,53,,,,,,,,,,,,,,729.653999999995,,response,,,99,,,,,,Space,keypress(Space),,,,,---- -- ----- -- ------ - ------- --- ----------<br>------------- ------ ------ ---- ---- ------- ----- -- ----<br>-------- ------- -- ---------- --- - new ----- ----- ----<br>---- --- --- ----- --- ---- ---- ------- ----- ---- -------<br>--- --- -- ----- -- --- ---- -- --- ---- -- ------ ------<br>--- ----- -- ----,74509.19999998808,74508.5,73762.181,73773.30000001192,73778.846,74512.22,,24,new
screen,html.Screen,0_2_0_1_25,2021-12-02T14:00:04.220Z,,,,,,,,,,,,,,,,53,,,,,,,,,,,,,,572.2799999999988,,response,,,99,,,,,,Space,keypress(Space),,,,,---- -- ----- -- ------ - ------- --- ----------<br>------------- ------ ------ ---- ---- ------- ----- -- ----<br>-------- ------- -- ---------- --- - --- study ----- ----<br>---- --- --- ----- --- ---- ---- ------- ----- ---- -------<br>--- --- -- ----- -- --- ---- -- --- ---- -- ------ ------<br>--- ----- -- ----,75085.09999996424,75084.5,74495.554,74509.30000001192,74512.22,75095.431,,25,study
screen,html.Screen,0_2_0_1_26,2021-12-02T14:00:04.732Z,,,,,,,,,,,,,,,,53,,,,,,,,,,,,,,501.06900000000314,,response,,,99,,,,,,Space,keypress(Space),,,,,---- -- ----- -- ------ - ------- --- ----------<br>------------- ------ ------ ---- ---- ------- ----- -- ----<br>-------- ------- -- ---------- --- - --- ----- finds ----<br>---- --- --- ----- --- ---- ---- ------- ----- ---- -------<br>--- --- -- ----- -- --- ---- -- --- ---- -- ------ ------<br>--- ----- -- ----,75597.09999996424,75596.5,75078.766,75085.30000001192,75095.431,75612.103,,26,finds
screen,html.Screen,0_2_0_1_27,2021-12-02T14:00:05.484Z,,,,,,,,,,,,,,,,53,,,,,,,,,,,,,,736.3969999999972,,response,,,99,,,,,,Space,keypress(Space),,,,,---- -- ----- -- ------ - ------- --- ----------<br>------------- ------ ------ ---- ---- ------- ----- -- ----<br>-------- ------- -- ---------- --- - --- ----- ----- that<br>---- --- --- ----- --- ---- ---- ------- ----- ---- -------<br>--- --- -- ----- -- --- ---- -- --- ---- -- ------ ------<br>--- ----- -- ----,76349.09999996424,76348.5,75595.438,75597.30000001192,75612.103,76362.137,,27,that
screen,html.Screen,0_2_0_1_28,2021-12-02T14:00:06.220Z,,,,,,,,,,,,,,,,53,,,,,,,,,,,,,,722.3629999999976,,response,,,99,,,,,,Space,keypress(Space),,,,,---- -- ----- -- ------ - ------- --- ----------<br>------------- ------ ------ ---- ---- ------- ----- -- ----<br>-------- ------- -- ---------- --- - --- ----- ----- ----<br>it's --- --- ----- --- ---- ---- ------- ----- ---- -------<br>--- --- -- ----- -- --- ---- -- --- ---- -- ------ ------<br>--- ----- -- ----,77085.09999996424,77084.5,76345.471,76349.30000001192,76362.137,77095.338,,28,it's
screen,html.Screen,0_2_0_1_29,2021-12-02T14:00:06.628Z,,,,,,,,,,,,,,,,53,,,,,,,,,,,,,,397.06199997615477,,response,,,99,,,,,,Space,keypress(Space),,,,,---- -- ----- -- ------ - ------- --- ----------<br>------------- ------ ------ ---- ---- ------- ----- -- ----<br>-------- ------- -- ---------- --- - --- ----- ----- ----<br>---- not --- ----- --- ---- ---- ------- ----- ---- -------<br>--- --- -- ----- -- --- ---- -- --- ---- -- ------ ------<br>--- ----- -- ----,77493,77492.39999997616,77078.673,77085.19999998808,77095.338,77495.371,,29,not
screen,html.Screen,0_2_0_1_30,2021-12-02T14:00:07.212Z,,,,,,,,,,,,,,,,53,,,,,,,,,,,,,,581.1290000000008,,response,,,99,,,,,,Space,keypress(Space),,,,,---- -- ----- -- ------ - ------- --- ----------<br>------------- ------ ------ ---- ---- ------- ----- -- ----<br>-------- ------- -- ---------- --- - --- ----- ----- ----<br>---- --- how ----- --- ---- ---- ------- ----- ---- -------<br>--- --- -- ----- -- --- ---- -- --- ---- -- ------ ------<br>--- ----- -- ----,78077.09999996424,78076.5,77478.706,77493.09999996424,77495.371,78078.747,,30,how
screen,html.Screen,0_2_0_1_31,2021-12-02T14:00:07.716Z,,,,,,,,,,,,,,,,53,,,,,,,,,,,,,,501.6529999761551,,response,,,99,,,,,,Space,keypress(Space),,,,,---- -- ----- -- ------ - ------- --- ----------<br>------------- ------ ------ ---- ---- ------- ----- -- ----<br>-------- ------- -- ---------- --- - --- ----- ----- ----<br>---- --- --- close --- ---- ---- ------- ----- ---- -------<br>--- --- -- ----- -- --- ---- -- --- ---- -- ------ ------<br>--- ----- -- ----,78581,78580.39999997616,78062.081,78077.30000001192,78078.747,78595.313,,31,close
screen,html.Screen,0_2_0_1_32,2021-12-02T14:00:08.140Z,,,,,,,,,,,,,,,,53,,,,,,,,,,,,,,409.0869999761635,,response,,,99,,,,,,Space,keypress(Space),,,,,---- -- ----- -- ------ - ------- --- ----------<br>------------- ------ ------ ---- ---- ------- ----- -- ----<br>-------- ------- -- ---------- --- - --- ----- ----- ----<br>---- --- --- ----- you ---- ---- ------- ----- ---- -------<br>--- --- -- ----- -- --- ---- -- --- ---- -- ------ ------<br>--- ----- -- ----,79005,79004.39999997616,78578.648,78581.19999998808,78595.313,79012.046,,32,you
screen,html.Screen,0_2_0_1_33,2021-12-02T14:00:08.540Z,,,,,,,,,,,,,,,,53,,,,,,,,,,,,,,392.35399997615605,,response,,,99,,,,,,Space,keypress(Space),,,,,---- -- ----- -- ------ - ------- --- ----------<br>------------- ------ ------ ---- ---- ------- ----- -- ----<br>-------- ------- -- ---------- --- - --- ----- ----- ----<br>---- --- --- ----- --- feel ---- ------- ----- ---- -------<br>--- --- -- ----- -- --- ---- -- --- ---- -- ------ ------<br>--- ----- -- ----,79404.89999997616,79404.39999997616,78995.38,79005.19999998808,79012.046,79412.032,,33,feel
screen,html.Screen,0_2_0_1_34,2021-12-02T14:00:08.940Z,,,,,,,,,,,,,,,,53,,,,,,,,,,,,,,392.3679999761516,,response,,,99,,,,,,Space,keypress(Space),,,,,---- -- ----- -- ------ - ------- --- ----------<br>------------- ------ ------ ---- ---- ------- ----- -- ----<br>-------- ------- -- ---------- --- - --- ----- ----- ----<br>---- --- --- ----- --- ---- that ------- ----- ---- -------<br>--- --- -- ----- -- --- ---- -- --- ---- -- ------ ------<br>--- ----- -- ----,79804.89999997616,79804.39999997616,79395.366,79405.09999996424,79412.032,79811.907,,34,that
screen,html.Screen,0_2_0_1_35,2021-12-02T14:00:09.308Z,,,,,,,,,,,,,,,,53,,,,,,,,,,,,,,360.3930000119144,,response,,,99,,,,,,Space,keypress(Space),,,,,---- -- ----- -- ------ - ------- --- ----------<br>------------- ------ ------ ---- ---- ------- ----- -- ----<br>-------- ------- -- ---------- --- - --- ----- ----- ----<br>---- --- --- ----- --- ---- ---- matters ----- ---- -------<br>--- --- -- ----- -- --- ---- -- --- ---- -- ------ ------<br>--- ----- -- ----,80172.80000001192,80172.30000001192,79795.243,79805,79811.907,80178.672,,35,matters
screen,html.Screen,0_2_0_1_36,2021-12-02T14:00:09.700Z,,,,,,,,,,,,,,,,53,,,,,,,,,,,,,,385.52799998807313,,response,,,99,,,,,,Space,keypress(Space),,,,,"---- -- ----- -- ------ - ------- --- ----------<br>------------- ------ ------ ---- ---- ------- ----- -- ----<br>-------- ------- -- ---------- --- - --- ----- ----- ----<br>---- --- --- ----- --- ---- ---- ------- most, ---- -------<br>--- --- -- ----- -- --- ---- -- --- ---- -- ------ ------<br>--- ----- -- ----",80564.89999997616,80564.19999998808,80162.006,80173.09999996424,80178.672,80578.584,,36,"most,"
screen,html.Screen,0_2_0_1_37,2021-12-02T14:00:10.300Z,,,,,,,,,,,,,,,,53,,,,,,,,,,,,,,585.8159999761556,,response,,,99,,,,,,Space,keypress(Space),,,,,---- -- ----- -- ------ - ------- --- ----------<br>------------- ------ ------ ---- ---- ------- ----- -- ----<br>-------- ------- -- ---------- --- - --- ----- ----- ----<br>---- --- --- ----- --- ---- ---- ------- ----- it's -------<br>--- --- -- ----- -- --- ---- -- --- ---- -- ------ ------<br>--- ----- -- ----,81164.89999997616,81164.39999997616,80561.919,80565.09999996424,80578.584,81178.635,,37,it's
screen,html.Screen,0_2_0_1_38,2021-12-02T14:00:11.364Z,,,,,,,,,,,,,,,,53,,,,,,,,,,,,,,1049.6650000119262,,response,,,99,,,,,,Space,keypress(Space),,,,,---- -- ----- -- ------ - ------- --- ----------<br>------------- ------ ------ ---- ---- ------- ----- -- ----<br>-------- ------- -- ---------- --- - --- ----- ----- ----<br>---- --- --- ----- --- ---- ---- ------- ----- ---- whether<br>--- --- -- ----- -- --- ---- -- --- ---- -- ------ ------<br>--- ----- -- ----,82228.80000001192,82228.30000001192,81161.969,81165.19999998808,81178.635,82245.134,,38,whether
screen,html.Screen,0_2_0_1_39,2021-12-02T14:00:12.068Z,,,,,,,,,,,,,,,,53,,,,,,,,,,,,,,687.1660000119155,,response,,,99,,,,,,Space,keypress(Space),,,,,---- -- ----- -- ------ - ------- --- ----------<br>------------- ------ ------ ---- ---- ------- ----- -- ----<br>-------- ------- -- ---------- --- - --- ----- ----- ----<br>---- --- --- ----- --- ---- ---- ------- ----- ---- -------<br>you --- -- ----- -- --- ---- -- --- ---- -- ------ ------<br>--- ----- -- ----,82932.89999997616,82932.30000001192,82228.469,82229,82245.134,82945.145,,39,you
screen,html.Screen,0_2_0_1_40,2021-12-02T14:00:12.716Z,,,,,,,,,,,,,,,,53,,,,,,,,,,,,,,635.054999988075,,response,,,99,,,,,,Space,keypress(Space),,,,,---- -- ----- -- ------ - ------- --- ----------<br>------------- ------ ------ ---- ---- ------- ----- -- ----<br>-------- ------- -- ---------- --- - --- ----- ----- ----<br>---- --- --- ----- --- ---- ---- ------- ----- ---- -------<br>--- are -- ----- -- --- ---- -- --- ---- -- ------ ------<br>--- ----- -- ----,83580.89999997616,83580.19999998808,82928.48,82933.09999996424,82945.145,83595.123,,40,are
screen,html.Screen,0_2_0_1_41,2021-12-02T14:00:13.324Z,,,,,,,,,,,,,,,,53,,,,,,,,,,,,,,593.0769999880722,,response,,,99,,,,,,Space,keypress(Space),,,,,---- -- ----- -- ------ - ------- --- ----------<br>------------- ------ ------ ---- ---- ------- ----- -- ----<br>-------- ------- -- ---------- --- - --- ----- ----- ----<br>---- --- --- ----- --- ---- ---- ------- ----- ---- -------<br>--- --- as ----- -- --- ---- -- --- ---- -- ------ ------<br>--- ----- -- ----,84188.89999997616,84188.19999998808,83578.458,83581,83595.123,84195.162,,41,as
screen,html.Screen,0_2_0_1_42,2021-12-02T14:00:13.788Z,,,,,,,,,,,,,,,,53,,,,,,,,,,,,,,457.03799998808245,,response,,,99,,,,,,Space,keypress(Space),,,,,---- -- ----- -- ------ - ------- --- ----------<br>------------- ------ ------ ---- ---- ------- ----- -- ----<br>-------- ------- -- ---------- --- - --- ----- ----- ----<br>---- --- --- ----- --- ---- ---- ------- ----- ---- -------<br>--- --- -- close -- --- ---- -- --- ---- -- ------ ------<br>--- ----- -- ----,84652.80000001192,84652.19999998808,84178.496,84189.09999996424,84195.162,84661.775,,42,close
screen,html.Screen,0_2_0_1_43,2021-12-02T14:00:14.148Z,,,,,,,,,,,,,,,,53,,,,,,,,,,,,,,350.4249999880849,,response,,,99,,,,,,Space,keypress(Space),,,,,---- -- ----- -- ------ - ------- --- ----------<br>------------- ------ ------ ---- ---- ------- ----- -- ----<br>-------- ------- -- ---------- --- - --- ----- ----- ----<br>---- --- --- ----- --- ---- ---- ------- ----- ---- -------<br>--- --- -- ----- as --- ---- -- --- ---- -- ------ ------<br>--- ----- -- ----,85012.80000001192,85012.19999998808,84645.11,84653,84661.775,85028.436,,43,as
screen,html.Screen,0_2_0_1_44,2021-12-02T14:00:14.588Z,,,,,,,,,,,,,,,,53,,,,,,,,,,,,,,423.6639999642357,,response,,,99,,,,,,Space,keypress(Space),,,,,---- -- ----- -- ------ - ------- --- ----------<br>------------- ------ ------ ---- ---- ------- ----- -- ----<br>-------- ------- -- ---------- --- - --- ----- ----- ----<br>---- --- --- ----- --- ---- ---- ------- ----- ---- -------<br>--- --- -- ----- -- you ---- -- --- ---- -- ------ ------<br>--- ----- -- ----,85452.80000001192,85452.09999996424,85011.771,85013,85028.436,85461.747,,44,you
screen,html.Screen,0_2_0_1_45,2021-12-02T14:00:14.972Z,,,,,,,,,,,,,,,,53,,,,,,,,,,,,,,374.45299998807604,,response,,,99,,,,,,Space,keypress(Space),,,,,---- -- ----- -- ------ - ------- --- ----------<br>------------- ------ ------ ---- ---- ------- ----- -- ----<br>-------- ------- -- ---------- --- - --- ----- ----- ----<br>---- --- --- ----- --- ---- ---- ------- ----- ---- -------<br>--- --- -- ----- -- --- want -- --- ---- -- ------ ------<br>--- ----- -- ----,85836.80000001192,85836.19999998808,85445.082,85452.89999997616,85461.747,85845.151,,45,want
screen,html.Screen,0_2_0_1_46,2021-12-02T14:00:15.332Z,,,,,,,,,,,,,,,,53,,,,,,,,,,,,,,350.9489999642392,,response,,,99,,,,,,Space,keypress(Space),,,,,---- -- ----- -- ------ - ------- --- ----------<br>------------- ------ ------ ---- ---- ------- ----- -- ----<br>-------- ------- -- ---------- --- - --- ----- ----- ----<br>---- --- --- ----- --- ---- ---- ------- ----- ---- -------<br>--- --- -- ----- -- --- ---- to --- ---- -- ------ ------<br>--- ----- -- ----,86196.59999996424,86196.09999996424,85828.484,85836.89999997616,85845.151,86211.674,,46,to
screen,html.Screen,0_2_0_1_47,2021-12-02T14:00:15.732Z,,,,,,,,,,,,,,,,53,,,,,,,,,,,,,,384.32600000000093,,response,,,99,,,,,,Space,keypress(Space),,,,,"---- -- ----- -- ------ - ------- --- ----------<br>------------- ------ ------ ---- ---- ------- ----- -- ----<br>-------- ------- -- ---------- --- - --- ----- ----- ----<br>---- --- --- ----- --- ---- ---- ------- ----- ---- -------<br>--- --- -- ----- -- --- ---- -- be, ---- -- ------ ------<br>--- ----- -- ----",86596.69999998808,86596,86195.01,86196.80000001192,86211.674,86611.74,,47,"be,"
screen,html.Screen,0_2_0_1_48,2021-12-02T14:00:16.372Z,,,,,,,,,,,,,,,,53,,,,,,,,,,,,,,624.2599999999948,,response,,,99,,,,,,Space,keypress(Space),,,,,---- -- ----- -- ------ - ------- --- ----------<br>------------- ------ ------ ---- ---- ------- ----- -- ----<br>-------- ------- -- ---------- --- - --- ----- ----- ----<br>---- --- --- ----- --- ---- ---- ------- ----- ---- -------<br>--- --- -- ----- -- --- ---- -- --- even -- ------ ------<br>--- ----- -- ----,87236.59999996424,87236,86595.074,86596.80000001192,86611.74,87245.001,,48,even
screen,html.Screen,0_2_0_1_49,2021-12-02T14:00:16.780Z,,,,,,,,,,,,,,,,53,,,,,,,,,,,,,,399.09899996423337,,response,,,99,,,,,,Space,keypress(Space),,,,,---- -- ----- -- ------ - ------- --- ----------<br>------------- ------ ------ ---- ---- ------- ----- -- ----<br>-------- ------- -- ---------- --- - --- ----- ----- ----<br>---- --- --- ----- --- ---- ---- ------- ----- ---- -------<br>--- --- -- ----- -- --- ---- -- --- ---- if ------ ------<br>--- ----- -- ----,87644.69999998808,87644.09999996424,87228.336,87236.80000001192,87245.001,87661.662,,49,if
screen,html.Screen,0_2_0_1_50,2021-12-02T14:00:17.484Z,,,,,,,,,,,,,,,,53,,,,,,,,,,,,,,686.4379999642406,,response,,,99,,,,,,Space,keypress(Space),,,,,---- -- ----- -- ------ - ------- --- ----------<br>------------- ------ ------ ---- ---- ------- ----- -- ----<br>-------- ------- -- ---------- --- - --- ----- ----- ----<br>---- --- --- ----- --- ---- ---- ------- ----- ---- -------<br>--- --- -- ----- -- --- ---- -- --- ---- -- that's ------<br>--- ----- -- ----,88348.69999998808,88348.09999996424,87644.997,87644.69999998808,87661.662,88361.678,,50,that's
screen,html.Screen,0_2_0_1_51,2021-12-02T14:00:18.260Z,,,,,,,,,,,,,,,,53,,,,,,,,,,,,,,762.3220000000001,,response,,,99,,,,,,Space,keypress(Space),,,,,---- -- ----- -- ------ - ------- --- ----------<br>------------- ------ ------ ---- ---- ------- ----- -- ----<br>-------- ------- -- ---------- --- - --- ----- ----- ----<br>---- --- --- ----- --- ---- ---- ------- ----- ---- -------<br>--- --- -- ----- -- --- ---- -- --- ---- -- ------ really<br>--- ----- -- ----,89124.69999998808,89124,88345.012,88348.80000001192,88361.678,89128.237,,51,really
screen,html.Screen,0_2_0_1_52,2021-12-02T14:00:18.772Z,,,,,,,,,,,,,,,,53,,,,,,,,,,,,,,507.7630000000063,,response,,,99,,,,,,Space,keypress(Space),,,,,---- -- ----- -- ------ - ------- --- ----------<br>------------- ------ ------ ---- ---- ------- ----- -- ----<br>-------- ------- -- ---------- --- - --- ----- ----- ----<br>---- --- --- ----- --- ---- ---- ------- ----- ---- -------<br>--- --- -- ----- -- --- ---- -- --- ---- -- ------ ------<br>not ----- -- ----,89636.80000001192,89636,89111.572,89124.80000001192,89128.237,89644.913,,52,not
screen,html.Screen,0_2_0_1_53,2021-12-02T14:00:19.212Z,,,,,,,,,,,,,,,,53,,,,,,,,,,,,,,431.08699999999953,,response,,,99,,,,,,Space,keypress(Space),,,,,---- -- ----- -- ------ - ------- --- ----------<br>------------- ------ ------ ---- ---- ------- ----- -- ----<br>-------- ------- -- ---------- --- - --- ----- ----- ----<br>---- --- --- ----- --- ---- ---- ------- ----- ---- -------<br>--- --- -- ----- -- --- ---- -- --- ---- -- ------ ------<br>--- close -- ----,90076.59999996424,90076,89628.248,89636.89999997616,89644.913,90078.279,,53,close
screen,html.Screen,0_2_0_1_54,2021-12-02T14:00:19.651Z,,,,,,,,,,,,,,,,53,,,,,,,,,,,,,,437.62099997616315,,response,,,99,,,,,,Space,keypress(Space),,,,,---- -- ----- -- ------ - ------- --- ----------<br>------------- ------ ------ ---- ---- ------- ----- -- ----<br>-------- ------- -- ---------- --- - --- ----- ----- ----<br>---- --- --- ----- --- ---- ---- ------- ----- ---- -------<br>--- --- -- ----- -- --- ---- -- --- ---- -- ------ ------<br>--- ----- at ----,90516.5,90515.89999997616,90061.613,90076.80000001192,90078.279,90528.275,,54,at
screen,html.Screen,0_2_0_1_55,2021-12-02T14:00:20.204Z,,,,,,,,,,,,,,,,53,,,,,,,,,,,,,,539.624999976164,,response,,,99,,,,,,Space,keypress(Space),,,,,---- -- ----- -- ------ - ------- --- ----------<br>------------- ------ ------ ---- ---- ------- ----- -- ----<br>-------- ------- -- ---------- --- - --- ----- ----- ----<br>---- --- --- ----- --- ---- ---- ------- ----- ---- -------<br>--- --- -- ----- -- --- ---- -- --- ---- -- ------ ------<br>--- ----- -- all.,91068.5,91067.89999997616,90511.609,90516.59999996424,90528.275,91078.138,,55,all.
Item 99,flow.Loop,0_2_0_1,2021-12-02T14:00:20.206Z,,,,,,,,,,,,,,,,,,,,,,,,,,,,,,30838.59699997616,,completion,,,,B,,,,,,,,,,silence,,91071.39999997616,91067.89999997616,60212.638,60216.19999998808,60229.303,91078.138,,,
Question 1,html.Screen,0_2_0_2,2021-12-02T14:00:25.330Z,,,,,,,,,,,,,,,,,,,,,,,,,,,true,FALSE,,5115.561999988073,,response,,,99,B,,,,,FALSE,click #choice-2,,,,silence,,96194.69999998808,96193.69999998808,91061.474,91071.59999996424,91078.138,96194.662,,,
Question 2,html.Screen,0_2_0_3,2021-12-02T14:00:29.988Z,,,,,,,,,,,,,,,,,,,,,,,,,,,true,TRUE,,4657.138000011924,,response,,,99,B,,,,,TRUE,click #choice-1,,,,silence,,100852.59999996424,100851.80000001192,96177.998,96194.80000001192,96194.662,100860.914,,,
Item 99,flow.Sequence,0_2_0,2021-12-02T14:00:29.988Z,,,,,,,,,,,,,,,,,,,,,,,,,,,,,,50622.34200001192,,completion,,,,,,,,,,,,,,,,100852.89999997616,100851.80000001192,50212.794,50216.30000001192,50229.458,100860.914,,,
Holding screen,html.Screen,0_2_1_0,2021-12-02T14:00:39.981Z,,,,,,,,,,,,,,,,,,,,,,,,,,,,,,9999.947,,timeout,,,,,,,,,,,,,,,,110845.69999998808,110844.195,100844.255,100853.19999998808,100860.914,110860.861,,,
screen,html.Screen,0_2_1_1_0,2021-12-02T14:00:40.555Z,,,,,,,,,,,,,,,,54,,,,,,,,,,,,,,558.6389999999956,,response,,,100,,,,,,Space,keypress(Space),,,,,At --- ---- --- ------ ----- ------- ---- -- --- ------- --<br>------- ---------- ------ -- ----- -- ----- -- ---- ------<br>--- ----- --- --- ------ -------- ----- --- ------ ----- --<br>----- ----- ---------- --- --- ------ ------ ---- -- ------<br>------- --- ------ ----- --- ---- ------- -- ---- --- --<br>------- ------,111420.09999996424,111419.5,110844.195,110845.89999997616,110860.861,111427.456,,0,At
screen,html.Screen,0_2_1_1_1,2021-12-02T14:00:40.907Z,,,,,,,,,,,,,,,,54,,,,,,,,,,,,,,343.6439999642316,,response,,,100,,,,,,Space,keypress(Space),,,,,-- the ---- --- ------ ----- ------- ---- -- --- ------- --<br>------- ---------- ------ -- ----- -- ----- -- ---- ------<br>--- ----- --- --- ------ -------- ----- --- ------ ----- --<br>----- ----- ---------- --- --- ------ ------ ---- -- ------<br>------- --- ------ ----- --- ---- ------- -- ---- --- --<br>------- ------,111771.80000001192,111771.09999996424,111410.791,111420.39999997616,111427.456,111777.455,,1,the
screen,html.Screen,0_2_1_1_2,2021-12-02T14:00:41.291Z,,,,,,,,,,,,,,,,54,,,,,,,,,,,,,,377.64499996423547,,response,,,100,,,,,,Space,keypress(Space),,,,,-- --- time --- ------ ----- ------- ---- -- --- ------- --<br>------- ---------- ------ -- ----- -- ----- -- ---- ------<br>--- ----- --- --- ------ -------- ----- --- ------ ----- --<br>----- ----- ---------- --- --- ------ ------ ---- -- ------<br>------- --- ------ ----- --- ---- ------- -- ---- --- --<br>------- ------,112155.69999998808,112155.09999996424,111760.79,111771.80000001192,111777.455,112160.804,,2,time
screen,html.Screen,0_2_1_1_3,2021-12-02T14:00:41.699Z,,,,,,,,,,,,,,,,54,,,,,,,,,,,,,,402.39599998807535,,response,,,100,,,,,,Space,keypress(Space),,,,,-- --- ---- the ------ ----- ------- ---- -- --- ------- --<br>------- ---------- ------ -- ----- -- ----- -- ---- ------<br>--- ----- --- --- ------ -------- ----- --- ------ ----- --<br>----- ----- ---------- --- --- ------ ------ ---- -- ------<br>------- --- ------ ----- --- ---- ------- -- ---- --- --<br>------- ------,112563.69999998808,112563.19999998808,112144.138,112155.89999997616,112160.804,112577.423,,3,the
screen,html.Screen,0_2_1_1_4,2021-12-02T14:00:42.179Z,,,,,,,,,,,,,,,,54,,,,,,,,,,,,,,465.676999964242,,response,,,100,,,,,,Space,keypress(Space),,,,,-- --- ---- --- French ----- ------- ---- -- --- ------- --<br>------- ---------- ------ -- ----- -- ----- -- ---- ------<br>--- ----- --- --- ------ -------- ----- --- ------ ----- --<br>----- ----- ---------- --- --- ------ ------ ---- -- ------<br>------- --- ------ ----- --- ---- ------- -- ---- --- --<br>------- ------,113043.69999998808,113043.09999996424,112560.758,112564,112577.423,113060.654,,4,French
screen,html.Screen,0_2_1_1_5,2021-12-02T14:00:42.595Z,,,,,,,,,,,,,,,,54,,,,,,,,,,,,,,398.4459999642422,,response,,,100,,,,,,Space,keypress(Space),,,,,-- --- ---- --- ------ crown ------- ---- -- --- ------- --<br>------- ---------- ------ -- ----- -- ----- -- ---- ------<br>--- ----- --- --- ------ -------- ----- --- ------ ----- --<br>----- ----- ---------- --- --- ------ ------ ---- -- ------<br>------- --- ------ ----- --- ---- ------- -- ---- --- --<br>------- ------,113459.69999998808,113459.09999996424,113043.99,113043.89999997616,113060.654,113460.751,,5,crown
screen,html.Screen,0_2_1_1_6,2021-12-02T14:00:43.075Z,,,,,,,,,,,,,,,,54,,,,,,,,,,,,,,478.44899998807523,,response,,,100,,,,,,Space,keypress(Space),,,,,-- --- ---- --- ------ ----- secured ---- -- --- ------- --<br>------- ---------- ------ -- ----- -- ----- -- ---- ------<br>--- ----- --- --- ------ -------- ----- --- ------ ----- --<br>----- ----- ---------- --- --- ------ ------ ---- -- ------<br>------- --- ------ ----- --- ---- ------- -- ---- --- --<br>------- ------,113939.69999998808,113939.19999998808,113444.085,113459.89999997616,113460.751,113943.943,,6,secured
screen,html.Screen,0_2_1_1_7,2021-12-02T14:00:44.059Z,,,,,,,,,,,,,,,,54,,,,,,,,,,,,,,979.1569999642379,,response,,,100,,,,,,Space,keypress(Space),,,,,-- --- ---- --- ------ ----- ------- much -- --- ------- --<br>------- ---------- ------ -- ----- -- ----- -- ---- ------<br>--- ----- --- --- ------ -------- ----- --- ------ ----- --<br>----- ----- ---------- --- --- ------ ------ ---- -- ------<br>------- --- ------ ----- --- ---- ------- -- ---- --- --<br>------- ------,114923.69999998808,114923.09999996424,113927.279,113939.80000001192,113943.943,114927.326,,7,much
screen,html.Screen,0_2_1_1_8,2021-12-02T14:00:44.459Z,,,,,,,,,,,,,,,,54,,,,,,,,,,,,,,395.67399999999907,,response,,,100,,,,,,Space,keypress(Space),,,,,-- --- ---- --- ------ ----- ------- ---- of --- ------- --<br>------- ---------- ------ -- ----- -- ----- -- ---- ------<br>--- ----- --- --- ------ -------- ----- --- ------ ----- --<br>----- ----- ---------- --- --- ------ ------ ---- -- ------<br>------- --- ------ ----- --- ---- ------- -- ---- --- --<br>------- ------,115323.5,115323,114910.66,114923.89999997616,114927.326,115327.373,,8,of
screen,html.Screen,0_2_1_1_9,2021-12-02T14:00:44.827Z,,,,,,,,,,,,,,,,54,,,,,,,,,,,,,,363.62699999999313,,response,,,100,,,,,,Space,keypress(Space),,,,,-- --- ---- --- ------ ----- ------- ---- -- its ------- --<br>------- ---------- ------ -- ----- -- ----- -- ---- ------<br>--- ----- --- --- ------ -------- ----- --- ------ ----- --<br>----- ----- ---------- --- --- ------ ------ ---- -- ------<br>------- --- ------ ----- --- ---- ------- -- ---- --- --<br>------- ------,115691.59999996424,115691,115310.707,115323.80000001192,115327.373,115693.962,,9,its
screen,html.Screen,0_2_1_1_10,2021-12-02T14:00:45.307Z,,,,,,,,,,,,,,,,54,,,,,,,,,,,,,,477.1379999642377,,response,,,100,,,,,,Space,keypress(Space),,,,,-- --- ---- --- ------ ----- ------- ---- -- --- revenue --<br>------- ---------- ------ -- ----- -- ----- -- ---- ------<br>--- ----- --- --- ------ -------- ----- --- ------ ----- --<br>----- ----- ---------- --- --- ------ ------ ---- -- ------<br>------- --- ------ ----- --- ---- ------- -- ---- --- --<br>------- ------,116171.59999996424,116171.09999996424,115677.297,115691.69999998808,115693.962,116177.308,,10,revenue
screen,html.Screen,0_2_1_1_11,2021-12-02T14:00:46.019Z,,,,,,,,,,,,,,,,54,,,,,,,,,,,,,,705.6919999999955,,response,,,100,,,,,,Space,keypress(Space),,,,,-- --- ---- --- ------ ----- ------- ---- -- --- ------- by<br>------- ---------- ------ -- ----- -- ----- -- ---- ------<br>--- ----- --- --- ------ -------- ----- --- ------ ----- --<br>----- ----- ---------- --- --- ------ ------ ---- -- ------<br>------- --- ------ ----- --- ---- ------- -- ---- --- --<br>------- ------,116883.69999998808,116883,116160.642,116171.69999998808,116177.308,116893.894,,11,by
screen,html.Screen,0_2_1_1_12,2021-12-02T14:00:46.491Z,,,,,,,,,,,,,,,,54,,,,,,,,,,,,,,461.10599999999977,,response,,,100,,,,,,Space,keypress(Space),,,,,-- --- ---- --- ------ ----- ------- ---- -- --- ------- --<br>issuing ---------- ------ -- ----- -- ----- -- ---- ------<br>--- ----- --- --- ------ -------- ----- --- ------ ----- --<br>----- ----- ---------- --- --- ------ ------ ---- -- ------<br>------- --- ------ ----- --- ---- ------- -- ---- --- --<br>------- ------,117355.5,117355,116877.229,116883.80000001192,116893.894,117360.556,,12,issuing
screen,html.Screen,0_2_1_1_13,2021-12-02T14:00:46.931Z,,,,,,,,,,,,,,,,54,,,,,,,,,,,,,,434.3439999761613,,response,,,100,,,,,,Space,keypress(Space),,,,,-- --- ---- --- ------ ----- ------- ---- -- --- ------- --<br>------- government ------ -- ----- -- ----- -- ---- ------<br>--- ----- --- --- ------ -------- ----- --- ------ ----- --<br>----- ----- ---------- --- --- ------ ------ ---- -- ------<br>------- --- ------ ----- --- ---- ------- -- ---- --- --<br>------- ------,117795.59999996424,117794.89999997616,117343.891,117355.69999998808,117360.556,117810.587,,13,government
screen,html.Screen,0_2_1_1_14,2021-12-02T14:00:47.395Z,,,,,,,,,,,,,,,,54,,,,,,,,,,,,,,448.3129999761586,,response,,,100,,,,,,Space,keypress(Space),,,,,-- --- ---- --- ------ ----- ------- ---- -- --- ------- --<br>------- ---------- bonds. -- ----- -- ----- -- ---- ------<br>--- ----- --- --- ------ -------- ----- --- ------ ----- --<br>----- ----- ---------- --- --- ------ ------ ---- -- ------<br>------- --- ------ ----- --- ---- ------- -- ---- --- --<br>------- ------,118259.5,118258.89999997616,117793.921,117795.80000001192,117810.587,118260.519,,14,bonds.
screen,html.Screen,0_2_1_1_15,2021-12-02T14:00:48.091Z,,,,,,,,,,,,,,,,54,,,,,,,,,,,,,,694.4809999999998,,response,,,100,,,,,,Space,keypress(Space),,,,,-- --- ---- --- ------ ----- ------- ---- -- --- ------- --<br>------- ---------- ------ In ----- -- ----- -- ---- ------<br>--- ----- --- --- ------ -------- ----- --- ------ ----- --<br>----- ----- ---------- --- --- ------ ------ ---- -- ------<br>------- --- ------ ----- --- ---- ------- -- ---- --- --<br>------- ------,118955.5,118955,118243.854,118259.59999996424,118260.519,118960.485,,15,In
screen,html.Screen,0_2_1_1_16,2021-12-02T14:00:49.091Z,,,,,,,,,,,,,,,,54,,,,,,,,,,,,,,994.4149999761576,,response,,,100,,,,,,Space,keypress(Space),,,,,"-- --- ---- --- ------ ----- ------- ---- -- --- ------- --<br>------- ---------- ------ -- 1727, -- ----- -- ---- ------<br>--- ----- --- --- ------ -------- ----- --- ------ ----- --<br>----- ----- ---------- --- --- ------ ------ ---- -- ------<br>------- --- ------ ----- --- ---- ------- -- ---- --- --<br>------- ------",119955.59999996424,119954.89999997616,118943.82,118955.59999996424,118960.485,119960.425,,16,"1727,"
screen,html.Screen,0_2_1_1_17,2021-12-02T14:00:49.925Z,,,,,,,,,,,,,,,,54,,,,,,,,,,,,,,826.4749999761552,,response,,,100,,,,,,Space,keypress(Space),,,,,-- --- ---- --- ------ ----- ------- ---- -- --- ------- --<br>------- ---------- ------ -- ----- in ----- -- ---- ------<br>--- ----- --- --- ------ -------- ----- --- ------ ----- --<br>----- ----- ---------- --- --- ------ ------ ---- -- ------<br>------- --- ------ ----- --- ---- ------- -- ---- --- --<br>------- ------,120787.39999997616,120786.89999997616,119943.76,119955.69999998808,119960.425,120793.733,,17,in
screen,html.Screen,0_2_1_1_18,2021-12-02T14:00:50.381Z,,,,,,,,,,,,,,,,54,,,,,,,,,,,,,,449.16699997616524,,response,,,100,,,,,,Space,keypress(Space),,,,,-- --- ---- --- ------ ----- ------- ---- -- --- ------- --<br>------- ---------- ------ -- ----- -- order -- ---- ------<br>--- ----- --- --- ------ -------- ----- --- ------ ----- --<br>----- ----- ---------- --- --- ------ ------ ---- -- ------<br>------- --- ------ ----- --- ---- ------- -- ---- --- --<br>------- ------,121243.39999997616,121242.89999997616,120777.068,120787.59999996424,120793.733,121260.409,,18,order
screen,html.Screen,0_2_1_1_19,2021-12-02T14:00:50.725Z,,,,,,,,,,,,,,,,54,,,,,,,,,,,,,,326.4909999761585,,response,,,100,,,,,,Space,keypress(Space),,,,,-- --- ---- --- ------ ----- ------- ---- -- --- ------- --<br>------- ---------- ------ -- ----- -- ----- to ---- ------<br>--- ----- --- --- ------ -------- ----- --- ------ ----- --<br>----- ----- ---------- --- --- ------ ------ ---- -- ------<br>------- --- ------ ----- --- ---- ------- -- ---- --- --<br>------- ------,121587.59999996424,121586.89999997616,121243.744,121243.59999996424,121260.409,121593.777,,19,to
screen,html.Screen,0_2_1_1_20,2021-12-02T14:00:51.037Z,,,,,,,,,,,,,,,,54,,,,,,,,,,,,,,305.02300001191907,,response,,,100,,,,,,Space,keypress(Space),,,,,-- --- ---- --- ------ ----- ------- ---- -- --- ------- --<br>------- ---------- ------ -- ----- -- ----- -- save ------<br>--- ----- --- --- ------ -------- ----- --- ------ ----- --<br>----- ----- ---------- --- --- ------ ------ ---- -- ------<br>------- --- ------ ----- --- ---- ------- -- ---- --- --<br>------- ------,121899.39999997616,121898.80000001192,121577.111,121587.80000001192,121593.777,121910.456,,20,save
screen,html.Screen,0_2_1_1_21,2021-12-02T14:00:51.485Z,,,,,,,,,,,,,,,,54,,,,,,,,,,,,,,436.2439999880735,,response,,,100,,,,,,Space,keypress(Space),,,,,"-- --- ---- --- ------ ----- ------- ---- -- --- ------- --<br>------- ---------- ------ -- ----- -- ----- -- ---- money,<br>--- ----- --- --- ------ -------- ----- --- ------ ----- --<br>----- ----- ---------- --- --- ------ ------ ---- -- ------<br>------- --- ------ ----- --- ---- ------- -- ---- --- --<br>------- ------",122347.39999997616,122346.69999998808,121893.79,121899.59999996424,121910.456,122360.402,,21,"money,"
screen,html.Screen,0_2_1_1_22,2021-12-02T14:00:51.989Z,,,,,,,,,,,,,,,,54,,,,,,,,,,,,,,490.39800001191907,,response,,,100,,,,,,Space,keypress(Space),,,,,-- --- ---- --- ------ ----- ------- ---- -- --- ------- --<br>------- ---------- ------ -- ----- -- ----- -- ---- ------<br>the ----- --- --- ------ -------- ----- --- ------ ----- --<br>----- ----- ---------- --- --- ------ ------ ---- -- ------<br>------- --- ------ ----- --- ---- ------- -- ---- --- --<br>------- ------,122851.39999997616,122850.80000001192,122343.737,122347.5,122360.402,122860.291,,22,the
screen,html.Screen,0_2_1_1_23,2021-12-02T14:00:52.381Z,,,,,,,,,,,,,,,,54,,,,,,,,,,,,,,382.40899998808163,,response,,,100,,,,,,Space,keypress(Space),,,,,-- --- ---- --- ------ ----- ------- ---- -- --- ------- --<br>------- ---------- ------ -- ----- -- ----- -- ---- ------<br>--- state --- --- ------ -------- ----- --- ------ ----- --<br>----- ----- ---------- --- --- ------ ------ ---- -- ------<br>------- --- ------ ----- --- ---- ------- -- ---- --- --<br>------- ------,123243.39999997616,123242.69999998808,122843.627,122851.5,122860.291,123260.343,,23,state
screen,html.Screen,0_2_1_1_24,2021-12-02T14:00:52.997Z,,,,,,,,,,,,,,,,54,,,,,,,,,,,,,,598.4570000119274,,response,,,100,,,,,,Space,keypress(Space),,,,,-- --- ---- --- ------ ----- ------- ---- -- --- ------- --<br>------- ---------- ------ -- ----- -- ----- -- ---- ------<br>--- ----- cut --- ------ -------- ----- --- ------ ----- --<br>----- ----- ---------- --- --- ------ ------ ---- -- ------<br>------- --- ------ ----- --- ---- ------- -- ---- --- --<br>------- ------,123859.39999997616,123858.80000001192,123243.678,123243.5,123260.343,123860.309,,24,cut
screen,html.Screen,0_2_1_1_25,2021-12-02T14:00:53.421Z,,,,,,,,,,,,,,,,54,,,,,,,,,,,,,,422.39099998808524,,response,,,100,,,,,,Space,keypress(Space),,,,,-- --- ---- --- ------ ----- ------- ---- -- --- ------- --<br>------- ---------- ------ -- ----- -- ----- -- ---- ------<br>--- ----- --- the ------ -------- ----- --- ------ ----- --<br>----- ----- ---------- --- --- ------ ------ ---- -- ------<br>------- --- ------ ----- --- ---- ------- -- ---- --- --<br>------- ------,124283.19999998808,124282.69999998808,123843.644,123859.5,123860.309,124293.753,,25,the
screen,html.Screen,0_2_1_1_26,2021-12-02T14:00:53.877Z,,,,,,,,,,,,,,,,54,,,,,,,,,,,,,,444.9469999880821,,response,,,100,,,,,,Space,keypress(Space),,,,,-- --- ---- --- ------ ----- ------- ---- -- --- ------- --<br>------- ---------- ------ -- ----- -- ----- -- ---- ------<br>--- ----- --- --- bonds' -------- ----- --- ------ ----- --<br>----- ----- ---------- --- --- ------ ------ ---- -- ------<br>------- --- ------ ----- --- ---- ------- -- ---- --- --<br>------- ------,124739.30000001192,124738.69999998808,124277.086,124283.30000001192,124293.753,124743.605,,26,bonds'
screen,html.Screen,0_2_1_1_27,2021-12-02T14:00:54.405Z,,,,,,,,,,,,,,,,54,,,,,,,,,,,,,,522.9949999642413,,response,,,100,,,,,,Space,keypress(Space),,,,,-- --- ---- --- ------ ----- ------- ---- -- --- ------- --<br>------- ---------- ------ -- ----- -- ----- -- ---- ------<br>--- ----- --- --- ------ interest ----- --- ------ ----- --<br>----- ----- ---------- --- --- ------ ------ ---- -- ------<br>------- --- ------ ----- --- ---- ------- -- ---- --- --<br>------- ------,125267.30000001192,125266.59999996424,124726.94,124739.5,124743.605,125277.009,,27,interest
screen,html.Screen,0_2_1_1_28,2021-12-02T14:00:54.805Z,,,,,,,,,,,,,,,,54,,,,,,,,,,,,,,389.59099996423174,,response,,,100,,,,,,Space,keypress(Space),,,,,-- --- ---- --- ------ ----- ------- ---- -- --- ------- --<br>------- ---------- ------ -- ----- -- ----- -- ---- ------<br>--- ----- --- --- ------ -------- rate. --- ------ ----- --<br>----- ----- ---------- --- --- ------ ------ ---- -- ------<br>------- --- ------ ----- --- ---- ------- -- ---- --- --<br>------- ------,125667.19999998808,125666.59999996424,125260.343,125267.5,125277.009,125676.945,,28,rate.
screen,html.Screen,0_2_1_1_29,2021-12-02T14:00:55.397Z,,,,,,,,,,,,,,,,54,,,,,,,,,,,,,,581.7549999880721,,response,,,100,,,,,,Space,keypress(Space),,,,,-- --- ---- --- ------ ----- ------- ---- -- --- ------- --<br>------- ---------- ------ -- ----- -- ----- -- ---- ------<br>--- ----- --- --- ------ -------- ----- The ------ ----- --<br>----- ----- ---------- --- --- ------ ------ ---- -- ------<br>------- --- ------ ----- --- ---- ------- -- ---- --- --<br>------- ------,126259.30000001192,126258.69999998808,125660.28,125667.39999997616,125676.945,126260.29,,29,The
screen,html.Screen,0_2_1_1_30,2021-12-02T14:00:55.828Z,,,,,,,,,,,,,,,,54,,,,,,,,,,,,,,430.3099999642436,,response,,,100,,,,,,Space,keypress(Space),,,,,-- --- ---- --- ------ ----- ------- ---- -- --- ------- --<br>------- ---------- ------ -- ----- -- ----- -- ---- ------<br>--- ----- --- --- ------ -------- ----- --- market ----- --<br>----- ----- ---------- --- --- ------ ------ ---- -- ------<br>------- --- ------ ----- --- ---- ------- -- ---- --- --<br>------- ------,126691.09999996424,126690.59999996424,126243.624,126259.39999997616,126260.29,126693.575,,30,market
screen,html.Screen,0_2_1_1_31,2021-12-02T14:00:56.253Z,,,,,,,,,,,,,,,,54,,,,,,,,,,,,,,421.124999988082,,response,,,100,,,,,,Space,keypress(Space),,,,,-- --- ---- --- ------ ----- ------- ---- -- --- ------- --<br>------- ---------- ------ -- ----- -- ----- -- ---- ------<br>--- ----- --- --- ------ -------- ----- --- ------ value --<br>----- ----- ---------- --- --- ------ ------ ---- -- ------<br>------- --- ------ ----- --- ---- ------- -- ---- --- --<br>------- ------,127115.19999998808,127114.69999998808,126676.91,126691.30000001192,126693.575,127126.856,,31,value
screen,html.Screen,0_2_1_1_32,2021-12-02T14:00:56.628Z,,,,,,,,,,,,,,,,54,,,,,,,,,,,,,,363.64400000000023,,response,,,100,,,,,,Space,keypress(Space),,,,,-- --- ---- --- ------ ----- ------- ---- -- --- ------- --<br>------- ---------- ------ -- ----- -- ----- -- ---- ------<br>--- ----- --- --- ------ -------- ----- --- ------ ----- of<br>----- ----- ---------- --- --- ------ ------ ---- -- ------<br>------- --- ------ ----- --- ---- ------- -- ---- --- --<br>------- ------,127491.09999996424,127490.5,127110.191,127115.30000001192,127126.856,127493.577,,32,of
screen,html.Screen,0_2_1_1_33,2021-12-02T14:00:57.069Z,,,,,,,,,,,,,,,,54,,,,,,,,,,,,,,437.02299996423244,,response,,,100,,,,,,Space,keypress(Space),,,,,-- --- ---- --- ------ ----- ------- ---- -- --- ------- --<br>------- ---------- ------ -- ----- -- ----- -- ---- ------<br>--- ----- --- --- ------ -------- ----- --- ------ ----- --<br>these ----- ---------- --- --- ------ ------ ---- -- ------<br>------- --- ------ ----- --- ---- ------- -- ---- --- --<br>------- ------,127931.19999998808,127930.59999996424,127476.911,127491.19999998808,127493.577,127943.569,,33,these
screen,html.Screen,0_2_1_1_34,2021-12-02T14:00:57.437Z,,,,,,,,,,,,,,,,54,,,,,,,,,,,,,,355.03099996423407,,response,,,100,,,,,,Space,keypress(Space),,,,,-- --- ---- --- ------ ----- ------- ---- -- --- ------- --<br>------- ---------- ------ -- ----- -- ----- -- ---- ------<br>--- ----- --- --- ------ -------- ----- --- ------ ----- --<br>----- bonds ---------- --- --- ------ ------ ---- -- ------<br>------- --- ------ ----- --- ---- ------- -- ---- --- --<br>------- ------,128299.19999998808,128298.59999996424,127926.903,127931.39999997616,127943.569,128310.176,,34,bonds
screen,html.Screen,0_2_1_1_35,2021-12-02T14:00:57.948Z,,,,,,,,,,,,,,,,54,,,,,,,,,,,,,,500.32399999999325,,response,,,100,,,,,,Space,keypress(Space),,,,,"-- --- ---- --- ------ ----- ------- ---- -- --- ------- --<br>------- ---------- ------ -- ----- -- ----- -- ---- ------<br>--- ----- --- --- ------ -------- ----- --- ------ ----- --<br>----- ----- plummeted, --- --- ------ ------ ---- -- ------<br>------- --- ------ ----- --- ---- ------- -- ---- --- --<br>------- ------",128811.19999998808,128810.5,128293.511,128299.30000001192,128310.176,128826.789,,35,"plummeted,"
screen,html.Screen,0_2_1_1_36,2021-12-02T14:00:58.421Z,,,,,,,,,,,,,,,,54,,,,,,,,,,,,,,455.7109999999957,,response,,,100,,,,,,Space,keypress(Space),,,,,-- --- ---- --- ------ ----- ------- ---- -- --- ------- --<br>------- ---------- ------ -- ----- -- ----- -- ---- ------<br>--- ----- --- --- ------ -------- ----- --- ------ ----- --<br>----- ----- ---------- and --- ------ ------ ---- -- ------<br>------- --- ------ ----- --- ---- ------- -- ---- --- --<br>------- ------,129283.19999998808,129282.5,128810.124,128812.19999998808,128826.789,129293.451,,36,and
screen,html.Screen,0_2_1_1_37,2021-12-02T14:00:58.748Z,,,,,,,,,,,,,,,,54,,,,,,,,,,,,,,316.9489999761572,,response,,,100,,,,,,Space,keypress(Space),,,,,-- --- ---- --- ------ ----- ------- ---- -- --- ------- --<br>------- ---------- ------ -- ----- -- ----- -- ---- ------<br>--- ----- --- --- ------ -------- ----- --- ------ ----- --<br>----- ----- ---------- --- the ------ ------ ---- -- ------<br>------- --- ------ ----- --- ---- ------- -- ---- --- --<br>------- ------,129611,129610.39999997616,129276.786,129283.39999997616,129293.451,129626.779,,37,the
screen,html.Screen,0_2_1_1_38,2021-12-02T14:00:59.332Z,,,,,,,,,,,,,,,,54,,,,,,,,,,,,,,567.721000000005,,response,,,100,,,,,,Space,keypress(Space),,,,,-- --- ---- --- ------ ----- ------- ---- -- --- ------- --<br>------- ---------- ------ -- ----- -- ----- -- ---- ------<br>--- ----- --- --- ------ -------- ----- --- ------ ----- --<br>----- ----- ---------- --- --- market ------ ---- -- ------<br>------- --- ------ ----- --- ---- ------- -- ---- --- --<br>------- ------,130195.09999996424,130194.5,129610.114,129611.19999998808,129626.779,130210.121,,38,market
screen,html.Screen,0_2_1_1_39,2021-12-02T14:00:59.756Z,,,,,,,,,,,,,,,,54,,,,,,,,,,,,,,408.3790000000008,,response,,,100,,,,,,Space,keypress(Space),,,,,-- --- ---- --- ------ ----- ------- ---- -- --- ------- --<br>------- ---------- ------ -- ----- -- ----- -- ---- ------<br>--- ----- --- --- ------ -------- ----- --- ------ ----- --<br>----- ----- ---------- --- --- ------ became ---- -- ------<br>------- --- ------ ----- --- ---- ------- -- ---- --- --<br>------- ------,130619,130618.5,130193.455,130195.30000001192,130210.121,130626.735,,39,became
screen,html.Screen,0_2_1_1_40,2021-12-02T14:01:00.156Z,,,,,,,,,,,,,,,,54,,,,,,,,,,,,,,391.7649999999994,,response,,,100,,,,,,Space,keypress(Space),,,,,-- --- ---- --- ------ ----- ------- ---- -- --- ------- --<br>------- ---------- ------ -- ----- -- ----- -- ---- ------<br>--- ----- --- --- ------ -------- ----- --- ------ ----- --<br>----- ----- ---------- --- --- ------ ------ wary -- ------<br>------- --- ------ ----- --- ---- ------- -- ---- --- --<br>------- ------,131019,131018.5,130610.07,130619.19999998808,130626.735,131026.724,,40,wary
screen,html.Screen,0_2_1_1_41,2021-12-02T14:01:00.580Z,,,,,,,,,,,,,,,,54,,,,,,,,,,,,,,415.67599997615616,,response,,,100,,,,,,Space,keypress(Space),,,,,-- --- ---- --- ------ ----- ------- ---- -- --- ------- --<br>------- ---------- ------ -- ----- -- ----- -- ---- ------<br>--- ----- --- --- ------ -------- ----- --- ------ ----- --<br>----- ----- ---------- --- --- ------ ------ ---- of ------<br>------- --- ------ ----- --- ---- ------- -- ---- --- --<br>------- ------,131443,131442.39999997616,131010.059,131019.19999998808,131026.724,131460.074,,41,of
screen,html.Screen,0_2_1_1_42,2021-12-02T14:01:01.189Z,,,,,,,,,,,,,,,,54,,,,,,,,,,,,,,590.6259999880858,,response,,,100,,,,,,Space,keypress(Space),,,,,-- --- ---- --- ------ ----- ------- ---- -- --- ------- --<br>------- ---------- ------ -- ----- -- ----- -- ---- ------<br>--- ----- --- --- ------ -------- ----- --- ------ ----- --<br>----- ----- ---------- --- --- ------ ------ ---- -- French<br>------- --- ------ ----- --- ---- ------- -- ---- --- --<br>------- ------,132051.30000001192,132050.69999998808,131443.408,131443.19999998808,131460.074,132060.008,,42,French
screen,html.Screen,0_2_1_1_43,2021-12-02T14:01:01.740Z,,,,,,,,,,,,,,,,54,,,,,,,,,,,,,,542.2920000119193,,response,,,100,,,,,,Space,keypress(Space),,,,,-- --- ---- --- ------ ----- ------- ---- -- --- ------- --<br>------- ---------- ------ -- ----- -- ----- -- ---- ------<br>--- ----- --- --- ------ -------- ----- --- ------ ----- --<br>----- ----- ---------- --- --- ------ ------ ---- -- ------<br>credit. --- ------ ----- --- ---- ------- -- ---- --- --<br>------- ------,132602.89999997616,132602.30000001192,132043.343,132051.5,132060.008,132609.987,,43,credit.
screen,html.Screen,0_2_1_1_44,2021-12-02T14:01:02.260Z,,,,,,,,,,,,,,,,54,,,,,,,,,,,,,,512.4129999761644,,response,,,100,,,,,,Space,keypress(Space),,,,,-- --- ---- --- ------ ----- ------- ---- -- --- ------- --<br>------- ---------- ------ -- ----- -- ----- -- ---- ------<br>--- ----- --- --- ------ -------- ----- --- ------ ----- --<br>----- ----- ---------- --- --- ------ ------ ---- -- ------<br>------- The ------ ----- --- ---- ------- -- ---- --- --<br>------- ------,133123,133122.39999997616,132593.322,132603.09999996424,132609.987,133126.638,,44,The
screen,html.Screen,0_2_1_1_45,2021-12-02T14:01:02.684Z,,,,,,,,,,,,,,,,54,,,,,,,,,,,,,,419.76199997615186,,response,,,100,,,,,,Space,keypress(Space),,,,,-- --- ---- --- ------ ----- ------- ---- -- --- ------- --<br>------- ---------- ------ -- ----- -- ----- -- ---- ------<br>--- ----- --- --- ------ -------- ----- --- ------ ----- --<br>----- ----- ---------- --- --- ------ ------ ---- -- ------<br>------- --- French ----- --- ---- ------- -- ---- --- --<br>------- ------,133546.89999997616,133546.39999997616,133109.973,133123.19999998808,133126.638,133559.959,,45,French
screen,html.Screen,0_2_1_1_46,2021-12-02T14:01:03.076Z,,,,,,,,,,,,,,,,54,,,,,,,,,,,,,,378.4409999761556,,response,,,100,,,,,,Space,keypress(Space),,,,,-- --- ---- --- ------ ----- ------- ---- -- --- ------- --<br>------- ---------- ------ -- ----- -- ----- -- ---- ------<br>--- ----- --- --- ------ -------- ----- --- ------ ----- --<br>----- ----- ---------- --- --- ------ ------ ---- -- ------<br>------- --- ------ state --- ---- ------- -- ---- --- --<br>------- ------,133939,133938.39999997616,133543.294,133547.09999996424,133559.959,133943.282,,46,state
screen,html.Screen,0_2_1_1_47,2021-12-02T14:01:03.492Z,,,,,,,,,,,,,,,,54,,,,,,,,,,,,,,411.0180000119144,,response,,,100,,,,,,Space,keypress(Space),,,,,-- --- ---- --- ------ ----- ------- ---- -- --- ------- --<br>------- ---------- ------ -- ----- -- ----- -- ---- ------<br>--- ----- --- --- ------ -------- ----- --- ------ ----- --<br>----- ----- ---------- --- --- ------ ------ ---- -- ------<br>------- --- ------ ----- was ---- ------- -- ---- --- --<br>------- ------,134354.89999997616,134354.30000001192,133926.617,133939.09999996424,133943.282,134359.932,,47,was
screen,html.Screen,0_2_1_1_48,2021-12-02T14:01:03.924Z,,,,,,,,,,,,,,,,54,,,,,,,,,,,,,,426.36800001192023,,response,,,100,,,,,,Space,keypress(Space),,,,,-- --- ---- --- ------ ----- ------- ---- -- --- ------- --<br>------- ---------- ------ -- ----- -- ----- -- ---- ------<br>--- ----- --- --- ------ -------- ----- --- ------ ----- --<br>----- ----- ---------- --- --- ------ ------ ---- -- ------<br>------- --- ------ ----- --- left ------- -- ---- --- --<br>------- ------,134786.89999997616,134786.30000001192,134343.267,134355,134359.932,134793.176,,48,left
screen,html.Screen,0_2_1_1_49,2021-12-02T14:01:04.500Z,,,,,,,,,,,,,,,,54,,,,,,,,,,,,,,569.1240000119142,,response,,,100,,,,,,Space,keypress(Space),,,,,-- --- ---- --- ------ ----- ------- ---- -- --- ------- --<br>------- ---------- ------ -- ----- -- ----- -- ---- ------<br>--- ----- --- --- ------ -------- ----- --- ------ ----- --<br>----- ----- ---------- --- --- ------ ------ ---- -- ------<br>------- --- ------ ----- --- ---- without -- ---- --- --<br>------- ------,135362.80000001192,135362.30000001192,134776.512,134787.09999996424,134793.176,135376.649,,49,without
screen,html.Screen,0_2_1_1_50,2021-12-02T14:01:05.124Z,,,,,,,,,,,,,,,,54,,,,,,,,,,,,,,609.651000011916,,response,,,100,,,,,,Space,keypress(Space),,,,,-- --- ---- --- ------ ----- ------- ---- -- --- ------- --<br>------- ---------- ------ -- ----- -- ----- -- ---- ------<br>--- ----- --- --- ------ -------- ----- --- ------ ----- --<br>----- ----- ---------- --- --- ------ ------ ---- -- ------<br>------- --- ------ ----- --- ---- ------- an ---- --- --<br>------- ------,135987,135986.30000001192,135359.982,135363,135376.649,135993.282,,50,an
screen,html.Screen,0_2_1_1_51,2021-12-02T14:01:05.548Z,,,,,,,,,,,,,,,,54,,,,,,,,,,,,,,416.91799998807255,,response,,,100,,,,,,Space,keypress(Space),,,,,-- --- ---- --- ------ ----- ------- ---- -- --- ------- --<br>------- ---------- ------ -- ----- -- ----- -- ---- ------<br>--- ----- --- --- ------ -------- ----- --- ------ ----- --<br>----- ----- ---------- --- --- ------ ------ ---- -- ------<br>------- --- ------ ----- --- ---- ------- -- easy --- --<br>------- ------,136410.80000001192,136410.19999998808,135976.616,135987.09999996424,135993.282,136426.498,,51,easy
screen,html.Screen,0_2_1_1_52,2021-12-02T14:01:06.004Z,,,,,,,,,,,,,,,,54,,,,,,,,,,,,,,439.70199998808675,,response,,,100,,,,,,Space,keypress(Space),,,,,-- --- ---- --- ------ ----- ------- ---- -- --- ------- --<br>------- ---------- ------ -- ----- -- ----- -- ---- ------<br>--- ----- --- --- ------ -------- ----- --- ------ ----- --<br>----- ----- ---------- --- --- ------ ------ ---- -- ------<br>------- --- ------ ----- --- ---- ------- -- ---- way --<br>------- ------,136866.89999997616,136866.19999998808,136409.833,136410.89999997616,136426.498,136876.56,,52,way
screen,html.Screen,0_2_1_1_53,2021-12-02T14:01:06.388Z,,,,,,,,,,,,,,,,54,,,,,,,,,,,,,,373.6399999880814,,response,,,100,,,,,,Space,keypress(Space),,,,,-- --- ---- --- ------ ----- ------- ---- -- --- ------- --<br>------- ---------- ------ -- ----- -- ----- -- ---- ------<br>--- ----- --- --- ------ -------- ----- --- ------ ----- --<br>----- ----- ---------- --- --- ------ ------ ---- -- ------<br>------- --- ------ ----- --- ---- ------- -- ---- --- of<br>------- ------,137250.69999998808,137250.19999998808,136859.894,136867.09999996424,136876.56,137259.815,,53,of
screen,html.Screen,0_2_1_1_54,2021-12-02T14:01:06.916Z,,,,,,,,,,,,,,,,54,,,,,,,,,,,,,,518.3849999880767,,response,,,100,,,,,,Space,keypress(Space),,,,,-- --- ---- --- ------ ----- ------- ---- -- --- ------- --<br>------- ---------- ------ -- ----- -- ----- -- ---- ------<br>--- ----- --- --- ------ -------- ----- --- ------ ----- --<br>----- ----- ---------- --- --- ------ ------ ---- -- ------<br>------- --- ------ ----- --- ---- ------- -- ---- --- --<br>raising ------,137778.80000001192,137778.19999998808,137243.15,137250.89999997616,137259.815,137793.134,,54,raising
screen,html.Screen,0_2_1_1_55,2021-12-02T14:01:07.732Z,,,,,,,,,,,,,,,,54,,,,,,,,,,,,,,800.9659999642463,,response,,,100,,,,,,Space,keypress(Space),,,,,-- --- ---- --- ------ ----- ------- ---- -- --- ------- --<br>------- ---------- ------ -- ----- -- ----- -- ---- ------<br>--- ----- --- --- ------ -------- ----- --- ------ ----- --<br>----- ----- ---------- --- --- ------ ------ ---- -- ------<br>------- --- ------ ----- --- ---- ------- -- ---- --- --<br>------- money.,138594.80000001192,138594.09999996424,137776.469,137779,137793.134,138609.746,,55,money.
Item 100,flow.Loop,0_2_1_1,2021-12-02T14:01:07.732Z,,,,,,,,,,,,,,,,,,,,,,,,,,,,,,27733.238999964233,,completion,,,,B,,,,,,,,,,silence,,138595.09999996424,138594.09999996424,110844.195,110845.80000001192,110860.861,138609.746,,,
Question 1,html.Screen,0_2_1_2,2021-12-02T14:01:11.581Z,,,,,,,,,,,,,,,,,,,,,,,,,,,true,TRUE,,3833.554000011907,,response,,,100,B,,,,,TRUE,click #choice-1,,,,silence,,142444.09999996424,142443.30000001192,138593.081,138595.19999998808,138609.746,142459.592,,,
Question 2,html.Screen,0_2_1_3,2021-12-02T14:01:14.425Z,,,,,,,,,,,,,,,,,,,,,,,,,,,true,FALSE,,2827.107999988075,,response,,,100,B,,,,,FALSE,click #choice-2,,,,silence,,145287.5,145286.69999998808,142442.927,142444.30000001192,142459.592,145292.835,,,
Item 100,flow.Sequence,0_2_1,2021-12-02T14:01:14.425Z,,,,,,,,,,,,,,,,,,,,,,,,,,,,,,44425.785999988075,,completion,,,,,,,,,,,,,,,,145287.69999998808,145286.69999998808,100844.255,100853.09999996424,100860.914,145292.835,,,
End of Practice,html.Page,0_2_2,2021-12-02T14:01:20.878Z,,,,,,,,,,,,,,,,,,,,,,,,,,,,,,6447.665000000008,,form submission,,,,,,,,,,,,,,,,151740.89999997616,151740.5,145276.17,145287.89999997616,145292.835,151743.027,,,
Practice,flow.Sequence,0_2,2021-12-02T14:01:20.878Z,,,,,,,,,,,,,,,,,,,,,,,,,,,,,,101511.042,,completion,,,,,,,,,,,,,,,,151741.09999996424,151740.5,50212.794,50216.19999998808,50229.458,151743.027,,,
Trap_instruction,html.Page,0_3_0,2021-12-02T14:01:26.927Z,,,,,,,,,,,,,,,,,,,,,,,,,,,,,,6046.372999976156,,form submission,,,,,,,,,,,,,,,,157789.80000001192,157789.39999997616,151726.351,151741.30000001192,151743.027,157808.769,,,
trap_trial,html.Screen,0_3_1,2021-12-02T14:01:30.215Z,,,,,,,,,,,,,,,,,,,,,,,,,,,true,1,,3268.430999988079,,response,,,,,,,,,1,click #choice-1,,,,,,161078,161077.19999998808,157775.439,157789.89999997616,157808.769,161090.383,,,
end of trap trial,html.Page,0_3_2,2021-12-02T14:01:33.532Z,,,,,,,,,,,,,,,,,,,,,,,,,,,,,,3303.9170000119193,,form submission,,,,,,,,,,,,,,,,164394.80000001192,164394.30000001192,161073.727,161078.09999996424,161090.383,164408.798,,,
Trap 1,flow.Sequence,0_3,2021-12-02T14:01:33.532Z,,,,,,,,,,,,,,,,,,,,,,,,,,,,,,12651.273000011919,,completion,,,,,,,,,,,,,,,,164395,164394.30000001192,151726.351,151741.19999998808,151743.027,164408.798,,,
Standby,html.Page,0_4_0,2021-12-02T14:01:41.531Z,,,,,,,,,,,,,,,,,,,,,,,,,,,,,,8000.215999999986,,timeout,,,,,,,,,,,,,,,,172393.30000001192,172392.347,164392.133,164395.09999996424,164408.798,172409.014,,,
Holding screen,html.Screen,0_4_1_0_0,2021-12-02T14:01:48.530Z,,,,,,,,,,,,,,,,,,,,,,,,,,,,,,6999.200000000012,,timeout,,,,,,,,,,,,,,,,179392.5,179391.549,172392.347,172393.59999996424,172409.014,179408.214,,,
screen,html.Screen,0_4_1_0_1_0,2021-12-02T14:01:49.107Z,,,,,,,,,,,,,,,,48,,,,,,,,,,,,,,560.6859999761509,,response,,,10,B,,,,,Space,keypress(Space),,,,lyrical,As -- --- ------ ------- --------- ----------- --------<br>--------- -------- --- ------- -- ------- ---- -- ------<br>-- --- -------- -------- ---------- ---- ---- ---- ------<br>-- --------- -- ---- -- --- -- --- ------- -- - -----<br>---------- -- -- -- ---- ----- -- ------ -- --- ------<br>-------,179969.69999998808,179968.89999997616,179391.549,179392.69999998808,179408.214,179974.965,,0,As
screen,html.Screen,0_4_1_0_1_1,2021-12-02T14:01:49.490Z,,,,,,,,,,,,,,,,48,,,,,,,,,,,,,,377.6349999642407,,response,,,10,B,,,,,Space,keypress(Space),,,,lyrical,-- in --- ------ ------- --------- ----------- --------<br>--------- -------- --- ------- -- ------- ---- -- ------<br>-- --- -------- -------- ---------- ---- ---- ---- ------<br>-- --------- -- ---- -- --- -- --- ------- -- - -----<br>---------- -- -- -- ---- ----- -- ------ -- --- ------<br>-------,180353.19999998808,180352.59999996424,179958.299,179969.89999997616,179974.965,180358.247,,1,in
screen,html.Screen,0_4_1_0_1_2,2021-12-02T14:01:49.842Z,,,,,,,,,,,,,,,,48,,,,,,,,,,,,,,346.3529999642342,,response,,,10,B,,,,,Space,keypress(Space),,,,lyrical,-- -- the ------ ------- --------- ----------- --------<br>--------- -------- --- ------- -- ------- ---- -- ------<br>-- --- -------- -------- ---------- ---- ---- ---- ------<br>-- --------- -- ---- -- --- -- --- ------- -- - -----<br>---------- -- -- -- ---- ----- -- ------ -- --- ------<br>-------,180705.09999996424,180704.59999996424,180341.582,180353.30000001192,180358.247,180708.213,,2,the
screen,html.Screen,0_4_1_0_1_3,2021-12-02T14:01:50.252Z,,,,,,,,,,,,,,,,48,,,,,,,,,,,,,,404.3869999642484,,response,,,10,B,,,,,Space,keypress(Space),,,,lyrical,-- -- --- United ------- --------- ----------- --------<br>--------- -------- --- ------- -- ------- ---- -- ------<br>-- --- -------- -------- ---------- ---- ---- ---- ------<br>-- --------- -- ---- -- --- -- --- ------- -- - -----<br>---------- -- -- -- ---- ----- -- ------ -- --- ------<br>-------,181113.30000001192,181112.59999996424,180691.548,180705.30000001192,180708.213,181124.904,,3,United
screen,html.Screen,0_4_1_0_1_4,2021-12-02T14:01:50.684Z,,,,,,,,,,,,,,,,48,,,,,,,,,,,,,,419.59599999999045,,response,,,10,B,,,,,Space,keypress(Space),,,,lyrical,"-- -- --- ------ States, --------- ----------- --------<br>--------- -------- --- ------- -- ------- ---- -- ------<br>-- --- -------- -------- ---------- ---- ---- ---- ------<br>-- --------- -- ---- -- --- -- --- ------- -- - -----<br>---------- -- -- -- ---- ----- -- ------ -- --- ------<br>-------",181545.09999996424,181544.5,181108.238,181113.39999997616,181124.904,181558.165,,4,"States,"
screen,html.Screen,0_4_1_0_1_5,2021-12-02T14:01:51.260Z,,,,,,,,,,,,,,,,48,,,,,,,,,,,,,,562.3349999999919,,response,,,10,B,,,,,Space,keypress(Space),,,,lyrical,-- -- --- ------ ------- Colombian ----------- --------<br>--------- -------- --- ------- -- ------- ---- -- ------<br>-- --- -------- -------- ---------- ---- ---- ---- ------<br>-- --------- -- ---- -- --- -- --- ------- -- - -----<br>---------- -- -- -- ---- ----- -- ------ -- --- ------<br>-------,182121.19999998808,182120.5,181541.5,181545.19999998808,181558.165,182124.859,,5,Colombian
screen,html.Screen,0_4_1_0_1_6,2021-12-02T14:01:51.740Z,,,,,,,,,,,,,,,,48,,,,,,,,,,,,,,475.64100000000326,,response,,,10,B,,,,,Space,keypress(Space),,,,lyrical,-- -- --- ------ ------- --------- legislation --------<br>--------- -------- --- ------- -- ------- ---- -- ------<br>-- --- -------- -------- ---------- ---- ---- ---- ------<br>-- --------- -- ---- -- --- -- --- ------- -- - -----<br>---------- -- -- -- ---- ----- -- ------ -- --- ------<br>-------,182601.09999996424,182600.5,182108.193,182121.39999997616,182124.859,182608.134,,6,legislation
screen,html.Screen,0_4_1_0_1_7,2021-12-02T14:01:52.420Z,,,,,,,,,,,,,,,,48,,,,,,,,,,,,,,672.4659999642463,,response,,,10,B,,,,,Space,keypress(Space),,,,lyrical,-- -- --- ------ ------- --------- ----------- requires<br>--------- -------- --- ------- -- ------- ---- -- ------<br>-- --- -------- -------- ---------- ---- ---- ---- ------<br>-- --------- -- ---- -- --- -- --- ------- -- - -----<br>---------- -- -- -- ---- ----- -- ------ -- --- ------<br>-------,183281.19999998808,183280.59999996424,182591.469,182601.19999998808,182608.134,183291.431,,7,requires
screen,html.Screen,0_4_1_0_1_8,2021-12-02T14:01:53.100Z,,,,,,,,,,,,,,,,48,,,,,,,,,,,,,,669.0689999999886,,response,,,10,B,,,,,Space,keypress(Space),,,,lyrical,-- -- --- ------ ------- --------- ----------- --------<br>travelers -------- --- ------- -- ------- ---- -- ------<br>-- --- -------- -------- ---------- ---- ---- ---- ------<br>-- --------- -- ---- -- --- -- --- ------- -- - -----<br>---------- -- -- -- ---- ----- -- ------ -- --- ------<br>-------,183961.09999996424,183960.5,183274.766,183281.39999997616,183291.431,183974.736,,8,travelers
screen,html.Screen,0_4_1_0_1_9,2021-12-02T14:01:53.780Z,,,,,,,,,,,,,,,,48,,,,,,,,,,,,,,665.6639999761537,,response,,,10,B,,,,,Space,keypress(Space),,,,lyrical,-- -- --- ------ ------- --------- ----------- --------<br>--------- entering --- ------- -- ------- ---- -- ------<br>-- --- -------- -------- ---------- ---- ---- ---- ------<br>-- --------- -- ---- -- --- -- --- ------- -- - -----<br>---------- -- -- -- ---- ----- -- ------ -- --- ------<br>-------,184641.09999996424,184640.39999997616,183958.071,183961.19999998808,183974.736,184658.101,,9,entering
screen,html.Screen,0_4_1_0_1_10,2021-12-02T14:01:54.228Z,,,,,,,,,,,,,,,,48,,,,,,,,,,,,,,430.29899997616303,,response,,,10,B,,,,,Space,keypress(Space),,,,lyrical,-- -- --- ------ ------- --------- ----------- --------<br>--------- -------- the ------- -- ------- ---- -- ------<br>-- --- -------- -------- ---------- ---- ---- ---- ------<br>-- --------- -- ---- -- --- -- --- ------- -- - -----<br>---------- -- -- -- ---- ----- -- ------ -- --- ------<br>-------,185089.09999996424,185088.39999997616,184641.435,184641.19999998808,184658.101,185091.375,,10,the
screen,html.Screen,0_4_1_0_1_11,2021-12-02T14:01:54.780Z,,,,,,,,,,,,,,,,48,,,,,,,,,,,,,,549.0249999761581,,response,,,10,B,,,,,Space,keypress(Space),,,,lyrical,-- -- --- ------ ------- --------- ----------- --------<br>--------- -------- --- country -- ------- ---- -- ------<br>-- --- -------- -------- ---------- ---- ---- ---- ------<br>-- --------- -- ---- -- --- -- --- ------- -- - -----<br>---------- -- -- -- ---- ----- -- ------ -- --- ------<br>-------,185641,185640.39999997616,185074.71,185089.19999998808,185091.375,185658.066,,11,country
screen,html.Screen,0_4_1_0_1_12,2021-12-02T14:01:55.228Z,,,,,,,,,,,,,,,,48,,,,,,,,,,,,,,430.3339999761665,,response,,,10,B,,,,,Space,keypress(Space),,,,lyrical,-- -- --- ------ ------- --------- ----------- --------<br>--------- -------- --- ------- to ------- ---- -- ------<br>-- --- -------- -------- ---------- ---- ---- ---- ------<br>-- --------- -- ---- -- --- -- --- ------- -- - -----<br>---------- -- -- -- ---- ----- -- ------ -- --- ------<br>-------,186089,186088.39999997616,185641.4,185641.19999998808,185658.066,186091.324,,12,to
screen,html.Screen,0_4_1_0_1_13,2021-12-02T14:01:55.756Z,,,,,,,,,,,,,,,,48,,,,,,,,,,,,,,525.0759999761649,,response,,,10,B,,,,,Space,keypress(Space),,,,lyrical,-- -- --- ------ ------- --------- ----------- --------<br>--------- -------- --- ------- -- declare ---- -- ------<br>-- --- -------- -------- ---------- ---- ---- ---- ------<br>-- --------- -- ---- -- --- -- --- ------- -- - -----<br>---------- -- -- -- ---- ----- -- ------ -- --- ------<br>-------,186617,186616.39999997616,186074.659,186089.19999998808,186091.324,186624.697,,13,declare
screen,html.Screen,0_4_1_0_1_14,2021-12-02T14:01:56.108Z,,,,,,,,,,,,,,,,48,,,,,,,,,,,,,,343.60300001193536,,response,,,10,B,,,,,Space,keypress(Space),,,,lyrical,-- -- --- ------ ------- --------- ----------- --------<br>--------- -------- --- ------- -- ------- cash -- ------<br>-- --- -------- -------- ---------- ---- ---- ---- ------<br>-- --------- -- ---- -- --- -- --- ------- -- - -----<br>---------- -- -- -- ---- ----- -- ------ -- --- ------<br>-------,186969,186968.30000001192,186608.031,186617.09999996424,186624.697,186974.686,,14,cash
screen,html.Screen,0_4_1_0_1_15,2021-12-02T14:01:56.508Z,,,,,,,,,,,,,,,,48,,,,,,,,,,,,,,393.61400001193397,,response,,,10,B,,,,,Space,keypress(Space),,,,lyrical,-- -- --- ------ ------- --------- ----------- --------<br>--------- -------- --- ------- -- ------- ---- in ------<br>-- --- -------- -------- ---------- ---- ---- ---- ------<br>-- --------- -- ---- -- --- -- --- ------- -- - -----<br>---------- -- -- -- ---- ----- -- ------ -- --- ------<br>-------,187369,187368.30000001192,186958.02,186969.09999996424,186974.686,187374.679,,15,in
screen,html.Screen,0_4_1_0_1_16,2021-12-02T14:01:57.004Z,,,,,,,,,,,,,,,,48,,,,,,,,,,,,,,489.7209999761544,,response,,,10,B,,,,,Space,keypress(Space),,,,lyrical,-- -- --- ------ ------- --------- ----------- --------<br>--------- -------- --- ------- -- ------- ---- -- excess<br>-- --- -------- -------- ---------- ---- ---- ---- ------<br>-- --------- -- ---- -- --- -- --- ------- -- - -----<br>---------- -- -- -- ---- ----- -- ------ -- --- ------<br>-------,187864.89999997616,187864.39999997616,187358.013,187369,187374.679,187874.563,,16,excess
screen,html.Screen,0_4_1_0_1_17,2021-12-02T14:01:57.420Z,,,,,,,,,,,,,,,,48,,,,,,,,,,,,,,405.7370000119263,,response,,,10,B,,,,,Space,keypress(Space),,,,lyrical,-- -- --- ------ ------- --------- ----------- --------<br>--------- -------- --- ------- -- ------- ---- -- ------<br>of --- -------- -------- ---------- ---- ---- ---- ------<br>-- --------- -- ---- -- --- -- --- ------- -- - -----<br>---------- -- -- -- ---- ----- -- ------ -- --- ------<br>-------,188281,188280.30000001192,187857.899,187865.09999996424,187874.563,188291.306,,17,of
screen,html.Screen,0_4_1_0_1_18,2021-12-02T14:01:57.892Z,,,,,,,,,,,,,,,,48,,,,,,,,,,,,,,460.9940000119095,,response,,,10,B,,,,,Space,keypress(Space),,,,lyrical,-- -- --- ------ ------- --------- ----------- --------<br>--------- -------- --- ------- -- ------- ---- -- ------<br>-- ten -------- -------- ---------- ---- ---- ---- ------<br>-- --------- -- ---- -- --- -- --- ------- -- - -----<br>---------- -- -- -- ---- ----- -- ------ -- --- ------<br>-------,188752.89999997616,188752.30000001192,188274.64,188281.19999998808,188291.306,188757.972,,18,ten
screen,html.Screen,0_4_1_0_1_19,2021-12-02T14:01:58.308Z,,,,,,,,,,,,,,,,48,,,,,,,,,,,,,,410.3280000119121,,response,,,10,B,,,,,Space,keypress(Space),,,,lyrical,-- -- --- ------ ------- --------- ----------- --------<br>--------- -------- --- ------- -- ------- ---- -- ------<br>-- --- thousand -------- ---------- ---- ---- ---- ------<br>-- --------- -- ---- -- --- -- --- ------- -- - -----<br>---------- -- -- -- ---- ----- -- ------ -- --- ------<br>-------,189168.89999997616,189168.30000001192,188741.306,188753.09999996424,188757.972,189174.589,,19,thousand
screen,html.Screen,0_4_1_0_1_20,2021-12-02T14:01:58.716Z,,,,,,,,,,,,,,,,48,,,,,,,,,,,,,,401.61099998807185,,response,,,10,B,,,,,Space,keypress(Space),,,,lyrical,-- -- --- ------ ------- --------- ----------- --------<br>--------- -------- --- ------- -- ------- ---- -- ------<br>-- --- -------- dollars. ---------- ---- ---- ---- ------<br>-- --------- -- ---- -- --- -- --- ------- -- - -----<br>---------- -- -- -- ---- ----- -- ------ -- --- ------<br>-------,189576.80000001192,189576.19999998808,189157.924,189169.09999996424,189174.589,189591.169,,20,dollars.
screen,html.Screen,0_4_1_0_1_21,2021-12-02T14:01:59.164Z,,,,,,,,,,,,,,,,48,,,,,,,,,,,,,,433.23099997616373,,response,,,10,B,,,,,Space,keypress(Space),,,,lyrical,-- -- --- ------ ------- --------- ----------- --------<br>--------- -------- --- ------- -- ------- ---- -- ------<br>-- --- -------- -------- Concealing ---- ---- ---- ------<br>-- --------- -- ---- -- --- -- --- ------- -- - -----<br>---------- -- -- -- ---- ----- -- ------ -- --- ------<br>-------,190025.09999996424,190024.39999997616,189574.505,189577,189591.169,190041.252,,21,Concealing
screen,html.Screen,0_4_1_0_1_22,2021-12-02T14:01:59.652Z,,,,,,,,,,,,,,,,48,,,,,,,,,,,,,,470.9479999880714,,response,,,10,B,,,,,Space,keypress(Space),,,,lyrical,-- -- --- ------ ------- --------- ----------- --------<br>--------- -------- --- ------- -- ------- ---- -- ------<br>-- --- -------- -------- ---------- more ---- ---- ------<br>-- --------- -- ---- -- --- -- --- ------- -- - -----<br>---------- -- -- -- ---- ----- -- ------ -- --- ------<br>-------,190512.89999997616,190512.19999998808,190024.586,190025.19999998808,190041.252,190524.509,,22,more
screen,html.Screen,0_4_1_0_1_23,2021-12-02T14:02:00.116Z,,,,,,,,,,,,,,,,48,,,,,,,,,,,,,,451.5909999642463,,response,,,10,B,,,,,Space,keypress(Space),,,,lyrical,-- -- --- ------ ------- --------- ----------- --------<br>--------- -------- --- ------- -- ------- ---- -- ------<br>-- --- -------- -------- ---------- ---- than ---- ------<br>-- --------- -- ---- -- --- -- --- ------- -- - -----<br>---------- -- -- -- ---- ----- -- ------ -- --- ------<br>-------,190976.69999998808,190976.09999996424,190507.844,190513,190524.509,190991.161,,23,than
screen,html.Screen,0_4_1_0_1_24,2021-12-02T14:02:00.788Z,,,,,,,,,,,,,,,,48,,,,,,,,,,,,,,657.0389999880863,,response,,,10,B,,,,,Space,keypress(Space),,,,lyrical,-- -- --- ------ ------- --------- ----------- --------<br>--------- -------- --- ------- -- ------- ---- -- ------<br>-- --- -------- -------- ---------- ---- ---- that ------<br>-- --------- -- ---- -- --- -- --- ------- -- - -----<br>---------- -- -- -- ---- ----- -- ------ -- --- ------<br>-------,191648.80000001192,191648.19999998808,190974.496,190976.89999997616,190991.161,191657.846,,24,that
screen,html.Screen,0_4_1_0_1_25,2021-12-02T14:02:01.204Z,,,,,,,,,,,,,,,,48,,,,,,,,,,,,,,406.3539999880886,,response,,,10,B,,,,,Space,keypress(Space),,,,lyrical,-- -- --- ------ ------- --------- ----------- --------<br>--------- -------- --- ------- -- ------- ---- -- ------<br>-- --- -------- -------- ---------- ---- ---- ---- amount<br>-- --------- -- ---- -- --- -- --- ------- -- - -----<br>---------- -- -- -- ---- ----- -- ------ -- --- ------<br>-------,192064.80000001192,192064.19999998808,191641.18,191649.09999996424,191657.846,192074.442,,25,amount
screen,html.Screen,0_4_1_0_1_26,2021-12-02T14:02:01.748Z,,,,,,,,,,,,,,,,48,,,,,,,,,,,,,,533.7579999880691,,response,,,10,B,,,,,Space,keypress(Space),,,,lyrical,-- -- --- ------ ------- --------- ----------- --------<br>--------- -------- --- ------- -- ------- ---- -- ------<br>-- --- -------- -------- ---------- ---- ---- ---- ------<br>to --------- -- ---- -- --- -- --- ------- -- - -----<br>---------- -- -- -- ---- ----- -- ------ -- --- ------<br>-------,192608.80000001192,192608.19999998808,192057.777,192065,192074.442,192624.421,,26,to
screen,html.Screen,0_4_1_0_1_27,2021-12-02T14:02:02.300Z,,,,,,,,,,,,,,,,48,,,,,,,,,,,,,,535.778999988077,,response,,,10,B,,,,,Space,keypress(Space),,,,lyrical,-- -- --- ------ ------- --------- ----------- --------<br>--------- -------- --- ------- -- ------- ---- -- ------<br>-- --- -------- -------- ---------- ---- ---- ---- ------<br>-- transport -- ---- -- --- -- --- ------- -- - -----<br>---------- -- -- -- ---- ----- -- ------ -- --- ------<br>-------,193160.69999998808,193160.19999998808,192607.756,192609,192624.421,193174.446,,27,transport
screen,html.Screen,0_4_1_0_1_28,2021-12-02T14:02:02.780Z,,,,,,,,,,,,,,,,48,,,,,,,,,,,,,,465.7539999880828,,response,,,10,B,,,,,Space,keypress(Space),,,,lyrical,-- -- --- ------ ------- --------- ----------- --------<br>--------- -------- --- ------- -- ------- ---- -- ------<br>-- --- -------- -------- ---------- ---- ---- ---- ------<br>-- --------- it ---- -- --- -- --- ------- -- - -----<br>---------- -- -- -- ---- ----- -- ------ -- --- ------<br>-------,193640.80000001192,193640.19999998808,193157.78,193160.89999997616,193174.446,193657.723,,28,it
screen,html.Screen,0_4_1_0_1_29,2021-12-02T14:02:03.180Z,,,,,,,,,,,,,,,,48,,,,,,,,,,,,,,382.3769999642391,,response,,,10,B,,,,,Space,keypress(Space),,,,lyrical,-- -- --- ------ ------- --------- ----------- --------<br>--------- -------- --- ------- -- ------- ---- -- ------<br>-- --- -------- -------- ---------- ---- ---- ---- ------<br>-- --------- -- into -- --- -- --- ------- -- - -----<br>---------- -- -- -- ---- ----- -- ------ -- --- ------<br>-------,194040.69999998808,194040.09999996424,193641.058,193640.89999997616,193657.723,194057.75,,29,into
screen,html.Screen,0_4_1_0_1_30,2021-12-02T14:02:03.652Z,,,,,,,,,,,,,,,,48,,,,,,,,,,,,,,454.3499999642372,,response,,,10,B,,,,,Space,keypress(Space),,,,lyrical,-- -- --- ------ ------- --------- ----------- --------<br>--------- -------- --- ------- -- ------- ---- -- ------<br>-- --- -------- -------- ---------- ---- ---- ---- ------<br>-- --------- -- ---- or --- -- --- ------- -- - -----<br>---------- -- -- -- ---- ----- -- ------ -- --- ------<br>-------,194512.80000001192,194512.09999996424,194041.084,194040.89999997616,194057.75,194524.4,,30,or
screen,html.Screen,0_4_1_0_1_31,2021-12-02T14:02:04.052Z,,,,,,,,,,,,,,,,48,,,,,,,,,,,,,,387.69999996424303,,response,,,10,B,,,,,Space,keypress(Space),,,,lyrical,-- -- --- ------ ------- --------- ----------- --------<br>--------- -------- --- ------- -- ------- ---- -- ------<br>-- --- -------- -------- ---------- ---- ---- ---- ------<br>-- --------- -- ---- -- out -- --- ------- -- - -----<br>---------- -- -- -- ---- ----- -- ------ -- --- ------<br>-------,194912.80000001192,194912.09999996424,194507.734,194513,194524.4,194924.372,,31,out
screen,html.Screen,0_4_1_0_1_32,2021-12-02T14:02:04.404Z,,,,,,,,,,,,,,,,48,,,,,,,,,,,,,,339.627999999997,,response,,,10,B,,,,,Space,keypress(Space),,,,lyrical,-- -- --- ------ ------- --------- ----------- --------<br>--------- -------- --- ------- -- ------- ---- -- ------<br>-- --- -------- -------- ---------- ---- ---- ---- ------<br>-- --------- -- ---- -- --- of --- ------- -- - -----<br>---------- -- -- -- ---- ----- -- ------ -- --- ------<br>-------,195264.59999996424,195264,194907.707,194913,194924.372,195274.328,,32,of
screen,html.Screen,0_4_1_0_1_33,2021-12-02T14:02:04.772Z,,,,,,,,,,,,,,,,48,,,,,,,,,,,,,,357.7719999642286,,response,,,10,B,,,,,Space,keypress(Space),,,,lyrical,-- -- --- ------ ------- --------- ----------- --------<br>--------- -------- --- ------- -- ------- ---- -- ------<br>-- --- -------- -------- ---------- ---- ---- ---- ------<br>-- --------- -- ---- -- --- -- the ------- -- - -----<br>---------- -- -- -- ---- ----- -- ------ -- --- ------<br>-------,195632.59999996424,195632.09999996424,195257.663,195264.69999998808,195274.328,195640.99,,33,the
screen,html.Screen,0_4_1_0_1_34,2021-12-02T14:02:05.260Z,,,,,,,,,,,,,,,,48,,,,,,,,,,,,,,479.1099999642465,,response,,,10,B,,,,,Space,keypress(Space),,,,lyrical,-- -- --- ------ ------- --------- ----------- --------<br>--------- -------- --- ------- -- ------- ---- -- ------<br>-- --- -------- -------- ---------- ---- ---- ---- ------<br>-- --------- -- ---- -- --- -- --- country -- - -----<br>---------- -- -- -- ---- ----- -- ------ -- --- ------<br>-------,196120.69999998808,196120.09999996424,195624.325,195632.80000001192,195640.99,196124.337,,34,country
screen,html.Screen,0_4_1_0_1_35,2021-12-02T14:02:05.692Z,,,,,,,,,,,,,,,,48,,,,,,,,,,,,,,427.66300000000047,,response,,,10,B,,,,,Space,keypress(Space),,,,lyrical,-- -- --- ------ ------- --------- ----------- --------<br>--------- -------- --- ------- -- ------- ---- -- ------<br>-- --- -------- -------- ---------- ---- ---- ---- ------<br>-- --------- -- ---- -- --- -- --- ------- is - -----<br>---------- -- -- -- ---- ----- -- ------ -- --- ------<br>-------,196552.69999998808,196552,196107.671,196120.89999997616,196124.337,196557.617,,35,is
screen,html.Screen,0_4_1_0_1_36,2021-12-02T14:02:06.084Z,,,,,,,,,,,,,,,,48,,,,,,,,,,,,,,386.2829999761598,,response,,,10,B,,,,,Space,keypress(Space),,,,lyrical,-- -- --- ------ ------- --------- ----------- --------<br>--------- -------- --- ------- -- ------- ---- -- ------<br>-- --- -------- -------- ---------- ---- ---- ---- ------<br>-- --------- -- ---- -- --- -- --- ------- -- a -----<br>---------- -- -- -- ---- ----- -- ------ -- --- ------<br>-------,196944.5,196943.89999997616,196540.952,196552.80000001192,196557.617,196957.64,,36,a
screen,html.Screen,0_4_1_0_1_37,2021-12-02T14:02:06.571Z,,,,,,,,,,,,,,,,48,,,,,,,,,,,,,,474.2599999761442,,response,,,10,B,,,,,Space,keypress(Space),,,,lyrical,-- -- --- ------ ------- --------- ----------- --------<br>--------- -------- --- ------- -- ------- ---- -- ------<br>-- --- -------- -------- ---------- ---- ---- ---- ------<br>-- --------- -- ---- -- --- -- --- ------- -- - crime<br>---------- -- -- -- ---- ----- -- ------ -- --- ------<br>-------,197432.59999996424,197431.89999997616,196940.974,196944.69999998808,196957.64,197440.92,,37,crime
screen,html.Screen,0_4_1_0_1_38,2021-12-02T14:02:07.140Z,,,,,,,,,,,,,,,,48,,,,,,,,,,,,,,559.0799999999872,,response,,,10,B,,,,,Space,keypress(Space),,,,lyrical,-- -- --- ------ ------- --------- ----------- --------<br>--------- -------- --- ------- -- ------- ---- -- ------<br>-- --- -------- -------- ---------- ---- ---- ---- ------<br>-- --------- -- ---- -- --- -- --- ------- -- - -----<br>punishable -- -- -- ---- ----- -- ------ -- --- ------<br>-------,198000.69999998808,198000,197424.255,197432.80000001192,197440.92,198007.558,,38,punishable
screen,html.Screen,0_4_1_0_1_39,2021-12-02T14:02:07.500Z,,,,,,,,,,,,,,,,48,,,,,,,,,,,,,,352.34199997616815,,response,,,10,B,,,,,Space,keypress(Space),,,,lyrical,-- -- --- ------ ------- --------- ----------- --------<br>--------- -------- --- ------- -- ------- ---- -- ------<br>-- --- -------- -------- ---------- ---- ---- ---- ------<br>-- --------- -- ---- -- --- -- --- ------- -- - -----<br>---------- by -- -- ---- ----- -- ------ -- --- ------<br>-------,198360.69999998808,198359.89999997616,197990.893,198001,198007.558,198374.264,,39,by
screen,html.Screen,0_4_1_0_1_40,2021-12-02T14:02:07.939Z,,,,,,,,,,,,,,,,48,,,,,,,,,,,,,,425.63599997616257,,response,,,10,B,,,,,Space,keypress(Space),,,,lyrical,-- -- --- ------ ------- --------- ----------- --------<br>--------- -------- --- ------- -- ------- ---- -- ------<br>-- --- -------- -------- ---------- ---- ---- ---- ------<br>-- --------- -- ---- -- --- -- --- ------- -- - -----<br>---------- -- up -- ---- ----- -- ------ -- --- ------<br>-------,198800.5,198799.89999997616,198357.598,198360.89999997616,198374.264,198807.54,,40,up
screen,html.Screen,0_4_1_0_1_41,2021-12-02T14:02:08.475Z,,,,,,,,,,,,,,,,48,,,,,,,,,,,,,,528.35999997615,,response,,,10,B,,,,,Space,keypress(Space),,,,lyrical,-- -- --- ------ ------- --------- ----------- --------<br>--------- -------- --- ------- -- ------- ---- -- ------<br>-- --- -------- -------- ---------- ---- ---- ---- ------<br>-- --------- -- ---- -- --- -- --- ------- -- - -----<br>---------- -- -- to ---- ----- -- ------ -- --- ------<br>-------,199336.39999997616,199335.89999997616,198790.875,198800.80000001192,198807.54,199340.845,,41,to
screen,html.Screen,0_4_1_0_1_42,2021-12-02T14:02:08.995Z,,,,,,,,,,,,,,,,48,,,,,,,,,,,,,,515.1549999999988,,response,,,10,B,,,,,Space,keypress(Space),,,,lyrical,-- -- --- ------ ------- --------- ----------- --------<br>--------- -------- --- ------- -- ------- ---- -- ------<br>-- --- -------- -------- ---------- ---- ---- ---- ------<br>-- --------- -- ---- -- --- -- --- ------- -- - -----<br>---------- -- -- -- five ----- -- ------ -- --- ------<br>-------,199856.5,199856,199324.18,199336.69999998808,199340.845,199857.493,,42,five
screen,html.Screen,0_4_1_0_1_43,2021-12-02T14:02:09.460Z,,,,,,,,,,,,,,,,48,,,,,,,,,,,,,,462.60699996424955,,response,,,10,B,,,,,Space,keypress(Space),,,,lyrical,-- -- --- ------ ------- --------- ----------- --------<br>--------- -------- --- ------- -- ------- ---- -- ------<br>-- --- -------- -------- ---------- ---- ---- ---- ------<br>-- --------- -- ---- -- --- -- --- ------- -- - -----<br>---------- -- -- -- ---- years -- ------ -- --- ------<br>-------,200320.69999998808,200320.09999996424,199840.828,199856.69999998808,199857.493,200324.211,,43,years
screen,html.Screen,0_4_1_0_1_44,2021-12-02T14:02:09.907Z,,,,,,,,,,,,,,,,48,,,,,,,,,,,,,,443.6889999761479,,response,,,10,B,,,,,Space,keypress(Space),,,,lyrical,-- -- --- ------ ------- --------- ----------- --------<br>--------- -------- --- ------- -- ------- ---- -- ------<br>-- --- -------- -------- ---------- ---- ---- ---- ------<br>-- --------- -- ---- -- --- -- --- ------- -- - -----<br>---------- -- -- -- ---- ----- in ------ -- --- ------<br>-------,200768.5,200767.89999997616,200307.545,200320.89999997616,200324.211,200774.114,,44,in
screen,html.Screen,0_4_1_0_1_45,2021-12-02T14:02:10.259Z,,,,,,,,,,,,,,,,48,,,,,,,,,,,,,,345.78599997615675,,response,,,10,B,,,,,Space,keypress(Space),,,,lyrical,-- -- --- ------ ------- --------- ----------- --------<br>--------- -------- --- ------- -- ------- ---- -- ------<br>-- --- -------- -------- ---------- ---- ---- ---- ------<br>-- --------- -- ---- -- --- -- --- ------- -- - -----<br>---------- -- -- -- ---- ----- -- prison -- --- ------<br>-------,201120.5,201119.89999997616,200757.449,200768.69999998808,200774.114,201124.125,,45,prison
screen,html.Screen,0_4_1_0_1_46,2021-12-02T14:02:10.859Z,,,,,,,,,,,,,,,,48,,,,,,,,,,,,,,595.6750000119209,,response,,,10,B,,,,,Space,keypress(Space),,,,lyrical,-- -- --- ------ ------- --------- ----------- --------<br>--------- -------- --- ------- -- ------- ---- -- ------<br>-- --- -------- -------- ---------- ---- ---- ---- ------<br>-- --------- -- ---- -- --- -- --- ------- -- - -----<br>---------- -- -- -- ---- ----- -- ------ in --- ------<br>-------,201720.5,201719.80000001192,201107.46,201120.69999998808,201124.125,201724.074,,46,in
screen,html.Screen,0_4_1_0_1_47,2021-12-02T14:02:11.275Z,,,,,,,,,,,,,,,,48,,,,,,,,,,,,,,411.7260000119277,,response,,,10,B,,,,,Space,keypress(Space),,,,lyrical,-- -- --- ------ ------- --------- ----------- --------<br>--------- -------- --- ------- -- ------- ---- -- ------<br>-- --- -------- -------- ---------- ---- ---- ---- ------<br>-- --------- -- ---- -- --- -- --- ------- -- - -----<br>---------- -- -- -- ---- ----- -- ------ -- the ------<br>-------,202136.5,202135.80000001192,201707.409,201720.69999998808,201724.074,202140.793,,47,the
screen,html.Screen,0_4_1_0_1_48,2021-12-02T14:02:12.059Z,,,,,,,,,,,,,,,,48,,,,,,,,,,,,,,779.0070000119158,,response,,,10,B,,,,,Space,keypress(Space),,,,lyrical,-- -- --- ------ ------- --------- ----------- --------<br>--------- -------- --- ------- -- ------- ---- -- ------<br>-- --- -------- -------- ---------- ---- ---- ---- ------<br>-- --------- -- ---- -- --- -- --- ------- -- - -----<br>---------- -- -- -- ---- ----- -- ------ -- --- United<br>-------,202920.5,202919.80000001192,202124.127,202136.69999998808,202140.793,202923.989,,48,United
screen,html.Screen,0_4_1_0_1_49,2021-12-02T14:02:12.403Z,,,,,,,,,,,,,,,,48,,,,,,,,,,,,,,339.81100001191953,,response,,,10,B,,,,,Space,keypress(Space),,,,lyrical,-- -- --- ------ ------- --------- ----------- --------<br>--------- -------- --- ------- -- ------- ---- -- ------<br>-- --- -------- -------- ---------- ---- ---- ---- ------<br>-- --------- -- ---- -- --- -- --- ------- -- - -----<br>---------- -- -- -- ---- ----- -- ------ -- --- ------<br>States.,203264.39999997616,203263.80000001192,202907.324,202920.69999998808,202923.989,203274.124,,49,States.
Item 10,flow.Loop,0_4_1_0_1,2021-12-02T14:02:12.404Z,,,,,,,,,,,,,,,,,,,,,,,,,,,,,,23855.586000011914,,completion,,,,,,,,,,,,,,,,203264.89999997616,203263.80000001192,179391.549,179392.69999998808,179408.214,203274.124,,,
Question 1,html.Screen,0_4_1_0_2,2021-12-02T14:02:19.378Z,,,,,,,,,,,,,,,,,,,,,,,,,,,true,TRUE,,6963.67600001191,,response,,,10,B,,,,,TRUE,click #choice-1,,,,lyrical,,210238.59999996424,210237.80000001192,203257.457,203265.09999996424,203274.124,210240.483,,,
Question 2,html.Screen,0_4_1_0_3,2021-12-02T14:02:22.248Z,,,,,,,,,,,,,,,,,,,,,,,,,,,true,TRUE,,2868.3170000119135,,response,,,10,B,,,,,TRUE,click #choice-1,,,,lyrical,,213109.59999996424,213108.80000001192,210223.817,210238.69999998808,210240.483,213123.707,,,
Item 10,flow.Sequence,0_4_1_0,2021-12-02T14:02:22.249Z,,,,,,,,,,,,,,,,,,,,,,,,,,,,,,40699.786000011925,,completion,,,,,,,,,,,,,,,,213109.80000001192,213108.80000001192,172392.347,172393.59999996424,172409.014,213123.707,,,
Holding screen,html.Screen,0_4_1_1_0,2021-12-02T14:02:29.247Z,,,,,,,,,,,,,,,,,,,,,,,,,,,,,,6999.643000000011,,timeout,,,,,,,,,,,,,,,,220107.59999996424,220106.685,213107.041,213110,213123.707,220123.35,,,
screen,html.Screen,0_4_1_1_1_0,2021-12-02T14:02:29.955Z,,,,,,,,,,,,,,,,51,,,,,,,,,,,,,,691.8499999880733,,response,,,13,B,,,,,Space,keypress(Space),,,,lyrical,American -------- --- --- ---- --- --- ------ -- --------<br>---- --------- --- ------- ------------ ---------- ---------<br>--- ---------- ------- ---------- ------- -- -------- ----<br>---- --- ------ ----- ------ -- ---- --- ----- -- - -------<br>-------- -- --- --- -- ----- ----------- ----- -----------<br>---- --- ---------- --- ---- --- -- ----------,220815.80000001192,220815.19999998808,220106.685,220108,220123.35,220823.361,,0,American
screen,html.Screen,0_4_1_1_1_1,2021-12-02T14:02:30.491Z,,,,,,,,,,,,,,,,51,,,,,,,,,,,,,,527.7389999642328,,response,,,13,B,,,,,Space,keypress(Space),,,,lyrical,-------- industry --- --- ---- --- --- ------ -- --------<br>---- --------- --- ------- ------------ ---------- ---------<br>--- ---------- ------- ---------- ------- -- -------- ----<br>---- --- ------ ----- ------ -- ---- --- ----- -- - -------<br>-------- -- --- --- -- ----- ----------- ----- -----------<br>---- --- ---------- --- ---- --- -- ----------,221351.69999998808,221351.09999996424,220806.696,220816,220823.361,221356.75,,1,industry
screen,html.Screen,0_4_1_1_1_2,2021-12-02T14:02:30.939Z,,,,,,,,,,,,,,,,51,,,,,,,,,,,,,,442.3499999642372,,response,,,13,B,,,,,Space,keypress(Space),,,,lyrical,-------- -------- may --- ---- --- --- ------ -- --------<br>---- --------- --- ------- ------------ ---------- ---------<br>--- ---------- ------- ---------- ------- -- -------- ----<br>---- --- ------ ----- ------ -- ---- --- ----- -- - -------<br>-------- -- --- --- -- ----- ----------- ----- -----------<br>---- --- ---------- --- ---- --- -- ----------,221799.59999996424,221799.09999996424,221340.084,221351.80000001192,221356.75,221806.665,,2,may
screen,html.Screen,0_4_1_1_1_3,2021-12-02T14:02:31.371Z,,,,,,,,,,,,,,,,51,,,,,,,,,,,,,,424.33499999999185,,response,,,13,B,,,,,Space,keypress(Space),,,,lyrical,-------- -------- --- not ---- --- --- ------ -- --------<br>---- --------- --- ------- ------------ ---------- ---------<br>--- ---------- ------- ---------- ------- -- -------- ----<br>---- --- ------ ----- ------ -- ---- --- ----- -- - -------<br>-------- -- --- --- -- ----- ----------- ----- -----------<br>---- --- ---------- --- ---- --- -- ----------,222231.69999998808,222231,221790,221799.80000001192,221806.665,222239.987,,3,not
