sender,sender_type,sender_id,timestamp,meta,,Blues,Classical,Country,Dance,Electronic,Folk,Gospel,Hip-Hop,Jazz,Latin,Musical/Film,New-age,Pop,Provo_ID,R&B,Rap,Reggae,Religious,Rock,Soul,Swing,Traditional,age,artist_name,correct,correctResponse,distraction,duration,education,ended_on,familiarity,gender,item,list,music_frequency,offensiveness,pleasantness,preference,response,response_action,snippet_file,song_name,song_rating,sound,text,time_commit,time_end,time_render,time_run,time_show,time_switch,url,word,word_ID
Instructions,html.Page,0_0,2021-12-02T12:39:57.297Z,"{""labjs_version"":""20.2.3"",""labjs_build"":{""flavor"":""production"",""commit"":""7ea907d66ca8aeef8054924ca5d82ffbe11e34e5""},""location"":""https://run.pavlovia.org/mvasilev/lab_music_e/"",""userAgent"":""Mozilla/5.0 (Windows NT 6.1; Win64; x64) AppleWebKit/537.36 (KHTML, like Gecko) Chrome/96.0.4664.45 Safari/537.36"",""platform"":""Win32"",""language"":""en-US"",""locale"":""en-US"",""timeZone"":""Europe/London"",""timezoneOffset"":0,""screen_width"":1920,""screen_height"":1080,""scroll_width"":1920,""scroll_height"":959,""window_innerWidth"":1920,""window_innerHeight"":1007,""devicePixelRatio"":1}",,,,,,,,,,,,,,,,,,,,,,,,,,,,,38023.212,,form submission,,,,,,,,,,,,,,,,47907.59999999963,47906.5,9849.948,9856.699999999255,9883.288,47907.929,{},,
Headphones,html.Page,0_1,2021-12-02T12:40:03.682Z,,,,,,,,,,,,,,,,,,,,,,,,,,,,,,6384.571000000004,,form submission,,,,,,,,,,,,,,,,54292.90000000037,54292.5,47891.26,47908.40000000037,47907.929,54295.647,,,
Holding screen,html.Screen,0_2_0_0,2021-12-02T12:40:13.680Z,,,,,,,,,,,,,,,,,,,,,,,,,,,,,,10002.286,,timeout,,,,,,,,,,,,,,,,64287.800000000745,64281.264,54278.971,54293.5,54295.647,64297.933,,,
screen,html.Screen,0_2_0_1_0,2021-12-02T12:40:14.580Z,,,,,,,,,,,,,,,,53,,,,,,,,,,,,,,889.1669999996302,,response,,,99,,,,,,Space,keypress(Space),,,,,When -- ----- -- ------ - ------- --- ----------<br>------------- ------ ------ ---- ---- ------- ----- -- ----<br>-------- ------- -- ---------- --- - --- ----- ----- ----<br>---- --- --- ----- --- ---- ---- ------- ----- ---- -------<br>--- --- -- ----- -- --- ---- -- --- ---- -- ------ ------<br>--- ----- -- ----,65188.40000000037,65187.09999999963,64281.264,64288.300000000745,64297.933,65198.392,,0,When
screen,html.Screen,0_2_0_1_1,2021-12-02T12:40:15.156Z,,,,,,,,,,,,,,,,53,,,,,,,,,,,,,,564.6080000000002,,response,,,99,,,,,,Space,keypress(Space),,,,,---- it ----- -- ------ - ------- --- ----------<br>------------- ------ ------ ---- ---- ------- ----- -- ----<br>-------- ------- -- ---------- --- - --- ----- ----- ----<br>---- --- --- ----- --- ---- ---- ------- ----- ---- -------<br>--- --- -- ----- -- --- ---- -- --- ---- -- ------ ------<br>--- ----- -- ----,65763.90000000037,65763,65181.721,65188.90000000037,65198.392,65765.124,,1,it
screen,html.Screen,0_2_0_1_2,2021-12-02T12:40:15.684Z,,,,,,,,,,,,,,,,53,,,,,,,,,,,,,,525.8760000000038,,response,,,99,,,,,,Space,keypress(Space),,,,,---- -- comes -- ------ - ------- --- ----------<br>------------- ------ ------ ---- ---- ------- ----- -- ----<br>-------- ------- -- ---------- --- - --- ----- ----- ----<br>---- --- --- ----- --- ---- ---- ------- ----- ---- -------<br>--- --- -- ----- -- --- ---- -- --- ---- -- ------ ------<br>--- ----- -- ----,66291.80000000075,66291,65748.454,65764.19999999925,65765.124,66298.804,,2,comes
screen,html.Screen,0_2_0_1_3,2021-12-02T12:40:16.060Z,,,,,,,,,,,,,,,,53,,,,,,,,,,,,,,368.1959999999963,,response,,,99,,,,,,Space,keypress(Space),,,,,---- -- ----- to ------ - ------- --- ----------<br>------------- ------ ------ ---- ---- ------- ----- -- ----<br>-------- ------- -- ---------- --- - --- ----- ----- ----<br>---- --- --- ----- --- ---- ---- ------- ----- ---- -------<br>--- --- -- ----- -- --- ---- -- --- ---- -- ------ ------<br>--- ----- -- ----,66667.90000000037,66667,66282.132,66292.09999999963,66298.804,66682.138,,3,to
screen,html.Screen,0_2_0_1_4,2021-12-02T12:40:16.644Z,,,,,,,,,,,,,,,,53,,,,,,,,,,,,,,568.7620000003662,,response,,,99,,,,,,Space,keypress(Space),,,,,---- -- ----- -- having - ------- --- ----------<br>------------- ------ ------ ---- ---- ------- ----- -- ----<br>-------- ------- -- ---------- --- - --- ----- ----- ----<br>---- --- --- ----- --- ---- ---- ------- ----- ---- -------<br>--- --- -- ----- -- --- ---- -- --- ---- -- ------ ------<br>--- ----- -- ----,67252.09999999963,67250.90000000037,66665.468,66668.40000000037,66682.138,67265.582,,4,having
screen,html.Screen,0_2_0_1_5,2021-12-02T12:40:17.116Z,,,,,,,,,,,,,,,,53,,,,,,,,,,,,,,457.31800000037765,,response,,,99,,,,,,Space,keypress(Space),,,,,---- -- ----- -- ------ a ------- --- ----------<br>------------- ------ ------ ---- ---- ------- ----- -- ----<br>-------- ------- -- ---------- --- - --- ----- ----- ----<br>---- --- --- ----- --- ---- ---- ------- ----- ---- -------<br>--- --- -- ----- -- --- ---- -- --- ---- -- ------ ------<br>--- ----- -- ----,67723.80000000075,67722.90000000037,67248.912,67252.40000000037,67265.582,67732.456,,5,a
screen,html.Screen,0_2_0_1_6,2021-12-02T12:40:17.668Z,,,,,,,,,,,,,,,,53,,,,,,,,,,,,,,542.4440000003669,,response,,,99,,,,,,Space,keypress(Space),,,,,---- -- ----- -- ------ - lasting --- ----------<br>------------- ------ ------ ---- ---- ------- ----- -- ----<br>-------- ------- -- ---------- --- - --- ----- ----- ----<br>---- --- --- ----- --- ---- ---- ------- ----- ---- -------<br>--- --- -- ----- -- --- ---- -- --- ---- -- ------ ------<br>--- ----- -- ----,68275.80000000075,68274.90000000037,67715.785,67724.30000000075,67732.456,68282.532,,6,lasting
screen,html.Screen,0_2_0_1_7,2021-12-02T12:40:18.156Z,,,,,,,,,,,,,,,,53,,,,,,,,,,,,,,480.368000000366,,response,,,99,,,,,,Space,keypress(Space),,,,,---- -- ----- -- ------ - ------- and ----------<br>------------- ------ ------ ---- ---- ------- ----- -- ----<br>-------- ------- -- ---------- --- - --- ----- ----- ----<br>---- --- --- ----- --- ---- ---- ------- ----- ---- -------<br>--- --- -- ----- -- --- ---- -- --- ---- -- ------ ------<br>--- ----- -- ----,68763.69999999925,68762.90000000037,68265.862,68276.09999999963,68282.532,68766.051,,7,and
screen,html.Screen,0_2_0_1_8,2021-12-02T12:40:18.836Z,,,,,,,,,,,,,,,,53,,,,,,,,,,,,,,676.7490000007383,,response,,,99,,,,,,Space,keypress(Space),,,,,---- -- ----- -- ------ - ------- --- fulfilling<br>------------- ------ ------ ---- ---- ------- ----- -- ----<br>-------- ------- -- ---------- --- - --- ----- ----- ----<br>---- --- --- ----- --- ---- ---- ------- ----- ---- -------<br>--- --- -- ----- -- --- ---- -- --- ---- -- ------ ------<br>--- ----- -- ----,69443.90000000037,69442.80000000075,68749.38,68764.09999999963,68766.051,69449.57,,8,fulfilling
screen,html.Screen,0_2_0_1_9,2021-12-02T12:40:19.412Z,,,,,,,,,,,,,,,,53,,,,,,,,,,,,,,569.629999999248,,response,,,99,,,,,,Space,keypress(Space),,,,,"---- -- ----- -- ------ - ------- --- ----------<br>relationship, ------ ------ ---- ---- ------- ----- -- ----<br>-------- ------- -- ---------- --- - --- ----- ----- ----<br>---- --- --- ----- --- ---- ---- ------- ----- ---- -------<br>--- --- -- ----- -- --- ---- -- --- ---- -- ------ ------<br>--- ----- -- ----",70020.19999999925,70019.19999999925,69432.899,69444.19999999925,69449.57,70032.98,,9,"relationship,"
screen,html.Screen,0_2_0_1_10,2021-12-02T12:40:19.899Z,,,,,,,,,,,,,,,,53,,,,,,,,,,,,,,473.719999999259,,response,,,99,,,,,,Space,keypress(Space),,,,,---- -- ----- -- ------ - ------- --- ----------<br>------------- common ------ ---- ---- ------- ----- -- ----<br>-------- ------- -- ---------- --- - --- ----- ----- ----<br>---- --- --- ----- --- ---- ---- ------- ----- ---- -------<br>--- --- -- ----- -- --- ---- -- --- ---- -- ------ ------<br>--- ----- -- ----,70507.69999999925,70506.69999999925,70016.31,70020.5,70032.98,70516.52,,10,common
screen,html.Screen,0_2_0_1_11,2021-12-02T12:40:20.419Z,,,,,,,,,,,,,,,,53,,,,,,,,,,,,,,510.17999999925087,,response,,,99,,,,,,Space,keypress(Space),,,,,---- -- ----- -- ------ - ------- --- ----------<br>------------- ------ wisdom ---- ---- ------- ----- -- ----<br>-------- ------- -- ---------- --- - --- ----- ----- ----<br>---- --- --- ----- --- ---- ---- ------- ----- ---- -------<br>--- --- -- ----- -- --- ---- -- --- ---- -- ------ ------<br>--- ----- -- ----,71027.59999999963,71026.69999999925,70499.849,70507.90000000037,70516.52,71033.27,,11,wisdom
screen,html.Screen,0_2_0_1_12,2021-12-02T12:40:20.891Z,,,,,,,,,,,,,,,,53,,,,,,,,,,,,,,465.42999999925087,,response,,,99,,,,,,Space,keypress(Space),,,,,---- -- ----- -- ------ - ------- --- ----------<br>------------- ------ ------ says ---- ------- ----- -- ----<br>-------- ------- -- ---------- --- - --- ----- ----- ----<br>---- --- --- ----- --- ---- ---- ------- ----- ---- -------<br>--- --- -- ----- -- --- ---- -- --- ---- -- ------ ------<br>--- ----- -- ----,71499.5,71498.69999999925,71016.6,71027.80000000075,71033.27,71516.744,,12,says
screen,html.Screen,0_2_0_1_13,2021-12-02T12:40:21.339Z,,,,,,,,,,,,,,,,53,,,,,,,,,,,,,,429.9559999992489,,response,,,99,,,,,,Space,keypress(Space),,,,,---- -- ----- -- ------ - ------- --- ----------<br>------------- ------ ------ ---- that ------- ----- -- ----<br>-------- ------- -- ---------- --- - --- ----- ----- ----<br>---- --- --- ----- --- ---- ---- ------- ----- ---- -------<br>--- --- -- ----- -- --- ---- -- --- ---- -- ------ ------<br>--- ----- -- ----,71947.5,71946.69999999925,71500.074,71499.80000000075,71516.744,71950.236,,13,that
screen,html.Screen,0_2_0_1_14,2021-12-02T12:40:21.851Z,,,,,,,,,,,,,,,,53,,,,,,,,,,,,,,508.36399999962305,,response,,,99,,,,,,Space,keypress(Space),,,,,---- -- ----- -- ------ - ------- --- ----------<br>------------- ------ ------ ---- ---- feeling ----- -- ----<br>-------- ------- -- ---------- --- - --- ----- ----- ----<br>---- --- --- ----- --- ---- ---- ------- ----- ---- -------<br>--- --- -- ----- -- --- ---- -- --- ---- -- ------ ------<br>--- ----- -- ----,72459.5,72458.59999999963,71933.565,71947.80000000075,71950.236,72466.988,,14,feeling
screen,html.Screen,0_2_0_1_15,2021-12-02T12:40:22.243Z,,,,,,,,,,,,,,,,53,,,,,,,,,,,,,,383.7119999992574,,response,,,99,,,,,,Space,keypress(Space),,,,,---- -- ----- -- ------ - ------- --- ----------<br>------------- ------ ------ ---- ---- ------- close -- ----<br>-------- ------- -- ---------- --- - --- ----- ----- ----<br>---- --- --- ----- --- ---- ---- ------- ----- ---- -------<br>--- --- -- ----- -- --- ---- -- --- ---- -- ------ ------<br>--- ----- -- ----,72851.5,72850.69999999925,72450.318,72459.59999999963,72466.988,72867.094,,15,close
screen,html.Screen,0_2_0_1_16,2021-12-02T12:40:22.667Z,,,,,,,,,,,,,,,,53,,,,,,,,,,,,,,407.6059999992576,,response,,,99,,,,,,Space,keypress(Space),,,,,---- -- ----- -- ------ - ------- --- ----------<br>------------- ------ ------ ---- ---- ------- ----- to ----<br>-------- ------- -- ---------- --- - --- ----- ----- ----<br>---- --- --- ----- --- ---- ---- ------- ----- ---- -------<br>--- --- -- ----- -- --- ---- -- --- ---- -- ------ ------<br>--- ----- -- ----,73275.5,73274.69999999925,72850.424,72851.80000000075,72867.094,73283.878,,16,to
screen,html.Screen,0_2_0_1_17,2021-12-02T12:40:23.043Z,,,,,,,,,,,,,,,,53,,,,,,,,,,,,,,366.82199999925797,,response,,,99,,,,,,Space,keypress(Space),,,,,---- -- ----- -- ------ - ------- --- ----------<br>------------- ------ ------ ---- ---- ------- ----- -- your<br>-------- ------- -- ---------- --- - --- ----- ----- ----<br>---- --- --- ----- --- ---- ---- ------- ----- ---- -------<br>--- --- -- ----- -- --- ---- -- --- ---- -- ------ ------<br>--- ----- -- ----,73651.5,73650.69999999925,73267.208,73275.69999999925,73283.878,73667.318,,17,your
screen,html.Screen,0_2_0_1_18,2021-12-02T12:40:23.611Z,,,,,,,,,,,,,,,,53,,,,,,,,,,,,,,551.3819999992556,,response,,,99,,,,,,Space,keypress(Space),,,,,---- -- ----- -- ------ - ------- --- ----------<br>------------- ------ ------ ---- ---- ------- ----- -- ----<br>romantic ------- -- ---------- --- - --- ----- ----- ----<br>---- --- --- ----- --- ---- ---- ------- ----- ---- -------<br>--- --- -- ----- -- --- ---- -- --- ---- -- ------ ------<br>--- ----- -- ----,74219.40000000037,74218.69999999925,73650.648,73651.80000000075,73667.318,74234.01,,18,romantic
screen,html.Screen,0_2_0_1_19,2021-12-02T12:40:24.147Z,,,,,,,,,,,,,,,,53,,,,,,,,,,,,,,520.6899999992602,,response,,,99,,,,,,Space,keypress(Space),,,,,---- -- ----- -- ------ - ------- --- ----------<br>------------- ------ ------ ---- ---- ------- ----- -- ----<br>-------- partner -- ---------- --- - --- ----- ----- ----<br>---- --- --- ----- --- ---- ---- ------- ----- ---- -------<br>--- --- -- ----- -- --- ---- -- --- ---- -- ------ ------<br>--- ----- -- ----,74755.5,74754.69999999925,74217.341,74219.59999999963,74234.01,74767.739,,19,partner
screen,html.Screen,0_2_0_1_20,2021-12-02T12:40:24.699Z,,,,,,,,,,,,,,,,53,,,,,,,,,,,,,,538.8609999996261,,response,,,99,,,,,,Space,keypress(Space),,,,,---- -- ----- -- ------ - ------- --- ----------<br>------------- ------ ------ ---- ---- ------- ----- -- ----<br>-------- ------- is ---------- --- - --- ----- ----- ----<br>---- --- --- ----- --- ---- ---- ------- ----- ---- -------<br>--- --- -- ----- -- --- ---- -- --- ---- -- ------ ------<br>--- ----- -- ----,75307.40000000037,75306.59999999963,74751.066,74755.69999999925,74767.739,75317.735,,20,is
screen,html.Screen,0_2_0_1_21,2021-12-02T12:40:25.147Z,,,,,,,,,,,,,,,,53,,,,,,,,,,,,,,436.8649999996269,,response,,,99,,,,,,Space,keypress(Space),,,,,---- -- ----- -- ------ - ------- --- ----------<br>------------- ------ ------ ---- ---- ------- ----- -- ----<br>-------- ------- -- paramount. --- - --- ----- ----- ----<br>---- --- --- ----- --- ---- ---- ------- ----- ---- -------<br>--- --- -- ----- -- --- ---- -- --- ---- -- ------ ------<br>--- ----- -- ----,75755.40000000037,75754.59999999963,75301.065,75307.59999999963,75317.735,75767.867,,21,paramount.
screen,html.Screen,0_2_0_1_22,2021-12-02T12:40:26.323Z,,,,,,,,,,,,,,,,53,,,,,,,,,,,,,,1162.6330000000016,,response,,,99,,,,,,Space,keypress(Space),,,,,---- -- ----- -- ------ - ------- --- ----------<br>------------- ------ ------ ---- ---- ------- ----- -- ----<br>-------- ------- -- ---------- But - --- ----- ----- ----<br>---- --- --- ----- --- ---- ---- ------- ----- ---- -------<br>--- --- -- ----- -- --- ---- -- --- ---- -- ------ ------<br>--- ----- -- ----,76931.30000000075,76930.5,75751.197,75755.69999999925,75767.867,76934.801,,22,But
screen,html.Screen,0_2_0_1_23,2021-12-02T12:40:27.043Z,,,,,,,,,,,,,,,,53,,,,,,,,,,,,,,715.5990000003658,,response,,,99,,,,,,Space,keypress(Space),,,,,---- -- ----- -- ------ - ------- --- ----------<br>------------- ------ ------ ---- ---- ------- ----- -- ----<br>-------- ------- -- ---------- --- a --- ----- ----- ----<br>---- --- --- ----- --- ---- ---- ------- ----- ---- -------<br>--- --- -- ----- -- --- ---- -- --- ---- -- ------ ------<br>--- ----- -- ----,77651.19999999925,77650.40000000037,76918.131,76931.59999999963,76934.801,77668.353,,23,a
screen,html.Screen,0_2_0_1_24,2021-12-02T12:40:27.507Z,,,,,,,,,,,,,,,,53,,,,,,,,,,,,,,446.04700000036974,,response,,,99,,,,,,Space,keypress(Space),,,,,---- -- ----- -- ------ - ------- --- ----------<br>------------- ------ ------ ---- ---- ------- ----- -- ----<br>-------- ------- -- ---------- --- - new ----- ----- ----<br>---- --- --- ----- --- ---- ---- ------- ----- ---- -------<br>--- --- -- ----- -- --- ---- -- --- ---- -- ------ ------<br>--- ----- -- ----,78115.19999999925,78114.40000000037,77651.683,77651.5,77668.353,78118.429,,24,new
screen,html.Screen,0_2_0_1_25,2021-12-02T12:40:28.235Z,,,,,,,,,,,,,,,,53,,,,,,,,,,,,,,723.9710000003688,,response,,,99,,,,,,Space,keypress(Space),,,,,---- -- ----- -- ------ - ------- --- ----------<br>------------- ------ ------ ---- ---- ------- ----- -- ----<br>-------- ------- -- ---------- --- - --- study ----- ----<br>---- --- --- ----- --- ---- ---- ------- ----- ---- -------<br>--- --- -- ----- -- --- ---- -- --- ---- -- ------ ------<br>--- ----- -- ----,78843.19999999925,78842.40000000037,78101.759,78115.5,78118.429,78852.125,,25,study
screen,html.Screen,0_2_0_1_26,2021-12-02T12:40:28.763Z,,,,,,,,,,,,,,,,53,,,,,,,,,,,,,,518.2750000003725,,response,,,99,,,,,,Space,keypress(Space),,,,,---- -- ----- -- ------ - ------- --- ----------<br>------------- ------ ------ ---- ---- ------- ----- -- ----<br>-------- ------- -- ---------- --- - --- ----- finds ----<br>---- --- --- ----- --- ---- ---- ------- ----- ---- -------<br>--- --- -- ----- -- --- ---- -- --- ---- -- ------ ------<br>--- ----- -- ----,79371.19999999925,79370.40000000037,78835.453,78843.40000000037,78852.125,79385.471,,26,finds
screen,html.Screen,0_2_0_1_27,2021-12-02T12:40:29.307Z,,,,,,,,,,,,,,,,53,,,,,,,,,,,,,,528.9290000003675,,response,,,99,,,,,,Space,keypress(Space),,,,,---- -- ----- -- ------ - ------- --- ----------<br>------------- ------ ------ ---- ---- ------- ----- -- ----<br>-------- ------- -- ---------- --- - --- ----- ----- that<br>---- --- --- ----- --- ---- ---- ------- ----- ---- -------<br>--- --- -- ----- -- --- ---- -- --- ---- -- ------ ------<br>--- ----- -- ----,79915.09999999963,79914.40000000037,79368.801,79371.40000000037,79385.471,79918.972,,27,that
screen,html.Screen,0_2_0_1_28,2021-12-02T12:40:29.939Z,,,,,,,,,,,,,,,,53,,,,,,,,,,,,,,627.8280000007508,,response,,,99,,,,,,Space,keypress(Space),,,,,---- -- ----- -- ------ - ------- --- ----------<br>------------- ------ ------ ---- ---- ------- ----- -- ----<br>-------- ------- -- ---------- --- - --- ----- ----- ----<br>it's --- --- ----- --- ---- ---- ------- ----- ---- -------<br>--- --- -- ----- -- --- ---- -- --- ---- -- ------ ------<br>--- ----- -- ----,80547.5,80546.80000000075,79902.302,79915.40000000037,79918.972,80552.47,,28,it's
screen,html.Screen,0_2_0_1_29,2021-12-02T12:40:30.395Z,,,,,,,,,,,,,,,,53,,,,,,,,,,,,,,449.8300000007439,,response,,,99,,,,,,Space,keypress(Space),,,,,---- -- ----- -- ------ - ------- --- ----------<br>------------- ------ ------ ---- ---- ------- ----- -- ----<br>-------- ------- -- ---------- --- - --- ----- ----- ----<br>---- not --- ----- --- ---- ---- ------- ----- ---- -------<br>--- --- -- ----- -- --- ---- -- --- ---- -- ------ ------<br>--- ----- -- ----,81003.19999999925,81002.30000000075,80535.8,80547.80000000075,80552.47,81019.254,,29,not
screen,html.Screen,0_2_0_1_30,2021-12-02T12:40:30.811Z,,,,,,,,,,,,,,,,53,,,,,,,,,,,,,,399.04600000074424,,response,,,99,,,,,,Space,keypress(Space),,,,,---- -- ----- -- ------ - ------- --- ----------<br>------------- ------ ------ ---- ---- ------- ----- -- ----<br>-------- ------- -- ---------- --- - --- ----- ----- ----<br>---- --- how ----- --- ---- ---- ------- ----- ---- -------<br>--- --- -- ----- -- --- ---- -- --- ---- -- ------ ------<br>--- ----- -- ----,81419.09999999963,81418.30000000075,81002.584,81003.40000000037,81019.254,81436.027,,30,how
screen,html.Screen,0_2_0_1_31,2021-12-02T12:40:31.283Z,,,,,,,,,,,,,,,,53,,,,,,,,,,,,,,454.2730000007432,,response,,,99,,,,,,Space,keypress(Space),,,,,---- -- ----- -- ------ - ------- --- ----------<br>------------- ------ ------ ---- ---- ------- ----- -- ----<br>-------- ------- -- ---------- --- - --- ----- ----- ----<br>---- --- --- close --- ---- ---- ------- ----- ---- -------<br>--- --- -- ----- -- --- ---- -- --- ---- -- ------ ------<br>--- ----- -- ----,81891.09999999963,81890.30000000075,81419.357,81419.40000000037,81436.027,81902.867,,31,close
screen,html.Screen,0_2_0_1_32,2021-12-02T12:40:31.699Z,,,,,,,,,,,,,,,,53,,,,,,,,,,,,,,403.3329999992566,,response,,,99,,,,,,Space,keypress(Space),,,,,---- -- ----- -- ------ - ------- --- ----------<br>------------- ------ ------ ---- ---- ------- ----- -- ----<br>-------- ------- -- ---------- --- - --- ----- ----- ----<br>---- --- --- ----- you ---- ---- ------- ----- ---- -------<br>--- --- -- ----- -- --- ---- -- --- ---- -- ------ ------<br>--- ----- -- ----,82307.19999999925,82306.19999999925,81886.196,81891.40000000037,81902.867,82319.653,,32,you
screen,html.Screen,0_2_0_1_33,2021-12-02T12:40:32.107Z,,,,,,,,,,,,,,,,53,,,,,,,,,,,,,,394.54699999924924,,response,,,99,,,,,,Space,keypress(Space),,,,,---- -- ----- -- ------ - ------- --- ----------<br>------------- ------ ------ ---- ---- ------- ----- -- ----<br>-------- ------- -- ---------- --- - --- ----- ----- ----<br>---- --- --- ----- --- feel ---- ------- ----- ---- -------<br>--- --- -- ----- -- --- ---- -- --- ---- -- ------ ------<br>--- ----- -- ----,82715,82714.19999999925,82302.982,82307.40000000037,82319.653,82719.714,,33,feel
screen,html.Screen,0_2_0_1_34,2021-12-02T12:40:32.555Z,,,,,,,,,,,,,,,,53,,,,,,,,,,,,,,442.4859999992477,,response,,,99,,,,,,Space,keypress(Space),,,,,---- -- ----- -- ------ - ------- --- ----------<br>------------- ------ ------ ---- ---- ------- ----- -- ----<br>-------- ------- -- ---------- --- - --- ----- ----- ----<br>---- --- --- ----- --- ---- that ------- ----- ---- -------<br>--- --- -- ----- -- --- ---- -- --- ---- -- ------ ------<br>--- ----- -- ----,83163,83162.19999999925,82703.044,82715.19999999925,82719.714,83169.88,,34,that
screen,html.Screen,0_2_0_1_35,2021-12-02T12:40:32.979Z,,,,,,,,,,,,,,,,53,,,,,,,,,,,,,,416.3199999992503,,response,,,99,,,,,,Space,keypress(Space),,,,,---- -- ----- -- ------ - ------- --- ----------<br>------------- ------ ------ ---- ---- ------- ----- -- ----<br>-------- ------- -- ---------- --- - --- ----- ----- ----<br>---- --- --- ----- --- ---- ---- matters ----- ---- -------<br>--- --- -- ----- -- --- ---- -- --- ---- -- ------ ------<br>--- ----- -- ----,83587,83586.19999999925,83153.209,83163.19999999925,83169.88,83603.279,,35,matters
screen,html.Screen,0_2_0_1_36,2021-12-02T12:40:33.499Z,,,,,,,,,,,,,,,,53,,,,,,,,,,,,,,502.8209999996325,,response,,,99,,,,,,Space,keypress(Space),,,,,"---- -- ----- -- ------ - ------- --- ----------<br>------------- ------ ------ ---- ---- ------- ----- -- ----<br>-------- ------- -- ---------- --- - --- ----- ----- ----<br>---- --- --- ----- --- ---- ---- ------- most, ---- -------<br>--- --- -- ----- -- --- ---- -- --- ---- -- ------ ------<br>--- ----- -- ----",84107.09999999963,84106.09999999963,83586.609,83587.19999999925,83603.279,84120.131,,36,"most,"
screen,html.Screen,0_2_0_1_37,2021-12-02T12:40:34.075Z,,,,,,,,,,,,,,,,53,,,,,,,,,,,,,,561.9689999996335,,response,,,99,,,,,,Space,keypress(Space),,,,,---- -- ----- -- ------ - ------- --- ----------<br>------------- ------ ------ ---- ---- ------- ----- -- ----<br>-------- ------- -- ---------- --- - --- ----- ----- ----<br>---- --- --- ----- --- ---- ---- ------- ----- it's -------<br>--- --- -- ----- -- --- ---- -- --- ---- -- ------ ------<br>--- ----- -- ----,84683.09999999963,84682.09999999963,84103.46,84107.40000000037,84120.131,84686.713,,37,it's
screen,html.Screen,0_2_0_1_38,2021-12-02T12:40:34.659Z,,,,,,,,,,,,,,,,53,,,,,,,,,,,,,,579.3869999996241,,response,,,99,,,,,,Space,keypress(Space),,,,,---- -- ----- -- ------ - ------- --- ----------<br>------------- ------ ------ ---- ---- ------- ----- -- ----<br>-------- ------- -- ---------- --- - --- ----- ----- ----<br>---- --- --- ----- --- ---- ---- ------- ----- ---- whether<br>--- --- -- ----- -- --- ---- -- --- ---- -- ------ ------<br>--- ----- -- ----,85266.80000000075,85266.09999999963,84670.045,84683.40000000037,84686.713,85270.523,,38,whether
screen,html.Screen,0_2_0_1_39,2021-12-02T12:40:35.171Z,,,,,,,,,,,,,,,,53,,,,,,,,,,,,,,507.5769999996264,,response,,,99,,,,,,Space,keypress(Space),,,,,---- -- ----- -- ------ - ------- --- ----------<br>------------- ------ ------ ---- ---- ------- ----- -- ----<br>-------- ------- -- ---------- --- - --- ----- ----- ----<br>---- --- --- ----- --- ---- ---- ------- ----- ---- -------<br>you --- -- ----- -- --- ---- -- --- ---- -- ------ ------<br>--- ----- -- ----,85778.80000000075,85778.09999999963,85253.851,85267,85270.523,85787.191,,39,you
screen,html.Screen,0_2_0_1_40,2021-12-02T12:40:35.699Z,,,,,,,,,,,,,,,,53,,,,,,,,,,,,,,519.4089999996213,,response,,,99,,,,,,Space,keypress(Space),,,,,---- -- ----- -- ------ - ------- --- ----------<br>------------- ------ ------ ---- ---- ------- ----- -- ----<br>-------- ------- -- ---------- --- - --- ----- ----- ----<br>---- --- --- ----- --- ---- ---- ------- ----- ---- -------<br>--- are -- ----- -- --- ---- -- --- ---- -- ------ ------<br>--- ----- -- ----,86307.40000000037,86306.59999999963,85770.521,85779.09999999963,85787.191,86320.726,,40,are
screen,html.Screen,0_2_0_1_41,2021-12-02T12:40:36.203Z,,,,,,,,,,,,,,,,53,,,,,,,,,,,,,,489.2740000000049,,response,,,99,,,,,,Space,keypress(Space),,,,,---- -- ----- -- ------ - ------- --- ----------<br>------------- ------ ------ ---- ---- ------- ----- -- ----<br>-------- ------- -- ---------- --- - --- ----- ----- ----<br>---- --- --- ----- --- ---- ---- ------- ----- ---- -------<br>--- --- as ----- -- --- ---- -- --- ---- -- ------ ------<br>--- ----- -- ----,86810.80000000075,86810,86304.055,86307.59999999963,86320.726,86820.804,,41,as
screen,html.Screen,0_2_0_1_42,2021-12-02T12:40:36.675Z,,,,,,,,,,,,,,,,53,,,,,,,,,,,,,,461.1959999999963,,response,,,99,,,,,,Space,keypress(Space),,,,,---- -- ----- -- ------ - ------- --- ----------<br>------------- ------ ------ ---- ---- ------- ----- -- ----<br>-------- ------- -- ---------- --- - --- ----- ----- ----<br>---- --- --- ----- --- ---- ---- ------- ----- ---- -------<br>--- --- -- close -- --- ---- -- --- ---- -- ------ ------<br>--- ----- -- ----,87282.80000000075,87282,86804.134,86811,86820.804,87287.604,,42,close
screen,html.Screen,0_2_0_1_43,2021-12-02T12:40:37.195Z,,,,,,,,,,,,,,,,53,,,,,,,,,,,,,,514.3959999999934,,response,,,99,,,,,,Space,keypress(Space),,,,,---- -- ----- -- ------ - ------- --- ----------<br>------------- ------ ------ ---- ---- ------- ----- -- ----<br>-------- ------- -- ---------- --- - --- ----- ----- ----<br>---- --- --- ----- --- ---- ---- ------- ----- ---- -------<br>--- --- -- ----- as --- ---- -- --- ---- -- ------ ------<br>--- ----- -- ----,87802.69999999925,87802,87270.934,87283,87287.604,87804.39,,43,as
screen,html.Screen,0_2_0_1_44,2021-12-02T12:40:37.619Z,,,,,,,,,,,,,,,,53,,,,,,,,,,,,,,421.6100000000006,,response,,,99,,,,,,Space,keypress(Space),,,,,---- -- ----- -- ------ - ------- --- ----------<br>------------- ------ ------ ---- ---- ------- ----- -- ----<br>-------- ------- -- ---------- --- - --- ----- ----- ----<br>---- --- --- ----- --- ---- ---- ------- ----- ---- -------<br>--- --- -- ----- -- you ---- -- --- ---- -- ------ ------<br>--- ----- -- ----,88226.69999999925,88226,87787.72,87803,87804.39,88237.799,,44,you
screen,html.Screen,0_2_0_1_45,2021-12-02T12:40:38.019Z,,,,,,,,,,,,,,,,53,,,,,,,,,,,,,,388.20100000000093,,response,,,99,,,,,,Space,keypress(Space),,,,,---- -- ----- -- ------ - ------- --- ----------<br>------------- ------ ------ ---- ---- ------- ----- -- ----<br>-------- ------- -- ---------- --- - --- ----- ----- ----<br>---- --- --- ----- --- ---- ---- ------- ----- ---- -------<br>--- --- -- ----- -- --- want -- --- ---- -- ------ ------<br>--- ----- -- ----,88626.69999999925,88626,88221.129,88227,88237.799,88638.052,,45,want
screen,html.Screen,0_2_0_1_46,2021-12-02T12:40:38.434Z,,,,,,,,,,,,,,,,53,,,,,,,,,,,,,,403.8480000003765,,response,,,99,,,,,,Space,keypress(Space),,,,,---- -- ----- -- ------ - ------- --- ----------<br>------------- ------ ------ ---- ---- ------- ----- -- ----<br>-------- ------- -- ---------- --- - --- ----- ----- ----<br>---- --- --- ----- --- ---- ---- ------- ----- ---- -------<br>--- --- -- ----- -- --- ---- to --- ---- -- ------ ------<br>--- ----- -- ----,89042.69999999925,89041.90000000037,88621.38,88627,88638.052,89054.738,,46,to
screen,html.Screen,0_2_0_1_47,2021-12-02T12:40:38.819Z,,,,,,,,,,,,,,,,53,,,,,,,,,,,,,,371.162000000375,,response,,,99,,,,,,Space,keypress(Space),,,,,"---- -- ----- -- ------ - ------- --- ----------<br>------------- ------ ------ ---- ---- ------- ----- -- ----<br>-------- ------- -- ---------- --- - --- ----- ----- ----<br>---- --- --- ----- --- ---- ---- ------- ----- ---- -------<br>--- --- -- ----- -- --- ---- -- be, ---- -- ------ ------<br>--- ----- -- ----",89426.69999999925,89425.90000000037,89038.068,89042.90000000037,89054.738,89438.039,,47,"be,"
screen,html.Screen,0_2_0_1_48,2021-12-02T12:40:39.315Z,,,,,,,,,,,,,,,,53,,,,,,,,,,,,,,483.8610000003682,,response,,,99,,,,,,Space,keypress(Space),,,,,---- -- ----- -- ------ - ------- --- ----------<br>------------- ------ ------ ---- ---- ------- ----- -- ----<br>-------- ------- -- ---------- --- - --- ----- ----- ----<br>---- --- --- ----- --- ---- ---- ------- ----- ---- -------<br>--- --- -- ----- -- --- ---- -- --- even -- ------ ------<br>--- ----- -- ----,89922.69999999925,89921.90000000037,89421.371,89427,89438.039,89938.402,,48,even
screen,html.Screen,0_2_0_1_49,2021-12-02T12:40:39.746Z,,,,,,,,,,,,,,,,53,,,,,,,,,,,,,,415.49800000037067,,response,,,99,,,,,,Space,keypress(Space),,,,,---- -- ----- -- ------ - ------- --- ----------<br>------------- ------ ------ ---- ---- ------- ----- -- ----<br>-------- ------- -- ---------- --- - --- ----- ----- ----<br>---- --- --- ----- --- ---- ---- ------- ----- ---- -------<br>--- --- -- ----- -- --- ---- -- --- ---- if ------ ------<br>--- ----- -- ----,90354.69999999925,90353.90000000037,89921.73,89922.90000000037,89938.402,90371.758,,49,if
screen,html.Screen,0_2_0_1_50,2021-12-02T12:40:40.131Z,,,,,,,,,,,,,,,,53,,,,,,,,,,,,,,366.5420000007434,,response,,,99,,,,,,Space,keypress(Space),,,,,---- -- ----- -- ------ - ------- --- ----------<br>------------- ------ ------ ---- ---- ------- ----- -- ----<br>-------- ------- -- ---------- --- - --- ----- ----- ----<br>---- --- --- ----- --- ---- ---- ------- ----- ---- -------<br>--- --- -- ----- -- --- ---- -- --- ---- -- that's ------<br>--- ----- -- ----,90739.09999999963,90738.30000000075,90355.088,90354.90000000037,90371.758,90755.167,,50,that's
screen,html.Screen,0_2_0_1_51,2021-12-02T12:40:40.642Z,,,,,,,,,,,,,,,,53,,,,,,,,,,,,,,494.6330000007438,,response,,,99,,,,,,Space,keypress(Space),,,,,---- -- ----- -- ------ - ------- --- ----------<br>------------- ------ ------ ---- ---- ------- ----- -- ----<br>-------- ------- -- ---------- --- - --- ----- ----- ----<br>---- --- --- ----- --- ---- ---- ------- ----- ---- -------<br>--- --- -- ----- -- --- ---- -- --- ---- -- ------ really<br>--- ----- -- ----,91250.59999999963,91249.80000000075,90738.497,90739.30000000075,90755.167,91255.378,,51,really
screen,html.Screen,0_2_0_1_52,2021-12-02T12:40:41.186Z,,,,,,,,,,,,,,,,53,,,,,,,,,,,,,,538.4220000007481,,response,,,99,,,,,,Space,keypress(Space),,,,,---- -- ----- -- ------ - ------- --- ----------<br>------------- ------ ------ ---- ---- ------- ----- -- ----<br>-------- ------- -- ---------- --- - --- ----- ----- ----<br>---- --- --- ----- --- ---- ---- ------- ----- ---- -------<br>--- --- -- ----- -- --- ---- -- --- ---- -- ------ ------<br>not ----- -- ----,91794.59999999963,91793.80000000075,91238.707,91250.90000000037,91255.378,91805.459,,52,not
screen,html.Screen,0_2_0_1_53,2021-12-02T12:40:41.650Z,,,,,,,,,,,,,,,,53,,,,,,,,,,,,,,452.3410000007425,,response,,,99,,,,,,Space,keypress(Space),,,,,---- -- ----- -- ------ - ------- --- ----------<br>------------- ------ ------ ---- ---- ------- ----- -- ----<br>-------- ------- -- ---------- --- - --- ----- ----- ----<br>---- --- --- ----- --- ---- ---- ------- ----- ---- -------<br>--- --- -- ----- -- --- ---- -- --- ---- -- ------ ------<br>--- close -- ----,92258.59999999963,92257.80000000075,91788.789,91794.90000000037,91805.459,92272.265,,53,close
screen,html.Screen,0_2_0_1_54,2021-12-02T12:40:42.058Z,,,,,,,,,,,,,,,,53,,,,,,,,,,,,,,393.4349999992555,,response,,,99,,,,,,Space,keypress(Space),,,,,---- -- ----- -- ------ - ------- --- ----------<br>------------- ------ ------ ---- ---- ------- ----- -- ----<br>-------- ------- -- ---------- --- - --- ----- ----- ----<br>---- --- --- ----- --- ---- ---- ------- ----- ---- -------<br>--- --- -- ----- -- --- ---- -- --- ---- -- ------ ------<br>--- ----- at ----,92666.5,92665.69999999925,92255.595,92258.80000000075,92272.265,92672.358,,54,at
screen,html.Screen,0_2_0_1_55,2021-12-02T12:40:42.474Z,,,,,,,,,,,,,,,,53,,,,,,,,,,,,,,409.34199999926204,,response,,,99,,,,,,Space,keypress(Space),,,,,---- -- ----- -- ------ - ------- --- ----------<br>------------- ------ ------ ---- ---- ------- ----- -- ----<br>-------- ------- -- ---------- --- - --- ----- ----- ----<br>---- --- --- ----- --- ---- ---- ------- ----- ---- -------<br>--- --- -- ----- -- --- ---- -- --- ---- -- ------ ------<br>--- ----- -- all.,93082.40000000037,93081.69999999925,92655.688,92666.80000000075,92672.358,93089.062,,55,all.
Item 99,flow.Loop,0_2_0_1,2021-12-02T12:40:42.479Z,,,,,,,,,,,,,,,,,,,,,,,,,,,,,,28783.766999999258,,completion,,,,E,,,,,,,,,,silence,,93087.19999999925,93081.69999999925,64281.264,64288.199999999255,64297.933,93089.062,,,
Question 1,html.Screen,0_2_0_2,2021-12-02T12:40:47.738Z,,,,,,,,,,,,,,,,,,,,,,,,,,,true,FALSE,,5256.23800000074,,response,,,99,E,,,,,FALSE,click #choice-2,,,,silence,,98346.59999999963,98345.30000000075,93072.393,93087.5,93089.062,98357.268,,,
Question 2,html.Screen,0_2_0_3,2021-12-02T12:40:54.066Z,,,,,,,,,,,,,,,,,,,,,,,,,,,false,TRUE,,6315.732000000004,,response,,,99,E,,,,,FALSE,click #choice-2,,,,silence,,104674.19999999925,104673,98340.597,98346.90000000037,98357.268,104675.562,,,
Item 99,flow.Sequence,0_2_0,2021-12-02T12:40:54.067Z,,,,,,,,,,,,,,,,,,,,,,,,,,,,,,50377.353,,completion,,,,,,,,,,,,,,,,104674.80000000075,104673,54278.971,54293.300000000745,54295.647,104675.562,,,
Holding screen,html.Screen,0_2_1_0,2021-12-02T12:41:04.055Z,,,,,,,,,,,,,,,,,,,,,,,,,,,,,,10002.558999999994,,timeout,,,,,,,,,,,,,,,,114662.80000000075,114661.451,104658.892,104675.19999999925,104675.562,114678.121,,,
screen,html.Screen,0_2_1_1_0,2021-12-02T12:41:04.674Z,,,,,,,,,,,,,,,,54,,,,,,,,,,,,,,603.0789999992558,,response,,,100,,,,,,Space,keypress(Space),,,,,At --- ---- --- ------ ----- ------- ---- -- --- ------- --<br>------- ---------- ------ -- ----- -- ----- -- ---- ------<br>--- ----- --- --- ------ -------- ----- --- ------ ----- --<br>----- ----- ---------- --- --- ------ ------ ---- -- ------<br>------- --- ------ ----- --- ---- ------- -- ---- --- --<br>------- ------,115281.90000000037,115281.19999999925,114661.451,114663.30000000075,114678.121,115294.99,,0,At
screen,html.Screen,0_2_1_1_1,2021-12-02T12:41:05.073Z,,,,,,,,,,,,,,,,54,,,,,,,,,,,,,,385.7099999992497,,response,,,100,,,,,,Space,keypress(Space),,,,,-- the ---- --- ------ ----- ------- ---- -- --- ------- --<br>------- ---------- ------ -- ----- -- ----- -- ---- ------<br>--- ----- --- --- ------ -------- ----- --- ------ ----- --<br>----- ----- ---------- --- --- ------ ------ ---- -- ------<br>------- --- ------ ----- --- ---- ------- -- ---- --- --<br>------- ------,115681.40000000037,115680.69999999925,115278.32,115282.30000000075,115294.99,115695.173,,1,the
screen,html.Screen,0_2_1_1_2,2021-12-02T12:41:05.465Z,,,,,,,,,,,,,,,,54,,,,,,,,,,,,,,377.42699999963224,,response,,,100,,,,,,Space,keypress(Space),,,,,-- --- time --- ------ ----- ------- ---- -- --- ------- --<br>------- ---------- ------ -- ----- -- ----- -- ---- ------<br>--- ----- --- --- ------ -------- ----- --- ------ ----- --<br>----- ----- ---------- --- --- ------ ------ ---- -- ------<br>------- --- ------ ----- --- ---- ------- -- ---- --- --<br>------- ------,116073.40000000037,116072.59999999963,115678.502,115681.69999999925,115695.173,116078.622,,2,time
screen,html.Screen,0_2_1_1_3,2021-12-02T12:41:05.881Z,,,,,,,,,,,,,,,,54,,,,,,,,,,,,,,409.97799999962444,,response,,,100,,,,,,Space,keypress(Space),,,,,-- --- ---- the ------ ----- ------- ---- -- --- ------- --<br>------- ---------- ------ -- ----- -- ----- -- ---- ------<br>--- ----- --- --- ------ -------- ----- --- ------ ----- --<br>----- ----- ---------- --- --- ------ ------ ---- -- ------<br>------- --- ------ ----- --- ---- ------- -- ---- --- --<br>------- ------,116489.5,116488.59999999963,116061.951,116073.59999999963,116078.622,116495.367,,3,the
screen,html.Screen,0_2_1_1_4,2021-12-02T12:41:06.339Z,,,,,,,,,,,,,,,,54,,,,,,,,,,,,,,449.2329999996291,,response,,,100,,,,,,Space,keypress(Space),,,,,-- --- ---- --- French ----- ------- ---- -- --- ------- --<br>------- ---------- ------ -- ----- -- ----- -- ---- ------<br>--- ----- --- --- ------ -------- ----- --- ------ ----- --<br>----- ----- ---------- --- --- ------ ------ ---- -- ------<br>------- --- ------ ----- --- ---- ------- -- ---- --- --<br>------- ------,116947.19999999925,116944.59999999963,116478.697,116489.59999999963,116495.367,116962.197,,4,French
screen,html.Screen,0_2_1_1_5,2021-12-02T12:41:06.729Z,,,,,,,,,,,,,,,,54,,,,,,,,,,,,,,374.40299999962735,,response,,,100,,,,,,Space,keypress(Space),,,,,-- --- ---- --- ------ crown ------- ---- -- --- ------- --<br>------- ---------- ------ -- ----- -- ----- -- ---- ------<br>--- ----- --- --- ------ -------- ----- --- ------ ----- --<br>----- ----- ---------- --- --- ------ ------ ---- -- ------<br>------- --- ------ ----- --- ---- ------- -- ---- --- --<br>------- ------,117337.40000000037,117336.59999999963,116945.526,116947.5,116962.197,117345.6,,5,crown
screen,html.Screen,0_2_1_1_6,2021-12-02T12:41:07.153Z,,,,,,,,,,,,,,,,54,,,,,,,,,,,,,,414.99999999962165,,response,,,100,,,,,,Space,keypress(Space),,,,,-- --- ---- --- ------ ----- secured ---- -- --- ------- --<br>------- ---------- ------ -- ----- -- ----- -- ---- ------<br>--- ----- --- --- ------ -------- ----- --- ------ ----- --<br>----- ----- ---------- --- --- ------ ------ ---- -- ------<br>------- --- ------ ----- --- ---- ------- -- ---- --- --<br>------- ------,117761.30000000075,117760.59999999963,117328.93,117337.69999999925,117345.6,117778.893,,6,secured
screen,html.Screen,0_2_1_1_7,2021-12-02T12:41:07.609Z,,,,,,,,,,,,,,,,54,,,,,,,,,,,,,,437.6070000000036,,response,,,100,,,,,,Space,keypress(Space),,,,,-- --- ---- --- ------ ----- ------- much -- --- ------- --<br>------- ---------- ------ -- ----- -- ----- -- ---- ------<br>--- ----- --- --- ------ -------- ----- --- ------ ----- --<br>----- ----- ---------- --- --- ------ ------ ---- -- ------<br>------- --- ------ ----- --- ---- ------- -- ---- --- --<br>------- ------,118217.40000000037,118216.5,117762.225,117761.59999999963,117778.893,118229.302,,7,much
screen,html.Screen,0_2_1_1_8,2021-12-02T12:41:08.041Z,,,,,,,,,,,,,,,,54,,,,,,,,,,,,,,419.29799999963143,,response,,,100,,,,,,Space,keypress(Space),,,,,-- --- ---- --- ------ ----- ------- ---- of --- ------- --<br>------- ---------- ------ -- ----- -- ----- -- ---- ------<br>--- ----- --- --- ------ -------- ----- --- ------ ----- --<br>----- ----- ---------- --- --- ------ ------ ---- -- ------<br>------- --- ------ ----- --- ---- ------- -- ---- --- --<br>------- ------,118649.30000000075,118648.59999999963,118212.629,118217.69999999925,118229.302,118662.618,,8,of
screen,html.Screen,0_2_1_1_9,2021-12-02T12:41:08.369Z,,,,,,,,,,,,,,,,54,,,,,,,,,,,,,,313.8819999999978,,response,,,100,,,,,,Space,keypress(Space),,,,,-- --- ---- --- ------ ----- ------- ---- -- its ------- --<br>------- ---------- ------ -- ----- -- ----- -- ---- ------<br>--- ----- --- --- ------ -------- ----- --- ------ ----- --<br>----- ----- ---------- --- --- ------ ------ ---- -- ------<br>------- --- ------ ----- --- ---- ------- -- ---- --- --<br>------- ------,118977.30000000075,118976.5,118645.948,118649.59999999963,118662.618,118979.35,,9,its
screen,html.Screen,0_2_1_1_10,2021-12-02T12:41:08.833Z,,,,,,,,,,,,,,,,54,,,,,,,,,,,,,,461.24999999962165,,response,,,100,,,,,,Space,keypress(Space),,,,,-- --- ---- --- ------ ----- ------- ---- -- --- revenue --<br>------- ---------- ------ -- ----- -- ----- -- ---- ------<br>--- ----- --- --- ------ -------- ----- --- ------ ----- --<br>----- ----- ---------- --- --- ------ ------ ---- -- ------<br>------- --- ------ ----- --- ---- ------- -- ---- --- --<br>------- ------,119441.30000000075,119440.59999999963,118962.68,118977.5,118979.35,119446.123,,10,revenue
screen,html.Screen,0_2_1_1_11,2021-12-02T12:41:09.345Z,,,,,,,,,,,,,,,,54,,,,,,,,,,,,,,506.37699999999313,,response,,,100,,,,,,Space,keypress(Space),,,,,-- --- ---- --- ------ ----- ------- ---- -- --- ------- by<br>------- ---------- ------ -- ----- -- ----- -- ---- ------<br>--- ----- --- --- ------ -------- ----- --- ------ ----- --<br>----- ----- ---------- --- --- ------ ------ ---- -- ------<br>------- --- ------ ----- --- ---- ------- -- ---- --- --<br>------- ------,119953.19999999925,119952.5,119429.453,119441.5,119446.123,119962.993,,11,by
screen,html.Screen,0_2_1_1_12,2021-12-02T12:41:09.836Z,,,,,,,,,,,,,,,,54,,,,,,,,,,,,,,477.5069999999978,,response,,,100,,,,,,Space,keypress(Space),,,,,-- --- ---- --- ------ ----- ------- ---- -- --- ------- --<br>issuing ---------- ------ -- ----- -- ----- -- ---- ------<br>--- ----- --- --- ------ -------- ----- --- ------ ----- --<br>----- ----- ---------- --- --- ------ ------ ---- -- ------<br>------- --- ------ ----- --- ---- ------- -- ---- --- --<br>------- ------,120441.30000000075,120440.5,119946.322,119953.5,119962.993,120446.414,,12,issuing
screen,html.Screen,0_2_1_1_13,2021-12-02T12:41:10.372Z,,,,,,,,,,,,,,,,54,,,,,,,,,,,,,,530.0859999999957,,response,,,100,,,,,,Space,keypress(Space),,,,,-- --- ---- --- ------ ----- ------- ---- -- --- ------- --<br>------- government ------ -- ----- -- ----- -- ---- ------<br>--- ----- --- --- ------ -------- ----- --- ------ ----- --<br>----- ----- ---------- --- --- ------ ------ ---- -- ------<br>------- --- ------ ----- --- ---- ------- -- ---- --- --<br>------- ------,120977.19999999925,120976.5,120429.744,120441.5,120446.414,120979.874,,13,government
screen,html.Screen,0_2_1_1_14,2021-12-02T12:41:10.844Z,,,,,,,,,,,,,,,,54,,,,,,,,,,,,,,468.52600000037637,,response,,,100,,,,,,Space,keypress(Space),,,,,-- --- ---- --- ------ ----- ------- ---- -- --- ------- --<br>------- ---------- bonds. -- ----- -- ----- -- ---- ------<br>--- ----- --- --- ------ -------- ----- --- ------ ----- --<br>----- ----- ---------- --- --- ------ ------ ---- -- ------<br>------- --- ------ ----- --- ---- ------- -- ---- --- --<br>------- ------,121449.19999999925,121448.40000000037,120963.204,120977.5,120979.874,121463.396,,14,bonds.
screen,html.Screen,0_2_1_1_15,2021-12-02T12:41:11.916Z,,,,,,,,,,,,,,,,54,,,,,,,,,,,,,,1057.0040000003792,,response,,,100,,,,,,Space,keypress(Space),,,,,-- --- ---- --- ------ ----- ------- ---- -- --- ------- --<br>------- ---------- ------ In ----- -- ----- -- ---- ------<br>--- ----- --- --- ------ -------- ----- --- ------ ----- --<br>----- ----- ---------- --- --- ------ ------ ---- -- ------<br>------- --- ------ ----- --- ---- ------- -- ---- --- --<br>------- ------,122521.09999999963,122520.40000000037,121446.725,121449.40000000037,121463.396,122530.106,,15,In
screen,html.Screen,0_2_1_1_16,2021-12-02T12:41:12.956Z,,,,,,,,,,,,,,,,54,,,,,,,,,,,,,,1030.1940000007453,,response,,,100,,,,,,Space,keypress(Space),,,,,"-- --- ---- --- ------ ----- ------- ---- -- --- ------- --<br>------- ---------- ------ -- 1727, -- ----- -- ---- ------<br>--- ----- --- --- ------ -------- ----- --- ------ ----- --<br>----- ----- ---------- --- --- ------ ------ ---- -- ------<br>------- --- ------ ----- --- ---- ------- -- ---- --- --<br>------- ------",123561.09999999963,123560.30000000075,122513.437,122521.40000000037,122530.106,123564.149,,16,"1727,"
screen,html.Screen,0_2_1_1_17,2021-12-02T12:41:13.748Z,,,,,,,,,,,,,,,,54,,,,,,,,,,,,,,788.1510000007402,,response,,,100,,,,,,Space,keypress(Space),,,,,-- --- ---- --- ------ ----- ------- ---- -- --- ------- --<br>------- ---------- ------ -- ----- in ----- -- ---- ------<br>--- ----- --- --- ------ -------- ----- --- ------ ----- --<br>----- ----- ---------- --- --- ------ ------ ---- -- ------<br>------- --- ------ ----- --- ---- ------- -- ---- --- --<br>------- ------,124353,124352.30000000075,123547.476,123561.30000000075,123564.149,124364.08,,17,in
screen,html.Screen,0_2_1_1_18,2021-12-02T12:41:14.268Z,,,,,,,,,,,,,,,,54,,,,,,,,,,,,,,508.2200000007433,,response,,,100,,,,,,Space,keypress(Space),,,,,-- --- ---- --- ------ ----- ------- ---- -- --- ------- --<br>------- ---------- ------ -- ----- -- order -- ---- ------<br>--- ----- --- --- ------ -------- ----- --- ------ ----- --<br>----- ----- ---------- --- --- ------ ------ ---- -- ------<br>------- --- ------ ----- --- ---- ------- -- ---- --- --<br>------- ------,124873,124872.30000000075,124347.41,124353.30000000075,124364.08,124880.837,,18,order
screen,html.Screen,0_2_1_1_19,2021-12-02T12:41:14.708Z,,,,,,,,,,,,,,,,54,,,,,,,,,,,,,,431.8629999992554,,response,,,100,,,,,,Space,keypress(Space),,,,,-- --- ---- --- ------ ----- ------- ---- -- --- ------- --<br>------- ---------- ------ -- ----- -- ----- to ---- ------<br>--- ----- --- --- ------ -------- ----- --- ------ ----- --<br>----- ----- ---------- --- --- ------ ------ ---- -- ------<br>------- --- ------ ----- --- ---- ------- -- ---- --- --<br>------- ------,125313.5,125312.69999999925,124864.167,124873.19999999925,124880.837,125331.106,,19,to
screen,html.Screen,0_2_1_1_20,2021-12-02T12:41:15.228Z,,,,,,,,,,,,,,,,54,,,,,,,,,,,,,,501.0939999992552,,response,,,100,,,,,,Space,keypress(Space),,,,,-- --- ---- --- ------ ----- ------- ---- -- --- ------- --<br>------- ---------- ------ -- ----- -- ----- -- save ------<br>--- ----- --- --- ------ -------- ----- --- ------ ----- --<br>----- ----- ---------- --- --- ------ ------ ---- -- ------<br>------- --- ------ ----- --- ---- ------- -- ---- --- --<br>------- ------,125833,125832.19999999925,125314.435,125313.69999999925,125331.106,125847.736,,20,save
screen,html.Screen,0_2_1_1_21,2021-12-02T12:41:15.740Z,,,,,,,,,,,,,,,,54,,,,,,,,,,,,,,496.36399999962305,,response,,,100,,,,,,Space,keypress(Space),,,,,"-- --- ---- --- ------ ----- ------- ---- -- --- ------- --<br>------- ---------- ------ -- ----- -- ----- -- ---- money,<br>--- ----- --- --- ------ -------- ----- --- ------ ----- --<br>----- ----- ---------- --- --- ------ ------ ---- -- ------<br>------- --- ------ ----- --- ---- ------- -- ---- --- --<br>------- ------",126345,126344.09999999963,125831.067,125833.19999999925,125847.736,126348.094,,21,"money,"
screen,html.Screen,0_2_1_1_22,2021-12-02T12:41:16.332Z,,,,,,,,,,,,,,,,54,,,,,,,,,,,,,,588.0059999996301,,response,,,100,,,,,,Space,keypress(Space),,,,,-- --- ---- --- ------ ----- ------- ---- -- --- ------- --<br>------- ---------- ------ -- ----- -- ----- -- ---- ------<br>the ----- --- --- ------ -------- ----- --- ------ ----- --<br>----- ----- ---------- --- --- ------ ------ ---- -- ------<br>------- --- ------ ----- --- ---- ------- -- ---- --- --<br>------- ------,126936.90000000037,126936.09999999963,126331.422,126345.19999999925,126348.094,126948.186,,22,the
screen,html.Screen,0_2_1_1_23,2021-12-02T12:41:16.980Z,,,,,,,,,,,,,,,,54,,,,,,,,,,,,,,635.913999999626,,response,,,100,,,,,,Space,keypress(Space),,,,,-- --- ---- --- ------ ----- ------- ---- -- --- ------- --<br>------- ---------- ------ -- ----- -- ----- -- ---- ------<br>--- state --- --- ------ -------- ----- --- ------ ----- --<br>----- ----- ---------- --- --- ------ ------ ---- -- ------<br>------- --- ------ ----- --- ---- ------- -- ---- --- --<br>------- ------,127584.90000000037,127584.09999999963,126931.515,126937.19999999925,126948.186,127598.161,,23,state
screen,html.Screen,0_2_1_1_24,2021-12-02T12:41:17.516Z,,,,,,,,,,,,,,,,54,,,,,,,,,,,,,,521.9389999996347,,response,,,100,,,,,,Space,keypress(Space),,,,,-- --- ---- --- ------ ----- ------- ---- -- --- ------- --<br>------- ---------- ------ -- ----- -- ----- -- ---- ------<br>--- ----- cut --- ------ -------- ----- --- ------ ----- --<br>----- ----- ---------- --- --- ------ ------ ---- -- ------<br>------- --- ------ ----- --- ---- ------- -- ---- --- --<br>------- ------,128120.80000000075,128120.09999999963,127581.492,127585.09999999963,127598.161,128131.895,,24,cut
screen,html.Screen,0_2_1_1_25,2021-12-02T12:41:18.004Z,,,,,,,,,,,,,,,,54,,,,,,,,,,,,,,476.1049999999959,,response,,,100,,,,,,Space,keypress(Space),,,,,-- --- ---- --- ------ ----- ------- ---- -- --- ------- --<br>------- ---------- ------ -- ----- -- ----- -- ---- ------<br>--- ----- --- the ------ -------- ----- --- ------ ----- --<br>----- ----- ---------- --- --- ------ ------ ---- -- ------<br>------- --- ------ ----- --- ---- ------- -- ---- --- --<br>------- ------,128608.69999999925,128608,128115.223,128121.09999999963,128131.895,128615.259,,25,the
screen,html.Screen,0_2_1_1_26,2021-12-02T12:41:18.404Z,,,,,,,,,,,,,,,,54,,,,,,,,,,,,,,392.840999999622,,response,,,100,,,,,,Space,keypress(Space),,,,,-- --- ---- --- ------ ----- ------- ---- -- --- ------- --<br>------- ---------- ------ -- ----- -- ----- -- ---- ------<br>--- ----- --- --- bonds' -------- ----- --- ------ ----- --<br>----- ----- ---------- --- --- ------ ------ ---- -- ------<br>------- --- ------ ----- --- ---- ------- -- ---- --- --<br>------- ------,129008.80000000075,129008.09999999963,128598.589,128608.90000000037,128615.259,129015.357,,26,bonds'
screen,html.Screen,0_2_1_1_27,2021-12-02T12:41:18.964Z,,,,,,,,,,,,,,,,54,,,,,,,,,,,,,,552.6429999999964,,response,,,100,,,,,,Space,keypress(Space),,,,,-- --- ---- --- ------ ----- ------- ---- -- --- ------- --<br>------- ---------- ------ -- ----- -- ----- -- ---- ------<br>--- ----- --- --- ------ interest ----- --- ------ ----- --<br>----- ----- ---------- --- --- ------ ------ ---- -- ------<br>------- --- ------ ----- --- ---- ------- -- ---- --- --<br>------- ------,129569,129568,128998.687,129009,129015.357,129582.173,,27,interest
screen,html.Screen,0_2_1_1_28,2021-12-02T12:41:19.468Z,,,,,,,,,,,,,,,,54,,,,,,,,,,,,,,489.7270000003773,,response,,,100,,,,,,Space,keypress(Space),,,,,-- --- ---- --- ------ ----- ------- ---- -- --- ------- --<br>------- ---------- ------ -- ----- -- ----- -- ---- ------<br>--- ----- --- --- ------ -------- rate. --- ------ ----- --<br>----- ----- ---------- --- --- ------ ------ ---- -- ------<br>------- --- ------ ----- --- ---- ------- -- ---- --- --<br>------- ------,130072.69999999925,130071.90000000037,129565.503,129569.19999999925,129582.173,130082.308,,28,rate.
screen,html.Screen,0_2_1_1_29,2021-12-02T12:41:20.052Z,,,,,,,,,,,,,,,,54,,,,,,,,,,,,,,573.592000000368,,response,,,100,,,,,,Space,keypress(Space),,,,,-- --- ---- --- ------ ----- ------- ---- -- --- ------- --<br>------- ---------- ------ -- ----- -- ----- -- ---- ------<br>--- ----- --- --- ------ -------- ----- The ------ ----- --<br>----- ----- ---------- --- --- ------ ------ ---- -- ------<br>------- --- ------ ----- --- ---- ------- -- ---- --- --<br>------- ------,130656.80000000075,130655.90000000037,130065.638,130073,130082.308,130665.791,,29,The
screen,html.Screen,0_2_1_1_30,2021-12-02T12:41:20.644Z,,,,,,,,,,,,,,,,54,,,,,,,,,,,,,,582.1090000003751,,response,,,100,,,,,,Space,keypress(Space),,,,,-- --- ---- --- ------ ----- ------- ---- -- --- ------- --<br>------- ---------- ------ -- ----- -- ----- -- ---- ------<br>--- ----- --- --- ------ -------- ----- --- market ----- --<br>----- ----- ---------- --- --- ------ ------ ---- -- ------<br>------- --- ------ ----- --- ---- ------- -- ---- --- --<br>------- ------,131248.69999999925,131247.90000000037,130649.121,130657,130665.791,131265.952,,30,market
screen,html.Screen,0_2_1_1_31,2021-12-02T12:41:21.252Z,,,,,,,,,,,,,,,,54,,,,,,,,,,,,,,589.9480000003823,,response,,,100,,,,,,Space,keypress(Space),,,,,-- --- ---- --- ------ ----- ------- ---- -- --- ------- --<br>------- ---------- ------ -- ----- -- ----- -- ---- ------<br>--- ----- --- --- ------ -------- ----- --- ------ value --<br>----- ----- ---------- --- --- ------ ------ ---- -- ------<br>------- --- ------ ----- --- ---- ------- -- ---- --- --<br>------- ------,131856.69999999925,131855.90000000037,131249.282,131248.90000000037,131265.952,131866.113,,31,value
screen,html.Screen,0_2_1_1_32,2021-12-02T12:41:22.116Z,,,,,,,,,,,,,,,,54,,,,,,,,,,,,,,853.687000000733,,response,,,100,,,,,,Space,keypress(Space),,,,,-- --- ---- --- ------ ----- ------- ---- -- --- ------- --<br>------- ---------- ------ -- ----- -- ----- -- ---- ------<br>--- ----- --- --- ------ -------- ----- --- ------ ----- of<br>----- ----- ---------- --- --- ------ ------ ---- -- ------<br>------- --- ------ ----- --- ---- ------- -- ---- --- --<br>------- ------,132720.69999999925,132719.80000000075,131849.443,131856.90000000037,131866.113,132732.99,,32,of
screen,html.Screen,0_2_1_1_33,2021-12-02T12:41:22.628Z,,,,,,,,,,,,,,,,54,,,,,,,,,,,,,,498.91000000038184,,response,,,100,,,,,,Space,keypress(Space),,,,,-- --- ---- --- ------ ----- ------- ---- -- --- ------- --<br>------- ---------- ------ -- ----- -- ----- -- ---- ------<br>--- ----- --- --- ------ -------- ----- --- ------ ----- --<br>these ----- ---------- --- --- ------ ------ ---- -- ------<br>------- --- ------ ----- --- ---- ------- -- ---- --- --<br>------- ------,133232.59999999963,133231.90000000037,132716.32,132721,132732.99,133249.796,,33,these
screen,html.Screen,0_2_1_1_34,2021-12-02T12:41:23.140Z,,,,,,,,,,,,,,,,54,,,,,,,,,,,,,,494.00400000074296,,response,,,100,,,,,,Space,keypress(Space),,,,,-- --- ---- --- ------ ----- ------- ---- -- --- ------- --<br>------- ---------- ------ -- ----- -- ----- -- ---- ------<br>--- ----- --- --- ------ -------- ----- --- ------ ----- --<br>----- bonds ---------- --- --- ------ ------ ---- -- ------<br>------- --- ------ ----- --- ---- ------- -- ---- --- --<br>------- ------,133744.69999999925,133743.80000000075,133233.126,133232.90000000037,133249.796,133749.956,,34,bonds
screen,html.Screen,0_2_1_1_35,2021-12-02T12:41:23.988Z,,,,,,,,,,,,,,,,54,,,,,,,,,,,,,,841.8440000007395,,response,,,100,,,,,,Space,keypress(Space),,,,,"-- --- ---- --- ------ ----- ------- ---- -- --- ------- --<br>------- ---------- ------ -- ----- -- ----- -- ---- ------<br>--- ----- --- --- ------ -------- ----- --- ------ ----- --<br>----- ----- plummeted, --- --- ------ ------ ---- -- ------<br>------- --- ------ ----- --- ---- ------- -- ---- --- --<br>------- ------",134592.69999999925,134591.80000000075,133733.286,133744.90000000037,133749.956,134600.158,,35,"plummeted,"
screen,html.Screen,0_2_1_1_36,2021-12-02T12:41:24.651Z,,,,,,,,,,,,,,,,54,,,,,,,,,,,,,,655.5419999992591,,response,,,100,,,,,,Space,keypress(Space),,,,,-- --- ---- --- ------ ----- ------- ---- -- --- ------- --<br>------- ---------- ------ -- ----- -- ----- -- ---- ------<br>--- ----- --- --- ------ -------- ----- --- ------ ----- --<br>----- ----- ---------- and --- ------ ------ ---- -- ------<br>------- --- ------ ----- --- ---- ------- -- ---- --- --<br>------- ------,135256.5,135255.69999999925,134583.488,134593,134600.158,135266.945,,36,and
screen,html.Screen,0_2_1_1_37,2021-12-02T12:41:25.260Z,,,,,,,,,,,,,,,,54,,,,,,,,,,,,,,597.254999999248,,response,,,100,,,,,,Space,keypress(Space),,,,,-- --- ---- --- ------ ----- ------- ---- -- --- ------- --<br>------- ---------- ------ -- ----- -- ----- -- ---- ------<br>--- ----- --- --- ------ -------- ----- --- ------ ----- --<br>----- ----- ---------- --- the ------ ------ ---- -- ------<br>------- --- ------ ----- --- ---- ------- -- ---- --- --<br>------- ------,135865.09999999963,135864.19999999925,135250.275,135256.69999999925,135266.945,135867.216,,37,the
screen,html.Screen,0_2_1_1_38,2021-12-02T12:41:25.779Z,,,,,,,,,,,,,,,,54,,,,,,,,,,,,,,516.4839999992691,,response,,,100,,,,,,Space,keypress(Space),,,,,-- --- ---- --- ------ ----- ------- ---- -- --- ------- --<br>------- ---------- ------ -- ----- -- ----- -- ---- ------<br>--- ----- --- --- ------ -------- ----- --- ------ ----- --<br>----- ----- ---------- --- --- market ------ ---- -- ------<br>------- --- ------ ----- --- ---- ------- -- ---- --- --<br>------- ------,136384.5,136383.69999999925,135850.545,135865.40000000037,135867.216,136400.7,,38,market
screen,html.Screen,0_2_1_1_39,2021-12-02T12:41:26.275Z,,,,,,,,,,,,,,,,54,,,,,,,,,,,,,,478.9999999992433,,response,,,100,,,,,,Space,keypress(Space),,,,,-- --- ---- --- ------ ----- ------- ---- -- --- ------- --<br>------- ---------- ------ -- ----- -- ----- -- ---- ------<br>--- ----- --- --- ------ -------- ----- --- ------ ----- --<br>----- ----- ---------- --- --- ------ became ---- -- ------<br>------- --- ------ ----- --- ---- ------- -- ---- --- --<br>------- ------,136880.5,136879.69999999925,136384.029,136384.80000000075,136400.7,136884.108,,39,became
screen,html.Screen,0_2_1_1_40,2021-12-02T12:41:26.755Z,,,,,,,,,,,,,,,,54,,,,,,,,,,,,,,475.5919999992475,,response,,,100,,,,,,Space,keypress(Space),,,,,-- --- ---- --- ------ ----- ------- ---- -- --- ------- --<br>------- ---------- ------ -- ----- -- ----- -- ---- ------<br>--- ----- --- --- ------ -------- ----- --- ------ ----- --<br>----- ----- ---------- --- --- ------ ------ wary -- ------<br>------- --- ------ ----- --- ---- ------- -- ---- --- --<br>------- ------,137360.5,137359.69999999925,136867.438,136880.80000000075,136884.108,137367.562,,40,wary
screen,html.Screen,0_2_1_1_41,2021-12-02T12:41:27.371Z,,,,,,,,,,,,,,,,54,,,,,,,,,,,,,,608.1379999992496,,response,,,100,,,,,,Space,keypress(Space),,,,,-- --- ---- --- ------ ----- ------- ---- -- --- ------- --<br>------- ---------- ------ -- ----- -- ----- -- ---- ------<br>--- ----- --- --- ------ -------- ----- --- ------ ----- --<br>----- ----- ---------- --- --- ------ ------ ---- of ------<br>------- --- ------ ----- --- ---- ------- -- ---- --- --<br>------- ------,137976.5,137975.69999999925,137350.892,137360.69999999925,137367.562,137984.395,,41,of
screen,html.Screen,0_2_1_1_42,2021-12-02T12:41:27.915Z,,,,,,,,,,,,,,,,54,,,,,,,,,,,,,,535.204999999638,,response,,,100,,,,,,Space,keypress(Space),,,,,-- --- ---- --- ------ ----- ------- ---- -- --- ------- --<br>------- ---------- ------ -- ----- -- ----- -- ---- ------<br>--- ----- --- --- ------ -------- ----- --- ------ ----- --<br>----- ----- ---------- --- --- ------ ------ ---- -- French<br>------- --- ------ ----- --- ---- ------- -- ---- --- --<br>------- ------,138520.5,138519.59999999963,137967.725,137976.80000000075,137984.395,138534.6,,42,French
screen,html.Screen,0_2_1_1_43,2021-12-02T12:41:28.851Z,,,,,,,,,,,,,,,,54,,,,,,,,,,,,,,920.9999999996217,,response,,,100,,,,,,Space,keypress(Space),,,,,-- --- ---- --- ------ ----- ------- ---- -- --- ------- --<br>------- ---------- ------ -- ----- -- ----- -- ---- ------<br>--- ----- --- --- ------ -------- ----- --- ------ ----- --<br>----- ----- ---------- --- --- ------ ------ ---- -- ------<br>credit. --- ------ ----- --- ---- ------- -- ---- --- --<br>------- ------,139456.30000000075,139455.59999999963,138517.929,138520.69999999925,138534.6,139468.096,,43,credit.
screen,html.Screen,0_2_1_1_44,2021-12-02T12:41:29.339Z,,,,,,,,,,,,,,,,54,,,,,,,,,,,,,,475.503999999637,,response,,,100,,,,,,Space,keypress(Space),,,,,-- --- ---- --- ------ ----- ------- ---- -- --- ------- --<br>------- ---------- ------ -- ----- -- ----- -- ---- ------<br>--- ----- --- --- ------ -------- ----- --- ------ ----- --<br>----- ----- ---------- --- --- ------ ------ ---- -- ------<br>------- The ------ ----- --- ---- ------- -- ---- --- --<br>------- ------,139944.30000000075,139943.59999999963,139451.426,139456.59999999963,139468.096,139951.598,,44,The
screen,html.Screen,0_2_1_1_45,2021-12-02T12:41:29.795Z,,,,,,,,,,,,,,,,54,,,,,,,,,,,,,,447.90200000000186,,response,,,100,,,,,,Space,keypress(Space),,,,,-- --- ---- --- ------ ----- ------- ---- -- --- ------- --<br>------- ---------- ------ -- ----- -- ----- -- ---- ------<br>--- ----- --- --- ------ -------- ----- --- ------ ----- --<br>----- ----- ---------- --- --- ------ ------ ---- -- ------<br>------- --- French ----- --- ---- ------- -- ---- --- --<br>------- ------,140400.40000000037,140399.5,139934.928,139944.59999999963,139951.598,140401.725,,45,French
screen,html.Screen,0_2_1_1_46,2021-12-02T12:41:30.211Z,,,,,,,,,,,,,,,,54,,,,,,,,,,,,,,413.7749999999942,,response,,,100,,,,,,Space,keypress(Space),,,,,-- --- ---- --- ------ ----- ------- ---- -- --- ------- --<br>------- ---------- ------ -- ----- -- ----- -- ---- ------<br>--- ----- --- --- ------ -------- ----- --- ------ ----- --<br>----- ----- ---------- --- --- ------ ------ ---- -- ------<br>------- --- ------ state --- ---- ------- -- ---- --- --<br>------- ------,140816.30000000075,140815.5,140385.055,140400.5,140401.725,140818.494,,46,state
screen,html.Screen,0_2_1_1_47,2021-12-02T12:41:30.723Z,,,,,,,,,,,,,,,,54,,,,,,,,,,,,,,509.00599999999395,,response,,,100,,,,,,Space,keypress(Space),,,,,-- --- ---- --- ------ ----- ------- ---- -- --- ------- --<br>------- ---------- ------ -- ----- -- ----- -- ---- ------<br>--- ----- --- --- ------ -------- ----- --- ------ ----- --<br>----- ----- ---------- --- --- ------ ------ ---- -- ------<br>------- --- ------ ----- was ---- ------- -- ---- --- --<br>------- ------,141328.19999999925,141327.5,140801.824,140816.5,140818.494,141335.303,,47,was
screen,html.Screen,0_2_1_1_48,2021-12-02T12:41:31.243Z,,,,,,,,,,,,,,,,54,,,,,,,,,,,,,,512.1969999999856,,response,,,100,,,,,,Space,keypress(Space),,,,,-- --- ---- --- ------ ----- ------- ---- -- --- ------- --<br>------- ---------- ------ -- ----- -- ----- -- ---- ------<br>--- ----- --- --- ------ -------- ----- --- ------ ----- --<br>----- ----- ---------- --- --- ------ ------ ---- -- ------<br>------- --- ------ ----- --- left ------- -- ---- --- --<br>------- ------,141848.19999999925,141847.5,141318.633,141328.5,141335.303,141852.107,,48,left
screen,html.Screen,0_2_1_1_49,2021-12-02T12:41:31.691Z,,,,,,,,,,,,,,,,54,,,,,,,,,,,,,,443.2930000003835,,response,,,100,,,,,,Space,keypress(Space),,,,,-- --- ---- --- ------ ----- ------- ---- -- --- ------- --<br>------- ---------- ------ -- ----- -- ----- -- ---- ------<br>--- ----- --- --- ------ -------- ----- --- ------ ----- --<br>----- ----- ---------- --- --- ------ ------ ---- -- ------<br>------- --- ------ ----- --- ---- without -- ---- --- --<br>------- ------,142296.19999999925,142295.40000000037,141835.437,141848.5,141852.107,142302.215,,49,without
screen,html.Screen,0_2_1_1_50,2021-12-02T12:41:32.115Z,,,,,,,,,,,,,,,,54,,,,,,,,,,,,,,417.185000000376,,response,,,100,,,,,,Space,keypress(Space),,,,,-- --- ---- --- ------ ----- ------- ---- -- --- ------- --<br>------- ---------- ------ -- ----- -- ----- -- ---- ------<br>--- ----- --- --- ------ -------- ----- --- ------ ----- --<br>----- ----- ---------- --- --- ------ ------ ---- -- ------<br>------- --- ------ ----- --- ---- ------- an ---- --- --<br>------- ------,142720.30000000075,142719.40000000037,142285.545,142296.40000000037,142302.215,142735.585,,50,an
screen,html.Screen,0_2_1_1_51,2021-12-02T12:41:32.523Z,,,,,,,,,,,,,,,,54,,,,,,,,,,,,,,391.8150000003807,,response,,,100,,,,,,Space,keypress(Space),,,,,-- --- ---- --- ------ ----- ------- ---- -- --- ------- --<br>------- ---------- ------ -- ----- -- ----- -- ---- ------<br>--- ----- --- --- ------ -------- ----- --- ------ ----- --<br>----- ----- ---------- --- --- ------ ------ ---- -- ------<br>------- --- ------ ----- --- ---- ------- -- easy --- --<br>------- ------,143128.19999999925,143127.40000000037,142718.916,142720.5,142735.585,143135.855,,51,easy
screen,html.Screen,0_2_1_1_52,2021-12-02T12:41:33.059Z,,,,,,,,,,,,,,,,54,,,,,,,,,,,,,,527.545000000362,,response,,,100,,,,,,Space,keypress(Space),,,,,-- --- ---- --- ------ ----- ------- ---- -- --- ------- --<br>------- ---------- ------ -- ----- -- ----- -- ---- ------<br>--- ----- --- --- ------ -------- ----- --- ------ ----- --<br>----- ----- ---------- --- --- ------ ------ ---- -- ------<br>------- --- ------ ----- --- ---- ------- -- ---- way --<br>------- ------,143664.19999999925,143663.40000000037,143119.183,143128.40000000037,143135.855,143669.292,,52,way
screen,html.Screen,0_2_1_1_53,2021-12-02T12:41:33.547Z,,,,,,,,,,,,,,,,54,,,,,,,,,,,,,,481.9079999992682,,response,,,100,,,,,,Space,keypress(Space),,,,,-- --- ---- --- ------ ----- ------- ---- -- --- ------- --<br>------- ---------- ------ -- ----- -- ----- -- ---- ------<br>--- ----- --- --- ------ -------- ----- --- ------ ----- --<br>----- ----- ---------- --- --- ------ ------ ---- -- ------<br>------- --- ------ ----- --- ---- ------- -- ---- --- of<br>------- ------,144152,144151.19999999925,143652.621,143664.5,143669.292,144169.376,,53,of
screen,html.Screen,0_2_1_1_54,2021-12-02T12:41:34.179Z,,,,,,,,,,,,,,,,54,,,,,,,,,,,,,,614.0240000003832,,response,,,100,,,,,,Space,keypress(Space),,,,,-- --- ---- --- ------ ----- ------- ---- -- --- ------- --<br>------- ---------- ------ -- ----- -- ----- -- ---- ------<br>--- ----- --- --- ------ -------- ----- --- ------ ----- --<br>----- ----- ---------- --- --- ------ ------ ---- -- ------<br>------- --- ------ ----- --- ---- ------- -- ---- --- --<br>raising ------,144784.30000000075,144783.40000000037,144152.706,144152.19999999925,144169.376,144786.204,,54,raising
screen,html.Screen,0_2_1_1_55,2021-12-02T12:41:34.643Z,,,,,,,,,,,,,,,,54,,,,,,,,,,,,,,461.09600000074715,,response,,,100,,,,,,Space,keypress(Space),,,,,-- --- ---- --- ------ ----- ------- ---- -- --- ------- --<br>------- ---------- ------ -- ----- -- ----- -- ---- ------<br>--- ----- --- --- ------ -------- ----- --- ------ ----- --<br>----- ----- ---------- --- --- ------ ------ ---- -- ------<br>------- --- ------ ----- --- ---- ------- -- ---- --- --<br>------- money.,145248.09999999963,145247.30000000075,144769.534,144784.59999999963,144786.204,145253.003,,55,money.
Item 100,flow.Loop,0_2_1_1,2021-12-02T12:41:34.643Z,,,,,,,,,,,,,,,,,,,,,,,,,,,,,,30569.179000000746,,completion,,,,E,,,,,,,,,,silence,,145248.5,145247.30000000075,114661.451,114663.09999999963,114678.121,145253.003,,,
Question 1,html.Screen,0_2_1_2,2021-12-02T12:41:37.595Z,,,,,,,,,,,,,,,,,,,,,,,,,,,true,TRUE,,2945.997000000003,,response,,,100,E,,,,,TRUE,click #choice-1,,,,silence,,148200.09999999963,148199,145236.333,145248.69999999925,145253.003,148203.753,,,
Question 2,html.Screen,0_2_1_3,2021-12-02T12:41:40.491Z,,,,,,,,,,,,,,,,,,,,,,,,,,,true,FALSE,,2891.047000000748,,response,,,100,E,,,,,FALSE,click #choice-2,,,,silence,,151095.90000000037,151094.80000000075,148187.084,148200.30000000075,148203.753,151103.752,,,
Item 100,flow.Sequence,0_2_1,2021-12-02T12:41:40.491Z,,,,,,,,,,,,,,,,,,,,,,,,,,,,,,46419.23800000074,,completion,,,,,,,,,,,,,,,,151096.30000000075,151094.80000000075,104658.892,104675.09999999963,104675.562,151103.752,,,
End of Practice,html.Page,0_2_2,2021-12-02T12:41:44.660Z,,,,,,,,,,,,,,,,,,,,,,,,,,,,,,4160.447999999247,,form submission,,,,,,,,,,,,,,,,155264.80000000075,155264.19999999925,151087.096,151096.5,151103.752,155272.144,,,
Practice,flow.Sequence,0_2,2021-12-02T12:41:44.660Z,,,,,,,,,,,,,,,,,,,,,,,,,,,,,,100968.55299999926,,completion,,,,,,,,,,,,,,,,155265.19999999925,155264.19999999925,54278.971,54293.199999999255,54295.647,155272.144,,,
Trap_instruction,html.Page,0_3_0,2021-12-02T12:41:46.387Z,,,,,,,,,,,,,,,,,,,,,,,,,,,,,,1719.8559999999998,,form submission,,,,,,,,,,,,,,,,156992.5,156992,155255.474,155265.59999999963,155272.144,157005.315,,,
trap_trial,html.Screen,0_3_1,2021-12-02T12:41:51.146Z,,,,,,,,,,,,,,,,,,,,,,,,,,,true,1,,4744.985000000743,,response,,,,,,,,,1,click #choice-1,,,,,,161751.5,161750.30000000075,156988.653,156992.80000000075,157005.315,161756.505,,,
end of trap trial,html.Page,0_3_2,2021-12-02T12:41:53.211Z,,,,,,,,,,,,,,,,,,,,,,,,,,,,,,2059.094999999623,,form submission,,,,,,,,,,,,,,,,163816.09999999963,163815.59999999963,161739.837,161751.80000000075,161756.505,163824.567,,,
Trap 1,flow.Sequence,0_3,2021-12-02T12:41:53.211Z,,,,,,,,,,,,,,,,,,,,,,,,,,,,,,8543.455999999627,,completion,,,,,,,,,,,,,,,,163816.59999999963,163815.59999999963,155255.474,155265.5,155272.144,163824.567,,,
Standby,html.Page,0_4_0,2021-12-02T12:42:01.206Z,,,,,,,,,,,,,,,,,,,,,,,,,,,,,,8002.161999999982,,timeout,,,,,,,,,,,,,,,,171811.09999999963,171810.058,163807.897,163816.90000000037,163824.567,171826.729,,,
Holding screen,html.Screen,0_4_1_0_0,2021-12-02T12:42:08.208Z,,,,,,,,,,,,,,,,,,,,,,,,,,,,,,7001.828000000009,,timeout,,,,,,,,,,,,,,,,178812.80000000075,178811.887,171810.058,171811.40000000037,171826.729,178828.557,,,
screen,html.Screen,0_4_1_0_1_0,2021-12-02T12:42:08.882Z,,,,,,,,,,,,,,,,48,,,,,,,,,,,,,,657.6429999992542,,response,,,10,E,,,,,Space,keypress(Space),,,,lyrical,As -- --- ------ ------- --------- ----------- --------<br>--------- -------- --- ------- -- ------- ---- -- ------<br>-- --- -------- -------- ---------- ---- ---- ---- ------<br>-- --------- -- ---- -- --- -- --- ------- -- - -----<br>---------- -- -- -- ---- ----- -- ------ -- --- ------<br>-------,179487.19999999925,179486.19999999925,178811.887,178813.19999999925,178828.557,179495.254,,0,As
screen,html.Screen,0_4_1_0_1_1,2021-12-02T12:42:09.442Z,,,,,,,,,,,,,,,,48,,,,,,,,,,,,,,550.5460000007588,,response,,,10,E,,,,,Space,keypress(Space),,,,lyrical,-- in --- ------ ------- --------- ----------- --------<br>--------- -------- --- ------- -- ------- ---- -- ------<br>-- --- -------- -------- ---------- ---- ---- ---- ------<br>-- --------- -- ---- -- --- -- --- ------- -- - -----<br>---------- -- -- -- ---- ----- -- ------ -- --- ------<br>-------,180046.5,180045.80000000075,179478.585,179487.59999999963,179495.254,180062.31,,1,in
screen,html.Screen,0_4_1_0_1_2,2021-12-02T12:42:09.969Z,,,,,,,,,,,,,,,,48,,,,,,,,,,,,,,511.2899999996298,,response,,,10,E,,,,,Space,keypress(Space),,,,lyrical,-- -- the ------ ------- --------- ----------- --------<br>--------- -------- --- ------- -- ------- ---- -- ------<br>-- --- -------- -------- ---------- ---- ---- ---- ------<br>-- --------- -- ---- -- --- -- --- ------- -- - -----<br>---------- -- -- -- ---- ----- -- ------ -- --- ------<br>-------,180574.5,180573.59999999963,180045.639,180046.80000000075,180062.31,180579.082,,2,the
screen,html.Screen,0_4_1_0_1_3,2021-12-02T12:42:10.497Z,,,,,,,,,,,,,,,,48,,,,,,,,,,,,,,522.5179999996326,,response,,,10,E,,,,,Space,keypress(Space),,,,lyrical,-- -- --- United ------- --------- ----------- --------<br>--------- -------- --- ------- -- ------- ---- -- ------<br>-- --- -------- -------- ---------- ---- ---- ---- ------<br>-- --------- -- ---- -- --- -- --- ------- -- - -----<br>---------- -- -- -- ---- ----- -- ------ -- --- ------<br>-------,181102.5,181101.59999999963,180562.411,180574.69999999925,180579.082,181112.415,,3,United
screen,html.Screen,0_4_1_0_1_4,2021-12-02T12:42:11.057Z,,,,,,,,,,,,,,,,48,,,,,,,,,,,,,,549.1849999996193,,response,,,10,E,,,,,Space,keypress(Space),,,,lyrical,"-- -- --- ------ States, --------- ----------- --------<br>--------- -------- --- ------- -- ------- ---- -- ------<br>-- --- -------- -------- ---------- ---- ---- ---- ------<br>-- --------- -- ---- -- --- -- --- ------- -- - -----<br>---------- -- -- -- ---- ----- -- ------ -- --- ------<br>-------",181662.40000000037,181661.59999999963,181095.746,181102.69999999925,181112.415,181679.307,,4,"States,"
screen,html.Screen,0_4_1_0_1_5,2021-12-02T12:42:11.809Z,,,,,,,,,,,,,,,,48,,,,,,,,,,,,,,734.0930000003718,,response,,,10,E,,,,,Space,keypress(Space),,,,lyrical,-- -- --- ------ ------- Colombian ----------- --------<br>--------- -------- --- ------- -- ------- ---- -- ------<br>-- --- -------- -------- ---------- ---- ---- ---- ------<br>-- --------- -- ---- -- --- -- --- ------- -- - -----<br>---------- -- -- -- ---- ----- -- ------ -- --- ------<br>-------,182414.19999999925,182413.40000000037,181662.637,181662.69999999925,181679.307,182429.682,,5,Colombian
screen,html.Screen,0_4_1_0_1_6,2021-12-02T12:42:12.473Z,,,,,,,,,,,,,,,,48,,,,,,,,,,,,,,647.9179999996268,,response,,,10,E,,,,,Space,keypress(Space),,,,lyrical,-- -- --- ------ ------- --------- legislation --------<br>--------- -------- --- ------- -- ------- ---- -- ------<br>-- --- -------- -------- ---------- ---- ---- ---- ------<br>-- --------- -- ---- -- --- -- --- ------- -- - -----<br>---------- -- -- -- ---- ----- -- ------ -- --- ------<br>-------,183078.40000000037,183077.59999999963,182413.01,182414.40000000037,182429.682,183079.696,,6,legislation
screen,html.Screen,0_4_1_0_1_7,2021-12-02T12:42:13.713Z,,,,,,,,,,,,,,,,48,,,,,,,,,,,,,,1237.8040000000037,,response,,,10,E,,,,,Space,keypress(Space),,,,lyrical,-- -- --- ------ ------- --------- ----------- requires<br>--------- -------- --- ------- -- ------- ---- -- ------<br>-- --- -------- -------- ---------- ---- ---- ---- ------<br>-- --------- -- ---- -- --- -- --- ------- -- - -----<br>---------- -- -- -- ---- ----- -- ------ -- --- ------<br>-------,184318.30000000075,184317.5,183063.026,183078.59999999963,183079.696,184330.006,,7,requires
screen,html.Screen,0_4_1_0_1_8,2021-12-02T12:42:14.457Z,,,,,,,,,,,,,,,,48,,,,,,,,,,,,,,731.3940000003786,,response,,,10,E,,,,,Space,keypress(Space),,,,lyrical,-- -- --- ------ ------- --------- ----------- --------<br>travelers -------- --- ------- -- ------- ---- -- ------<br>-- --- -------- -------- ---------- ---- ---- ---- ------<br>-- --------- -- ---- -- --- -- --- ------- -- - -----<br>---------- -- -- -- ---- ----- -- ------ -- --- ------<br>-------,185062.19999999925,185061.40000000037,184313.336,184318.5,184330.006,185063.394,,8,travelers
screen,html.Screen,0_4_1_0_1_9,2021-12-02T12:42:15.065Z,,,,,,,,,,,,,,,,48,,,,,,,,,,,,,,605.9060000007448,,response,,,10,E,,,,,Space,keypress(Space),,,,lyrical,-- -- --- ------ ------- --------- ----------- --------<br>--------- entering --- ------- -- ------- ---- -- ------<br>-- --- -------- -------- ---------- ---- ---- ---- ------<br>-- --------- -- ---- -- --- -- --- ------- -- - -----<br>---------- -- -- -- ---- ----- -- ------ -- --- ------<br>-------,185670.19999999925,185669.30000000075,185046.725,185062.5,185063.394,185680.48,,9,entering
screen,html.Screen,0_4_1_0_1_10,2021-12-02T12:42:15.481Z,,,,,,,,,,,,,,,,48,,,,,,,,,,,,,,404.92000000036205,,response,,,10,E,,,,,Space,keypress(Space),,,,lyrical,-- -- --- ------ ------- --------- ----------- --------<br>--------- -------- the ------- -- ------- ---- -- ------<br>-- --- -------- -------- ---------- ---- ---- ---- ------<br>-- --------- -- ---- -- --- -- --- ------- -- - -----<br>---------- -- -- -- ---- ----- -- ------ -- --- ------<br>-------,186086.19999999925,186085.40000000037,185663.809,185670.40000000037,185680.48,186097.142,,10,the
screen,html.Screen,0_4_1_0_1_11,2021-12-02T12:42:15.993Z,,,,,,,,,,,,,,,,48,,,,,,,,,,,,,,500.35800000000745,,response,,,10,E,,,,,Space,keypress(Space),,,,lyrical,-- -- --- ------ ------- --------- ----------- --------<br>--------- -------- --- country -- ------- ---- -- ------<br>-- --- -------- -------- ---------- ---- ---- ---- ------<br>-- --------- -- ---- -- --- -- --- ------- -- - -----<br>---------- -- -- -- ---- ----- -- ------ -- --- ------<br>-------,186598.19999999925,186597.5,186080.472,186086.40000000037,186097.142,186614.053,,11,country
screen,html.Screen,0_4_1_0_1_12,2021-12-02T12:42:16.368Z,,,,,,,,,,,,,,,,48,,,,,,,,,,,,,,359.2470000007306,,response,,,10,E,,,,,Space,keypress(Space),,,,lyrical,-- -- --- ------ ------- --------- ----------- --------<br>--------- -------- --- ------- to ------- ---- -- ------<br>-- --- -------- -------- ---------- ---- ---- ---- ------<br>-- --------- -- ---- -- --- -- --- ------- -- - -----<br>---------- -- -- -- ---- ----- -- ------ -- --- ------<br>-------,186974.09999999963,186973.30000000075,186597.382,186598.5,186614.053,186980.76,,12,to
screen,html.Screen,0_4_1_0_1_13,2021-12-02T12:42:16.985Z,,,,,,,,,,,,,,,,48,,,,,,,,,,,,,,608.5400000007357,,response,,,10,E,,,,,Space,keypress(Space),,,,lyrical,-- -- --- ------ ------- --------- ----------- --------<br>--------- -------- --- ------- -- declare ---- -- ------<br>-- --- -------- -------- ---------- ---- ---- ---- ------<br>-- --------- -- ---- -- --- -- --- ------- -- - -----<br>---------- -- -- -- ---- ----- -- ------ -- --- ------<br>-------,187590.19999999925,187589.30000000075,186964.09,186974.30000000075,186980.76,187597.636,,13,declare
screen,html.Screen,0_4_1_0_1_14,2021-12-02T12:42:17.568Z,,,,,,,,,,,,,,,,48,,,,,,,,,,,,,,575.5639999992563,,response,,,10,E,,,,,Space,keypress(Space),,,,lyrical,-- -- --- ------ ------- --------- ----------- --------<br>--------- -------- --- ------- -- ------- cash -- ------<br>-- --- -------- -------- ---------- ---- ---- ---- ------<br>-- --------- -- ---- -- --- -- --- ------- -- - -----<br>---------- -- -- -- ---- ----- -- ------ -- --- ------<br>-------,188174,188173.19999999925,187580.965,187590.5,187597.636,188181.067,,14,cash
screen,html.Screen,0_4_1_0_1_15,2021-12-02T12:42:18.113Z,,,,,,,,,,,,,,,,48,,,,,,,,,,,,,,536.233000000735,,response,,,10,E,,,,,Space,keypress(Space),,,,lyrical,-- -- --- ------ ------- --------- ----------- --------<br>--------- -------- --- ------- -- ------- ---- in ------<br>-- --- -------- -------- ---------- ---- ---- ---- ------<br>-- --------- -- ---- -- --- -- --- ------- -- - -----<br>---------- -- -- -- ---- ----- -- ------ -- --- ------<br>-------,188718.09999999963,188717.30000000075,188164.397,188174.19999999925,188181.067,188731.19,,15,in
screen,html.Screen,0_4_1_0_1_16,2021-12-02T12:42:19.065Z,,,,,,,,,,,,,,,,48,,,,,,,,,,,,,,938.4099999996251,,response,,,10,E,,,,,Space,keypress(Space),,,,lyrical,-- -- --- ------ ------- --------- ----------- --------<br>--------- -------- --- ------- -- ------- ---- -- excess<br>-- --- -------- -------- ---------- ---- ---- ---- ------<br>-- --------- -- ---- -- --- -- --- ------- -- - -----<br>---------- -- -- -- ---- ----- -- ------ -- --- ------<br>-------,189670.59999999963,189669.59999999963,188714.52,188718.40000000037,188731.19,189681.532,,16,excess
screen,html.Screen,0_4_1_0_1_17,2021-12-02T12:42:19.856Z,,,,,,,,,,,,,,,,48,,,,,,,,,,,,,,779.6679999992484,,response,,,10,E,,,,,Space,keypress(Space),,,,lyrical,-- -- --- ------ ------- --------- ----------- --------<br>--------- -------- --- ------- -- ------- ---- -- ------<br>of --- -------- -------- ---------- ---- ---- ---- ------<br>-- --------- -- ---- -- --- -- --- ------- -- - -----<br>---------- -- -- -- ---- ----- -- ------ -- --- ------<br>-------,190462,190461.19999999925,189664.861,189670.90000000037,189681.532,190464.985,,17,of
screen,html.Screen,0_4_1_0_1_18,2021-12-02T12:42:20.480Z,,,,,,,,,,,,,,,,48,,,,,,,,,,,,,,620.2149999992689,,response,,,10,E,,,,,Space,keypress(Space),,,,lyrical,-- -- --- ------ ------- --------- ----------- --------<br>--------- -------- --- ------- -- ------- ---- -- ------<br>-- ten -------- -------- ---------- ---- ---- ---- ------<br>-- --------- -- ---- -- --- -- --- ------- -- - -----<br>---------- -- -- -- ---- ----- -- ------ -- --- ------<br>-------,191085.90000000037,191085.19999999925,190448.315,190462.30000000075,190464.985,191098.512,,18,ten
screen,html.Screen,0_4_1_0_1_19,2021-12-02T12:42:20.976Z,,,,,,,,,,,,,,,,48,,,,,,,,,,,,,,482.68799999926705,,response,,,10,E,,,,,Space,keypress(Space),,,,lyrical,-- -- --- ------ ------- --------- ----------- --------<br>--------- -------- --- ------- -- ------- ---- -- ------<br>-- --- thousand -------- ---------- ---- ---- ---- ------<br>-- --------- -- ---- -- --- -- --- ------- -- - -----<br>---------- -- -- -- ---- ----- -- ------ -- --- ------<br>-------,191582,191581.19999999925,191081.842,191086.19999999925,191098.512,191598.708,,19,thousand
screen,html.Screen,0_4_1_0_1_20,2021-12-02T12:42:21.424Z,,,,,,,,,,,,,,,,48,,,,,,,,,,,,,,430.3919999996142,,response,,,10,E,,,,,Space,keypress(Space),,,,lyrical,-- -- --- ------ ------- --------- ----------- --------<br>--------- -------- --- ------- -- ------- ---- -- ------<br>-- --- -------- dollars. ---------- ---- ---- ---- ------<br>-- --------- -- ---- -- --- -- --- ------- -- - -----<br>---------- -- -- -- ---- ----- -- ------ -- --- ------<br>-------,192029.90000000037,192029.09999999963,191582.037,191582.30000000075,191598.708,192032.106,,20,dollars.
screen,html.Screen,0_4_1_0_1_21,2021-12-02T12:42:22.224Z,,,,,,,,,,,,,,,,48,,,,,,,,,,,,,,796.9939999996277,,response,,,10,E,,,,,Space,keypress(Space),,,,lyrical,-- -- --- ------ ------- --------- ----------- --------<br>--------- -------- --- ------- -- ------- ---- -- ------<br>-- --- -------- -------- Concealing ---- ---- ---- ------<br>-- --------- -- ---- -- --- -- --- ------- -- - -----<br>---------- -- -- -- ---- ----- -- ------ -- --- ------<br>-------,192829.80000000075,192829.09999999963,192015.436,192030.09999999963,192032.106,192832.368,,21,Concealing
screen,html.Screen,0_4_1_0_1_22,2021-12-02T12:42:22.752Z,,,,,,,,,,,,,,,,48,,,,,,,,,,,,,,524.7319999996398,,response,,,10,E,,,,,Space,keypress(Space),,,,lyrical,-- -- --- ------ ------- --------- ----------- --------<br>--------- -------- --- ------- -- ------- ---- -- ------<br>-- --- -------- -------- ---------- more ---- ---- ------<br>-- --------- -- ---- -- --- -- --- ------- -- - -----<br>---------- -- -- -- ---- ----- -- ------ -- --- ------<br>-------,193357.80000000075,193357.09999999963,192815.697,192830.09999999963,192832.368,193365.781,,22,more
screen,html.Screen,0_4_1_0_1_23,2021-12-02T12:42:23.184Z,,,,,,,,,,,,,,,,48,,,,,,,,,,,,,,423.2190000000119,,response,,,10,E,,,,,Space,keypress(Space),,,,lyrical,-- -- --- ------ ------- --------- ----------- --------<br>--------- -------- --- ------- -- ------- ---- -- ------<br>-- --- -------- -------- ---------- ---- than ---- ------<br>-- --------- -- ---- -- --- -- --- ------- -- - -----<br>---------- -- -- -- ---- ----- -- ------ -- --- ------<br>-------,193789.69999999925,193789,193349.111,193358.09999999963,193365.781,193799.234,,23,than
screen,html.Screen,0_4_1_0_1_24,2021-12-02T12:42:23.576Z,,,,,,,,,,,,,,,,48,,,,,,,,,,,,,,381.86599999963073,,response,,,10,E,,,,,Space,keypress(Space),,,,lyrical,-- -- --- ------ ------- --------- ----------- --------<br>--------- -------- --- ------- -- ------- ---- -- ------<br>-- --- -------- -------- ---------- ---- ---- that ------<br>-- --------- -- ---- -- --- -- --- ------- -- - -----<br>---------- -- -- -- ---- ----- -- ------ -- --- ------<br>-------,194181.80000000075,194181.09999999963,193782.564,193789.90000000037,193799.234,194182.72,,24,that
screen,html.Screen,0_4_1_0_1_25,2021-12-02T12:42:24.056Z,,,,,,,,,,,,,,,,48,,,,,,,,,,,,,,478.27999999999884,,response,,,10,E,,,,,Space,keypress(Space),,,,lyrical,-- -- --- ------ ------- --------- ----------- --------<br>--------- -------- --- ------- -- ------- ---- -- ------<br>-- --- -------- -------- ---------- ---- ---- ---- amount<br>-- --------- -- ---- -- --- -- --- ------- -- - -----<br>---------- -- -- -- ---- ----- -- ------ -- --- ------<br>-------,194661.80000000075,194661,194166.049,194182.09999999963,194182.72,194666.144,,25,amount
screen,html.Screen,0_4_1_0_1_26,2021-12-02T12:42:24.480Z,,,,,,,,,,,,,,,,48,,,,,,,,,,,,,,418.85599999999977,,response,,,10,E,,,,,Space,keypress(Space),,,,lyrical,-- -- --- ------ ------- --------- ----------- --------<br>--------- -------- --- ------- -- ------- ---- -- ------<br>-- --- -------- -------- ---------- ---- ---- ---- ------<br>to --------- -- ---- -- --- -- --- ------- -- - -----<br>---------- -- -- -- ---- ----- -- ------ -- --- ------<br>-------,195085.69999999925,195085,194649.474,194662,194666.144,195099.633,,26,to
screen,html.Screen,0_4_1_0_1_27,2021-12-02T12:42:25.064Z,,,,,,,,,,,,,,,,48,,,,,,,,,,,,,,569.3669999999984,,response,,,10,E,,,,,Space,keypress(Space),,,,lyrical,-- -- --- ------ ------- --------- ----------- --------<br>--------- -------- --- ------- -- ------- ---- -- ------<br>-- --- -------- -------- ---------- ---- ---- ---- ------<br>-- transport -- ---- -- --- -- --- ------- -- - -----<br>---------- -- -- -- ---- ----- -- ------ -- --- ------<br>-------,195669.80000000075,195669,195082.962,195086,195099.633,195683.037,,27,transport
screen,html.Screen,0_4_1_0_1_28,2021-12-02T12:42:25.776Z,,,,,,,,,,,,,,,,48,,,,,,,,,,,,,,697.8630000003614,,response,,,10,E,,,,,Space,keypress(Space),,,,lyrical,-- -- --- ------ ------- --------- ----------- --------<br>--------- -------- --- ------- -- ------- ---- -- ------<br>-- --- -------- -------- ---------- ---- ---- ---- ------<br>-- --------- it ---- -- --- -- --- ------- -- - -----<br>---------- -- -- -- ---- ----- -- ------ -- --- ------<br>-------,196381.69999999925,196380.90000000037,195666.367,195670,195683.037,196383.369,,28,it
screen,html.Screen,0_4_1_0_1_29,2021-12-02T12:42:26.432Z,,,,,,,,,,,,,,,,48,,,,,,,,,,,,,,653.5310000003665,,response,,,10,E,,,,,Space,keypress(Space),,,,lyrical,-- -- --- ------ ------- --------- ----------- --------<br>--------- -------- --- ------- -- ------- ---- -- ------<br>-- --- -------- -------- ---------- ---- ---- ---- ------<br>-- --------- -- into -- --- -- --- ------- -- - -----<br>---------- -- -- -- ---- ----- -- ------ -- --- ------<br>-------,197037.69999999925,197036.90000000037,196366.697,196382,196383.369,197050.071,,29,into
screen,html.Screen,0_4_1_0_1_30,2021-12-02T12:42:27.160Z,,,,,,,,,,,,,,,,48,,,,,,,,,,,,,,714.8290000003763,,response,,,10,E,,,,,Space,keypress(Space),,,,lyrical,-- -- --- ------ ------- --------- ----------- --------<br>--------- -------- --- ------- -- ------- ---- -- ------<br>-- --- -------- -------- ---------- ---- ---- ---- ------<br>-- --------- -- ---- or --- -- --- ------- -- - -----<br>---------- -- -- -- ---- ----- -- ------ -- --- ------<br>-------,197765.59999999963,197764.90000000037,197033.401,197037.90000000037,197050.071,197766.949,,30,or
screen,html.Screen,0_4_1_0_1_31,2021-12-02T12:42:27.600Z,,,,,,,,,,,,,,,,48,,,,,,,,,,,,,,437.9510000003793,,response,,,10,E,,,,,Space,keypress(Space),,,,lyrical,-- -- --- ------ ------- --------- ----------- --------<br>--------- -------- --- ------- -- ------- ---- -- ------<br>-- --- -------- -------- ---------- ---- ---- ---- ------<br>-- --------- -- ---- -- out -- --- ------- -- - -----<br>---------- -- -- -- ---- ----- -- ------ -- --- ------<br>-------,198205.59999999963,198204.90000000037,197750.279,197765.90000000037,197766.949,198217.071,,31,out
screen,html.Screen,0_4_1_0_1_32,2021-12-02T12:42:28.192Z,,,,,,,,,,,,,,,,48,,,,,,,,,,,,,,579.7290000007488,,response,,,10,E,,,,,Space,keypress(Space),,,,lyrical,-- -- --- ------ ------- --------- ----------- --------<br>--------- -------- --- ------- -- ------- ---- -- ------<br>-- --- -------- -------- ---------- ---- ---- ---- ------<br>-- --------- -- ---- -- --- of --- ------- -- - -----<br>---------- -- -- -- ---- ----- -- ------ -- --- ------<br>-------,198797.59999999963,198796.80000000075,198200.401,198205.80000000075,198217.071,198800.503,,32,of
screen,html.Screen,0_4_1_0_1_33,2021-12-02T12:42:28.640Z,,,,,,,,,,,,,,,,48,,,,,,,,,,,,,,444.2970000007481,,response,,,10,E,,,,,Space,keypress(Space),,,,lyrical,-- -- --- ------ ------- --------- ----------- --------<br>--------- -------- --- ------- -- ------- ---- -- ------<br>-- --- -------- -------- ---------- ---- ---- ---- ------<br>-- --------- -- ---- -- --- -- the ------- -- - -----<br>---------- -- -- -- ---- ----- -- ------ -- --- ------<br>-------,199245.5,199244.80000000075,198783.833,198797.90000000037,198800.503,199250.789,,33,the
screen,html.Screen,0_4_1_0_1_34,2021-12-02T12:42:29.136Z,,,,,,,,,,,,,,,,48,,,,,,,,,,,,,,490.4109999992652,,response,,,10,E,,,,,Space,keypress(Space),,,,lyrical,-- -- --- ------ ------- --------- ----------- --------<br>--------- -------- --- ------- -- ------- ---- -- ------<br>-- --- -------- -------- ---------- ---- ---- ---- ------<br>-- --------- -- ---- -- --- -- --- country -- - -----<br>---------- -- -- -- ---- ----- -- ------ -- --- ------<br>-------,199742,199741.19999999925,199234.117,199245.80000000075,199250.789,199750.816,,34,country
screen,html.Screen,0_4_1_0_1_35,2021-12-02T12:42:29.648Z,,,,,,,,,,,,,,,,48,,,,,,,,,,,,,,501.8839999992633,,response,,,10,E,,,,,Space,keypress(Space),,,,lyrical,-- -- --- ------ ------- --------- ----------- --------<br>--------- -------- --- ------- -- ------- ---- -- ------<br>-- --- -------- -------- ---------- ---- ---- ---- ------<br>-- --------- -- ---- -- --- -- --- ------- is - -----<br>---------- -- -- -- ---- ----- -- ------ -- --- ------<br>-------,200253.5,200252.69999999925,199734.146,199742.30000000075,199750.816,200267.671,,35,is
screen,html.Screen,0_4_1_0_1_36,2021-12-02T12:42:30.072Z,,,,,,,,,,,,,,,,48,,,,,,,,,,,,,,409.02899999925285,,response,,,10,E,,,,,Space,keypress(Space),,,,lyrical,-- -- --- ------ ------- --------- ----------- --------<br>--------- -------- --- ------- -- ------- ---- -- ------<br>-- --- -------- -------- ---------- ---- ---- ---- ------<br>-- --------- -- ---- -- --- -- --- ------- -- a -----<br>---------- -- -- -- ---- ----- -- ------ -- --- ------<br>-------,200677.5,200676.69999999925,200251,200253.69999999925,200267.671,200684.403,,36,a
screen,html.Screen,0_4_1_0_1_37,2021-12-02T12:42:30.704Z,,,,,,,,,,,,,,,,48,,,,,,,,,,,,,,624.1969999996363,,response,,,10,E,,,,,Space,keypress(Space),,,,lyrical,-- -- --- ------ ------- --------- ----------- --------<br>--------- -------- --- ------- -- ------- ---- -- ------<br>-- --- -------- -------- ---------- ---- ---- ---- ------<br>-- --------- -- ---- -- --- -- --- ------- -- - crime<br>---------- -- -- -- ---- ----- -- ------ -- --- ------<br>-------,201309.40000000037,201308.59999999963,200667.733,200677.69999999925,200684.403,201317.783,,37,crime
screen,html.Screen,0_4_1_0_1_38,2021-12-02T12:42:31.296Z,,,,,,,,,,,,,,,,48,,,,,,,,,,,,,,582.8169999996317,,response,,,10,E,,,,,Space,keypress(Space),,,,lyrical,-- -- --- ------ ------- --------- ----------- --------<br>--------- -------- --- ------- -- ------- ---- -- ------<br>-- --- -------- -------- ---------- ---- ---- ---- ------<br>-- --------- -- ---- -- --- -- --- ------- -- - -----<br>punishable -- -- -- ---- ----- -- ------ -- --- ------<br>-------,201901.40000000037,201900.59999999963,201301.114,201309.59999999963,201317.783,201918.176,,38,punishable
screen,html.Screen,0_4_1_0_1_39,2021-12-02T12:42:31.744Z,,,,,,,,,,,,,,,,48,,,,,,,,,,,,,,430.4239999996207,,response,,,10,E,,,,,Space,keypress(Space),,,,lyrical,-- -- --- ------ ------- --------- ----------- --------<br>--------- -------- --- ------- -- ------- ---- -- ------<br>-- --- -------- -------- ---------- ---- ---- ---- ------<br>-- --------- -- ---- -- --- -- --- ------- -- - -----<br>---------- by -- -- ---- ----- -- ------ -- --- ------<br>-------,202349.40000000037,202348.59999999963,201901.504,201901.69999999925,201918.176,202351.411,,39,by
screen,html.Screen,0_4_1_0_1_40,2021-12-02T12:42:32.329Z,,,,,,,,,,,,,,,,48,,,,,,,,,,,,,,581.0890000000072,,response,,,10,E,,,,,Space,keypress(Space),,,,lyrical,-- -- --- ------ ------- --------- ----------- --------<br>--------- -------- --- ------- -- ------- ---- -- ------<br>-- --- -------- -------- ---------- ---- ---- ---- ------<br>-- --------- -- ---- -- --- -- --- ------- -- - -----<br>---------- -- up -- ---- ----- -- ------ -- --- ------<br>-------,202934.30000000075,202932.5,202334.742,202349.59999999963,202351.411,202951.785,,40,up
screen,html.Screen,0_4_1_0_1_41,2021-12-02T12:42:32.952Z,,,,,,,,,,,,,,,,48,,,,,,,,,,,,,,604.814999999624,,response,,,10,E,,,,,Space,keypress(Space),,,,lyrical,-- -- --- ------ ------- --------- ----------- --------<br>--------- -------- --- ------- -- ------- ---- -- ------<br>-- --- -------- -------- ---------- ---- ---- ---- ------<br>-- --------- -- ---- -- --- -- --- ------- -- - -----<br>---------- -- -- to ---- ----- -- ------ -- --- ------<br>-------,203557.30000000075,203556.59999999963,202935.113,202934.5,202951.785,203568.487,,41,to
screen,html.Screen,0_4_1_0_1_42,2021-12-02T12:42:33.520Z,,,,,,,,,,,,,,,,48,,,,,,,,,,,,,,556.1129999996338,,response,,,10,E,,,,,Space,keypress(Space),,,,lyrical,-- -- --- ------ ------- --------- ----------- --------<br>--------- -------- --- ------- -- ------- ---- -- ------<br>-- --- -------- -------- ---------- ---- ---- ---- ------<br>-- --------- -- ---- -- --- -- --- ------- -- - -----<br>---------- -- -- -- five ----- -- ------ -- --- ------<br>-------,204125.30000000075,204124.59999999963,203551.817,203557.59999999963,203568.487,204135.315,,42,five
screen,html.Screen,0_4_1_0_1_43,2021-12-02T12:42:34.080Z,,,,,,,,,,,,,,,,48,,,,,,,,,,,,,,549.1849999999977,,response,,,10,E,,,,,Space,keypress(Space),,,,lyrical,-- -- --- ------ ------- --------- ----------- --------<br>--------- -------- --- ------- -- ------- ---- -- ------<br>-- --- -------- -------- ---------- ---- ---- ---- ------<br>-- --------- -- ---- -- --- -- --- ------- -- - -----<br>---------- -- -- -- ---- years -- ------ -- --- ------<br>-------,204685.5,204684.5,204118.645,204125.5,204135.315,204702.186,,43,years
screen,html.Screen,0_4_1_0_1_44,2021-12-02T12:42:34.776Z,,,,,,,,,,,,,,,,48,,,,,,,,,,,,,,678.4139999996405,,response,,,10,E,,,,,Space,keypress(Space),,,,lyrical,-- -- --- ------ ------- --------- ----------- --------<br>--------- -------- --- ------- -- ------- ---- -- ------<br>-- --- -------- -------- ---------- ---- ---- ---- ------<br>-- --------- -- ---- -- --- -- --- ------- -- - -----<br>---------- -- -- -- ---- ----- in ------ -- --- ------<br>-------,205381.30000000075,205380.59999999963,204685.515,204685.80000000075,204702.186,205385.591,,44,in
screen,html.Screen,0_4_1_0_1_45,2021-12-02T12:42:35.664Z,,,,,,,,,,,,,,,,48,,,,,,,,,,,,,,882.8090000003867,,response,,,10,E,,,,,Space,keypress(Space),,,,lyrical,-- -- --- ------ ------- --------- ----------- --------<br>--------- -------- --- ------- -- ------- ---- -- ------<br>-- --- -------- -------- ---------- ---- ---- ---- ------<br>-- --------- -- ---- -- --- -- --- ------- -- - -----<br>---------- -- -- -- ---- ----- -- prison -- --- ------<br>-------,206269.30000000075,206268.40000000037,205368.921,205381.5,205385.591,206285.964,,45,prison
screen,html.Screen,0_4_1_0_1_46,2021-12-02T12:42:36.592Z,,,,,,,,,,,,,,,,48,,,,,,,,,,,,,,910.4360000003653,,response,,,10,E,,,,,Space,keypress(Space),,,,lyrical,-- -- --- ------ ------- --------- ----------- --------<br>--------- -------- --- ------- -- ------- ---- -- ------<br>-- --- -------- -------- ---------- ---- ---- ---- ------<br>-- --------- -- ---- -- --- -- --- ------- -- - -----<br>---------- -- -- -- ---- ----- -- ------ in --- ------<br>-------,207197.19999999925,207196.40000000037,206269.293,206269.5,206285.964,207202.617,,46,in
screen,html.Screen,0_4_1_0_1_47,2021-12-02T12:42:37.551Z,,,,,,,,,,,,,,,,48,,,,,,,,,,,,,,953.6830000007467,,response,,,10,E,,,,,Space,keypress(Space),,,,lyrical,-- -- --- ------ ------- --------- ----------- --------<br>--------- -------- --- ------- -- ------- ---- -- ------<br>-- --- -------- -------- ---------- ---- ---- ---- ------<br>-- --------- -- ---- -- --- -- --- ------- -- - -----<br>---------- -- -- -- ---- ----- -- ------ -- the ------<br>-------,208157.09999999963,208156.30000000075,207185.948,207197.40000000037,207202.617,208169.782,,47,the
screen,html.Screen,0_4_1_0_1_48,2021-12-02T12:42:38.304Z,,,,,,,,,,,,,,,,48,,,,,,,,,,,,,,738.618000000366,,response,,,10,E,,,,,Space,keypress(Space),,,,lyrical,-- -- --- ------ ------- --------- ----------- --------<br>--------- -------- --- ------- -- ------- ---- -- ------<br>-- --- -------- -------- ---------- ---- ---- ---- ------<br>-- --------- -- ---- -- --- -- --- ------- -- - -----<br>---------- -- -- -- ---- ----- -- ------ -- --- United<br>-------,208909.09999999963,208908.40000000037,208153.111,208157.30000000075,208169.782,208919.914,,48,United
screen,html.Screen,0_4_1_0_1_49,2021-12-02T12:42:38.880Z,,,,,,,,,,,,,,,,48,,,,,,,,,,,,,,564.3860000007553,,response,,,10,E,,,,,Space,keypress(Space),,,,lyrical,-- -- --- ------ ------- --------- ----------- --------<br>--------- -------- --- ------- -- ------- ---- -- ------<br>-- --- -------- -------- ---------- ---- ---- ---- ------<br>-- --------- -- ---- -- --- -- --- ------- -- - -----<br>---------- -- -- -- ---- ----- -- ------ -- --- ------<br>States.,209485.09999999963,209484.30000000075,208903.244,208909.40000000037,208919.914,209486.744,,49,States.
Item 10,flow.Loop,0_4_1_0_1,2021-12-02T12:42:38.880Z,,,,,,,,,,,,,,,,,,,,,,,,,,,,,,30655.743000000744,,completion,,,,,,,,,,,,,,,,209485.5,209484.30000000075,178811.887,178813.09999999963,178828.557,209486.744,,,
Question 1,html.Screen,0_4_1_0_2,2021-12-02T12:42:42.943Z,,,,,,,,,,,,,,,,,,,,,,,,,,,true,TRUE,,4061.255999999994,,response,,,10,E,,,,,TRUE,click #choice-1,,,,lyrical,,213549,213548,209470.074,209485.69999999925,209486.744,213554.316,,,
Question 2,html.Screen,0_4_1_0_3,2021-12-02T12:42:47.391Z,,,,,,,,,,,,,,,,,,,,,,,,,,,true,TRUE,,4441.383999999263,,response,,,10,E,,,,,TRUE,click #choice-1,,,,lyrical,,217996.80000000075,217995.69999999925,213537.648,213549.30000000075,213554.316,218005.616,,,
Item 10,flow.Sequence,0_4_1_0,2021-12-02T12:42:47.392Z,,,,,,,,,,,,,,,,,,,,,,,,,,,,,,46168.97099999926,,completion,,,,,,,,,,,,,,,,217997.09999999963,217995.69999999925,171810.058,171811.30000000075,171826.729,218005.616,,,
Holding screen,html.Screen,0_4_1_1_0,2021-12-02T12:42:54.386Z,,,,,,,,,,,,,,,,,,,,,,,,,,,,,,7001.843999999983,,timeout,,,,,,,,,,,,,,,,224992.09999999963,224990.79,217988.946,217997.40000000037,218005.616,225007.46,,,
screen,html.Screen,0_4_1_1_1_0,2021-12-02T12:42:55.335Z,,,,,,,,,,,,,,,,51,,,,,,,,,,,,,,932.5400000000081,,response,,,13,E,,,,,Space,keypress(Space),,,,lyrical,American -------- --- --- ---- --- --- ------ -- --------<br>---- --------- --- ------- ------------ ---------- ---------<br>--- ---------- ------- ---------- ------- -- -------- ----<br>---- --- ------ ----- ------ -- ---- --- ----- -- - -------<br>-------- -- --- --- -- ----- ----------- ----- -----------<br>---- --- ---------- --- ---- --- -- ----------,225941,225940,224990.79,224992.59999999963,225007.46,225941.016,,0,American
screen,html.Screen,0_4_1_1_1_1,2021-12-02T12:42:55.887Z,,,,,,,,,,,,,,,,51,,,,,,,,,,,,,,550.3840000003693,,response,,,13,E,,,,,Space,keypress(Space),,,,lyrical,-------- industry --- --- ---- --- --- ------ -- --------<br>---- --------- --- ------- ------------ ---------- ---------<br>--- ---------- ------- ---------- ------- -- -------- ----<br>---- --- ------ ----- ------ -- ---- --- ----- -- - -------<br>-------- -- --- --- -- ----- ----------- ----- -----------<br>---- --- ---------- --- ---- --- -- ----------,226492.30000000075,226491.40000000037,225924.346,225941.40000000037,225941.016,226507.852,,1,industry
screen,html.Screen,0_4_1_1_1_2,2021-12-02T12:42:56.407Z,,,,,,,,,,,,,,,,51,,,,,,,,,,,,,,503.44800000073155,,response,,,13,E,,,,,Space,keypress(Space),,,,lyrical,-------- -------- may --- ---- --- --- ------ -- --------<br>---- --------- --- ------- ------------ ---------- ---------<br>--- ---------- ------- ---------- ------- -- -------- ----<br>---- --- ------ ----- ------ -- ---- --- ----- -- - -------<br>-------- -- --- --- -- ----- ----------- ----- -----------<br>---- --- ---------- --- ---- --- -- ----------,227012.09999999963,227011.30000000075,226491.182,226492.5,226507.852,227024.84,,2,may
screen,html.Screen,0_4_1_1_1_3,2021-12-02T12:42:57.207Z,,,,,,,,,,,,,,,,51,,,,,,,,,,,,,,786.560000000376,,response,,,13,E,,,,,Space,keypress(Space),,,,lyrical,-------- -------- --- not ---- --- --- ------ -- --------<br>---- --------- --- ------- ------------ ---------- ---------<br>--- ---------- ------- ---------- ------- -- -------- ----<br>---- --- ------ ----- ------ -- ---- --- ----- -- - -------<br>-------- -- --- --- -- ----- ----------- ----- -----------<br>---- --- ---------- --- ---- --- -- ----------,227812.09999999963,227811.40000000037,227008.168,227012.40000000037,227024.84,227824.921,,3,not
