sender,sender_type,sender_id,timestamp,meta,,Blues,Classical,Country,Dance,Electronic,Folk,Gospel,Hip-Hop,Jazz,Latin,Musical/Film,New-age,Pop,Provo_ID,R&B,Rap,Reggae,Religious,Rock,Soul,Swing,Traditional,age,artist_name,correct,correctResponse,distraction,duration,education,ended_on,familiarity,gender,item,list,music_frequency,offensiveness,pleasantness,preference,response,response_action,snippet_file,song_name,song_rating,sound,text,time_commit,time_end,time_render,time_run,time_show,time_switch,url,word,word_ID
Instructions,html.Page,0_0,2021-10-22T11:43:04.409Z,"{""labjs_version"":""20.2.3"",""labjs_build"":{""flavor"":""production"",""commit"":""7ea907d66ca8aeef8054924ca5d82ffbe11e34e5""},""location"":""https://run.pavlovia.org/mvasilev/lab_music_f/"",""userAgent"":""Mozilla/5.0 (Windows NT 6.1; Win64; x64) AppleWebKit/537.36 (KHTML, like Gecko) Chrome/80.0.3987.122 Safari/537.36"",""platform"":""Win32"",""language"":""en-US"",""locale"":""en-US"",""timeZone"":""Europe/London"",""timezoneOffset"":-60,""screen_width"":1920,""screen_height"":1080,""scroll_width"":1920,""scroll_height"":983,""window_innerWidth"":1920,""window_innerHeight"":1007,""devicePixelRatio"":1}",,,,,,,,,,,,,,,,,,,,,,,,,,,,,34088.293000045895,,form submission,,,,,,,,,,,,,,,,47510.704999789596,47510.280000045896,13388.715,13416.579999029636,13421.987,47515.456,{},,
Headphones,html.Page,0_1,2021-10-22T11:43:08.030Z,,,,,,,,,,,,,,,,,,,,,,,,,,,,,,3616.373999387266,,form submission,,,,,,,,,,,,,,,,51132.47499987483,51131.829999387264,47432.361,47510.964998975396,47515.456,51161.959,,,
Holding screen,html.Screen,0_2_0_0,2021-10-22T11:43:18.061Z,,,,,,,,,,,,,,,,,,,,,,,,,,,,,,10035.761999999995,,timeout,,,,,,,,,,,,,,,,61158.52999873459,61147.711,51128.619,51133.274998515844,51161.959,61197.721,,,
screen,html.Screen,0_2_0_1_0,2021-10-22T11:43:19.804Z,,,,,,,,,,,,,,,,53,,,,,,,,,,,,,,1701.9239988335394,,response,,,99,,,,,,Space,keypress(Space),,,,,When -- ----- -- ------ - ------- --- ----------<br>------------- ------ ------ ---- ---- ------- ----- -- ----<br>-------- ------- -- ---------- --- - --- ----- ----- ----<br>---- --- --- ----- --- ---- ---- ------- ----- ---- -------<br>--- --- -- ----- -- --- ---- -- --- ---- -- ------ ------<br>--- ----- -- ----,62901.95999853313,62899.64499883354,61147.711,61159.21499952674,61197.721,62931.678,,0,When
screen,html.Screen,0_2_0_1_1,2021-10-22T11:43:21.211Z,,,,,,,,,,,,,,,,53,,,,,,,,,,,,,,1375.8819987059833,,response,,,99,,,,,,Space,keypress(Space),,,,,---- it ----- -- ------ - ------- --- ----------<br>------------- ------ ------ ---- ---- ------- ----- -- ----<br>-------- ------- -- ---------- --- - --- ----- ----- ----<br>---- --- --- ----- --- ---- ---- ------- ----- ---- -------<br>--- --- -- ----- -- --- ---- -- --- ---- -- ------ ------<br>--- ----- -- ----,64308.81999991834,64307.55999870598,62915.007,62902.48999930918,62931.678,64331.81,,1,it
screen,html.Screen,0_2_0_1_2,2021-10-22T11:43:22.155Z,,,,,,,,,,,,,,,,53,,,,,,,,,,,,,,919.7049991959357,,response,,,99,,,,,,Space,keypress(Space),,,,,---- -- comes -- ------ - ------- --- ----------<br>------------- ------ ------ ---- ---- ------- ----- -- ----<br>-------- ------- -- ---------- --- - --- ----- ----- ----<br>---- --- --- ----- --- ---- ---- ------- ----- ---- -------<br>--- --- -- ----- -- --- ---- -- --- ---- -- ------ ------<br>--- ----- -- ----,65252.7499999851,65251.51499919593,64315.14,64309.194998815656,64331.81,65265.4,,2,comes
screen,html.Screen,0_2_0_1_3,2021-10-22T11:43:23.219Z,,,,,,,,,,,,,,,,53,,,,,,,,,,,,,,1050.049999645351,,response,,,99,,,,,,Space,keypress(Space),,,,,---- -- ----- to ------ - ------- --- ----------<br>------------- ------ ------ ---- ---- ------- ----- -- ----<br>-------- ------- -- ---------- --- - --- ----- ----- ----<br>---- --- --- ----- --- ---- ---- ------- ----- ---- -------<br>--- --- -- ----- -- --- ---- -- --- ---- -- ------ ------<br>--- ----- -- ----,66316.83999858797,66315.44999964535,65248.73,65253.13499942422,65265.4,66332.505,,3,to
screen,html.Screen,0_2_0_1_4,2021-10-22T11:43:24.139Z,,,,,,,,,,,,,,,,53,,,,,,,,,,,,,,902.8700001639081,,response,,,99,,,,,,Space,keypress(Space),,,,,---- -- ----- -- having - ------- --- ----------<br>------------- ------ ------ ---- ---- ------- ----- -- ----<br>-------- ------- -- ---------- --- - --- ----- ----- ----<br>---- --- --- ----- --- ---- ---- ------- ----- ---- -------<br>--- --- -- ----- -- --- ---- -- --- ---- -- ------ ------<br>--- ----- -- ----,67236.66999861598,67235.37500016391,66315.834,66317.21499934793,66332.505,67249.316,,4,having
screen,html.Screen,0_2_0_1_5,2021-10-22T11:43:24.683Z,,,,,,,,,,,,,,,,53,,,,,,,,,,,,,,530.058999925488,,response,,,99,,,,,,Space,keypress(Space),,,,,---- -- ----- -- ------ a ------- --- ----------<br>------------- ------ ------ ---- ---- ------- ----- -- ----<br>-------- ------- -- ---------- --- - --- ----- ----- ----<br>---- --- --- ----- --- ---- ---- ------- ----- ---- -------<br>--- --- -- ----- -- --- ---- -- --- ---- -- ------ ------<br>--- ----- -- ----,67780.52499890327,67779.3749999255,67232.646,67237.02999949455,67249.316,67799.448,,5,a
screen,html.Screen,0_2_0_1_6,2021-10-22T11:43:25.403Z,,,,,,,,,,,,,,,,53,,,,,,,,,,,,,,699.8669992078503,,response,,,99,,,,,,Space,keypress(Space),,,,,---- -- ----- -- ------ - lasting --- ----------<br>------------- ------ ------ ---- ---- ------- ----- -- ----<br>-------- ------- -- ---------- --- - --- ----- ----- ----<br>---- --- --- ----- --- ---- ---- ------- ----- ---- -------<br>--- --- -- ----- -- --- ---- -- --- ---- -- ------ ------<br>--- ----- -- ----,68500.5649998784,68499.31499920785,67766.108,67780.9199988842,67799.448,68516.309,,6,lasting
screen,html.Screen,0_2_0_1_7,2021-10-22T11:43:26.283Z,,,,,,,,,,,,,,,,53,,,,,,,,,,,,,,862.9409992996516,,response,,,99,,,,,,Space,keypress(Space),,,,,---- -- ----- -- ------ - ------- and ----------<br>------------- ------ ------ ---- ---- ------- ----- -- ----<br>-------- ------- -- ---------- --- - --- ----- ----- ----<br>---- --- --- ----- --- ---- ---- ------- ----- ---- -------<br>--- --- -- ----- -- --- ---- -- --- ---- -- ------ ------<br>--- ----- -- ----,69380.42999990284,69379.24999929965,68499.639,68500.91500021517,68516.309,69399.855,,7,and
screen,html.Screen,0_2_0_1_8,2021-10-22T11:43:27.187Z,,,,,,,,,,,,,,,,53,,,,,,,,,,,,,,883.7999989879172,,response,,,99,,,,,,Space,keypress(Space),,,,,---- -- ----- -- ------ - ------- --- fulfilling<br>------------- ------ ------ ---- ---- ------- ----- -- ----<br>-------- ------- -- ---------- --- - --- ----- ----- ----<br>---- --- --- ----- --- ---- ---- ------- ----- ---- -------<br>--- --- -- ----- -- --- ---- -- --- ---- -- ------ ------<br>--- ----- -- ----,70284.96499918401,70283.65499898791,69366.515,69380.78499957919,69399.855,70300.051,,8,fulfilling
screen,html.Screen,0_2_0_1_9,2021-10-22T11:43:29.067Z,,,,,,,,,,,,,,,,53,,,,,,,,,,,,,,1862.8690000315837,,response,,,99,,,,,,Space,keypress(Space),,,,,"---- -- ----- -- ------ - ------- --- ----------<br>relationship, ------ ------ ---- ---- ------- ----- -- ----<br>-------- ------- -- ---------- --- - --- ----- ----- ----<br>---- --- --- ----- --- ---- ---- ------- ----- ---- -------<br>--- --- -- ----- -- --- ---- -- --- ---- -- ------ ------<br>--- ----- -- ----",72164.19999860227,72162.92000003159,70283.381,70285.31999886036,70300.051,72183.83,,9,"relationship,"
screen,html.Screen,0_2_0_1_10,2021-10-22T11:43:30.067Z,,,,,,,,,,,,,,,,53,,,,,,,,,,,,,,979.1799993199093,,response,,,99,,,,,,Space,keypress(Space),,,,,---- -- ----- -- ------ - ------- --- ----------<br>------------- common ------ ---- ---- ------- ----- -- ----<br>-------- ------- -- ---------- --- - --- ----- ----- ----<br>---- --- --- ----- --- ---- ---- ------- ----- ---- -------<br>--- --- -- ----- -- --- ---- -- --- ---- -- ------ ------<br>--- ----- -- ----,73164.13499973714,73163.00999931991,72150.49,72164.56499882042,72183.83,73184.075,,10,common
screen,html.Screen,0_2_0_1_11,2021-10-22T11:43:30.859Z,,,,,,,,,,,,,,,,53,,,,,,,,,,,,,,770.7599995166092,,response,,,99,,,,,,Space,keypress(Space),,,,,---- -- ----- -- ------ - ------- --- ----------<br>------------- ------ wisdom ---- ---- ------- ----- -- ----<br>-------- ------- -- ---------- --- - --- ----- ----- ----<br>---- --- --- ----- --- ---- ---- ------- ----- ---- -------<br>--- --- -- ----- -- --- ---- -- --- ---- -- ------ ------<br>--- ----- -- ----,73955.98499849439,73954.8349995166,73150.735,73164.41999934614,73184.075,73967.568,,11,wisdom
screen,html.Screen,0_2_0_1_12,2021-10-22T11:43:31.531Z,,,,,,,,,,,,,,,,53,,,,,,,,,,,,,,659.2969995327003,,response,,,99,,,,,,Space,keypress(Space),,,,,---- -- ----- -- ------ - ------- --- ----------<br>------------- ------ ------ says ---- ------- ----- -- ----<br>-------- ------- -- ---------- --- - --- ----- ----- ----<br>---- --- --- ----- --- ---- ---- ------- ----- ---- -------<br>--- --- -- ----- -- --- ---- -- --- ---- -- ------ ------<br>--- ----- -- ----,74628.10000032187,74626.8649995327,73950.898,73956.33499883115,73967.568,74634.577,,12,says
screen,html.Screen,0_2_0_1_13,2021-10-22T11:43:32.131Z,,,,,,,,,,,,,,,,53,,,,,,,,,,,,,,592.2279996346188,,response,,,99,,,,,,Space,keypress(Space),,,,,---- -- ----- -- ------ - ------- --- ----------<br>------------- ------ ------ ---- that ------- ----- -- ----<br>-------- ------- -- ---------- --- - --- ----- ----- ----<br>---- --- --- ----- --- ---- ---- ------- ----- ---- -------<br>--- --- -- ----- -- --- ---- -- --- ---- -- ------ ------<br>--- ----- -- ----,75228.05999964476,75226.80499963462,74617.906,74628.44999879599,74634.577,75234.539,,13,that
screen,html.Screen,0_2_0_1_14,2021-10-22T11:43:33.290Z,,,,,,,,,,,,,,,,53,,,,,,,,,,,,,,1152.2309988186316,,response,,,99,,,,,,Space,keypress(Space),,,,,---- -- ----- -- ------ - ------- --- ----------<br>------------- ------ ------ ---- ---- feeling ----- -- ----<br>-------- ------- -- ---------- --- - --- ----- ----- ----<br>---- --- --- ----- --- ---- ---- ------- ----- ---- -------<br>--- --- -- ----- -- --- ---- -- --- ---- -- ------ ------<br>--- ----- -- ----,76387.90499977767,76386.76999881864,75217.87,75228.40999998152,75234.539,76401.675,,14,feeling
screen,html.Screen,0_2_0_1_15,2021-10-22T11:43:33.834Z,,,,,,,,,,,,,,,,53,,,,,,,,,,,,,,529.0949985802145,,response,,,99,,,,,,Space,keypress(Space),,,,,---- -- ----- -- ------ - ------- --- ----------<br>------------- ------ ------ ---- ---- ------- close -- ----<br>-------- ------- -- ---------- --- - --- ----- ----- ----<br>---- --- --- ----- --- ---- ---- ------- ----- ---- -------<br>--- --- -- ----- -- --- ---- -- --- ---- -- ------ ------<br>--- ----- -- ----,76931.92499876022,76930.76999858022,76385.004,76388.24999891222,76401.675,76951.744,,15,close
screen,html.Screen,0_2_0_1_16,2021-10-22T11:43:34.274Z,,,,,,,,,,,,,,,,53,,,,,,,,,,,,,,419.0059988377034,,response,,,99,,,,,,Space,keypress(Space),,,,,---- -- ----- -- ------ - ------- --- ----------<br>------------- ------ ------ ---- ---- ------- ----- to ----<br>-------- ------- -- ---------- --- - --- ----- ----- ----<br>---- --- --- ----- --- ---- ---- ------- ----- ---- -------<br>--- --- -- ----- -- --- ---- -- --- ---- -- ------ ------<br>--- ----- -- ----,77371.87999859452,77370.74999883771,76918.404,76932.2599992156,76951.744,77385.129,,16,to
screen,html.Screen,0_2_0_1_17,2021-10-22T11:43:34.778Z,,,,,,,,,,,,,,,,53,,,,,,,,,,,,,,489.57599984919943,,response,,,99,,,,,,Space,keypress(Space),,,,,---- -- ----- -- ------ - ------- --- ----------<br>------------- ------ ------ ---- ---- ------- ----- -- your<br>-------- ------- -- ---------- --- - --- ----- ----- ----<br>---- --- --- ----- --- ---- ---- ------- ----- ---- -------<br>--- --- -- ----- -- --- ---- -- --- ---- -- ------ ------<br>--- ----- -- ----,77875.78999996185,77874.7049998492,77368.459,77372.22499959171,77385.129,77885.371,,17,your
screen,html.Screen,0_2_0_1_18,2021-10-22T11:43:35.338Z,,,,,,,,,,,,,,,,53,,,,,,,,,,,,,,549.2989994057425,,response,,,99,,,,,,Space,keypress(Space),,,,,---- -- ----- -- ------ - ------- --- ----------<br>------------- ------ ------ ---- ---- ------- ----- -- ----<br>romantic ------- -- ---------- --- - --- ----- ----- ----<br>---- --- --- ----- --- ---- ---- ------- ----- ---- -------<br>--- --- -- ----- -- --- ---- -- --- ---- -- ------ ------<br>--- ----- -- ----,78435.82000024617,78434.66999940574,77868.7,77876.1349990964,77885.371,78452.119,,18,romantic
screen,html.Screen,0_2_0_1_19,2021-10-22T11:43:35.834Z,,,,,,,,,,,,,,,,53,,,,,,,,,,,,,,478.53099952911725,,response,,,99,,,,,,Space,keypress(Space),,,,,---- -- ----- -- ------ - ------- --- ----------<br>------------- ------ ------ ---- ---- ------- ----- -- ----<br>-------- partner -- ---------- --- - --- ----- ----- ----<br>---- --- --- ----- --- ---- ---- ------- ----- ---- -------<br>--- --- -- ----- -- --- ---- -- --- ---- -- ------ ------<br>--- ----- -- ----,78931.73499964178,78930.64999952912,78435.449,78436.17499992251,78452.119,78952.245,,19,partner
screen,html.Screen,0_2_0_1_20,2021-10-22T11:43:36.282Z,,,,,,,,,,,,,,,,53,,,,,,,,,,,,,,426.265000184183,,response,,,99,,,,,,Space,keypress(Space),,,,,---- -- ----- -- ------ - ------- --- ----------<br>------------- ------ ------ ---- ---- ------- ----- -- ----<br>-------- ------- is ---------- --- - --- ----- ----- ----<br>---- --- --- ----- --- ---- ---- ------- ----- ---- -------<br>--- --- -- ----- -- --- ---- -- --- ---- -- ------ ------<br>--- ----- -- ----,79379.60499897599,79378.51000018418,78918.905,78932.08999931812,78952.245,79402.358,,20,is
screen,html.Screen,0_2_0_1_21,2021-10-22T11:43:37.211Z,,,,,,,,,,,,,,,,53,,,,,,,,,,,,,,904.7019995553565,,response,,,99,,,,,,Space,keypress(Space),,,,,---- -- ----- -- ------ - ------- --- ----------<br>------------- ------ ------ ---- ---- ------- ----- -- ----<br>-------- ------- -- paramount. --- - --- ----- ----- ----<br>---- --- --- ----- --- ---- ---- ------- ----- ---- -------<br>--- --- -- ----- -- --- ---- -- --- ---- -- ------ ------<br>--- ----- -- ----,80308.17499943078,80307.05999955535,79369.018,79379.94999997318,79402.358,80319.219,,21,paramount.
screen,html.Screen,0_2_0_1_22,2021-10-22T11:43:37.730Z,,,,,,,,,,,,,,,,53,,,,,,,,,,,,,,507.3059989926842,,response,,,99,,,,,,Space,keypress(Space),,,,,---- -- ----- -- ------ - ------- --- ----------<br>------------- ------ ------ ---- ---- ------- ----- -- ----<br>-------- ------- -- ---------- But - --- ----- ----- ----<br>---- --- --- ----- --- ---- ---- ------- ----- ---- -------<br>--- --- -- ----- -- --- ---- -- --- ---- -- ------ ------<br>--- ----- -- ----,80827.6649992913,80826.52499899268,80302.549,80308.51499922574,80319.219,80836.094,,22,But
screen,html.Screen,0_2_0_1_23,2021-10-22T11:43:38.234Z,,,,,,,,,,,,,,,,53,,,,,,,,,,,,,,494.39099934375554,,response,,,99,,,,,,Space,keypress(Space),,,,,---- -- ----- -- ------ - ------- --- ----------<br>------------- ------ ------ ---- ---- ------- ----- -- ----<br>-------- ------- -- ---------- --- a --- ----- ----- ----<br>---- --- --- ----- --- ---- ---- ------- ----- ---- -------<br>--- --- -- ----- -- --- ---- -- --- ---- -- ------ ------<br>--- ----- -- ----,81331.57999999821,81330.48499934375,80819.423,80828.01000028849,80836.094,81352.848,,23,a
screen,html.Screen,0_2_0_1_24,2021-10-22T11:43:38.722Z,,,,,,,,,,,,,,,,53,,,,,,,,,,,,,,465.6119988162536,,response,,,99,,,,,,Space,keypress(Space),,,,,---- -- ----- -- ------ - ------- --- ----------<br>------------- ------ ------ ---- ---- ------- ----- -- ----<br>-------- ------- -- ---------- --- - new ----- ----- ----<br>---- --- --- ----- --- ---- ---- ------- ----- ---- -------<br>--- --- -- ----- -- --- ---- -- --- ---- -- ------ ------<br>--- ----- -- ----,81819.6749985218,81818.45999881625,81319.508,81331.92499913275,81352.848,81836.288,,24,new
screen,html.Screen,0_2_0_1_25,2021-10-22T11:43:39.242Z,,,,,,,,,,,,,,,,53,,,,,,,,,,,,,,502.1269987250562,,response,,,99,,,,,,Space,keypress(Space),,,,,---- -- ----- -- ------ - ------- --- ----------<br>------------- ------ ------ ---- ---- ------- ----- -- ----<br>-------- ------- -- ---------- --- - --- study ----- ----<br>---- --- --- ----- --- ---- ---- ------- ----- ---- -------<br>--- --- -- ----- -- --- ---- -- --- ---- -- ------ ------<br>--- ----- -- ----,82339.53499980271,82338.41499872506,81819.618,81820.02499885857,81836.288,82353.077,,25,study
screen,html.Screen,0_2_0_1_26,2021-10-22T11:43:39.714Z,,,,,,,,,,,,,,,,53,,,,,,,,,,,,,,457.3129993002367,,response,,,99,,,,,,Space,keypress(Space),,,,,---- -- ----- -- ------ - ------- --- ----------<br>------------- ------ ------ ---- ---- ------- ----- -- ----<br>-------- ------- -- ---------- --- - --- ----- finds ----<br>---- --- --- ----- --- ---- ---- ------- ----- ---- -------<br>--- --- -- ----- -- --- ---- -- --- ---- -- ------ ------<br>--- ----- -- ----,82811.45999953151,82810.38999930024,82336.407,82339.88500013947,82353.077,82819.916,,26,finds
screen,html.Screen,0_2_0_1_27,2021-10-22T11:43:40.194Z,,,,,,,,,,,,,,,,53,,,,,,,,,,,,,,470.4489993240859,,response,,,99,,,,,,Space,keypress(Space),,,,,---- -- ----- -- ------ - ------- --- ----------<br>------------- ------ ------ ---- ---- ------- ----- -- ----<br>-------- ------- -- ---------- --- - --- ----- ----- that<br>---- --- --- ----- --- ---- ---- ------- ----- ---- -------<br>--- --- -- ----- -- --- ---- -- --- ---- -- ------ ------<br>--- ----- -- ----,83291.44500009716,83290.36499932408,82803.245,82811.81499920785,82819.916,83303.316,,27,that
screen,html.Screen,0_2_0_1_28,2021-10-22T11:43:40.626Z,,,,,,,,,,,,,,,,53,,,,,,,,,,,,,,419.0239989306865,,response,,,99,,,,,,Space,keypress(Space),,,,,---- -- ----- -- ------ - ------- --- ----------<br>------------- ------ ------ ---- ---- ------- ----- -- ----<br>-------- ------- -- ---------- --- - --- ----- ----- ----<br>it's --- --- ----- --- ---- ---- ------- ----- ---- -------<br>--- --- -- ----- -- --- ---- -- --- ---- -- ------ ------<br>--- ----- -- ----,83723.44500012696,83722.33999893069,83286.646,83291.7899992317,83303.316,83736.661,,28,it's
screen,html.Screen,0_2_0_1_29,2021-10-22T11:43:41.042Z,,,,,,,,,,,,,,,,53,,,,,,,,,,,,,,401.6339985563827,,response,,,99,,,,,,Space,keypress(Space),,,,,---- -- ----- -- ------ - ------- --- ----------<br>------------- ------ ------ ---- ---- ------- ----- -- ----<br>-------- ------- -- ---------- --- - --- ----- ----- ----<br>---- not --- ----- --- ---- ---- ------- ----- ---- -------<br>--- --- -- ----- -- --- ---- -- --- ---- -- ------ ------<br>--- ----- -- ----,84139.49999958277,84138.29499855638,83719.992,83723.7899992615,83736.661,84153.601,,29,not
screen,html.Screen,0_2_0_1_30,2021-10-22T11:43:41.498Z,,,,,,,,,,,,,,,,53,,,,,,,,,,,,,,440.6739995738317,,response,,,99,,,,,,Space,keypress(Space),,,,,---- -- ----- -- ------ - ------- --- ----------<br>------------- ------ ------ ---- ---- ------- ----- -- ----<br>-------- ------- -- ---------- --- - --- ----- ----- ----<br>---- --- how ----- --- ---- ---- ------- ----- ---- -------<br>--- --- -- ----- -- --- ---- -- --- ---- -- ------ ------<br>--- ----- -- ----,84595.33499926329,84594.27499957383,84136.929,84139.83999937773,84153.601,84603.651,,30,how
screen,html.Screen,0_2_0_1_31,2021-10-22T11:43:41.962Z,,,,,,,,,,,,,,,,53,,,,,,,,,,,,,,454.5989988377114,,response,,,99,,,,,,Space,keypress(Space),,,,,---- -- ----- -- ------ - ------- --- ----------<br>------------- ------ ------ ---- ---- ------- ----- -- ----<br>-------- ------- -- ---------- --- - --- ----- ----- ----<br>---- --- --- close --- ---- ---- ------- ----- ---- -------<br>--- --- -- ----- -- --- ---- -- --- ---- -- ------ ------<br>--- ----- -- ----,85059.46999974549,85058.24999883771,84586.981,84595.68999893963,84603.651,85070.401,,31,close
screen,html.Screen,0_2_0_1_32,2021-10-22T11:43:42.754Z,,,,,,,,,,,,,,,,53,,,,,,,,,,,,,,779.7939999481459,,response,,,99,,,,,,Space,keypress(Space),,,,,---- -- ----- -- ------ - ------- --- ----------<br>------------- ------ ------ ---- ---- ------- ----- -- ----<br>-------- ------- -- ---------- --- - --- ----- ----- ----<br>---- --- --- ----- you ---- ---- ------- ----- ---- -------<br>--- --- -- ----- -- --- ---- -- --- ---- -- ------ ------<br>--- ----- -- ----,85851.26500017941,85850.19499994814,85053.731,85059.81499888003,85070.401,85870.677,,32,you
screen,html.Screen,0_2_0_1_33,2021-10-22T11:43:43.690Z,,,,,,,,,,,,,,,,53,,,,,,,,,,,,,,915.4629985849897,,response,,,99,,,,,,Space,keypress(Space),,,,,---- -- ----- -- ------ - ------- --- ----------<br>------------- ------ ------ ---- ---- ------- ----- -- ----<br>-------- ------- -- ---------- --- - --- ----- ----- ----<br>---- --- --- ----- --- feel ---- ------- ----- ---- -------<br>--- --- -- ----- -- --- ---- -- --- ---- -- ------ ------<br>--- ----- -- ----,86787.20499947667,86786.13999858499,85837.335,85851.61499865353,85870.677,86804.029,,33,feel
screen,html.Screen,0_2_0_1_34,2021-10-22T11:43:44.250Z,,,,,,,,,,,,,,,,53,,,,,,,,,,,,,,542.0709988019516,,response,,,99,,,,,,Space,keypress(Space),,,,,---- -- ----- -- ------ - ------- --- ----------<br>------------- ------ ------ ---- ---- ------- ----- -- ----<br>-------- ------- -- ---------- --- - --- ----- ----- ----<br>---- --- --- ----- --- ---- that ------- ----- ---- -------<br>--- --- -- ----- -- --- ---- -- --- ---- -- ------ ------<br>--- ----- -- ----,87347.23499976099,87346.09999880195,86787.36,86787.6099999994,86804.029,87354.391,,34,that
screen,html.Screen,0_2_0_1_35,2021-10-22T11:43:44.890Z,,,,,,,,,,,,,,,,53,,,,,,,,,,,,,,631.6589985516039,,response,,,99,,,,,,Space,keypress(Space),,,,,---- -- ----- -- ------ - ------- --- ----------<br>------------- ------ ------ ---- ---- ------- ----- -- ----<br>-------- ------- -- ---------- --- - --- ----- ----- ----<br>---- --- --- ----- --- ---- ---- matters ----- ---- -------<br>--- --- -- ----- -- --- ---- -- --- ---- -- ------ ------<br>--- ----- -- ----,87987.14999854565,87986.0499985516,87337.72,87347.58500009775,87354.391,88004.488,,35,matters
screen,html.Screen,0_2_0_1_36,2021-10-22T11:43:45.378Z,,,,,,,,,,,,,,,,53,,,,,,,,,,,,,,469.5369998867536,,response,,,99,,,,,,Space,keypress(Space),,,,,"---- -- ----- -- ------ - ------- --- ----------<br>------------- ------ ------ ---- ---- ------- ----- -- ----<br>-------- ------- -- ---------- --- - --- ----- ----- ----<br>---- --- --- ----- --- ---- ---- ------- most, ---- -------<br>--- --- -- ----- -- --- ---- -- --- ---- -- ------ ------<br>--- ----- -- ----",88475.08499957621,88474.02499988675,87987.818,87987.50999942422,88004.488,88487.95,,36,"most,"
screen,html.Screen,0_2_0_1_37,2021-10-22T11:43:45.842Z,,,,,,,,,,,,,,,,53,,,,,,,,,,,,,,450.05499849021726,,response,,,99,,,,,,Space,keypress(Space),,,,,---- -- ----- -- ------ - ------- --- ----------<br>------------- ------ ------ ---- ---- ------- ----- -- ----<br>-------- ------- -- ---------- --- - --- ----- ----- ----<br>---- --- --- ----- --- ---- ---- ------- ----- it's -------<br>--- --- -- ----- -- --- ---- -- --- ---- -- ------ ------<br>--- ----- -- ----,88939.13999944925,88938.00499849021,88471.28,88475.42999871075,88487.95,88954.649,,37,it's
screen,html.Screen,0_2_0_1_38,2021-10-22T11:43:46.338Z,,,,,,,,,,,,,,,,53,,,,,,,,,,,,,,479.31100005304324,,response,,,99,,,,,,Space,keypress(Space),,,,,---- -- ----- -- ------ - ------- --- ----------<br>------------- ------ ------ ---- ---- ------- ----- -- ----<br>-------- ------- -- ---------- --- - --- ----- ----- ----<br>---- --- --- ----- --- ---- ---- ------- ----- ---- whether<br>--- --- -- ----- -- --- ---- -- --- ---- -- ------ ------<br>--- ----- -- ----,89435.01499854028,89433.96000005305,88937.98,88939.48999978602,88954.649,89454.917,,38,whether
screen,html.Screen,0_2_0_1_39,2021-10-22T11:43:46.786Z,,,,,,,,,,,,,,,,53,,,,,,,,,,,,,,427.01799855697027,,response,,,99,,,,,,Space,keypress(Space),,,,,---- -- ----- -- ------ - ------- --- ----------<br>------------- ------ ------ ---- ---- ------- ----- -- ----<br>-------- ------- -- ---------- --- - --- ----- ----- ----<br>---- --- --- ----- --- ---- ---- ------- ----- ---- -------<br>you --- -- ----- -- --- ---- -- --- ---- -- ------ ------<br>--- ----- -- ----,89882.98499956727,89881.93499855697,89421.575,89435.37999875844,89454.917,89904.972,,39,you
screen,html.Screen,0_2_0_1_40,2021-10-22T11:43:47.113Z,,,,,,,,,,,,,,,,53,,,,,,,,,,,,,,304.87800021756266,,response,,,99,,,,,,Space,keypress(Space),,,,,---- -- ----- -- ------ - ------- --- ----------<br>------------- ------ ------ ---- ---- ------- ----- -- ----<br>-------- ------- -- ---------- --- - --- ----- ----- ----<br>---- --- --- ----- --- ---- ---- ------- ----- ---- -------<br>--- are -- ----- -- --- ---- -- --- ---- -- ------ ------<br>--- ----- -- ----,90210.90999990702,90209.85000021756,89871.632,89883.3449985832,89904.972,90221.712,,40,are
screen,html.Screen,0_2_0_1_41,2021-10-22T11:43:47.466Z,,,,,,,,,,,,,,,,53,,,,,,,,,,,,,,340.72299927222775,,response,,,99,,,,,,Space,keypress(Space),,,,,---- -- ----- -- ------ - ------- --- ----------<br>------------- ------ ------ ---- ---- ------- ----- -- ----<br>-------- ------- -- ---------- --- - --- ----- ----- ----<br>---- --- --- ----- --- ---- ---- ------- ----- ---- -------<br>--- --- as ----- -- --- ---- -- --- ---- -- ------ ------<br>--- ----- -- ----,90563.5049995035,90562.43499927223,90205.042,90211.26000024378,90221.712,90571.808,,41,as
screen,html.Screen,0_2_0_1_42,2021-10-22T11:43:47.842Z,,,,,,,,,,,,,,,,53,,,,,,,,,,,,,,366.0519990159228,,response,,,99,,,,,,Space,keypress(Space),,,,,---- -- ----- -- ------ - ------- --- ----------<br>------------- ------ ------ ---- ---- ------- ----- -- ----<br>-------- ------- -- ---------- --- - --- ----- ----- ----<br>---- --- --- ----- --- ---- ---- ------- ----- ---- -------<br>--- --- -- close -- --- ---- -- --- ---- -- ------ ------<br>--- ----- -- ----,90939.01999853551,90937.85999901593,90555.138,90563.84499929845,90571.808,90955.27,,42,close
screen,html.Screen,0_2_0_1_43,2021-10-22T11:43:48.225Z,,,,,,,,,,,,,,,,53,,,,,,,,,,,,,,366.579999949332,,response,,,99,,,,,,Space,keypress(Space),,,,,---- -- ----- -- ------ - ------- --- ----------<br>------------- ------ ------ ---- ---- ------- ----- -- ----<br>-------- ------- -- ---------- --- - --- ----- ----- ----<br>---- --- --- ----- --- ---- ---- ------- ----- ---- -------<br>--- --- -- ----- as --- ---- -- --- ---- -- ------ ------<br>--- ----- -- ----,91322.9099996388,91321.84999994934,90938.599,90939.38499875367,90955.27,91338.586,,43,as
screen,html.Screen,0_2_0_1_44,2021-10-22T11:43:48.585Z,,,,,,,,,,,,,,,,53,,,,,,,,,,,,,,343.2039998277469,,response,,,99,,,,,,Space,keypress(Space),,,,,---- -- ----- -- ------ - ------- --- ----------<br>------------- ------ ------ ---- ---- ------- ----- -- ----<br>-------- ------- -- ---------- --- - --- ----- ----- ----<br>---- --- --- ----- --- ---- ---- ------- ----- ---- -------<br>--- --- -- ----- -- you ---- -- --- ---- -- ------ ------<br>--- ----- -- ----,91682.84500017762,91681.78999982774,91321.917,91323.26999865472,91338.586,91705.475,,44,you
screen,html.Screen,0_2_0_1_45,2021-10-22T11:43:48.993Z,,,,,,,,,,,,,,,,53,,,,,,,,,,,,,,384.2749993443431,,response,,,99,,,,,,Space,keypress(Space),,,,,---- -- ----- -- ------ - ------- --- ----------<br>------------- ------ ------ ---- ---- ------- ----- -- ----<br>-------- ------- -- ---------- --- - --- ----- ----- ----<br>---- --- --- ----- --- ---- ---- ------- ----- ---- -------<br>--- --- -- ----- -- --- want -- --- ---- -- ------ ------<br>--- ----- -- ----,92090.9549985081,92089.74999934435,91672.133,91683.19999985397,91705.475,92105.516,,45,want
screen,html.Screen,0_2_0_1_46,2021-10-22T11:43:49.345Z,,,,,,,,,,,,,,,,53,,,,,,,,,,,,,,336.1589998927084,,response,,,99,,,,,,Space,keypress(Space),,,,,---- -- ----- -- ------ - ------- --- ----------<br>------------- ------ ------ ---- ---- ------- ----- -- ----<br>-------- ------- -- ---------- --- - --- ----- ----- ----<br>---- --- --- ----- --- ---- ---- ------- ----- ---- -------<br>--- --- -- ----- -- --- ---- to --- ---- -- ------ ------<br>--- ----- -- ----,92442.74500012398,92441.67499989271,92088.846,92091.31000004709,92105.516,92455.646,,46,to
screen,html.Screen,0_2_0_1_47,2021-10-22T11:43:49.721Z,,,,,,,,,,,,,,,,53,,,,,,,,,,,,,,362.05899981940456,,response,,,99,,,,,,Space,keypress(Space),,,,,"---- -- ----- -- ------ - ------- --- ----------<br>------------- ------ ------ ---- ---- ------- ----- -- ----<br>-------- ------- -- ---------- --- - --- ----- ----- ----<br>---- --- --- ----- --- ---- ---- ------- ----- ---- -------<br>--- --- -- ----- -- --- ---- -- be, ---- -- ------ ------<br>--- ----- -- ----",92818.76000016928,92817.7049998194,92438.975,92443.0949985981,92455.646,92838.926,,47,"be,"
screen,html.Screen,0_2_0_1_48,2021-10-22T11:43:50.113Z,,,,,,,,,,,,,,,,53,,,,,,,,,,,,,,370.7389985760383,,response,,,99,,,,,,Space,keypress(Space),,,,,---- -- ----- -- ------ - ------- --- ----------<br>------------- ------ ------ ---- ---- ------- ----- -- ----<br>-------- ------- -- ---------- --- - --- ----- ----- ----<br>---- --- --- ----- --- ---- ---- ------- ----- ---- -------<br>--- --- -- ----- -- --- ---- -- --- even -- ------ ------<br>--- ----- -- ----,93210.72500012815,93209.66499857605,92805.59,92819.12499852479,92838.926,93222.543,,48,even
screen,html.Screen,0_2_0_1_49,2021-10-22T11:43:50.513Z,,,,,,,,,,,,,,,,53,,,,,,,,,,,,,,387.12199894856894,,response,,,99,,,,,,Space,keypress(Space),,,,,---- -- ----- -- ------ - ------- --- ----------<br>------------- ------ ------ ---- ---- ------- ----- -- ----<br>-------- ------- -- ---------- --- - --- ----- ----- ----<br>---- --- --- ----- --- ---- ---- ------- ----- ---- -------<br>--- --- -- ----- -- --- ---- -- --- ---- if ------ ------<br>--- ----- -- ----,93610.75500026345,93609.66499894857,93205.871,93211.0799998045,93222.543,93622.566,,49,if
screen,html.Screen,0_2_0_1_50,2021-10-22T11:43:50.953Z,,,,,,,,,,,,,,,,53,,,,,,,,,,,,,,427.10399962925294,,response,,,99,,,,,,Space,keypress(Space),,,,,---- -- ----- -- ------ - ------- --- ----------<br>------------- ------ ------ ---- ---- ------- ----- -- ----<br>-------- ------- -- ---------- --- - --- ----- ----- ----<br>---- --- --- ----- --- ---- ---- ------- ----- ---- -------<br>--- --- -- ----- -- --- ---- -- --- ---- -- that's ------<br>--- ----- -- ----,94050.84499903023,94049.66999962926,93605.896,93611.10499873757,93622.566,94072.58,,50,that's
screen,html.Screen,0_2_0_1_51,2021-10-22T11:43:51.369Z,,,,,,,,,,,,,,,,53,,,,,,,,,,,,,,393.06500033855264,,response,,,99,,,,,,Space,keypress(Space),,,,,---- -- ----- -- ------ - ------- --- ----------<br>------------- ------ ------ ---- ---- ------- ----- -- ----<br>-------- ------- -- ---------- --- - --- ----- ----- ----<br>---- --- --- ----- --- ---- ---- ------- ----- ---- -------<br>--- --- -- ----- -- --- ---- -- --- ---- -- ------ really<br>--- ----- -- ----,94466.69999882579,94465.64500033855,94039.242,94051.194999367,94072.58,94489.494,,51,really
screen,html.Screen,0_2_0_1_52,2021-10-22T11:43:51.777Z,,,,,,,,,,,,,,,,53,,,,,,,,,,,,,,383.99099894141546,,response,,,99,,,,,,Space,keypress(Space),,,,,---- -- ----- -- ------ - ------- --- ----------<br>------------- ------ ------ ---- ---- ------- ----- -- ----<br>-------- ------- -- ---------- --- - --- ----- ----- ----<br>---- --- --- ----- --- ---- ---- ------- ----- ---- -------<br>--- --- -- ----- -- --- ---- -- --- ---- -- ------ ------<br>not ----- -- ----,94874.50999952853,94873.48499894142,94456.152,94467.05499850214,94489.494,94906.252,,52,not
screen,html.Screen,0_2_0_1_53,2021-10-22T11:43:52.161Z,,,,,,,,,,,,,,,,53,,,,,,,,,,,,,,351.3229997049639,,response,,,99,,,,,,Space,keypress(Space),,,,,---- -- ----- -- ------ - ------- --- ----------<br>------------- ------ ------ ---- ---- ------- ----- -- ----<br>-------- ------- -- ---------- --- - --- ----- ----- ----<br>---- --- --- ----- --- ---- ---- ------- ----- ---- -------<br>--- --- -- ----- -- --- ---- -- --- ---- -- ------ ------<br>--- close -- ----,95258.61500017345,95257.57499970496,94889.581,94874.85499866307,94906.252,95272.901,,53,close
screen,html.Screen,0_2_0_1_54,2021-10-22T11:43:52.553Z,,,,,,,,,,,,,,,,53,,,,,,,,,,,,,,376.6689994266053,,response,,,99,,,,,,Space,keypress(Space),,,,,---- -- ----- -- ------ - ------- --- ----------<br>------------- ------ ------ ---- ---- ------- ----- -- ----<br>-------- ------- -- ---------- --- - --- ----- ----- ----<br>---- --- --- ----- --- ---- ---- ------- ----- ---- -------<br>--- --- -- ----- -- --- ---- -- --- ---- -- ------ ------<br>--- ----- at ----,95650.61999857426,95649.5699994266,95256.232,95258.97499918938,95272.901,95673.163,,54,at
screen,html.Screen,0_2_0_1_55,2021-10-22T11:43:53.137Z,,,,,,,,,,,,,,,,53,,,,,,,,,,,,,,560.3370000894065,,response,,,99,,,,,,Space,keypress(Space),,,,,---- -- ----- -- ------ - ------- --- ----------<br>------------- ------ ------ ---- ---- ------- ----- -- ----<br>-------- ------- -- ---------- --- - --- ----- ----- ----<br>---- --- --- ----- --- ---- ---- ------- ----- ---- -------<br>--- --- -- ----- -- --- ---- -- --- ---- -- ------ ------<br>--- ----- -- all.,96234.54999923706,96233.5000000894,95639.819,95652.87999995053,95673.163,96273.222,,55,all.
Item 99,flow.Loop,0_2_0_1,2021-10-22T11:43:53.142Z,,,,,,,,,,,,,,,,,,,,,,,,,,,,,,35035.77900008941,,completion,,,,F,,,,,,,,,,silence,,96239.55999873579,96233.5000000894,61147.711,61159.014999866486,61197.721,96273.222,,,
Question 1,html.Screen,0_2_0_2,2021-10-22T11:44:01.647Z,,,,,,,,,,,,,,,,,,,,,,,,,,,false,FALSE,,8469.08299938131,,response,,,99,F,,,,,TRUE,click #choice-1,,,,silence,,104744.09499950707,104742.3049993813,96239.882,96240.00000022352,96273.222,104775.412,,,
Question 2,html.Screen,0_2_0_3,2021-10-22T11:44:10.834Z,,,,,,,,,,,,,,,,,,,,,,,,,,,true,TRUE,,9154.042999044541,,response,,,99,F,,,,,TRUE,click #choice-1,,,,silence,,113931.18499964476,113929.45499904454,104742.064,104744.49499882758,104775.412,113960.964,,,
Item 99,flow.Sequence,0_2_0,2021-10-22T11:44:10.834Z,,,,,,,,,,,,,,,,,,,,,,,,,,,,,,62767.495999044535,,completion,,,,,,,,,,,,,,,,113931.97000026703,113929.45499904454,51128.619,51133.12499970198,51161.959,113960.964,,,
Holding screen,html.Screen,0_2_1_0,2021-10-22T11:44:20.854Z,,,,,,,,,,,,,,,,,,,,,,,,,,,,,,10002.368999999992,,timeout,,,,,,,,,,,,,,,,123947.9099996388,123946.663,113927.626,113932.58499912918,113960.964,123963.333,,,
screen,html.Screen,0_2_1_1_0,2021-10-22T11:44:22.580Z,,,,,,,,,,,,,,,,54,,,,,,,,,,,,,,1708.837000150801,,response,,,100,,,,,,Space,keypress(Space),,,,,At --- ---- --- ------ ----- ------- ---- -- --- ------- --<br>------- ---------- ------ -- ----- -- ----- -- ---- ------<br>--- ----- --- --- ------ -------- ----- --- ------ ----- --<br>----- ----- ---------- --- --- ------ ------ ---- -- ------<br>------- --- ------ ----- --- ---- ------- -- ---- --- --<br>------- ------,125673.24499972165,125672.1700001508,123946.663,123948.38999956846,123963.333,125680.646,,0,At
screen,html.Screen,0_2_1_1_1,2021-10-22T11:44:23.235Z,,,,,,,,,,,,,,,,54,,,,,,,,,,,,,,646.9690003075666,,response,,,100,,,,,,Space,keypress(Space),,,,,-- the ---- --- ------ ----- ------- ---- -- --- ------- --<br>------- ---------- ------ -- ----- -- ----- -- ---- ------<br>--- ----- --- --- ------ -------- ----- --- ------ ----- --<br>----- ----- ---------- --- --- ------ ------ ---- -- ------<br>------- --- ------ ----- --- ---- ------- -- ---- --- --<br>------- ------,126328.69499921799,126327.61500030756,125663.975,125673.60499873757,125680.646,126347.331,,1,the
screen,html.Screen,0_2_1_1_2,2021-10-22T11:44:23.931Z,,,,,,,,,,,,,,,,54,,,,,,,,,,,,,,676.1989989581052,,response,,,100,,,,,,Space,keypress(Space),,,,,-- --- time --- ------ ----- ------- ---- -- --- ------- --<br>------- ---------- ------ -- ----- -- ----- -- ---- ------<br>--- ----- --- --- ------ -------- ----- --- ------ ----- --<br>----- ----- ---------- --- --- ------ ------ ---- -- ------<br>------- --- ------ ----- --- ---- ------- -- ---- --- --<br>------- ------,127024.60499852896,127023.52999895811,126313.991,126329.04999889433,126347.331,127047.46,,2,time
screen,html.Screen,0_2_1_1_3,2021-10-22T11:44:24.523Z,,,,,,,,,,,,,,,,54,,,,,,,,,,,,,,567.9599987649854,,response,,,100,,,,,,Space,keypress(Space),,,,,-- --- ---- the ------ ----- ------- ---- -- --- ------- --<br>------- ---------- ------ -- ----- -- ----- -- ---- ------<br>--- ----- --- --- ------ -------- ----- --- ------ ----- --<br>----- ----- ---------- --- --- ------ ------ ---- -- ------<br>------- --- ------ ----- --- ---- ------- -- ---- --- --<br>------- ------,127616.46999977529,127615.41999876499,127014.12,127024.94999952614,127047.46,127631.14,,3,the
screen,html.Screen,0_2_1_1_4,2021-10-22T11:44:25.523Z,,,,,,,,,,,,,,,,54,,,,,,,,,,,,,,984.2249985790259,,response,,,100,,,,,,Space,keypress(Space),,,,,-- --- ---- --- French ----- ------- ---- -- --- ------- --<br>------- ---------- ------ -- ----- -- ----- -- ---- ------<br>--- ----- --- --- ------ -------- ----- --- ------ ----- --<br>----- ----- ---------- --- --- ------ ------ ---- -- ------<br>------- --- ------ ----- --- ---- ------- -- ---- --- --<br>------- ------,128616.41000024974,128615.36499857903,127614.468,127616.81499890983,127631.14,128631.245,,4,French
screen,html.Screen,0_2_1_1_5,2021-10-22T11:44:26.499Z,,,,,,,,,,,,,,,,54,,,,,,,,,,,,,,960.1849990981864,,response,,,100,,,,,,Space,keypress(Space),,,,,-- --- ---- --- ------ crown ------- ---- -- --- ------- --<br>------- ---------- ------ -- ----- -- ----- -- ---- ------<br>--- ----- --- --- ------ -------- ----- --- ------ ----- --<br>----- ----- ---------- --- --- ------ ------ ---- -- ------<br>------- --- ------ ----- --- ---- ------- -- ---- --- --<br>------- ------,129592.47499890625,129591.42999909818,128614.575,128616.76499992609,128631.245,129614.822,,5,crown
screen,html.Screen,0_2_1_1_6,2021-10-22T11:44:27.435Z,,,,,,,,,,,,,,,,54,,,,,,,,,,,,,,912.522999834895,,response,,,100,,,,,,Space,keypress(Space),,,,,-- --- ---- --- ------ ----- secured ---- -- --- ------- --<br>------- ---------- ------ -- ----- -- ----- -- ---- ------<br>--- ----- --- --- ------ -------- ----- --- ------ ----- --<br>----- ----- ---------- --- --- ------ ------ ---- -- ------<br>------- --- ------ ----- --- ---- ------- -- ---- --- --<br>------- ------,130528.41500006616,130527.3449998349,129581.482,129592.83499978483,129614.822,130548.239,,6,secured
screen,html.Screen,0_2_1_1_7,2021-10-22T11:44:28.243Z,,,,,,,,,,,,,,,,54,,,,,,,,,,,,,,787.0809996054159,,response,,,100,,,,,,Space,keypress(Space),,,,,-- --- ---- --- ------ ----- ------- much -- --- ------- --<br>------- ---------- ------ -- ----- -- ----- -- ---- ------<br>--- ----- --- --- ------ -------- ----- --- ------ ----- --<br>----- ----- ---------- --- --- ------ ------ ---- -- ------<br>------- --- ------ ----- --- ---- ------- -- ---- --- --<br>------- ------,131336.37999929488,131335.31999960542,130514.901,130530.05499951541,130548.239,131348.673,,7,much
screen,html.Screen,0_2_1_1_8,2021-10-22T11:44:28.707Z,,,,,,,,,,,,,,,,54,,,,,,,,,,,,,,450.6569998342893,,response,,,100,,,,,,Space,keypress(Space),,,,,-- --- ---- --- ------ ----- ------- ---- of --- ------- --<br>------- ---------- ------ -- ----- -- ----- -- ---- ------<br>--- ----- --- --- ------ -------- ----- --- ------ ----- --<br>----- ----- ---------- --- --- ------ ------ ---- -- ------<br>------- --- ------ ----- --- ---- ------- -- ---- --- --<br>------- ------,131800.41499994695,131799.3299998343,131332.002,131336.69999986887,131348.673,131815.391,,8,of
screen,html.Screen,0_2_1_1_9,2021-10-22T11:44:29.323Z,,,,,,,,,,,,,,,,54,,,,,,,,,,,,,,599.8439997311798,,response,,,100,,,,,,Space,keypress(Space),,,,,-- --- ---- --- ------ ----- ------- ---- -- its ------- --<br>------- ---------- ------ -- ----- -- ----- -- ---- ------<br>--- ----- --- --- ------ -------- ----- --- ------ ----- --<br>----- ----- ---------- --- --- ------ ------ ---- -- ------<br>------- --- ------ ----- --- ---- ------- -- ---- --- --<br>------- ------,132416.3499996066,132415.23499973118,131798.721,131800.7449992001,131815.391,132432.209,,9,its
screen,html.Screen,0_2_1_1_10,2021-10-22T11:44:30.595Z,,,,,,,,,,,,,,,,54,,,,,,,,,,,,,,1254.8509985122655,,response,,,100,,,,,,Space,keypress(Space),,,,,-- --- ---- --- ------ ----- ------- ---- -- --- revenue --<br>------- ---------- ------ -- ----- -- ----- -- ---- ------<br>--- ----- --- --- ------ -------- ----- --- ------ ----- --<br>----- ----- ---------- --- --- ------ ------ ---- -- ------<br>------- --- ------ ----- --- ---- ------- -- ---- --- --<br>------- ------,133688.43000009656,133687.05999851227,132415.539,132416.67999885976,132432.209,133699.157,,10,revenue
screen,html.Screen,0_2_1_1_11,2021-10-22T11:44:31.155Z,,,,,,,,,,,,,,,,54,,,,,,,,,,,,,,547.9679997615749,,response,,,100,,,,,,Space,keypress(Space),,,,,-- --- ---- --- ------ ----- ------- ---- -- --- ------- by<br>------- ---------- ------ -- ----- -- ----- -- ---- ------<br>--- ----- --- --- ------ -------- ----- --- ------ ----- --<br>----- ----- ---------- --- --- ------ ------ ---- -- ------<br>------- --- ------ ----- --- ---- ------- -- ---- --- --<br>------- ------,134248.204998672,134247.12499976158,133682.487,133688.76999989152,133699.157,134265.936,,11,by
screen,html.Screen,0_2_1_1_12,2021-10-22T11:44:31.739Z,,,,,,,,,,,,,,,,54,,,,,,,,,,,,,,565.1539995267522,,response,,,100,,,,,,Space,keypress(Space),,,,,-- --- ---- --- ------ ----- ------- ---- -- --- ------- --<br>issuing ---------- ------ -- ----- -- ----- -- ---- ------<br>--- ----- --- --- ------ -------- ----- --- ------ ----- --<br>----- ----- ---------- --- --- ------ ------ ---- -- ------<br>------- --- ------ ----- --- ---- ------- -- ---- --- --<br>------- ------,134832.24499970675,134831.08999952674,134249.266,134248.5349997878,134265.936,134849.394,,12,issuing
screen,html.Screen,0_2_1_1_13,2021-10-22T11:44:32.379Z,,,,,,,,,,,,,,,,54,,,,,,,,,,,,,,621.6559998182056,,response,,,100,,,,,,Space,keypress(Space),,,,,-- --- ---- --- ------ ----- ------- ---- -- --- ------- --<br>------- government ------ -- ----- -- ----- -- ---- ------<br>--- ----- --- --- ------ -------- ----- --- ------ ----- --<br>----- ----- ---------- --- --- ------ ------ ---- -- ------<br>------- --- ------ ----- --- ---- ------- -- ---- --- --<br>------- ------,135472.09999896586,135471.0499998182,134832.724,134832.5849995017,134849.394,135483.149,,13,government
screen,html.Screen,0_2_1_1_14,2021-10-22T11:44:33.987Z,,,,,,,,,,,,,,,,54,,,,,,,,,,,,,,1596.3059994170617,,response,,,100,,,,,,Space,keypress(Space),,,,,-- --- ---- --- ------ ----- ------- ---- -- --- ------- --<br>------- ---------- bonds. -- ----- -- ----- -- ---- ------<br>--- ----- --- --- ------ -------- ----- --- ------ ----- --<br>----- ----- ---------- --- --- ------ ------ ---- -- ------<br>------- --- ------ ----- --- ---- ------- -- ---- --- --<br>------- ------,137080.7349998504,137079.45499941707,135466.476,135472.43000008166,135483.149,137099.995,,14,bonds.
screen,html.Screen,0_2_1_1_15,2021-10-22T11:44:34.514Z,,,,,,,,,,,,,,,,54,,,,,,,,,,,,,,506.9100002843188,,response,,,100,,,,,,Space,keypress(Space),,,,,-- --- ---- --- ------ ----- ------- ---- -- --- ------- --<br>------- ---------- ------ In ----- -- ----- -- ---- ------<br>--- ----- --- --- ------ -------- ----- --- ------ ----- --<br>----- ----- ---------- --- --- ------ ------ ---- -- ------<br>------- --- ------ ----- --- ---- ------- -- ---- --- --<br>------- ------,137608.02499949932,137606.9050002843,137066.655,137081.07499964535,137099.995,137616.816,,15,In
screen,html.Screen,0_2_1_1_16,2021-10-22T11:44:35.899Z,,,,,,,,,,,,,,,,54,,,,,,,,,,,,,,1374.0089992877329,,response,,,100,,,,,,Space,keypress(Space),,,,,"-- --- ---- --- ------ ----- ------- ---- -- --- ------- --<br>------- ---------- ------ -- 1727, -- ----- -- ---- ------<br>--- ----- --- --- ------ -------- ----- --- ------ ----- --<br>----- ----- ---------- --- --- ------ ------ ---- -- ------<br>------- --- ------ ----- --- ---- ------- -- ---- --- --<br>------- ------",138992.06999875605,138990.82499928772,137600.146,137608.3599999547,137616.816,139000.404,,16,"1727,"
screen,html.Screen,0_2_1_1_17,2021-10-22T11:44:36.442Z,,,,,,,,,,,,,,,,54,,,,,,,,,,,,,,534.2409986100101,,response,,,100,,,,,,Space,keypress(Space),,,,,-- --- ---- --- ------ ----- ------- ---- -- --- ------- --<br>------- ---------- ------ -- ----- in ----- -- ---- ------<br>--- ----- --- --- ------ -------- ----- --- ------ ----- --<br>----- ----- ---------- --- --- ------ ------ ---- -- ------<br>------- --- ------ ----- --- ---- ------- -- ---- --- --<br>------- ------,139535.69000028074,139534.64499861002,138983.734,138992.41499975324,139000.404,139550.779,,17,in
screen,html.Screen,0_2_1_1_18,2021-10-22T11:44:37.042Z,,,,,,,,,,,,,,,,54,,,,,,,,,,,,,,583.9809998116398,,response,,,100,,,,,,Space,keypress(Space),,,,,-- --- ---- --- ------ ----- ------- ---- -- --- ------- --<br>------- ---------- ------ -- ----- -- order -- ---- ------<br>--- ----- --- --- ------ -------- ----- --- ------ ----- --<br>----- ----- ---------- --- --- ------ ------ ---- -- ------<br>------- --- ------ ----- --- ---- ------- -- ---- --- --<br>------- ------,140135.86999848485,140134.75999981165,139534.107,139536.0300000757,139550.779,140150.753,,18,order
screen,html.Screen,0_2_1_1_19,2021-10-22T11:44:37.466Z,,,,,,,,,,,,,,,,54,,,,,,,,,,,,,,407.95200020683114,,response,,,100,,,,,,Space,keypress(Space),,,,,-- --- ---- --- ------ ----- ------- ---- -- --- ------- --<br>------- ---------- ------ -- ----- -- ----- to ---- ------<br>--- ----- --- --- ------ -------- ----- --- ------ ----- --<br>----- ----- ---------- --- --- ------ ------ ---- -- ------<br>------- --- ------ ----- --- ---- ------- -- ---- --- --<br>------- ------,140559.7649998963,140558.70500020683,140134.083,140136.21000014246,140150.753,140567.645,,19,to
screen,html.Screen,0_2_1_1_20,2021-10-22T11:44:37.850Z,,,,,,,,,,,,,,,,54,,,,,,,,,,,,,,375.04499993802165,,response,,,100,,,,,,Space,keypress(Space),,,,,-- --- ---- --- ------ ----- ------- ---- -- --- ------- --<br>------- ---------- ------ -- ----- -- ----- -- save ------<br>--- ----- --- --- ------ -------- ----- --- ------ ----- --<br>----- ----- ---------- --- --- ------ ------ ---- -- ------<br>------- --- ------ ----- --- ---- ------- -- ---- --- --<br>------- ------,140943.78999993205,140942.689999938,140550.974,140561.4749994129,140567.645,140951.01,,20,save
screen,html.Screen,0_2_1_1_21,2021-10-22T11:44:38.338Z,,,,,,,,,,,,,,,,54,,,,,,,,,,,,,,479.6599987500813,,response,,,100,,,,,,Space,keypress(Space),,,,,"-- --- ---- --- ------ ----- ------- ---- -- --- ------- --<br>------- ---------- ------ -- ----- -- ----- -- ---- money,<br>--- ----- --- --- ------ -------- ----- --- ------ ----- --<br>----- ----- ---------- --- --- ------ ------ ---- -- ------<br>------- --- ------ ----- --- ---- ------- -- ---- --- --<br>------- ------",141431.73999898136,141430.6699987501,140934.34,140944.129999727,140951.01,141451.118,,21,"money,"
screen,html.Screen,0_2_1_1_22,2021-10-22T11:44:38.890Z,,,,,,,,,,,,,,,,54,,,,,,,,,,,,,,531.5070001788263,,response,,,100,,,,,,Space,keypress(Space),,,,,-- --- ---- --- ------ ----- ------- ---- -- --- ------- --<br>------- ---------- ------ -- ----- -- ----- -- ---- ------<br>the ----- --- --- ------ -------- ----- --- ------ ----- --<br>----- ----- ---------- --- --- ------ ------ ---- -- ------<br>------- --- ------ ----- --- ---- ------- -- ---- --- --<br>------- ------,141983.69999974966,141982.6250001788,141417.778,141432.06499889493,141451.118,142001.305,,22,the
screen,html.Screen,0_2_1_1_23,2021-10-22T11:44:39.210Z,,,,,,,,,,,,,,,,54,,,,,,,,,,,,,,301.2999993932317,,response,,,100,,,,,,Space,keypress(Space),,,,,-- --- ---- --- ------ ----- ------- ---- -- --- ------- --<br>------- ---------- ------ -- ----- -- ----- -- ---- ------<br>--- state --- --- ------ -------- ----- --- ------ ----- --<br>----- ----- ---------- --- --- ------ ------ ---- -- ------<br>------- --- ------ ----- --- ---- ------- -- ---- --- --<br>------- ------,142303.6700002849,142302.60499939322,141984.634,141984.03500020504,142001.305,142317.945,,23,state
screen,html.Screen,0_2_1_1_24,2021-10-22T11:44:39.666Z,,,,,,,,,,,,,,,,54,,,,,,,,,,,,,,440.63499920844333,,response,,,100,,,,,,Space,keypress(Space),,,,,-- --- ---- --- ------ ----- ------- ---- -- --- ------- --<br>------- ---------- ------ -- ----- -- ----- -- ---- ------<br>--- ----- cut --- ------ -------- ----- --- ------ ----- --<br>----- ----- ---------- --- --- ------ ------ ---- -- ------<br>------- --- ------ ----- --- ---- ------- -- ---- --- --<br>------- ------,142759.6749998629,142758.57999920845,142301.276,142303.99999953806,142317.945,142768.173,,24,cut
screen,html.Screen,0_2_1_1_25,2021-10-22T11:44:40.650Z,,,,,,,,,,,,,,,,54,,,,,,,,,,,,,,974.2969999391935,,response,,,100,,,,,,Space,keypress(Space),,,,,-- --- ---- --- ------ ----- ------- ---- -- --- ------- --<br>------- ---------- ------ -- ----- -- ----- -- ---- ------<br>--- ----- --- the ------ -------- ----- --- ------ ----- --<br>----- ----- ---------- --- --- ------ ------ ---- -- ------<br>------- --- ------ ----- --- ---- ------- -- ---- --- --<br>------- ------,143743.59999969602,143742.4699999392,142751.502,142760.04499942064,142768.173,143751.685,,25,the
screen,html.Screen,0_2_1_1_26,2021-10-22T11:44:41.370Z,,,,,,,,,,,,,,,,54,,,,,,,,,,,,,,710.7450003051781,,response,,,100,,,,,,Space,keypress(Space),,,,,-- --- ---- --- ------ ----- ------- ---- -- --- ------- --<br>------- ---------- ------ -- ----- -- ----- -- ---- ------<br>--- ----- --- --- bonds' -------- ----- --- ------ ----- --<br>----- ----- ---------- --- --- ------ ------ ---- -- ------<br>------- --- ------ ----- --- ---- ------- -- ---- --- --<br>------- ------,144463.47999945283,144462.43000030518,143735.015,143743.93999949098,143751.685,144485.164,,26,bonds'
screen,html.Screen,0_2_1_1_27,2021-10-22T11:44:42.290Z,,,,,,,,,,,,,,,,54,,,,,,,,,,,,,,897.2009995029075,,response,,,100,,,,,,Space,keypress(Space),,,,,-- --- ---- --- ------ ----- ------- ---- -- --- ------- --<br>------- ---------- ------ -- ----- -- ----- -- ---- ------<br>--- ----- --- --- ------ interest ----- --- ------ ----- --<br>----- ----- ---------- --- --- ------ ------ ---- -- ------<br>------- --- ------ ----- --- ---- ------- -- ---- --- --<br>------- ------,145383.42499919236,145382.3649995029,144451.824,144463.8149999082,144485.164,145402.089,,27,interest
screen,html.Screen,0_2_1_1_28,2021-10-22T11:44:45.434Z,,,,,,,,,,,,,,,,54,,,,,,,,,,,,,,3124.635999770515,,response,,,100,,,,,,Space,keypress(Space),,,,,-- --- ---- --- ------ ----- ------- ---- -- --- ------- --<br>------- ---------- ------ -- ----- -- ----- -- ---- ------<br>--- ----- --- --- ------ -------- rate. --- ------ ----- --<br>----- ----- ---------- --- --- ------ ------ ---- -- ------<br>------- --- ------ ----- --- ---- ------- -- ---- --- --<br>------- ------,148527.8899986297,148526.72499977052,145368.749,145383.77000018954,145402.089,148536.07,,28,rate.
screen,html.Screen,0_2_1_1_29,2021-10-22T11:44:45.970Z,,,,,,,,,,,,,,,,54,,,,,,,,,,,,,,526.1199999678065,,response,,,100,,,,,,Space,keypress(Space),,,,,-- --- ---- --- ------ ----- ------- ---- -- --- ------- --<br>------- ---------- ------ -- ----- -- ----- -- ---- ------<br>--- ----- --- --- ------ -------- ----- The ------ ----- --<br>----- ----- ---------- --- --- ------ ------ ---- -- ------<br>------- --- ------ ----- --- ---- ------- -- ---- --- --<br>------- ------,149063.3749999106,149062.1899999678,148519.4,148528.22499908507,148536.07,149086.199,,29,The
screen,html.Screen,0_2_1_1_30,2021-10-22T11:44:46.642Z,,,,,,,,,,,,,,,,54,,,,,,,,,,,,,,647.7810000190802,,response,,,100,,,,,,Space,keypress(Space),,,,,-- --- ---- --- ------ ----- ------- ---- -- --- ------- --<br>------- ---------- ------ -- ----- -- ----- -- ---- ------<br>--- ----- --- --- ------ -------- ----- --- market ----- --<br>----- ----- ---------- --- --- ------ ------ ---- -- ------<br>------- --- ------ ----- --- ---- ------- -- ---- --- --<br>------- ------,149735.0599989295,149733.98000001907,149052.859,149063.70999850333,149086.199,149753.121,,30,market
screen,html.Screen,0_2_1_1_31,2021-10-22T11:44:47.154Z,,,,,,,,,,,,,,,,54,,,,,,,,,,,,,,492.97899917446193,,response,,,100,,,,,,Space,keypress(Space),,,,,-- --- ---- --- ------ ----- ------- ---- -- --- ------- --<br>------- ---------- ------ -- ----- -- ----- -- ---- ------<br>--- ----- --- --- ------ -------- ----- --- ------ value --<br>----- ----- ---------- --- --- ------ ------ ---- -- ------<br>------- --- ------ ----- --- ---- ------- -- ---- --- --<br>------- ------,150247.15499952435,150246.09999917448,149719.781,149735.3900000453,149753.121,150253.425,,31,value
screen,html.Screen,0_2_1_1_32,2021-10-22T11:44:47.554Z,,,,,,,,,,,,,,,,54,,,,,,,,,,,,,,392.65500032604905,,response,,,100,,,,,,Space,keypress(Space),,,,,-- --- ---- --- ------ ----- ------- ---- -- --- ------- --<br>------- ---------- ------ -- ----- -- ----- -- ---- ------<br>--- ----- --- --- ------ -------- ----- --- ------ ----- of<br>----- ----- ---------- --- --- ------ ------ ---- -- ------<br>------- --- ------ ----- --- ---- ------- -- ---- --- --<br>------- ------,150647.13499881327,150646.08000032604,150236.753,150247.48999997973,150253.425,150653.404,,32,of
screen,html.Screen,0_2_1_1_33,2021-10-22T11:44:47.986Z,,,,,,,,,,,,,,,,54,,,,,,,,,,,,,,424.6609986117983,,response,,,100,,,,,,Space,keypress(Space),,,,,-- --- ---- --- ------ ----- ------- ---- -- --- ------- --<br>------- ---------- ------ -- ----- -- ----- -- ---- ------<br>--- ----- --- --- ------ -------- ----- --- ------ ----- --<br>these ----- ---------- --- --- ------ ------ ---- -- ------<br>------- --- ------ ----- --- ---- ------- -- ---- --- --<br>------- ------,151079.26500029862,151078.0649986118,150636.734,150647.46499992907,150653.404,151086.898,,33,these
screen,html.Screen,0_2_1_1_34,2021-10-22T11:44:48.586Z,,,,,,,,,,,,,,,,54,,,,,,,,,,,,,,591.111999915971,,response,,,100,,,,,,Space,keypress(Space),,,,,-- --- ---- --- ------ ----- ------- ---- -- --- ------- --<br>------- ---------- ------ -- ----- -- ----- -- ---- ------<br>--- ----- --- --- ------ -------- ----- --- ------ ----- --<br>----- bonds ---------- --- --- ------ ------ ---- -- ------<br>------- --- ------ ----- --- ---- ------- -- ---- --- --<br>------- ------,151679.06999960542,151678.00999991596,151070.227,151079.5900002122,151086.898,151686.933,,34,bonds
screen,html.Screen,0_2_1_1_35,2021-10-22T11:44:49.657Z,,,,,,,,,,,,,,,,54,,,,,,,,,,,,,,1063.0219984932046,,response,,,100,,,,,,Space,keypress(Space),,,,,"-- --- ---- --- ------ ----- ------- ---- -- --- ------- --<br>------- ---------- ------ -- ----- -- ----- -- ---- ------<br>--- ----- --- --- ------ -------- ----- --- ------ ----- --<br>----- ----- plummeted, --- --- ------ ------ ---- -- ------<br>------- --- ------ ----- --- ---- ------- -- ---- --- --<br>------- ------",152751.02499872446,152749.9549984932,151670.264,151679.394999519,151686.933,152770.666,,35,"plummeted,"
screen,html.Screen,0_2_1_1_36,2021-10-22T11:44:50.313Z,,,,,,,,,,,,,,,,54,,,,,,,,,,,,,,635.0589985635306,,response,,,100,,,,,,Space,keypress(Space),,,,,-- --- ---- --- ------ ----- ------- ---- -- --- ------- --<br>------- ---------- ------ -- ----- -- ----- -- ---- ------<br>--- ----- --- --- ------ -------- ----- --- ------ ----- --<br>----- ----- ---------- and --- ------ ------ ---- -- ------<br>------- --- ------ ----- --- ---- ------- -- ---- --- --<br>------- ------,153406.8149998784,153405.72499856353,152737.324,152751.35999917984,152770.666,153420.76,,36,and
screen,html.Screen,0_2_1_1_37,2021-10-22T11:44:50.801Z,,,,,,,,,,,,,,,,54,,,,,,,,,,,,,,473.11499913572334,,response,,,100,,,,,,Space,keypress(Space),,,,,-- --- ---- --- ------ ----- ------- ---- -- --- ------- --<br>------- ---------- ------ -- ----- -- ----- -- ---- ------<br>--- ----- --- --- ------ -------- ----- --- ------ ----- --<br>----- ----- ---------- --- the ------ ------ ---- -- ------<br>------- --- ------ ----- --- ---- ------- -- ---- --- --<br>------- ------,153894.9299994856,153893.87499913573,153404.09,153407.13999979198,153420.76,153904.234,,37,the
screen,html.Screen,0_2_1_1_38,2021-10-22T11:44:51.441Z,,,,,,,,,,,,,,,,54,,,,,,,,,,,,,,629.5960000876221,,response,,,100,,,,,,Space,keypress(Space),,,,,-- --- ---- --- ------ ----- ------- ---- -- --- ------- --<br>------- ---------- ------ -- ----- -- ----- -- ---- ------<br>--- ----- --- --- ------ -------- ----- --- ------ ----- --<br>----- ----- ---------- --- --- market ------ ---- -- ------<br>------- --- ------ ----- --- ---- ------- -- ---- --- --<br>------- ------,154534.8749998957,154533.83000008762,153887.564,153895.25999873877,153904.234,154554.372,,38,market
screen,html.Screen,0_2_1_1_39,2021-10-22T11:44:52.034Z,,,,,,,,,,,,,,,,54,,,,,,,,,,,,,,571.4229993014305,,response,,,100,,,,,,Space,keypress(Space),,,,,-- --- ---- --- ------ ----- ------- ---- -- --- ------- --<br>------- ---------- ------ -- ----- -- ----- -- ---- ------<br>--- ----- --- --- ------ -------- ----- --- ------ ----- --<br>----- ----- ---------- --- --- ------ became ---- -- ------<br>------- --- ------ ----- --- ---- ------- -- ---- --- --<br>------- ------,155127.10000015795,155125.79499930143,154521.032,154535.20499914885,154554.372,155137.862,,39,became
screen,html.Screen,0_2_1_1_40,2021-10-22T11:44:52.945Z,,,,,,,,,,,,,,,,54,,,,,,,,,,,,,,899.9030000155035,,response,,,100,,,,,,Space,keypress(Space),,,,,-- --- ---- --- ------ ----- ------- ---- -- --- ------- --<br>------- ---------- ------ -- ----- -- ----- -- ---- ------<br>--- ----- --- --- ------ -------- ----- --- ------ ----- --<br>----- ----- ---------- --- --- ------ ------ wary -- ------<br>------- --- ------ ----- --- ---- ------- -- ---- --- --<br>------- ------,156038.96999917924,156037.7650000155,155121.192,155127.41499952972,155137.862,156054.582,,40,wary
screen,html.Screen,0_2_1_1_41,2021-10-22T11:44:53.553Z,,,,,,,,,,,,,,,,54,,,,,,,,,,,,,,591.1180002265028,,response,,,100,,,,,,Space,keypress(Space),,,,,-- --- ---- --- ------ ----- ------- ---- -- --- ------- --<br>------- ---------- ------ -- ----- -- ----- -- ---- ------<br>--- ----- --- --- ------ -------- ----- --- ------ ----- --<br>----- ----- ---------- --- --- ------ ------ ---- of ------<br>------- --- ------ ----- --- ---- ------- -- ---- --- --<br>------- ------,156646.77499979734,156645.7000002265,156037.913,156039.28999975324,156054.582,156654.91,,41,of
screen,html.Screen,0_2_1_1_42,2021-10-22T11:44:54.233Z,,,,,,,,,,,,,,,,54,,,,,,,,,,,,,,670.7450002843107,,response,,,100,,,,,,Space,keypress(Space),,,,,-- --- ---- --- ------ ----- ------- ---- -- --- ------- --<br>------- ---------- ------ -- ----- -- ----- -- ---- ------<br>--- ----- --- --- ------ -------- ----- --- ------ ----- --<br>----- ----- ---------- --- --- ------ ------ ---- -- French<br>------- --- ------ ----- --- ---- ------- -- ---- --- --<br>------- ------,157326.70499943197,157325.6550002843,156638.239,156647.0949985087,156654.91,157338.482,,42,French
screen,html.Screen,0_2_1_1_43,2021-10-22T11:44:55.169Z,,,,,,,,,,,,,,,,54,,,,,,,,,,,,,,923.1080002420058,,response,,,100,,,,,,Space,keypress(Space),,,,,-- --- ---- --- ------ ----- ------- ---- -- --- ------- --<br>------- ---------- ------ -- ----- -- ----- -- ---- ------<br>--- ----- --- --- ------ -------- ----- --- ------ ----- --<br>----- ----- ---------- --- --- ------ ------ ---- -- ------<br>credit. --- ------ ----- --- ---- ------- -- ---- --- --<br>------- ------,158262.77999952435,158261.590000242,157321.811,157327.01999880373,157338.482,158271.959,,43,credit.
screen,html.Screen,0_2_1_1_44,2021-10-22T11:44:55.761Z,,,,,,,,,,,,,,,,54,,,,,,,,,,,,,,581.9909994367335,,response,,,100,,,,,,Space,keypress(Space),,,,,-- --- ---- --- ------ ----- ------- ---- -- --- ------- --<br>------- ---------- ------ -- ----- -- ----- -- ---- ------<br>--- ----- --- --- ------ -------- ----- --- ------ ----- --<br>----- ----- ---------- --- --- ------ ------ ---- -- ------<br>------- The ------ ----- --- ---- ------- -- ---- --- --<br>------- ------,158854.98999990523,158853.94999943674,158255.289,158263.09499889612,158271.959,158872.101,,44,The
screen,html.Screen,0_2_1_1_45,2021-10-22T11:44:56.281Z,,,,,,,,,,,,,,,,54,,,,,,,,,,,,,,501.4189999064256,,response,,,100,,,,,,Space,keypress(Space),,,,,-- --- ---- --- ------ ----- ------- ---- -- --- ------- --<br>------- ---------- ------ -- ----- -- ----- -- ---- ------<br>--- ----- --- --- ------ -------- ----- --- ------ ----- --<br>----- ----- ---------- --- --- ------ ------ ---- -- ------<br>------- --- French ----- --- ---- ------- -- ---- --- --<br>------- ------,159374.5750002563,159373.51999990642,158855.431,158855.29999993742,158872.101,159388.921,,45,French
screen,html.Screen,0_2_1_1_46,2021-10-22T11:44:56.673Z,,,,,,,,,,,,,,,,54,,,,,,,,,,,,,,376.5839990862587,,response,,,100,,,,,,Space,keypress(Space),,,,,-- --- ---- --- ------ ----- ------- ---- -- --- ------- --<br>------- ---------- ------ -- ----- -- ----- -- ---- ------<br>--- ----- --- --- ------ -------- ----- --- ------ ----- --<br>----- ----- ---------- --- --- ------ ------ ---- -- ------<br>------- --- ------ state --- ---- ------- -- ---- --- --<br>------- ------,159766.55500009656,159765.50499908626,159372.251,159374.89499896765,159388.921,159789.026,,46,state
screen,html.Screen,0_2_1_1_47,2021-10-22T11:44:57.305Z,,,,,,,,,,,,,,,,54,,,,,,,,,,,,,,608.4289993872517,,response,,,100,,,,,,Space,keypress(Space),,,,,-- --- ---- --- ------ ----- ------- ---- -- --- ------- --<br>------- ---------- ------ -- ----- -- ----- -- ---- ------<br>--- ----- --- --- ------ -------- ----- --- ------ ----- --<br>----- ----- ---------- --- --- ------ ------ ---- -- ------<br>------- --- ------ ----- was ---- ------- -- ---- --- --<br>------- ------,160398.50499853492,160397.45499938726,159755.686,159766.8749988079,159789.026,160405.89,,47,was
screen,html.Screen,0_2_1_1_48,2021-10-22T11:44:58.025Z,,,,,,,,,,,,,,,,54,,,,,,,,,,,,,,711.509999871836,,response,,,100,,,,,,Space,keypress(Space),,,,,-- --- ---- --- ------ ----- ------- ---- -- --- ------- --<br>------- ---------- ------ -- ----- -- ----- -- ---- ------<br>--- ----- --- --- ------ -------- ----- --- ------ ----- --<br>----- ----- ---------- --- --- ------ ------ ---- -- ------<br>------- --- ------ ----- --- left ------- -- ---- --- --<br>------- ------,161118.61000023782,161117.39999987185,160389.219,160398.83000031114,160405.89,161139.241,,48,left
screen,html.Screen,0_2_1_1_49,2021-10-22T11:44:58.745Z,,,,,,,,,,,,,,,,54,,,,,,,,,,,,,,698.1289989169745,,response,,,100,,,,,,Space,keypress(Space),,,,,-- --- ---- --- ------ ----- ------- ---- -- --- ------- --<br>------- ---------- ------ -- ----- -- ----- -- ---- ------<br>--- ----- --- --- ------ -------- ----- --- ------ ----- --<br>----- ----- ---------- --- --- ------ ------ ---- -- ------<br>------- --- ------ ----- --- ---- without -- ---- --- --<br>------- ------,161838.44999969006,161837.36999891698,161105.903,161118.9350001514,161139.241,161856.265,,49,without
screen,html.Screen,0_2_1_1_50,2021-10-22T11:44:59.137Z,,,,,,,,,,,,,,,,54,,,,,,,,,,,,,,373.0349997734884,,response,,,100,,,,,,Space,keypress(Space),,,,,-- --- ---- --- ------ ----- ------- ---- -- --- ------- --<br>------- ---------- ------ -- ----- -- ----- -- ---- ------<br>--- ----- --- --- ------ -------- ----- --- ------ ----- --<br>----- ----- ---------- --- --- ------ ------ ---- -- ------<br>------- --- ------ ----- --- ---- ------- an ---- --- --<br>------- ------,162230.4950002581,162229.2999997735,161839.594,161838.77499960363,161856.265,162239.621,,50,an
screen,html.Screen,0_2_1_1_51,2021-10-22T11:44:59.553Z,,,,,,,,,,,,,,,,54,,,,,,,,,,,,,,405.5639993318182,,response,,,100,,,,,,Space,keypress(Space),,,,,-- --- ---- --- ------ ----- ------- ---- -- --- ------- --<br>------- ---------- ------ -- ----- -- ----- -- ---- ------<br>--- ----- --- --- ------ -------- ----- --- ------ ----- --<br>----- ----- ---------- --- --- ------ ------ ---- -- ------<br>------- --- ------ ----- --- ---- ------- -- easy --- --<br>------- ------,162646.2299991399,162645.18499933183,162222.951,162230.81499896944,162239.621,162656.405,,51,easy
screen,html.Screen,0_2_1_1_52,2021-10-22T11:44:59.969Z,,,,,,,,,,,,,,,,54,,,,,,,,,,,,,,404.8399999898684,,response,,,100,,,,,,Space,keypress(Space),,,,,-- --- ---- --- ------ ----- ------- ---- -- --- ------- --<br>------- ---------- ------ -- ----- -- ----- -- ---- ------<br>--- ----- --- --- ------ -------- ----- --- ------ ----- --<br>----- ----- ---------- --- --- ------ ------ ---- -- ------<br>------- --- ------ ----- --- ---- ------- -- ---- way --<br>------- ------,163062.43499927223,163061.24499998987,162639.735,162646.5499997139,162656.405,163073.173,,52,way
screen,html.Screen,0_2_1_1_53,2021-10-22T11:45:00.409Z,,,,,,,,,,,,,,,,54,,,,,,,,,,,,,,427.98200017999625,,response,,,100,,,,,,Space,keypress(Space),,,,,-- --- ---- --- ------ ----- ------- ---- -- --- ------- --<br>------- ---------- ------ -- ----- -- ----- -- ---- ------<br>--- ----- --- --- ------ -------- ----- --- ------ ----- --<br>----- ----- ---------- --- --- ------ ------ ---- -- ------<br>------- --- ------ ----- --- ---- ------- -- ---- --- of<br>------- ------,163502.19999998808,163501.15500018,163056.503,163062.75499984622,163073.173,163523.283,,53,of
screen,html.Screen,0_2_1_1_54,2021-10-22T11:45:00.889Z,,,,,,,,,,,,,,,,54,,,,,,,,,,,,,,457.8819993062061,,response,,,100,,,,,,Space,keypress(Space),,,,,-- --- ---- --- ------ ----- ------- ---- -- --- ------- --<br>------- ---------- ------ -- ----- -- ----- -- ---- ------<br>--- ----- --- --- ------ -------- ----- --- ------ ----- --<br>----- ----- ---------- --- --- ------ ------ ---- -- ------<br>------- --- ------ ----- --- ---- ------- -- ---- --- --<br>raising ------,163982.2049997747,163981.1649993062,163489.943,163502.51999869943,163523.283,163990.108,,54,raising
screen,html.Screen,0_2_1_1_55,2021-10-22T11:45:01.257Z,,,,,,,,,,,,,,,,54,,,,,,,,,,,,,,359.046999479644,,response,,,100,,,,,,Space,keypress(Space),,,,,-- --- ---- --- ------ ----- ------- ---- -- --- ------- --<br>------- ---------- ------ -- ----- -- ----- -- ---- ------<br>--- ----- --- --- ------ -------- ----- --- ------ ----- --<br>----- ----- ---------- --- --- ------ ------ ---- -- ------<br>------- --- ------ ----- --- ---- ------- -- ---- --- --<br>------- money.,164350.2049986273,164349.15499947965,163973.437,163982.51499980688,163990.108,164373.493,,55,money.
Item 100,flow.Loop,0_2_1_1,2021-10-22T11:45:01.262Z,,,,,,,,,,,,,,,,,,,,,,,,,,,,,,40385.82199947965,,completion,,,,F,,,,,,,,,,silence,,164355.33499903977,164349.15499947965,123946.663,123948.23000021279,123963.333,164373.493,,,
Question 1,html.Screen,0_2_1_2,2021-10-22T11:45:08.125Z,,,,,,,,,,,,,,,,,,,,,,,,,,,true,TRUE,,6843.206998825801,,response,,,100,F,,,,,TRUE,click #choice-1,,,,silence,,171218.39500032365,171216.6999988258,164340.153,164355.65000027418,164373.493,171258.533,,,
Question 2,html.Screen,0_2_1_3,2021-10-22T11:45:12.483Z,,,,,,,,,,,,,,,,,,,,,,,,,,,true,FALSE,,4316.052000053052,,response,,,100,F,,,,,FALSE,click #choice-2,,,,silence,,175576.13999955356,175574.58500005305,171208.523,171218.8299987465,171258.533,175592.938,,,
Item 100,flow.Sequence,0_2_1,2021-10-22T11:45:12.483Z,,,,,,,,,,,,,,,,,,,,,,,,,,,,,,61613.62100005304,,completion,,,,,,,,,,,,,,,,175576.71999931335,175574.58500005305,113927.626,113932.38499946892,113960.964,175592.938,,,
End of Practice,html.Page,0_2_2,2021-10-22T11:45:17.862Z,,,,,,,,,,,,,,,,,,,,,,,,,,,,,,5362.026999109512,,form submission,,,,,,,,,,,,,,,,180955.58999851346,180954.9649991095,175559.598,175576.96999982,175592.938,180977.581,,,
Practice,flow.Sequence,0_2,2021-10-22T11:45:17.863Z,,,,,,,,,,,,,,,,,,,,,,,,,,,,,,129793.0059991095,,completion,,,,,,,,,,,,,,,,180956.21499978006,180954.9649991095,51128.619,51132.95999914408,51161.959,180977.581,,,
Trap_instruction,html.Page,0_3_0,2021-10-22T11:45:19.429Z,,,,,,,,,,,,,,,,,,,,,,,,,,,,,,1541.174000084633,,form submission,,,,,,,,,,,,,,,,182519.29000020027,182518.75500008464,180944.241,180956.66499994695,180977.581,182560.645,,,
trap_trial,html.Screen,0_3_1,2021-10-22T11:45:27.142Z,,,,,,,,,,,,,,,,,,,,,,,,,,,true,1,,7670.534999187599,,response,,,,,,,,,1,click #choice-1,,,,,,190232.4999999255,190231.1799991876,182510.656,182519.659999758,182560.645,190246.247,,,
end of trap trial,html.Page,0_3_2,2021-10-22T11:45:29.951Z,,,,,,,,,,,,,,,,,,,,,,,,,,,,,,2794.87799952316,,form submission,,,,,,,,,,,,,,,,193041.6599996388,193041.12499952316,190229.577,190232.6250001788,190246.247,193063.931,,,
Trap 1,flow.Sequence,0_3,2021-10-22T11:45:29.952Z,,,,,,,,,,,,,,,,,,,,,,,,,,,,,,12063.543999523157,,completion,,,,,,,,,,,,,,,,193042.12999902666,193041.12499952316,180944.241,180956.52499981225,180977.581,193063.931,,,
Standby,html.Page,0_4_0,2021-10-22T11:45:37.962Z,,,,,,,,,,,,,,,,,,,,,,,,,,,,,,8003.114000000001,,timeout,,,,,,,,,,,,,,,,201052.41500027478,201050.372,193030.591,193042.47500002384,193063.931,201067.045,,,
Holding screen,html.Screen,0_4_1_0_0,2021-10-22T11:45:44.962Z,,,,,,,,,,,,,,,,,,,,,,,,,,,,,,7000.585999999981,,timeout,,,,,,,,,,,,,,,,208052.69999988377,208050.961,201050.372,201053.02499979734,201067.045,208067.631,,,
screen,html.Screen,0_4_1_0_1_0,2021-10-22T11:45:48.841Z,,,,,,,,,,,,,,,,51,,,,,,,,,,,,,,3862.538999599463,,response,,,13,F,,,,,Space,keypress(Space),,,,instrumental,American -------- --- --- ---- --- --- ------ -- --------<br>---- --------- --- ------- ------------ ---------- ---------<br>--- ---------- ------- ---------- ------- -- -------- ----<br>---- --- ------ ----- ------ -- ---- --- ----- -- - -------<br>-------- -- --- --- -- ----- ----------- ----- -----------<br>---- --- ---------- --- ---- --- -- ----------,211931.49999901652,211930.16999959946,208050.961,208053.18499915302,208067.631,211952.036,,0,American
screen,html.Screen,0_4_1_0_1_1,2021-10-22T11:45:49.801Z,,,,,,,,,,,,,,,,51,,,,,,,,,,,,,,938.0889989867283,,response,,,13,F,,,,,Space,keypress(Space),,,,instrumental,-------- industry --- --- ---- --- --- ------ -- --------<br>---- --------- --- ------- ------------ ---------- ---------<br>--- ---------- ------- ---------- ------- -- -------- ----<br>---- --- ------ ----- ------ -- ---- --- ----- -- - -------<br>-------- -- --- --- -- ----- ----------- ----- -----------<br>---- --- ---------- --- ---- --- -- ----------,212891.22499898076,212890.12499898672,211918.694,211931.93499930203,211952.036,212902.008,,1,industry
screen,html.Screen,0_4_1_0_1_2,2021-10-22T11:45:50.449Z,,,,,,,,,,,,,,,,51,,,,,,,,,,,,,,636.0269997431024,,response,,,13,F,,,,,Space,keypress(Space),,,,instrumental,-------- -------- may --- ---- --- --- ------ -- --------<br>---- --------- --- ------- ------------ ---------- ---------<br>--- ---------- ------- ---------- ------- -- -------- ----<br>---- --- ------ ----- ------ -- ---- --- ----- -- - -------<br>-------- -- --- --- -- ----- ----------- ----- -----------<br>---- --- ---------- --- ---- --- -- ----------,213539.08499889076,213538.0349997431,212885.338,212891.53499901295,212902.008,213552.335,,2,may
screen,html.Screen,0_4_1_0_1_3,2021-10-22T11:45:51.369Z,,,,,,,,,,,,,,,,51,,,,,,,,,,,,,,905.6899991268001,,response,,,13,F,,,,,Space,keypress(Space),,,,instrumental,-------- -------- --- not ---- --- --- ------ -- --------<br>---- --------- --- ------- ------------ ---------- ---------<br>--- ---------- ------- ---------- ------- -- -------- ----<br>---- --- ------ ----- ------ -- ---- --- ----- -- - -------<br>-------- -- --- --- -- ----- ----------- ----- -----------<br>---- --- ---------- --- ---- --- -- ----------,214459.09000001848,214458.0249991268,213535.665,213539.40000012517,213552.335,214469.361,,3,not
screen,html.Screen,0_4_1_0_1_4,2021-10-22T11:45:52.177Z,,,,,,,,,,,,,,,,51,,,,,,,,,,,,,,796.5440002694086,,response,,,13,F,,,,,Space,keypress(Space),,,,instrumental,-------- -------- --- --- know --- --- ------ -- --------<br>---- --------- --- ------- ------------ ---------- ---------<br>--- ---------- ------- ---------- ------- -- -------- ----<br>---- --- ------ ----- ------ -- ---- --- ----- -- - -------<br>-------- -- --- --- -- ----- ----------- ----- -----------<br>---- --- ---------- --- ---- --- -- ----------,215267.11999997497,215265.9050002694,214452.69,214459.38999950886,214469.361,215286.144,,4,know
screen,html.Screen,0_4_1_0_1_5,2021-10-22T11:45:53.337Z,,,,,,,,,,,,,,,,51,,,,,,,,,,,,,,1139.7609985557792,,response,,,13,F,,,,,Space,keypress(Space),,,,instrumental,"-------- -------- --- --- ---- it, --- ------ -- --------<br>---- --------- --- ------- ------------ ---------- ---------<br>--- ---------- ------- ---------- ------- -- -------- ----<br>---- --- ------ ----- ------ -- ---- --- ----- -- - -------<br>-------- -- --- --- -- ----- ----------- ----- -----------<br>---- --- ---------- --- ---- --- -- ----------",216427.1050002426,216425.90499855578,215252.804,215267.43499934673,215286.144,216436.419,,5,"it,"
screen,html.Screen,0_4_1_0_1_6,2021-10-22T11:45:53.953Z,,,,,,,,,,,,,,,,51,,,,,,,,,,,,,,605.4359999594744,,response,,,13,F,,,,,Space,keypress(Space),,,,instrumental,-------- -------- --- --- ---- --- but ------ -- --------<br>---- --------- --- ------- ------------ ---------- ---------<br>--- ---------- ------- ---------- ------- -- -------- ----<br>---- --- ------ ----- ------ -- ---- --- ----- -- - -------<br>-------- -- --- --- -- ----- ----------- ----- -----------<br>---- --- ---------- --- ---- --- -- ----------,217043.04499924183,217041.85499995947,216419.749,216427.41500027478,216436.419,217053.264,,6,but
screen,html.Screen,0_4_1_0_1_7,2021-10-22T11:45:54.656Z,,,,,,,,,,,,,,,,51,,,,,,,,,,,,,,692.4060000911995,,response,,,13,F,,,,,Space,keypress(Space),,,,instrumental,-------- -------- --- --- ---- --- --- debate -- --------<br>---- --------- --- ------- ------------ ---------- ---------<br>--- ---------- ------- ---------- ------- -- -------- ----<br>---- --- ------ ----- ------ -- ---- --- ----- -- - -------<br>-------- -- --- --- -- ----- ----------- ----- -----------<br>---- --- ---------- --- ---- --- -- ----------,217746.74499966204,217745.6700000912,217036.594,217043.3849990368,217053.264,217753.433,,7,debate
screen,html.Screen,0_4_1_0_1_8,2021-10-22T11:45:55.073Z,,,,,,,,,,,,,,,,51,,,,,,,,,,,,,,408.35199907256174,,response,,,13,F,,,,,Space,keypress(Space),,,,instrumental,-------- -------- --- --- ---- --- --- ------ in --------<br>---- --------- --- ------- ------------ ---------- ---------<br>--- ---------- ------- ---------- ------- -- -------- ----<br>---- --- ------ ----- ------ -- ---- --- ----- -- - -------<br>-------- -- --- --- -- ----- ----------- ----- -----------<br>---- --- ---------- --- ---- --- -- ----------,218163.00499998033,218161.78499907255,217736.763,217747.05499969423,217753.433,218170.221,,8,in
screen,html.Screen,0_4_1_0_1_9,2021-10-22T11:45:56.025Z,,,,,,,,,,,,,,,,51,,,,,,,,,,,,,,943.463998825202,,response,,,13,F,,,,,Space,keypress(Space),,,,instrumental,-------- -------- --- --- ---- --- --- ------ -- Congress<br>---- --------- --- ------- ------------ ---------- ---------<br>--- ---------- ------- ---------- ------- -- -------- ----<br>---- --- ------ ----- ------ -- ---- --- ----- -- - -------<br>-------- -- --- --- -- ----- ----------- ----- -----------<br>---- --- ---------- --- ---- --- -- ----------,219114.79999870062,219113.6849988252,218153.551,218163.32499869168,218170.221,219137.108,,9,Congress
screen,html.Screen,0_4_1_0_1_10,2021-10-22T11:45:56.656Z,,,,,,,,,,,,,,,,51,,,,,,,,,,,,,,608.5019987029955,,response,,,13,F,,,,,Space,keypress(Space),,,,instrumental,-------- -------- --- --- ---- --- --- ------ -- --------<br>over --------- --- ------- ------------ ---------- ---------<br>--- ---------- ------- ---------- ------- -- -------- ----<br>---- --- ------ ----- ------ -- ---- --- ----- -- - -------<br>-------- -- --- --- -- ----- ----------- ----- -----------<br>---- --- ---------- --- ---- --- -- ----------,219746.66499905288,219745.609998703,219103.768,219115.1099987328,219137.108,219753.701,,10,over
screen,html.Screen,0_4_1_0_1_11,2021-10-22T11:45:57.537Z,,,,,,,,,,,,,,,,51,,,,,,,,,,,,,,871.9339999457588,,response,,,13,F,,,,,Space,keypress(Space),,,,instrumental,-------- -------- --- --- ---- --- --- ------ -- --------<br>---- reforming --- ------- ------------ ---------- ---------<br>--- ---------- ------- ---------- ------- -- -------- ----<br>---- --- ------ ----- ------ -- ---- --- ----- -- - -------<br>-------- -- --- --- -- ----- ----------- ----- -----------<br>---- --- ---------- --- ---- --- -- ----------,220626.80500000715,220625.63499994576,219737.033,219746.97499908507,219753.701,220637.439,,11,reforming
screen,html.Screen,0_4_1_0_1_12,2021-10-22T11:45:58.145Z,,,,,,,,,,,,,,,,51,,,,,,,,,,,,,,596.5909990028013,,response,,,13,F,,,,,Space,keypress(Space),,,,instrumental,-------- -------- --- --- ---- --- --- ------ -- --------<br>---- --------- the ------- ------------ ---------- ---------<br>--- ---------- ------- ---------- ------- -- -------- ----<br>---- --- ------ ----- ------ -- ---- --- ----- -- - -------<br>-------- -- --- --- -- ----- ----------- ----- -----------<br>---- --- ---------- --- ---- --- -- ----------,221235.08999869227,221234.0299990028,220620.769,220627.1099988371,220637.439,221254.386,,12,the
screen,html.Screen,0_4_1_0_1_13,2021-10-22T11:45:58.952Z,,,,,,,,,,,,,,,,51,,,,,,,,,,,,,,787.1489993854775,,response,,,13,F,,,,,Space,keypress(Space),,,,instrumental,-------- -------- --- --- ---- --- --- ------ -- --------<br>---- --------- --- federal ------------ ---------- ---------<br>--- ---------- ------- ---------- ------- -- -------- ----<br>---- --- ------ ----- ------ -- ---- --- ----- -- - -------<br>-------- -- --- --- -- ----- ----------- ----- -----------<br>---- --- ---------- --- ---- --- -- ----------,222042.74999909103,222041.53499938548,221221.044,221235.40999926627,221254.386,222054.441,,13,federal
screen,html.Screen,0_4_1_0_1_14,2021-10-22T11:45:59.776Z,,,,,,,,,,,,,,,,51,,,,,,,,,,,,,,810.9839999672258,,response,,,13,F,,,,,Space,keypress(Space),,,,instrumental,-------- -------- --- --- ---- --- --- ------ -- --------<br>---- --------- --- ------- government's ---------- ---------<br>--- ---------- ------- ---------- ------- -- -------- ----<br>---- --- ------ ----- ------ -- ---- --- ----- -- - -------<br>-------- -- --- --- -- ----- ----------- ----- -----------<br>---- --- ---------- --- ---- --- -- ----------,222866.51499941945,222865.42499996722,222037.771,222043.05999912322,222054.441,222888.108,,14,government's
screen,html.Screen,0_4_1_0_1_15,2021-10-22T11:46:00.664Z,,,,,,,,,,,,,,,,51,,,,,,,,,,,,,,865.2069998634979,,response,,,13,F,,,,,Space,keypress(Space),,,,instrumental,-------- -------- --- --- ---- --- --- ------ -- --------<br>---- --------- --- ------- ------------ regulatory ---------<br>--- ---------- ------- ---------- ------- -- -------- ----<br>---- --- ------ ----- ------ -- ---- --- ----- -- - -------<br>-------- -- --- --- -- ----- ----------- ----- -----------<br>---- --- ---------- --- ---- --- -- ----------,223754.37000021338,223753.3149998635,222854.766,222866.8449986726,222888.108,223771.587,,15,regulatory
screen,html.Screen,0_4_1_0_1_16,2021-10-22T11:46:01.680Z,,,,,,,,,,,,,,,,51,,,,,,,,,,,,,,997.7779996072059,,response,,,13,F,,,,,Space,keypress(Space),,,,instrumental,-------- -------- --- --- ---- --- --- ------ -- --------<br>---- --------- --- ------- ------------ ---------- apparatus<br>--- ---------- ------- ---------- ------- -- -------- ----<br>---- --- ------ ----- ------ -- ---- --- ----- -- - -------<br>-------- -- --- --- -- ----- ----------- ----- -----------<br>---- --- ---------- --- ---- --- -- ----------,224770.39999887347,224769.3649996072,223754.917,223754.67499904335,223771.587,224788.465,,16,apparatus
screen,html.Screen,0_4_1_0_1_17,2021-10-22T11:46:02.256Z,,,,,,,,,,,,,,,,51,,,,,,,,,,,,,,556.7949998563563,,response,,,13,F,,,,,Space,keypress(Space),,,,instrumental,-------- -------- --- --- ---- --- --- ------ -- --------<br>---- --------- --- ------- ------------ ---------- ---------<br>may ---------- ------- ---------- ------- -- -------- ----<br>---- --- ------ ----- ------ -- ---- --- ----- -- - -------<br>-------- -- --- --- -- ----- ----------- ----- -----------<br>---- --- ---------- --- ---- --- -- ----------,225346.309999004,225345.25999985635,224755.125,224770.71999944746,224788.465,225355.377,,17,may
screen,html.Screen,0_4_1_0_1_18,2021-10-22T11:46:03.040Z,,,,,,,,,,,,,,,,51,,,,,,,,,,,,,,773.9029990624113,,response,,,13,F,,,,,Space,keypress(Space),,,,instrumental,-------- -------- --- --- ---- --- --- ------ -- --------<br>---- --------- --- ------- ------------ ---------- ---------<br>--- profoundly ------- ---------- ------- -- -------- ----<br>---- --- ------ ----- ------ -- ---- --- ----- -- - -------<br>-------- -- --- --- -- ----- ----------- ----- -----------<br>---- --- ---------- --- ---- --- -- ----------,226130.4649990052,226129.27999906242,225338.706,225346.62500023842,225355.377,226138.84,,18,profoundly
screen,html.Screen,0_4_1_0_1_19,2021-10-22T11:46:03.720Z,,,,,,,,,,,,,,,,51,,,,,,,,,,,,,,670.4000003224646,,response,,,13,F,,,,,Space,keypress(Space),,,,instrumental,-------- -------- --- --- ---- --- --- ------ -- --------<br>---- --------- --- ------- ------------ ---------- ---------<br>--- ---------- improve ---------- ------- -- -------- ----<br>---- --- ------ ----- ------ -- ---- --- ----- -- - -------<br>-------- -- --- --- -- ----- ----------- ----- -----------<br>---- --- ---------- --- ---- --- -- ----------,226810.28500013053,226809.24000032246,226122.17,226130.7800002396,226138.84,226822.219,,19,improve
screen,html.Screen,0_4_1_0_1_20,2021-10-22T11:46:05.232Z,,,,,,,,,,,,,,,,51,,,,,,,,,,,,,,1498.9209987339855,,response,,,13,F,,,,,Space,keypress(Space),,,,instrumental,-------- -------- --- --- ---- --- --- ------ -- --------<br>---- --------- --- ------- ------------ ---------- ---------<br>--- ---------- ------- companies' ------- -- -------- ----<br>---- --- ------ ----- ------ -- ---- --- ----- -- - -------<br>-------- -- --- --- -- ----- ----------- ----- -----------<br>---- --- ---------- --- ---- --- -- ----------,228322.18499854207,228321.139998734,226805.55,226810.5899989605,226822.219,228339.491,,20,companies'
screen,html.Screen,0_4_1_0_1_21,2021-10-22T11:46:05.952Z,,,,,,,,,,,,,,,,51,,,,,,,,,,,,,,701.6089990999608,,response,,,13,F,,,,,Space,keypress(Space),,,,instrumental,-------- -------- --- --- ---- --- --- ------ -- --------<br>---- --------- --- ------- ------------ ---------- ---------<br>--- ---------- ------- ---------- ability -- -------- ----<br>---- --- ------ ----- ------ -- ---- --- ----- -- - -------<br>-------- -- --- --- -- ----- ----------- ----- -----------<br>---- --- ---------- --- ---- --- -- ----------,229042.27999970317,229041.09999909997,228322.82,228322.50499911606,228339.491,229056.202,,21,ability
screen,html.Screen,0_4_1_0_1_22,2021-10-22T11:46:06.504Z,,,,,,,,,,,,,,,,51,,,,,,,,,,,,,,536.7280002753832,,response,,,13,F,,,,,Space,keypress(Space),,,,instrumental,-------- -------- --- --- ---- --- --- ------ -- --------<br>---- --------- --- ------- ------------ ---------- ---------<br>--- ---------- ------- ---------- ------- to -------- ----<br>---- --- ------ ----- ------ -- ---- --- ----- -- - -------<br>-------- -- --- --- -- ----- ----------- ----- -----------<br>---- --- ---------- --- ---- --- -- ----------,229593.98999996483,229592.93000027537,229039.532,229042.61500015855,229056.202,229606.31,,22,to
screen,html.Screen,0_4_1_0_1_23,2021-10-22T11:46:08.160Z,,,,,,,,,,,,,,,,51,,,,,,,,,,,,,,1643.0499988520169,,response,,,13,F,,,,,Space,keypress(Space),,,,instrumental,-------- -------- --- --- ---- --- --- ------ -- --------<br>---- --------- --- ------- ------------ ---------- ---------<br>--- ---------- ------- ---------- ------- -- survive. ----<br>---- --- ------ ----- ------ -- ---- --- ----- -- - -------<br>-------- -- --- --- -- ----- ----------- ----- -----------<br>---- --- ---------- --- ---- --- -- ----------,231250.54999999702,231249.359998852,229589.64,229594.29999999702,229606.31,231256.812,,23,survive.
screen,html.Screen,0_4_1_0_1_24,2021-10-22T11:46:08.496Z,,,,,,,,,,,,,,,,51,,,,,,,,,,,,,,327.9729994897789,,response,,,13,F,,,,,Space,keypress(Space),,,,instrumental,-------- -------- --- --- ---- --- --- ------ -- --------<br>---- --------- --- ------- ------------ ---------- ---------<br>--- ---------- ------- ---------- ------- -- -------- This<br>---- --- ------ ----- ------ -- ---- --- ----- -- - -------<br>-------- -- --- --- -- ----- ----------- ----- -----------<br>---- --- ---------- --- ---- --- -- ----------,231585.8100000769,231584.78499948978,231240.141,231250.8600000292,231256.812,231606.849,,24,This
screen,html.Screen,0_4_1_0_1_25,2021-10-22T11:46:08.976Z,,,,,,,,,,,,,,,,51,,,,,,,,,,,,,,458.0610001901514,,response,,,13,F,,,,,Space,keypress(Space),,,,instrumental,-------- -------- --- --- ---- --- --- ------ -- --------<br>---- --------- --- ------- ------------ ---------- ---------<br>--- ---------- ------- ---------- ------- -- -------- ----<br>week --- ------ ----- ------ -- ---- --- ----- -- - -------<br>-------- -- --- --- -- ----- ----------- ----- -----------<br>---- --- ---------- --- ---- --- -- ----------,232066.0849995911,232064.91000019014,231573.509,231586.12499944866,231606.849,232073.73,,25,week
screen,html.Screen,0_4_1_0_1_26,2021-10-22T11:46:09.408Z,,,,,,,,,,,,,,,,51,,,,,,,,,,,,,,423.0199990016117,,response,,,13,F,,,,,Space,keypress(Space),,,,instrumental,-------- -------- --- --- ---- --- --- ------ -- --------<br>---- --------- --- ------- ------------ ---------- ---------<br>--- ---------- ------- ---------- ------- -- -------- ----<br>---- the ------ ----- ------ -- ---- --- ----- -- - -------<br>-------- -- --- --- -- ----- ----------- ----- -----------<br>---- --- ---------- --- ---- --- -- ----------,232497.78999947011,232496.74999900162,232057.059,232066.3949996233,232073.73,232506.918,,26,the
screen,html.Screen,0_4_1_0_1_27,2021-10-22T11:46:10.431Z,,,,,,,,,,,,,,,,51,,,,,,,,,,,,,,1013.7519986010739,,response,,,13,F,,,,,Space,keypress(Space),,,,instrumental,-------- -------- --- --- ---- --- --- ------ -- --------<br>---- --------- --- ------- ------------ ---------- ---------<br>--- ---------- ------- ---------- ------- -- -------- ----<br>---- --- Senate ----- ------ -- ---- --- ----- -- - -------<br>-------- -- --- --- -- ----- ----------- ----- -----------<br>---- --- ---------- --- ---- --- -- ----------,233521.7150002718,233520.66999860108,232490.251,232498.09500016272,232506.918,233540.841,,27,Senate
screen,html.Screen,0_4_1_0_1_28,2021-10-22T11:46:11.112Z,,,,,,,,,,,,,,,,51,,,,,,,,,,,,,,659.9289999958419,,response,,,13,F,,,,,Space,keypress(Space),,,,instrumental,-------- -------- --- --- ---- --- --- ------ -- --------<br>---- --------- --- ------- ------------ ---------- ---------<br>--- ---------- ------- ---------- ------- -- -------- ----<br>---- --- ------ seems ------ -- ---- --- ----- -- - -------<br>-------- -- --- --- -- ----- ----------- ----- -----------<br>---- --- ---------- --- ---- --- -- ----------,234201.97499915957,234200.76999999583,233507.497,233522.01999910176,233540.841,234224.2,,28,seems
screen,html.Screen,0_4_1_0_1_29,2021-10-22T11:46:12.112Z,,,,,,,,,,,,,,,,51,,,,,,,,,,,,,,976.4999999284628,,response,,,13,F,,,,,Space,keypress(Space),,,,instrumental,-------- -------- --- --- ---- --- --- ------ -- --------<br>---- --------- --- ------- ------------ ---------- ---------<br>--- ---------- ------- ---------- ------- -- -------- ----<br>---- --- ------ ----- poised -- ---- --- ----- -- - -------<br>-------- -- --- --- -- ----- ----------- ----- -----------<br>---- --- ---------- --- ---- --- -- ----------,235201.9199989736,235200.69999992847,234190.86,234202.28999853134,234224.2,235224.433,,29,poised
screen,html.Screen,0_4_1_0_1_30,2021-10-22T11:46:12.647Z,,,,,,,,,,,,,,,,51,,,,,,,,,,,,,,512.2369986159902,,response,,,13,F,,,,,Space,keypress(Space),,,,instrumental,-------- -------- --- --- ---- --- --- ------ -- --------<br>---- --------- --- ------- ------------ ---------- ---------<br>--- ---------- ------- ---------- ------- -- -------- ----<br>---- --- ------ ----- ------ to ---- --- ----- -- - -------<br>-------- -- --- --- -- ----- ----------- ----- -----------<br>---- --- ---------- --- ---- --- -- ----------,235737.73000016809,235736.66999861598,235191.093,235202.2249996662,235224.433,235757.898,,30,to
screen,html.Screen,0_4_1_0_1_31,2021-10-22T11:46:13.375Z,,,,,,,,,,,,,,,,51,,,,,,,,,,,,,,706.6269992609159,,response,,,13,F,,,,,Space,keypress(Space),,,,instrumental,-------- -------- --- --- ---- --- --- ------ -- --------<br>---- --------- --- ------- ------------ ---------- ---------<br>--- ---------- ------- ---------- ------- -- -------- ----<br>---- --- ------ ----- ------ -- join --- ----- -- - -------<br>-------- -- --- --- -- ----- ----------- ----- -----------<br>---- --- ---------- --- ---- --- -- ----------,236465.56999906898,236464.5249992609,235724.558,235738.03499899805,235757.898,236474.75,,31,join
screen,html.Screen,0_4_1_0_1_32,2021-10-22T11:46:13.919Z,,,,,,,,,,,,,,,,51,,,,,,,,,,,,,,533.8399997502565,,response,,,13,F,,,,,Space,keypress(Space),,,,instrumental,-------- -------- --- --- ---- --- --- ------ -- --------<br>---- --------- --- ------- ------------ ---------- ---------<br>--- ---------- ------- ---------- ------- -- -------- ----<br>---- --- ------ ----- ------ -- ---- the ----- -- - -------<br>-------- -- --- --- -- ----- ----------- ----- -----------<br>---- --- ---------- --- ---- --- -- ----------,237009.68499854207,237008.58999975026,236458.08,236465.87499976158,236474.75,237024.896,,32,the
screen,html.Screen,0_4_1_0_1_33,2021-10-22T11:46:14.719Z,,,,,,,,,,,,,,,,51,,,,,,,,,,,,,,783.7089985140483,,response,,,13,F,,,,,Space,keypress(Space),,,,instrumental,-------- -------- --- --- ---- --- --- ------ -- --------<br>---- --------- --- ------- ------------ ---------- ---------<br>--- ---------- ------- ---------- ------- -- -------- ----<br>---- --- ------ ----- ------ -- ---- --- House -- - -------<br>-------- -- --- --- -- ----- ----------- ----- -----------<br>---- --- ---------- --- ---- --- -- ----------,237809.68499928713,237808.60499851406,237008.226,237009.99999977648,237024.896,237825.082,,33,House
screen,html.Screen,0_4_1_0_1_34,2021-10-22T11:46:15.191Z,,,,,,,,,,,,,,,,51,,,,,,,,,,,,,,455.41299914050614,,response,,,13,F,,,,,Space,keypress(Space),,,,instrumental,-------- -------- --- --- ---- --- --- ------ -- --------<br>---- --------- --- ------- ------------ ---------- ---------<br>--- ---------- ------- ---------- ------- -- -------- ----<br>---- --- ------ ----- ------ -- ---- --- ----- in - -------<br>-------- -- --- --- -- ----- ----------- ----- -----------<br>---- --- ---------- --- ---- --- -- ----------,238281.6850002855,238280.4949991405,237808.412,237809.98999997973,237825.082,238291.835,,34,in
screen,html.Screen,0_4_1_0_1_35,2021-10-22T11:46:15.615Z,,,,,,,,,,,,,,,,51,,,,,,,,,,,,,,412.4999985033355,,response,,,13,F,,,,,Space,keypress(Space),,,,instrumental,-------- -------- --- --- ---- --- --- ------ -- --------<br>---- --------- --- ------- ------------ ---------- ---------<br>--- ---------- ------- ---------- ------- -- -------- ----<br>---- --- ------ ----- ------ -- ---- --- ----- -- a -------<br>-------- -- --- --- -- ----- ----------- ----- -----------<br>---- --- ---------- --- ---- --- -- ----------,238705.4249998182,238704.33499850333,238275.165,238282.00499899685,238291.835,238725.38,,35,a
screen,html.Screen,0_4_1_0_1_36,2021-10-22T11:46:16.207Z,,,,,,,,,,,,,,,,51,,,,,,,,,,,,,,571.0649990540696,,response,,,13,F,,,,,Space,keypress(Space),,,,instrumental,-------- -------- --- --- ---- --- --- ------ -- --------<br>---- --------- --- ------- ------------ ---------- ---------<br>--- ---------- ------- ---------- ------- -- -------- ----<br>---- --- ------ ----- ------ -- ---- --- ----- -- - massive<br>-------- -- --- --- -- ----- ----------- ----- -----------<br>---- --- ---------- --- ---- --- -- ----------,239297.49999940395,239296.44499905407,238692.038,238705.7349998504,238725.38,239308.799,,36,massive
screen,html.Screen,0_4_1_0_1_37,2021-10-22T11:46:16.847Z,,,,,,,,,,,,,,,,51,,,,,,,,,,,,,,627.6059993455419,,response,,,13,F,,,,,Space,keypress(Space),,,,instrumental,-------- -------- --- --- ---- --- --- ------ -- --------<br>---- --------- --- ------- ------------ ---------- ---------<br>--- ---------- ------- ---------- ------- -- -------- ----<br>---- --- ------ ----- ------ -- ---- --- ----- -- - -------<br>overhaul -- --- --- -- ----- ----------- ----- -----------<br>---- --- ---------- --- ---- --- -- ----------,239937.42499873042,239936.40499934554,239292.129,239297.8799995035,239308.799,239958.78,,37,overhaul
screen,html.Screen,0_4_1_0_1_38,2021-10-22T11:46:17.303Z,,,,,,,,,,,,,,,,51,,,,,,,,,,,,,,433.524999753834,,response,,,13,F,,,,,Space,keypress(Space),,,,instrumental,-------- -------- --- --- ---- --- --- ------ -- --------<br>---- --------- --- ------- ------------ ---------- ---------<br>--- ---------- ------- ---------- ------- -- -------- ----<br>---- --- ------ ----- ------ -- ---- --- ----- -- - -------<br>-------- of --- --- -- ----- ----------- ----- -----------<br>---- --- ---------- --- ---- --- -- ----------,240393.40499974787,240392.30499975383,239925.444,239937.7349987626,239958.78,240409.152,,38,of
screen,html.Screen,0_4_1_0_1_39,2021-10-22T11:46:17.799Z,,,,,,,,,,,,,,,,51,,,,,,,,,,,,,,479.18800006317906,,response,,,13,F,,,,,Space,keypress(Space),,,,instrumental,-------- -------- --- --- ---- --- --- ------ -- --------<br>---- --------- --- ------- ------------ ---------- ---------<br>--- ---------- ------- ---------- ------- -- -------- ----<br>---- --- ------ ----- ------ -- ---- --- ----- -- - -------<br>-------- -- the --- -- ----- ----------- ----- -----------<br>---- --- ---------- --- ---- --- -- ----------,240889.38999921083,240888.34000006318,240392.481,240393.70999857783,240409.152,240909.249,,39,the
screen,html.Screen,0_4_1_0_1_40,2021-10-22T11:46:18.416Z,,,,,,,,,,,,,,,,51,,,,,,,,,,,,,,595.545999957074,,response,,,13,F,,,,,Space,keypress(Space),,,,instrumental,-------- -------- --- --- ---- --- --- ------ -- --------<br>---- --------- --- ------- ------------ ---------- ---------<br>--- ---------- ------- ---------- ------- -- -------- ----<br>---- --- ------ ----- ------ -- ---- --- ----- -- - -------<br>-------- -- --- way -- ----- ----------- ----- -----------<br>---- --- ---------- --- ---- --- -- ----------,241505.83999976516,241504.79499995708,240875.907,240889.69499990344,240909.249,241525.907,,40,way
screen,html.Screen,0_4_1_0_1_41,2021-10-22T11:46:18.879Z,,,,,,,,,,,,,,,,51,,,,,,,,,,,,,,442.35299952852074,,response,,,13,F,,,,,Space,keypress(Space),,,,instrumental,-------- -------- --- --- ---- --- --- ------ -- --------<br>---- --------- --- ------- ------------ ---------- ---------<br>--- ---------- ------- ---------- ------- -- -------- ----<br>---- --- ------ ----- ------ -- ---- --- ----- -- - -------<br>-------- -- --- --- in ----- ----------- ----- -----------<br>---- --- ---------- --- ---- --- -- ----------,241969.37999874353,241968.25999952853,241492.569,241506.14499859512,241525.907,241976.19,,41,in
screen,html.Screen,0_4_1_0_1_42,2021-10-22T11:46:19.743Z,,,,,,,,,,,,,,,,51,,,,,,,,,,,,,,856.0399998253561,,response,,,13,F,,,,,Space,keypress(Space),,,,instrumental,-------- -------- --- --- ---- --- --- ------ -- --------<br>---- --------- --- ------- ------------ ---------- ---------<br>--- ---------- ------- ---------- ------- -- -------- ----<br>---- --- ------ ----- ------ -- ---- --- ----- -- - -------<br>-------- -- --- --- -- which ----------- ----- -----------<br>---- --- ---------- --- ---- --- -- ----------,242833.2949988544,242832.22999982536,241959.519,241969.69499997795,241976.19,242842.875,,42,which
screen,html.Screen,0_4_1_0_1_43,2021-10-22T11:46:20.695Z,,,,,,,,,,,,,,,,51,,,,,,,,,,,,,,941.2749987989664,,response,,,13,F,,,,,Space,keypress(Space),,,,instrumental,-------- -------- --- --- ---- --- --- ------ -- --------<br>---- --------- --- ------- ------------ ---------- ---------<br>--- ---------- ------- ---------- ------- -- -------- ----<br>---- --- ------ ----- ------ -- ---- --- ----- -- - -------<br>-------- -- --- --- -- ----- bureaucrats ----- -----------<br>---- --- ---------- --- ---- --- -- ----------,243785.25499999523,243784.14999879897,242826.206,242833.60499888659,242842.875,243793.418,,43,bureaucrats
screen,html.Screen,0_4_1_0_1_44,2021-10-22T11:46:21.247Z,,,,,,,,,,,,,,,,51,,,,,,,,,,,,,,542.6619998044916,,response,,,13,F,,,,,Space,keypress(Space),,,,instrumental,-------- -------- --- --- ---- --- --- ------ -- --------<br>---- --------- --- ------- ------------ ---------- ---------<br>--- ---------- ------- ---------- ------- -- -------- ----<br>---- --- ------ ----- ------ -- ---- --- ----- -- - -------<br>-------- -- --- --- -- ----- ----------- enact -----------<br>---- --- ---------- --- ---- --- -- ----------,244337.13500015438,244336.0799998045,243776.746,243785.57499870658,243793.418,244343.391,,44,enact
screen,html.Screen,0_4_1_0_1_45,2021-10-22T11:46:21.807Z,,,,,,,,,,,,,,,,51,,,,,,,,,,,,,,552.628998937842,,response,,,13,F,,,,,Space,keypress(Space),,,,instrumental,-------- -------- --- --- ---- --- --- ------ -- --------<br>---- --------- --- ------- ------------ ---------- ---------<br>--- ---------- ------- ---------- ------- -- -------- ----<br>---- --- ------ ----- ------ -- ---- --- ----- -- - -------<br>-------- -- --- --- -- ----- ----------- ----- regulations<br>---- --- ---------- --- ---- --- -- ----------,244897.06499874592,244896.01999893785,244326.721,244337.43999898434,244343.391,244910.094,,45,regulations
screen,html.Screen,0_4_1_0_1_46,2021-10-22T11:46:22.255Z,,,,,,,,,,,,,,,,51,,,,,,,,,,,,,,434.00600033675437,,response,,,13,F,,,,,Space,keypress(Space),,,,instrumental,-------- -------- --- --- ---- --- --- ------ -- --------<br>---- --------- --- ------- ------------ ---------- ---------<br>--- ---------- ------- ---------- ------- -- -------- ----<br>---- --- ------ ----- ------ -- ---- --- ----- -- - -------<br>-------- -- --- --- -- ----- ----------- ----- -----------<br>that --- ---------- --- ---- --- -- ----------,245345.25999985635,245344.10000033677,244893.425,244897.3749987781,244910.094,245360.419,,46,that
screen,html.Screen,0_4_1_0_1_47,2021-10-22T11:46:22.655Z,,,,,,,,,,,,,,,,51,,,,,,,,,,,,,,383.5959988979157,,response,,,13,F,,,,,Space,keypress(Space),,,,instrumental,-------- -------- --- --- ---- --- --- ------ -- --------<br>---- --------- --- ------- ------------ ---------- ---------<br>--- ---------- ------- ---------- ------- -- -------- ----<br>---- --- ------ ----- ------ -- ---- --- ----- -- - -------<br>-------- -- --- --- -- ----- ----------- ----- -----------<br>---- are ---------- --- ---- --- -- ----------,245745.09999901056,245744.0149988979,245343.747,245345.56999988854,245360.419,245760.423,,47,are
screen,html.Screen,0_4_1_0_1_48,2021-10-22T11:46:22.975Z,,,,,,,,,,,,,,,,51,,,,,,,,,,,,,,303.4269986380241,,response,,,13,F,,,,,Space,keypress(Space),,,,instrumental,-------- -------- --- --- ---- --- --- ------ -- --------<br>---- --------- --- ------- ------------ ---------- ---------<br>--- ---------- ------- ---------- ------- -- -------- ----<br>---- --- ------ ----- ------ -- ---- --- ----- -- - -------<br>-------- -- --- --- -- ----- ----------- ----- -----------<br>---- --- strangling --- ---- --- -- ----------,246064.98499959707,246063.84999863803,245743.753,245745.40499970317,245760.423,246077.171,,48,strangling
