sender,sender_type,sender_id,timestamp,meta,,Blues,Classical,Country,Dance,Electronic,Folk,Gospel,Hip-Hop,Jazz,Latin,Musical/Film,New-age,Pop,Provo_ID,R&B,Rap,Reggae,Religious,Rock,Soul,Swing,Traditional,age,artist_name,correct,correctResponse,distraction,duration,education,ended_on,familiarity,gender,item,list,music_frequency,offensiveness,pleasantness,preference,response,response_action,snippet_file,song_name,song_rating,sound,text,time_commit,time_end,time_render,time_run,time_show,time_switch,url,word,word_ID
Instructions,html.Page,0_0,2021-10-22T11:01:42.735Z,"{""labjs_version"":""20.2.3"",""labjs_build"":{""flavor"":""production"",""commit"":""7ea907d66ca8aeef8054924ca5d82ffbe11e34e5""},""location"":""https://run.pavlovia.org/mvasilev/lab_music_d/"",""userAgent"":""Mozilla/5.0 (Windows NT 6.1; Win64; x64) AppleWebKit/537.36 (KHTML, like Gecko) Chrome/92.0.4515.107 Safari/537.36"",""platform"":""Win32"",""language"":""en-US"",""locale"":""en-US"",""timeZone"":""Europe/London"",""timezoneOffset"":-60,""screen_width"":1920,""screen_height"":1080,""scroll_width"":1920,""scroll_height"":959,""window_innerWidth"":1920,""window_innerHeight"":1007,""devicePixelRatio"":1}",,,,,,,,,,,,,,,,,,,,,,,,,,,,,33042.41899998808,,form submission,,,,,,,,,,,,,,,,42800.59999999404,42799.19999998808,9740.11,9742.899999976158,9756.781,42798.29,{},,
Headphones,html.Page,0_1,2021-10-22T11:01:45.559Z,,,,,,,,,,,,,,,,,,,,,,,,,,,,,,2825.709999999999,,form submission,,,,,,,,,,,,,,,,45624.5,45624,42781.571,42801.39999997616,42798.29,45634.532,,,
Holding screen,html.Screen,0_2_0_0,2021-10-22T11:01:55.562Z,,,,,,,,,,,,,,,,,,,,,,,,,,,,,,10002.838000000003,,timeout,,,,,,,,,,,,,,,,55626.89999997616,55620.699,45617.859,45625,45634.532,55637.37,,,
screen,html.Screen,0_2_0_1_0,2021-10-22T11:02:01.252Z,,,,,,,,,,,,,,,,53,,,,,,,,,,,,,,5673.629999999997,,response,,,99,,,,,,Space,keypress(Space),,,,,When -- ----- -- ------ - ------- --- ----------<br>------------- ------ ------ ---- ---- ------- ----- -- ----<br>-------- ------- -- ---------- --- - --- ----- ----- ----<br>---- --- --- ----- --- ---- ---- ------- ----- ---- -------<br>--- --- -- ----- -- --- ---- -- --- ---- -- ------ ------<br>--- ----- -- ----,61316.59999999404,61311,55620.699,55627.39999997616,55637.37,61322.224,,0,When
screen,html.Screen,0_2_0_1_1,2021-10-22T11:02:02.631Z,,,,,,,,,,,,,,,,53,,,,,,,,,,,,,,1372.3759999940376,,response,,,99,,,,,,Space,keypress(Space),,,,,---- it ----- -- ------ - ------- --- ----------<br>------------- ------ ------ ---- ---- ------- ----- -- ----<br>-------- ------- -- ---------- --- - --- ----- ----- ----<br>---- --- --- ----- --- ---- ---- ------- ----- ---- -------<br>--- --- -- ----- -- --- ---- -- --- ---- -- ------ ------<br>--- ----- -- ----,62695.5,62694.59999999404,61305.553,61317,61322.224,62722.901,,1,it
screen,html.Screen,0_2_0_1_2,2021-10-22T11:02:04.359Z,,,,,,,,,,,,,,,,53,,,,,,,,,,,,,,1699.599000000002,,response,,,99,,,,,,Space,keypress(Space),,,,,---- -- comes -- ------ - ------- --- ----------<br>------------- ------ ------ ---- ---- ------- ----- -- ----<br>-------- ------- -- ---------- --- - --- ----- ----- ----<br>---- --- --- ----- --- ---- ---- ------- ----- ---- -------<br>--- --- -- ----- -- --- ---- -- --- ---- -- ------ ------<br>--- ----- -- ----,64423.5,64422.5,62706.229,62695.79999998212,62722.901,64439.94,,2,comes
screen,html.Screen,0_2_0_1_3,2021-10-22T11:02:05.399Z,,,,,,,,,,,,,,,,53,,,,,,,,,,,,,,1022.5599999999977,,response,,,99,,,,,,Space,keypress(Space),,,,,---- -- ----- to ------ - ------- --- ----------<br>------------- ------ ------ ---- ---- ------- ----- -- ----<br>-------- ------- -- ---------- --- - --- ----- ----- ----<br>---- --- --- ----- --- ---- ---- ------- ----- ---- -------<br>--- --- -- ----- -- --- ---- -- --- ---- -- ------ ------<br>--- ----- -- ----,65463.5,65462.5,64423.269,64423.79999998212,64439.94,65490.515,,3,to
screen,html.Screen,0_2_0_1_4,2021-10-22T11:02:06.119Z,,,,,,,,,,,,,,,,53,,,,,,,,,,,,,,691.9850000000006,,response,,,99,,,,,,Space,keypress(Space),,,,,---- -- ----- -- having - ------- --- ----------<br>------------- ------ ------ ---- ---- ------- ----- -- ----<br>-------- ------- -- ---------- --- - --- ----- ----- ----<br>---- --- --- ----- --- ---- ---- ------- ----- ---- -------<br>--- --- -- ----- -- --- ---- -- --- ---- -- ------ ------<br>--- ----- -- ----,66183.39999997616,66182.5,65473.843,65463.79999998212,65490.515,66190.592,,4,having
screen,html.Screen,0_2_0_1_5,2021-10-22T11:02:06.767Z,,,,,,,,,,,,,,,,53,,,,,,,,,,,,,,639.807999976154,,response,,,99,,,,,,Space,keypress(Space),,,,,---- -- ----- -- ------ a ------- --- ----------<br>------------- ------ ------ ---- ---- ------- ----- -- ----<br>-------- ------- -- ---------- --- - --- ----- ----- ----<br>---- --- --- ----- --- ---- ---- ------- ----- ---- -------<br>--- --- -- ----- -- --- ---- -- --- ---- -- ------ ------<br>--- ----- -- ----,66831.39999997616,66830.39999997616,66173.921,66183.69999998808,66190.592,66840.799,,5,a
screen,html.Screen,0_2_0_1_6,2021-10-22T11:02:07.527Z,,,,,,,,,,,,,,,,53,,,,,,,,,,,,,,749.6009999761591,,response,,,99,,,,,,Space,keypress(Space),,,,,---- -- ----- -- ------ - lasting --- ----------<br>------------- ------ ------ ---- ---- ------- ----- -- ----<br>-------- ------- -- ---------- --- - --- ----- ----- ----<br>---- --- --- ----- --- ---- ---- ------- ----- ---- -------<br>--- --- -- ----- -- --- ---- -- --- ---- -- ------ ------<br>--- ----- -- ----,67591.5,67590.39999997616,66824.128,66831.69999998808,66840.799,67607.693,,6,lasting
screen,html.Screen,0_2_0_1_7,2021-10-22T11:02:10.327Z,,,,,,,,,,,,,,,,53,,,,,,,,,,,,,,2782.706999976159,,response,,,99,,,,,,Space,keypress(Space),,,,,---- -- ----- -- ------ - ------- and ----------<br>------------- ------ ------ ---- ---- ------- ----- -- ----<br>-------- ------- -- ---------- --- - --- ----- ----- ----<br>---- --- --- ----- --- ---- ---- ------- ----- ---- -------<br>--- --- -- ----- -- --- ---- -- --- ---- -- ------ ------<br>--- ----- -- ----,70391.39999997616,70390.39999997616,67591.022,67592,67607.693,70408.431,,7,and
screen,html.Screen,0_2_0_1_8,2021-10-22T11:02:11.191Z,,,,,,,,,,,,,,,,53,,,,,,,,,,,,,,846.0690000000031,,response,,,99,,,,,,Space,keypress(Space),,,,,---- -- ----- -- ------ - ------- --- fulfilling<br>------------- ------ ------ ---- ---- ------- ----- -- ----<br>-------- ------- -- ---------- --- - --- ----- ----- ----<br>---- --- --- ----- --- ---- ---- ------- ----- ---- -------<br>--- --- -- ----- -- --- ---- -- --- ---- -- ------ ------<br>--- ----- -- ----,71255.39999997616,71254.5,70391.76,70391.79999998212,70408.431,71258.53,,8,fulfilling
screen,html.Screen,0_2_0_1_9,2021-10-22T11:02:13.959Z,,,,,,,,,,,,,,,,53,,,,,,,,,,,,,,2764.0699999940407,,response,,,99,,,,,,Space,keypress(Space),,,,,"---- -- ----- -- ------ - ------- --- ----------<br>relationship, ------ ------ ---- ---- ------- ----- -- ----<br>-------- ------- -- ---------- --- - --- ----- ----- ----<br>---- --- --- ----- --- ---- ---- ------- ----- ---- -------<br>--- --- -- ----- -- --- ---- -- --- ---- -- ------ ------<br>--- ----- -- ----",74023.59999999404,74022.59999999404,71241.86,71255.89999997616,71258.53,74026.12,,9,"relationship,"
screen,html.Screen,0_2_0_1_10,2021-10-22T11:02:14.895Z,,,,,,,,,,,,,,,,53,,,,,,,,,,,,,,932.1799999821233,,response,,,99,,,,,,Space,keypress(Space),,,,,---- -- ----- -- ------ - ------- --- ----------<br>------------- common ------ ---- ---- ------- ----- -- ----<br>-------- ------- -- ---------- --- - --- ----- ----- ----<br>---- --- --- ----- --- ---- ---- ------- ----- ---- -------<br>--- --- -- ----- -- --- ---- -- --- ---- -- ------ ------<br>--- ----- -- ----,74959.29999998212,74958.29999998212,74009.449,74024.09999999404,74026.12,74976.62,,10,common
screen,html.Screen,0_2_0_1_11,2021-10-22T11:02:15.703Z,,,,,,,,,,,,,,,,53,,,,,,,,,,,,,,789.6799999821233,,response,,,99,,,,,,Space,keypress(Space),,,,,---- -- ----- -- ------ - ------- --- ----------<br>------------- ------ wisdom ---- ---- ------- ----- -- ----<br>-------- ------- -- ---------- --- - --- ----- ----- ----<br>---- --- --- ----- --- ---- ---- ------- ----- ---- -------<br>--- --- -- ----- -- --- ---- -- --- ---- -- ------ ------<br>--- ----- -- ----,75767.29999998212,75766.29999998212,74959.947,74959.59999999404,74976.62,75776.724,,11,wisdom
screen,html.Screen,0_2_0_1_12,2021-10-22T11:02:16.343Z,,,,,,,,,,,,,,,,53,,,,,,,,,,,,,,629.5759999821166,,response,,,99,,,,,,Space,keypress(Space),,,,,---- -- ----- -- ------ - ------- --- ----------<br>------------- ------ ------ says ---- ------- ----- -- ----<br>-------- ------- -- ---------- --- - --- ----- ----- ----<br>---- --- --- ----- --- ---- ---- ------- ----- ---- -------<br>--- --- -- ----- -- --- ---- -- --- ---- -- ------ ------<br>--- ----- -- ----,76407.09999999404,76406.29999998212,75760.053,75767.5,75776.724,76410.417,,12,says
screen,html.Screen,0_2_0_1_13,2021-10-22T11:02:17.079Z,,,,,,,,,,,,,,,,53,,,,,,,,,,,,,,731.8829999821173,,response,,,99,,,,,,Space,keypress(Space),,,,,---- -- ----- -- ------ - ------- --- ----------<br>------------- ------ ------ ---- that ------- ----- -- ----<br>-------- ------- -- ---------- --- - --- ----- ----- ----<br>---- --- --- ----- --- ---- ---- ------- ----- ---- -------<br>--- --- -- ----- -- --- ---- -- --- ---- -- ------ ------<br>--- ----- -- ----,77143.09999999404,77142.29999998212,76393.745,76407.39999997616,76410.417,77160.553,,13,that
screen,html.Screen,0_2_0_1_14,2021-10-22T11:02:17.807Z,,,,,,,,,,,,,,,,53,,,,,,,,,,,,,,709.7469999821187,,response,,,99,,,,,,Space,keypress(Space),,,,,---- -- ----- -- ------ - ------- --- ----------<br>------------- ------ ------ ---- ---- feeling ----- -- ----<br>-------- ------- -- ---------- --- - --- ----- ----- ----<br>---- --- --- ----- --- ---- ---- ------- ----- ---- -------<br>--- --- -- ----- -- --- ---- -- --- ---- -- ------ ------<br>--- ----- -- ----,77871.09999999404,77870.29999998212,77143.882,77143.39999997616,77160.553,77877.442,,14,feeling
screen,html.Screen,0_2_0_1_15,2021-10-22T11:02:18.431Z,,,,,,,,,,,,,,,,53,,,,,,,,,,,,,,616.9579999761627,,response,,,99,,,,,,Space,keypress(Space),,,,,---- -- ----- -- ------ - ------- --- ----------<br>------------- ------ ------ ---- ---- ------- close -- ----<br>-------- ------- -- ---------- --- - --- ----- ----- ----<br>---- --- --- ----- --- ---- ---- ------- ----- ---- -------<br>--- --- -- ----- -- --- ---- -- --- ---- -- ------ ------<br>--- ----- -- ----,78495.29999998212,78494.39999997616,77860.771,77871.39999997616,77877.442,78510.972,,15,close
screen,html.Screen,0_2_0_1_16,2021-10-22T11:02:18.871Z,,,,,,,,,,,,,,,,53,,,,,,,,,,,,,,423.3279999821243,,response,,,99,,,,,,Space,keypress(Space),,,,,---- -- ----- -- ------ - ------- --- ----------<br>------------- ------ ------ ---- ---- ------- ----- to ----<br>-------- ------- -- ---------- --- - --- ----- ----- ----<br>---- --- --- ----- --- ---- ---- ------- ----- ---- -------<br>--- --- -- ----- -- --- ---- -- --- ---- -- ------ ------<br>--- ----- -- ----,78935.19999998808,78934.29999998212,78494.301,78495.59999999404,78510.972,78944.354,,16,to
screen,html.Screen,0_2_0_1_17,2021-10-22T11:02:19.647Z,,,,,,,,,,,,,,,,53,,,,,,,,,,,,,,765.945999982112,,response,,,99,,,,,,Space,keypress(Space),,,,,---- -- ----- -- ------ - ------- --- ----------<br>------------- ------ ------ ---- ---- ------- ----- -- your<br>-------- ------- -- ---------- --- - --- ----- ----- ----<br>---- --- --- ----- --- ---- ---- ------- ----- ---- -------<br>--- --- -- ----- -- --- ---- -- --- ---- -- ------ ------<br>--- ----- -- ----,79711.09999999404,79710.29999998212,78927.684,78935.5,78944.354,79728.051,,17,your
screen,html.Screen,0_2_0_1_18,2021-10-22T11:02:20.367Z,,,,,,,,,,,,,,,,53,,,,,,,,,,,,,,702.2489999821119,,response,,,99,,,,,,Space,keypress(Space),,,,,---- -- ----- -- ------ - ------- --- ----------<br>------------- ------ ------ ---- ---- ------- ----- -- ----<br>romantic ------- -- ---------- --- - --- ----- ----- ----<br>---- --- --- ----- --- ---- ---- ------- ----- ---- -------<br>--- --- -- ----- -- --- ---- -- --- ---- -- ------ ------<br>--- ----- -- ----,80431.29999998212,80430.29999998212,79711.379,79711.5,79728.051,80444.895,,18,romantic
screen,html.Screen,0_2_0_1_19,2021-10-22T11:02:21.031Z,,,,,,,,,,,,,,,,53,,,,,,,,,,,,,,649.4049999821145,,response,,,99,,,,,,Space,keypress(Space),,,,,---- -- ----- -- ------ - ------- --- ----------<br>------------- ------ ------ ---- ---- ------- ----- -- ----<br>-------- partner -- ---------- --- - --- ----- ----- ----<br>---- --- --- ----- --- ---- ---- ------- ----- ---- -------<br>--- --- -- ----- -- --- ---- -- --- ---- -- ------ ------<br>--- ----- -- ----,81095.19999998808,81094.29999998212,80428.224,80431.5,80444.895,81111.731,,19,partner
screen,html.Screen,0_2_0_1_20,2021-10-22T11:02:21.479Z,,,,,,,,,,,,,,,,53,,,,,,,,,,,,,,430.4689999880793,,response,,,99,,,,,,Space,keypress(Space),,,,,---- -- ----- -- ------ - ------- --- ----------<br>------------- ------ ------ ---- ---- ------- ----- -- ----<br>-------- ------- is ---------- --- - --- ----- ----- ----<br>---- --- --- ----- --- ---- ---- ------- ----- ---- -------<br>--- --- -- ----- -- --- ---- -- --- ---- -- ------ ------<br>--- ----- -- ----,81543.09999999404,81542.19999998808,81095.06,81095.5,81111.731,81545.221,,20,is
screen,html.Screen,0_2_0_1_21,2021-10-22T11:02:26.599Z,,,,,,,,,,,,,,,,53,,,,,,,,,,,,,,5117.3789999940345,,response,,,99,,,,,,Space,keypress(Space),,,,,---- -- ----- -- ------ - ------- --- ----------<br>------------- ------ ------ ---- ---- ------- ----- -- ----<br>-------- ------- -- paramount. --- - --- ----- ----- ----<br>---- --- --- ----- --- ---- ---- ------- ----- ---- -------<br>--- --- -- ----- -- --- ---- -- --- ---- -- ------ ------<br>--- ----- -- ----,86663.5,86662.59999999404,81528.55,81543.29999998212,81545.221,86679.911,,21,paramount.
screen,html.Screen,0_2_0_1_22,2021-10-22T11:02:27.151Z,,,,,,,,,,,,,,,,53,,,,,,,,,,,,,,534.2889999880863,,response,,,99,,,,,,Space,keypress(Space),,,,,---- -- ----- -- ------ - ------- --- ----------<br>------------- ------ ------ ---- ---- ------- ----- -- ----<br>-------- ------- -- ---------- But - --- ----- ----- ----<br>---- --- --- ----- --- ---- ---- ------- ----- ---- -------<br>--- --- -- ----- -- --- ---- -- --- ---- -- ------ ------<br>--- ----- -- ----,87215,87214.19999998808,86663.24,86663.89999997616,86679.911,87229.582,,22,But
screen,html.Screen,0_2_0_1_23,2021-10-22T11:02:27.623Z,,,,,,,,,,,,,,,,53,,,,,,,,,,,,,,456.6179999880842,,response,,,99,,,,,,Space,keypress(Space),,,,,---- -- ----- -- ------ - ------- --- ----------<br>------------- ------ ------ ---- ---- ------- ----- -- ----<br>-------- ------- -- ---------- --- a --- ----- ----- ----<br>---- --- --- ----- --- ---- ---- ------- ----- ---- -------<br>--- --- -- ----- -- --- ---- -- --- ---- -- ------ ------<br>--- ----- -- ----,87687,87686.19999998808,87212.913,87215.29999998212,87229.582,87696.998,,23,a
screen,html.Screen,0_2_0_1_24,2021-10-22T11:02:28.239Z,,,,,,,,,,,,,,,,53,,,,,,,,,,,,,,605.2019999880722,,response,,,99,,,,,,Space,keypress(Space),,,,,---- -- ----- -- ------ - ------- --- ----------<br>------------- ------ ------ ---- ---- ------- ----- -- ----<br>-------- ------- -- ---------- --- - new ----- ----- ----<br>---- --- --- ----- --- ---- ---- ------- ----- ---- -------<br>--- --- -- ----- -- --- ---- -- --- ---- -- ------ ------<br>--- ----- -- ----,88303,88302.19999998808,87680.327,87687.29999998212,87696.998,88314.043,,24,new
screen,html.Screen,0_2_0_1_25,2021-10-22T11:02:29.135Z,,,,,,,,,,,,,,,,53,,,,,,,,,,,,,,884.156999988074,,response,,,99,,,,,,Space,keypress(Space),,,,,---- -- ----- -- ------ - ------- --- ----------<br>------------- ------ ------ ---- ---- ------- ----- -- ----<br>-------- ------- -- ---------- --- - --- study ----- ----<br>---- --- --- ----- --- ---- ---- ------- ----- ---- -------<br>--- --- -- ----- -- --- ---- -- --- ---- -- ------ ------<br>--- ----- -- ----,89199,89198.19999998808,88297.37,88303.29999998212,88314.043,89230.834,,25,study
screen,html.Screen,0_2_0_1_26,2021-10-22T11:02:30.039Z,,,,,,,,,,,,,,,,53,,,,,,,,,,,,,,871.265999994037,,response,,,99,,,,,,Space,keypress(Space),,,,,---- -- ----- -- ------ - ------- --- ----------<br>------------- ------ ------ ---- ---- ------- ----- -- ----<br>-------- ------- -- ---------- --- - --- ----- finds ----<br>---- --- --- ----- --- ---- ---- ------- ----- ---- -------<br>--- --- -- ----- -- --- ---- -- --- ---- -- ------ ------<br>--- ----- -- ----,90102.89999997616,90102.09999999404,89214.163,89199.39999997616,89230.834,90114.434,,26,finds
screen,html.Screen,0_2_0_1_27,2021-10-22T11:02:30.655Z,,,,,,,,,,,,,,,,53,,,,,,,,,,,,,,603.6659999940457,,response,,,99,,,,,,Space,keypress(Space),,,,,---- -- ----- -- ------ - ------- --- ----------<br>------------- ------ ------ ---- ---- ------- ----- -- ----<br>-------- ------- -- ---------- --- - --- ----- ----- that<br>---- --- --- ----- --- ---- ---- ------- ----- ---- -------<br>--- --- -- ----- -- --- ---- -- --- ---- -- ------ ------<br>--- ----- -- ----,90719,90718.09999999404,90097.763,90103.19999998808,90114.434,90731.303,,27,that
screen,html.Screen,0_2_0_1_28,2021-10-22T11:02:31.223Z,,,,,,,,,,,,,,,,53,,,,,,,,,,,,,,554.7969999940397,,response,,,99,,,,,,Space,keypress(Space),,,,,---- -- ----- -- ------ - ------- --- ----------<br>------------- ------ ------ ---- ---- ------- ----- -- ----<br>-------- ------- -- ---------- --- - --- ----- ----- ----<br>it's --- --- ----- --- ---- ---- ------- ----- ---- -------<br>--- --- -- ----- -- --- ---- -- --- ---- -- ------ ------<br>--- ----- -- ----,91287.09999999404,91286.09999999404,90714.632,90719.19999998808,90731.303,91298.149,,28,it's
screen,html.Screen,0_2_0_1_29,2021-10-22T11:02:31.815Z,,,,,,,,,,,,,,,,53,,,,,,,,,,,,,,580.0509999880742,,response,,,99,,,,,,Space,keypress(Space),,,,,---- -- ----- -- ------ - ------- --- ----------<br>------------- ------ ------ ---- ---- ------- ----- -- ----<br>-------- ------- -- ---------- --- - --- ----- ----- ----<br>---- not --- ----- --- ---- ---- ------- ----- ---- -------<br>--- --- -- ----- -- --- ---- -- --- ---- -- ------ ------<br>--- ----- -- ----,91879,91878.19999998808,91281.478,91287.39999997616,91298.149,91881.636,,29,not
screen,html.Screen,0_2_0_1_30,2021-10-22T11:02:32.255Z,,,,,,,,,,,,,,,,53,,,,,,,,,,,,,,436.46399999404093,,response,,,99,,,,,,Space,keypress(Space),,,,,---- -- ----- -- ------ - ------- --- ----------<br>------------- ------ ------ ---- ---- ------- ----- -- ----<br>-------- ------- -- ---------- --- - --- ----- ----- ----<br>---- --- how ----- --- ---- ---- ------- ----- ---- -------<br>--- --- -- ----- -- --- ---- -- --- ---- -- ------ ------<br>--- ----- -- ----,92319.09999999404,92318.09999999404,91864.965,91879.29999998212,91881.636,92331.793,,30,how
screen,html.Screen,0_2_0_1_31,2021-10-22T11:02:32.783Z,,,,,,,,,,,,,,,,53,,,,,,,,,,,,,,514.3069999940344,,response,,,99,,,,,,Space,keypress(Space),,,,,---- -- ----- -- ------ - ------- --- ----------<br>------------- ------ ------ ---- ---- ------- ----- -- ----<br>-------- ------- -- ---------- --- - --- ----- ----- ----<br>---- --- --- close --- ---- ---- ------- ----- ---- -------<br>--- --- -- ----- -- --- ---- -- --- ---- -- ------ ------<br>--- ----- -- ----,92846.89999997616,92846.09999999404,92315.122,92319.5,92331.793,92865.165,,31,close
screen,html.Screen,0_2_0_1_32,2021-10-22T11:02:33.407Z,,,,,,,,,,,,,,,,53,,,,,,,,,,,,,,604.9349999940459,,response,,,99,,,,,,Space,keypress(Space),,,,,---- -- ----- -- ------ - ------- --- ----------<br>------------- ------ ------ ---- ---- ------- ----- -- ----<br>-------- ------- -- ---------- --- - --- ----- ----- ----<br>---- --- --- ----- you ---- ---- ------- ----- ---- -------<br>--- --- -- ----- -- --- ---- -- --- ---- -- ------ ------<br>--- ----- -- ----,93471,93470.09999999404,92848.495,92847.19999998808,92865.165,93482.099,,32,you
screen,html.Screen,0_2_0_1_33,2021-10-22T11:02:33.927Z,,,,,,,,,,,,,,,,53,,,,,,,,,,,,,,508.00099999403756,,response,,,99,,,,,,Space,keypress(Space),,,,,---- -- ----- -- ------ - ------- --- ----------<br>------------- ------ ------ ---- ---- ------- ----- -- ----<br>-------- ------- -- ---------- --- - --- ----- ----- ----<br>---- --- --- ----- --- feel ---- ------- ----- ---- -------<br>--- --- -- ----- -- --- ---- -- --- ---- -- ------ ------<br>--- ----- -- ----,93991,93990.09999999404,93465.428,93471.19999998808,93482.099,94015.683,,33,feel
screen,html.Screen,0_2_0_1_34,2021-10-22T11:02:34.367Z,,,,,,,,,,,,,,,,53,,,,,,,,,,,,,,414.416999994035,,response,,,99,,,,,,Space,keypress(Space),,,,,---- -- ----- -- ------ - ------- --- ----------<br>------------- ------ ------ ---- ---- ------- ----- -- ----<br>-------- ------- -- ---------- --- - --- ----- ----- ----<br>---- --- --- ----- --- ---- that ------- ----- ---- -------<br>--- --- -- ----- -- --- ---- -- --- ---- -- ------ ------<br>--- ----- -- ----,94430.89999997616,94430.09999999404,93999.011,93991.29999998212,94015.683,94432.42,,34,that
screen,html.Screen,0_2_0_1_35,2021-10-22T11:02:34.823Z,,,,,,,,,,,,,,,,53,,,,,,,,,,,,,,453.6799999940413,,response,,,99,,,,,,Space,keypress(Space),,,,,---- -- ----- -- ------ - ------- --- ----------<br>------------- ------ ------ ---- ---- ------- ----- -- ----<br>-------- ------- -- ---------- --- - --- ----- ----- ----<br>---- --- --- ----- --- ---- ---- matters ----- ---- -------<br>--- --- -- ----- -- --- ---- -- --- ---- -- ------ ------<br>--- ----- -- ----,94886.89999997616,94886.09999999404,94415.749,94431.19999998808,94432.42,94899.225,,35,matters
screen,html.Screen,0_2_0_1_36,2021-10-22T11:02:35.263Z,,,,,,,,,,,,,,,,53,,,,,,,,,,,,,,426.8749999940337,,response,,,99,,,,,,Space,keypress(Space),,,,,"---- -- ----- -- ------ - ------- --- ----------<br>------------- ------ ------ ---- ---- ------- ----- -- ----<br>-------- ------- -- ---------- --- - --- ----- ----- ----<br>---- --- --- ----- --- ---- ---- ------- most, ---- -------<br>--- --- -- ----- -- --- ---- -- --- ---- -- ------ ------<br>--- ----- -- ----",95327,95326.09999999404,94882.554,94887.19999998808,94899.225,95332.692,,36,"most,"
screen,html.Screen,0_2_0_1_37,2021-10-22T11:02:35.807Z,,,,,,,,,,,,,,,,53,,,,,,,,,,,,,,537.4079999940441,,response,,,99,,,,,,Space,keypress(Space),,,,,---- -- ----- -- ------ - ------- --- ----------<br>------------- ------ ------ ---- ---- ------- ----- -- ----<br>-------- ------- -- ---------- --- - --- ----- ----- ----<br>---- --- --- ----- --- ---- ---- ------- ----- it's -------<br>--- --- -- ----- -- --- ---- -- --- ---- -- ------ ------<br>--- ----- -- ----,95871,95870.09999999404,95316.021,95327.29999998212,95332.692,95899.51,,37,it's
screen,html.Screen,0_2_0_1_38,2021-10-22T11:02:36.199Z,,,,,,,,,,,,,,,,53,,,,,,,,,,,,,,362.49000000000524,,response,,,99,,,,,,Space,keypress(Space),,,,,---- -- ----- -- ------ - ------- --- ----------<br>------------- ------ ------ ---- ---- ------- ----- -- ----<br>-------- ------- -- ---------- --- - --- ----- ----- ----<br>---- --- --- ----- --- ---- ---- ------- ----- ---- whether<br>--- --- -- ----- -- --- ---- -- --- ---- -- ------ ------<br>--- ----- -- ----,96263,96262,95882.839,95871.29999998212,95899.51,96282.973,,38,whether
screen,html.Screen,0_2_0_1_39,2021-10-22T11:02:36.639Z,,,,,,,,,,,,,,,,53,,,,,,,,,,,,,,419.52700000000186,,response,,,99,,,,,,Space,keypress(Space),,,,,---- -- ----- -- ------ - ------- --- ----------<br>------------- ------ ------ ---- ---- ------- ----- -- ----<br>-------- ------- -- ---------- --- - --- ----- ----- ----<br>---- --- --- ----- --- ---- ---- ------- ----- ---- -------<br>you --- -- ----- -- --- ---- -- --- ---- -- ------ ------<br>--- ----- -- ----,96703.29999998212,96702.5,96266.302,96263.29999998212,96282.973,96716.452,,39,you
screen,html.Screen,0_2_0_1_40,2021-10-22T11:02:37.071Z,,,,,,,,,,,,,,,,53,,,,,,,,,,,,,,417.64799999403476,,response,,,99,,,,,,Space,keypress(Space),,,,,---- -- ----- -- ------ - ------- --- ----------<br>------------- ------ ------ ---- ---- ------- ----- -- ----<br>-------- ------- -- ---------- --- - --- ----- ----- ----<br>---- --- --- ----- --- ---- ---- ------- ----- ---- -------<br>--- are -- ----- -- --- ---- -- --- ---- -- ------ ------<br>--- ----- -- ----,97134.89999997616,97134.09999999404,96699.781,96703.59999999404,96716.452,97149.828,,40,are
screen,html.Screen,0_2_0_1_41,2021-10-22T11:02:37.543Z,,,,,,,,,,,,,,,,53,,,,,,,,,,,,,,456.2719999940455,,response,,,99,,,,,,Space,keypress(Space),,,,,---- -- ----- -- ------ - ------- --- ----------<br>------------- ------ ------ ---- ---- ------- ----- -- ----<br>-------- ------- -- ---------- --- - --- ----- ----- ----<br>---- --- --- ----- --- ---- ---- ------- ----- ---- -------<br>--- --- as ----- -- --- ---- -- --- ---- -- ------ ------<br>--- ----- -- ----,97606.89999997616,97606.09999999404,97133.158,97135.29999998212,97149.828,97616.765,,41,as
screen,html.Screen,0_2_0_1_42,2021-10-22T11:02:37.975Z,,,,,,,,,,,,,,,,53,,,,,,,,,,,,,,421.3349999940401,,response,,,99,,,,,,Space,keypress(Space),,,,,---- -- ----- -- ------ - ------- --- ----------<br>------------- ------ ------ ---- ---- ------- ----- -- ----<br>-------- ------- -- ---------- --- - --- ----- ----- ----<br>---- --- --- ----- --- ---- ---- ------- ----- ---- -------<br>--- --- -- close -- --- ---- -- --- ---- -- ------ ------<br>--- ----- -- ----,98038.89999997616,98038.09999999404,97600.093,97607.09999999404,97616.765,98050.193,,42,close
screen,html.Screen,0_2_0_1_43,2021-10-22T11:02:38.335Z,,,,,,,,,,,,,,,,53,,,,,,,,,,,,,,347.90699999404023,,response,,,99,,,,,,Space,keypress(Space),,,,,---- -- ----- -- ------ - ------- --- ----------<br>------------- ------ ------ ---- ---- ------- ----- -- ----<br>-------- ------- -- ---------- --- - --- ----- ----- ----<br>---- --- --- ----- --- ---- ---- ------- ----- ---- -------<br>--- --- -- ----- as --- ---- -- --- ---- -- ------ ------<br>--- ----- -- ----,98399.09999999404,98398.09999999404,98033.522,98039.09999999404,98050.193,98416.912,,43,as
screen,html.Screen,0_2_0_1_44,2021-10-22T11:02:38.751Z,,,,,,,,,,,,,,,,53,,,,,,,,,,,,,,397.1879999940429,,response,,,99,,,,,,Space,keypress(Space),,,,,---- -- ----- -- ------ - ------- --- ----------<br>------------- ------ ------ ---- ---- ------- ----- -- ----<br>-------- ------- -- ---------- --- - --- ----- ----- ----<br>---- --- --- ----- --- ---- ---- ------- ----- ---- -------<br>--- --- -- ----- -- you ---- -- --- ---- -- ------ ------<br>--- ----- -- ----,98814.89999997616,98814.09999999404,98400.242,98399.39999997616,98416.912,98816.942,,44,you
screen,html.Screen,0_2_0_1_45,2021-10-22T11:02:39.159Z,,,,,,,,,,,,,,,,53,,,,,,,,,,,,,,405.05800000000454,,response,,,99,,,,,,Space,keypress(Space),,,,,---- -- ----- -- ------ - ------- --- ----------<br>------------- ------ ------ ---- ---- ------- ----- -- ----<br>-------- ------- -- ---------- --- - --- ----- ----- ----<br>---- --- --- ----- --- ---- ---- ------- ----- ---- -------<br>--- --- -- ----- -- --- want -- --- ---- -- ------ ------<br>--- ----- -- ----,99222.79999998212,99222,98800.273,98815.19999998808,98816.942,99250.637,,45,want
screen,html.Screen,0_2_0_1_46,2021-10-22T11:02:39.575Z,,,,,,,,,,,,,,,,53,,,,,,,,,,,,,,387.36299999999756,,response,,,99,,,,,,Space,keypress(Space),,,,,---- -- ----- -- ------ - ------- --- ----------<br>------------- ------ ------ ---- ---- ------- ----- -- ----<br>-------- ------- -- ---------- --- - --- ----- ----- ----<br>---- --- --- ----- --- ---- ---- ------- ----- ---- -------<br>--- --- -- ----- -- --- ---- to --- ---- -- ------ ------<br>--- ----- -- ----,99638.89999997616,99638,99233.964,99223.19999998808,99250.637,99650.646,,46,to
screen,html.Screen,0_2_0_1_47,2021-10-22T11:02:39.967Z,,,,,,,,,,,,,,,,53,,,,,,,,,,,,,,379.35400000000664,,response,,,99,,,,,,Space,keypress(Space),,,,,"---- -- ----- -- ------ - ------- --- ----------<br>------------- ------ ------ ---- ---- ------- ----- -- ----<br>-------- ------- -- ---------- --- - --- ----- ----- ----<br>---- --- --- ----- --- ---- ---- ------- ----- ---- -------<br>--- --- -- ----- -- --- ---- -- be, ---- -- ------ ------<br>--- ----- -- ----",100030.89999997616,100030,99633.975,99639.19999998808,99650.646,100034.1,,47,"be,"
screen,html.Screen,0_2_0_1_48,2021-10-22T11:02:40.463Z,,,,,,,,,,,,,,,,53,,,,,,,,,,,,,,491.8999999999942,,response,,,99,,,,,,Space,keypress(Space),,,,,---- -- ----- -- ------ - ------- --- ----------<br>------------- ------ ------ ---- ---- ------- ----- -- ----<br>-------- ------- -- ---------- --- - --- ----- ----- ----<br>---- --- --- ----- --- ---- ---- ------- ----- ---- -------<br>--- --- -- ----- -- --- ---- -- --- even -- ------ ------<br>--- ----- -- ----,100526.89999997616,100526,100017.429,100031.19999998808,100034.1,100534.246,,48,even
screen,html.Screen,0_2_0_1_49,2021-10-22T11:02:40.879Z,,,,,,,,,,,,,,,,53,,,,,,,,,,,,,,407.85399999404035,,response,,,99,,,,,,Space,keypress(Space),,,,,---- -- ----- -- ------ - ------- --- ----------<br>------------- ------ ------ ---- ---- ------- ----- -- ----<br>-------- ------- -- ---------- --- - --- ----- ----- ----<br>---- --- --- ----- --- ---- ---- ------- ----- ---- -------<br>--- --- -- ----- -- --- ---- -- --- ---- if ------ ------<br>--- ----- -- ----,100942.89999997616,100942.09999999404,100517.575,100527.19999998808,100534.246,100950.9,,49,if
screen,html.Screen,0_2_0_1_50,2021-10-22T11:02:41.255Z,,,,,,,,,,,,,,,,53,,,,,,,,,,,,,,367.1000000000058,,response,,,99,,,,,,Space,keypress(Space),,,,,---- -- ----- -- ------ - ------- --- ----------<br>------------- ------ ------ ---- ---- ------- ----- -- ----<br>-------- ------- -- ---------- --- - --- ----- ----- ----<br>---- --- --- ----- --- ---- ---- ------- ----- ---- -------<br>--- --- -- ----- -- --- ---- -- --- ---- -- that's ------<br>--- ----- -- ----,101318.89999997616,101318,100934.231,100943.19999998808,100950.9,101334.576,,50,that's
screen,html.Screen,0_2_0_1_51,2021-10-22T11:02:41.807Z,,,,,,,,,,,,,,,,53,,,,,,,,,,,,,,535.4239999999991,,response,,,99,,,,,,Space,keypress(Space),,,,,---- -- ----- -- ------ - ------- --- ----------<br>------------- ------ ------ ---- ---- ------- ----- -- ----<br>-------- ------- -- ---------- --- - --- ----- ----- ----<br>---- --- --- ----- --- ---- ---- ------- ----- ---- -------<br>--- --- -- ----- -- --- ---- -- --- ---- -- ------ really<br>--- ----- -- ----,101871,101870,101317.903,101319.19999998808,101334.576,101884.656,,51,really
screen,html.Screen,0_2_0_1_52,2021-10-22T11:02:42.271Z,,,,,,,,,,,,,,,,53,,,,,,,,,,,,,,449.3439999999973,,response,,,99,,,,,,Space,keypress(Space),,,,,---- -- ----- -- ------ - ------- --- ----------<br>------------- ------ ------ ---- ---- ------- ----- -- ----<br>-------- ------- -- ---------- --- - --- ----- ----- ----<br>---- --- --- ----- --- ---- ---- ------- ----- ---- -------<br>--- --- -- ----- -- --- ---- -- --- ---- -- ------ ------<br>not ----- -- ----,102334.89999997616,102334,101867.985,101871.19999998808,101884.656,102351.466,,52,not
screen,html.Screen,0_2_0_1_53,2021-10-22T11:02:42.751Z,,,,,,,,,,,,,,,,53,,,,,,,,,,,,,,462.6339999940392,,response,,,99,,,,,,Space,keypress(Space),,,,,---- -- ----- -- ------ - ------- --- ----------<br>------------- ------ ------ ---- ---- ------- ----- -- ----<br>-------- ------- -- ---------- --- - --- ----- ----- ----<br>---- --- --- ----- --- ---- ---- ------- ----- ---- -------<br>--- --- -- ----- -- --- ---- -- --- ---- -- ------ ------<br>--- close -- ----,102814.89999997616,102814.09999999404,102334.795,102335.19999998808,102351.466,102818.277,,53,close
screen,html.Screen,0_2_0_1_54,2021-10-22T11:02:43.151Z,,,,,,,,,,,,,,,,53,,,,,,,,,,,,,,395.72299999999814,,response,,,99,,,,,,Space,keypress(Space),,,,,---- -- ----- -- ------ - ------- --- ----------<br>------------- ------ ------ ---- ---- ------- ----- -- ----<br>-------- ------- -- ---------- --- - --- ----- ----- ----<br>---- --- --- ----- --- ---- ---- ------- ----- ---- -------<br>--- --- -- ----- -- --- ---- -- --- ---- -- ------ ------<br>--- ----- at ----,103214.89999997616,103214,102801.606,102815.29999998212,102818.277,103218.388,,54,at
screen,html.Screen,0_2_0_1_55,2021-10-22T11:02:43.759Z,,,,,,,,,,,,,,,,53,,,,,,,,,,,,,,603.6119999999937,,response,,,99,,,,,,Space,keypress(Space),,,,,---- -- ----- -- ------ - ------- --- ----------<br>------------- ------ ------ ---- ---- ------- ----- -- ----<br>-------- ------- -- ---------- --- - --- ----- ----- ----<br>---- --- --- ----- --- ---- ---- ------- ----- ---- -------<br>--- --- -- ----- -- --- ---- -- --- ---- -- ------ ------<br>--- ----- -- all.,103822.79999998212,103822,103201.717,103215.29999998212,103218.388,103835.225,,55,all.
Item 99,flow.Loop,0_2_0_1,2021-10-22T11:02:43.764Z,,,,,,,,,,,,,,,,,,,,,,,,,,,,,,48184.63,,completion,,,,D,,,,,,,,,,silence,,103828.5,103822,55620.699,55627.29999998212,55637.37,103835.225,,,
Question 1,html.Screen,0_2_0_2,2021-10-22T11:02:55.759Z,,,,,,,,,,,,,,,,,,,,,,,,,,,true,FALSE,,11986.374999994034,,response,,,99,D,,,,,FALSE,click #choice-2,,,,silence,,115823.09999999404,115821.59999999404,103818.554,103829,103835.225,115838.849,,,
Question 2,html.Screen,0_2_0_3,2021-10-22T11:03:02.703Z,,,,,,,,,,,,,,,,,,,,,,,,,,,true,TRUE,,6926.650999999998,,response,,,99,D,,,,,TRUE,click #choice-1,,,,silence,,122766.89999997616,122765.5,115822.178,115823.5,115838.849,122774.273,,,
Item 99,flow.Sequence,0_2_0,2021-10-22T11:03:02.704Z,,,,,,,,,,,,,,,,,,,,,,,,,,,,,,77130.968,,completion,,,,,,,,,,,,,,,,122767.5,122765.5,45617.859,45624.89999997616,45634.532,122774.273,,,
Holding screen,html.Screen,0_2_1_0,2021-10-22T11:03:12.698Z,,,,,,,,,,,,,,,,,,,,,,,,,,,,,,10002.905000000013,,timeout,,,,,,,,,,,,,,,,132762,132760.507,122757.602,122768.09999999404,122774.273,132777.178,,,
screen,html.Screen,0_2_1_1_0,2021-10-22T11:03:14.391Z,,,,,,,,,,,,,,,,54,,,,,,,,,,,,,,1676.921999994025,,response,,,100,,,,,,Space,keypress(Space),,,,,At --- ---- --- ------ ----- ------- ---- -- --- ------- --<br>------- ---------- ------ -- ----- -- ----- -- ---- ------<br>--- ----- --- --- ------ -------- ----- --- ------ ----- --<br>----- ----- ---------- --- --- ------ ------ ---- -- ------<br>------- --- ------ ----- --- ---- ------- -- ---- --- --<br>------- ------,134455,134454.09999999404,132760.507,132762.5,132777.178,134461.021,,0,At
screen,html.Screen,0_2_1_1_1,2021-10-22T11:03:14.895Z,,,,,,,,,,,,,,,,54,,,,,,,,,,,,,,496.5789999940316,,response,,,100,,,,,,Space,keypress(Space),,,,,-- the ---- --- ------ ----- ------- ---- -- --- ------- --<br>------- ---------- ------ -- ----- -- ----- -- ---- ------<br>--- ----- --- --- ------ -------- ----- --- ------ ----- --<br>----- ----- ---------- --- --- ------ ------ ---- -- ------<br>------- --- ------ ----- --- ---- ------- -- ---- --- --<br>------- ------,134958.5,134957.59999999404,134444.35,134455.39999997616,134461.021,134961.239,,1,the
screen,html.Screen,0_2_1_1_2,2021-10-22T11:03:15.287Z,,,,,,,,,,,,,,,,54,,,,,,,,,,,,,,388.36099999403814,,response,,,100,,,,,,Space,keypress(Space),,,,,-- --- time --- ------ ----- ------- ---- -- --- ------- --<br>------- ---------- ------ -- ----- -- ----- -- ---- ------<br>--- ----- --- --- ------ -------- ----- --- ------ ----- --<br>----- ----- ---------- --- --- ------ ------ ---- -- ------<br>------- --- ------ ----- --- ---- ------- -- ---- --- --<br>------- ------,135350.59999999404,135349.59999999404,134944.568,134958.89999997616,134961.239,135361.268,,2,time
screen,html.Screen,0_2_1_1_3,2021-10-22T11:03:15.775Z,,,,,,,,,,,,,,,,54,,,,,,,,,,,,,,476.3319999940286,,response,,,100,,,,,,Space,keypress(Space),,,,,-- --- ---- the ------ ----- ------- ---- -- --- ------- --<br>------- ---------- ------ -- ----- -- ----- -- ---- ------<br>--- ----- --- --- ------ -------- ----- --- ------ ----- --<br>----- ----- ---------- --- --- ------ ------ ---- -- ------<br>------- --- ------ ----- --- ---- ------- -- ---- --- --<br>------- ------,135838.5,135837.59999999404,135344.598,135350.89999997616,135361.268,135844.957,,3,the
screen,html.Screen,0_2_1_1_4,2021-10-22T11:03:16.239Z,,,,,,,,,,,,,,,,54,,,,,,,,,,,,,,456.64299999404466,,response,,,100,,,,,,Space,keypress(Space),,,,,-- --- ---- --- French ----- ------- ---- -- --- ------- --<br>------- ---------- ------ -- ----- -- ----- -- ---- ------<br>--- ----- --- --- ------ -------- ----- --- ------ ----- --<br>----- ----- ---------- --- --- ------ ------ ---- -- ------<br>------- --- ------ ----- --- ---- ------- -- ---- --- --<br>------- ------,136302.39999997616,136301.59999999404,135828.283,135838.89999997616,135844.957,136311.643,,4,French
screen,html.Screen,0_2_1_1_5,2021-10-22T11:03:16.671Z,,,,,,,,,,,,,,,,54,,,,,,,,,,,,,,421.9569999940286,,response,,,100,,,,,,Space,keypress(Space),,,,,-- --- ---- --- ------ crown ------- ---- -- --- ------- --<br>------- ---------- ------ -- ----- -- ----- -- ---- ------<br>--- ----- --- --- ------ -------- ----- --- ------ ----- --<br>----- ----- ---------- --- --- ------ ------ ---- -- ------<br>------- --- ------ ----- --- ---- ------- -- ---- --- --<br>------- ------,136734.79999998212,136733.59999999404,136294.972,136302.79999998212,136311.643,136745.133,,5,crown
screen,html.Screen,0_2_1_1_6,2021-10-22T11:03:17.103Z,,,,,,,,,,,,,,,,54,,,,,,,,,,,,,,420.4669999940379,,response,,,100,,,,,,Space,keypress(Space),,,,,-- --- ---- --- ------ ----- secured ---- -- --- ------- --<br>------- ---------- ------ -- ----- -- ----- -- ---- ------<br>--- ----- --- --- ------ -------- ----- --- ------ ----- --<br>----- ----- ---------- --- --- ------ ------ ---- -- ------<br>------- --- ------ ----- --- ---- ------- -- ---- --- --<br>------- ------,137166.39999997616,137165.59999999404,136728.462,136735,136745.133,137178.575,,6,secured
screen,html.Screen,0_2_1_1_7,2021-10-22T11:03:17.551Z,,,,,,,,,,,,,,,,54,,,,,,,,,,,,,,435.0249999940279,,response,,,100,,,,,,Space,keypress(Space),,,,,-- --- ---- --- ------ ----- ------- much -- --- ------- --<br>------- ---------- ------ -- ----- -- ----- -- ---- ------<br>--- ----- --- --- ------ -------- ----- --- ------ ----- --<br>----- ----- ---------- --- --- ------ ------ ---- -- ------<br>------- --- ------ ----- --- ---- ------- -- ---- --- --<br>------- ------,137614.5,137613.59999999404,137161.904,137166.79999998212,137178.575,137628.716,,7,much
screen,html.Screen,0_2_1_1_8,2021-10-22T11:03:17.975Z,,,,,,,,,,,,,,,,54,,,,,,,,,,,,,,408.88399999405374,,response,,,100,,,,,,Space,keypress(Space),,,,,-- --- ---- --- ------ ----- ------- ---- of --- ------- --<br>------- ---------- ------ -- ----- -- ----- -- ---- ------<br>--- ----- --- --- ------ -------- ----- --- ------ ----- --<br>----- ----- ---------- --- --- ------ ------ ---- -- ------<br>------- --- ------ ----- --- ---- ------- -- ---- --- --<br>------- ------,138038.39999997616,138037.59999999404,137612.045,137614.79999998212,137628.716,138045.498,,8,of
screen,html.Screen,0_2_1_1_9,2021-10-22T11:03:18.399Z,,,,,,,,,,,,,,,,54,,,,,,,,,,,,,,416.1019999940472,,response,,,100,,,,,,Space,keypress(Space),,,,,-- --- ---- --- ------ ----- ------- ---- -- its ------- --<br>------- ---------- ------ -- ----- -- ----- -- ---- ------<br>--- ----- --- --- ------ -------- ----- --- ------ ----- --<br>----- ----- ---------- --- --- ------ ------ ---- -- ------<br>------- --- ------ ----- --- ---- ------- -- ---- --- --<br>------- ------,138462.39999997616,138461.59999999404,138028.827,138038.69999998808,138045.498,138478.986,,9,its
screen,html.Screen,0_2_1_1_10,2021-10-22T11:03:18.855Z,,,,,,,,,,,,,,,,54,,,,,,,,,,,,,,438.5139999999956,,response,,,100,,,,,,Space,keypress(Space),,,,,-- --- ---- --- ------ ----- ------- ---- -- --- revenue --<br>------- ---------- ------ -- ----- -- ----- -- ---- ------<br>--- ----- --- --- ------ -------- ----- --- ------ ----- --<br>----- ----- ---------- --- --- ------ ------ ---- -- ------<br>------- --- ------ ----- --- ---- ------- -- ---- --- --<br>------- ------,138918.39999997616,138917.5,138462.315,138462.69999998808,138478.986,138929.096,,10,revenue
screen,html.Screen,0_2_1_1_11,2021-10-22T11:03:19.543Z,,,,,,,,,,,,,,,,54,,,,,,,,,,,,,,676.5039999940491,,response,,,100,,,,,,Space,keypress(Space),,,,,-- --- ---- --- ------ ----- ------- ---- -- --- ------- by<br>------- ---------- ------ -- ----- -- ----- -- ---- ------<br>--- ----- --- --- ------ -------- ----- --- ------ ----- --<br>----- ----- ---------- --- --- ------ ------ ---- -- ------<br>------- --- ------ ----- --- ---- ------- -- ---- --- --<br>------- ------,139606.5,139605.59999999404,138912.425,138918.79999998212,138929.096,139612.63,,11,by
screen,html.Screen,0_2_1_1_12,2021-10-22T11:03:20.015Z,,,,,,,,,,,,,,,,54,,,,,,,,,,,,,,464.9699999940349,,response,,,100,,,,,,Space,keypress(Space),,,,,-- --- ---- --- ------ ----- ------- ---- -- --- ------- --<br>issuing ---------- ------ -- ----- -- ----- -- ---- ------<br>--- ----- --- --- ------ -------- ----- --- ------ ----- --<br>----- ----- ---------- --- --- ------ ------ ---- -- ------<br>------- --- ------ ----- --- ---- ------- -- ---- --- --<br>------- ------,140078.39999997616,140077.59999999404,139595.959,139606.79999998212,139612.63,140079.463,,12,issuing
screen,html.Screen,0_2_1_1_13,2021-10-22T11:03:20.503Z,,,,,,,,,,,,,,,,54,,,,,,,,,,,,,,486.1369999940507,,response,,,100,,,,,,Space,keypress(Space),,,,,-- --- ---- --- ------ ----- ------- ---- -- --- ------- --<br>------- government ------ -- ----- -- ----- -- ---- ------<br>--- ----- --- --- ------ -------- ----- --- ------ ----- --<br>----- ----- ---------- --- --- ------ ------ ---- -- ------<br>------- --- ------ ----- --- ---- ------- -- ---- --- --<br>------- ------,140566.59999999404,140565.59999999404,140062.792,140078.69999998808,140079.463,140579.604,,13,government
screen,html.Screen,0_2_1_1_14,2021-10-22T11:03:20.943Z,,,,,,,,,,,,,,,,54,,,,,,,,,,,,,,425.99599999404745,,response,,,100,,,,,,Space,keypress(Space),,,,,-- --- ---- --- ------ ----- ------- ---- -- --- ------- --<br>------- ---------- bonds. -- ----- -- ----- -- ---- ------<br>--- ----- --- --- ------ -------- ----- --- ------ ----- --<br>----- ----- ---------- --- --- ------ ------ ---- -- ------<br>------- --- ------ ----- --- ---- ------- -- ---- --- --<br>------- ------,141006.39999997616,141005.59999999404,140562.933,140566.89999997616,140579.604,141013.068,,14,bonds.
screen,html.Screen,0_2_1_1_15,2021-10-22T11:03:21.871Z,,,,,,,,,,,,,,,,54,,,,,,,,,,,,,,920.4320000000007,,response,,,100,,,,,,Space,keypress(Space),,,,,-- --- ---- --- ------ ----- ------- ---- -- --- ------- --<br>------- ---------- ------ In ----- -- ----- -- ---- ------<br>--- ----- --- --- ------ -------- ----- --- ------ ----- --<br>----- ----- ---------- --- --- ------ ------ ---- -- ------<br>------- --- ------ ----- --- ---- ------- -- ---- --- --<br>------- ------,141934.5,141933.5,140996.397,141006.69999998808,141013.068,141946.661,,15,In
screen,html.Screen,0_2_1_1_16,2021-10-22T11:03:22.391Z,,,,,,,,,,,,,,,,54,,,,,,,,,,,,,,506.93899999404675,,response,,,100,,,,,,Space,keypress(Space),,,,,"-- --- ---- --- ------ ----- ------- ---- -- --- ------- --<br>------- ---------- ------ -- 1727, -- ----- -- ---- ------<br>--- ----- --- --- ------ -------- ----- --- ------ ----- --<br>----- ----- ---------- --- --- ------ ------ ---- -- ------<br>------- --- ------ ----- --- ---- ------- -- ---- --- --<br>------- ------",142454.29999998212,142453.59999999404,141929.99,141934.69999998808,141946.661,142463.521,,16,"1727,"
screen,html.Screen,0_2_1_1_17,2021-10-22T11:03:22.919Z,,,,,,,,,,,,,,,,54,,,,,,,,,,,,,,517.9789999999921,,response,,,100,,,,,,Space,keypress(Space),,,,,-- --- ---- --- ------ ----- ------- ---- -- --- ------- --<br>------- ---------- ------ -- ----- in ----- -- ---- ------<br>--- ----- --- --- ------ -------- ----- --- ------ ----- --<br>----- ----- ---------- --- --- ------ ------ ---- -- ------<br>------- --- ------ ----- --- ---- ------- -- ---- --- --<br>------- ------,142982.29999998212,142981.5,142446.85,142454.59999999404,142463.521,142996.978,,17,in
screen,html.Screen,0_2_1_1_18,2021-10-22T11:03:23.519Z,,,,,,,,,,,,,,,,54,,,,,,,,,,,,,,584.5219999999972,,response,,,100,,,,,,Space,keypress(Space),,,,,-- --- ---- --- ------ ----- ------- ---- -- --- ------- --<br>------- ---------- ------ -- ----- -- order -- ---- ------<br>--- ----- --- --- ------ -------- ----- --- ------ ----- --<br>----- ----- ---------- --- --- ------ ------ ---- -- ------<br>------- --- ------ ----- --- ---- ------- -- ---- --- --<br>------- ------,143582.39999997616,143581.5,142980.307,142982.59999999404,142996.978,143597.179,,18,order
screen,html.Screen,0_2_1_1_19,2021-10-22T11:03:24.095Z,,,,,,,,,,,,,,,,54,,,,,,,,,,,,,,560.3209999999963,,response,,,100,,,,,,Space,keypress(Space),,,,,-- --- ---- --- ------ ----- ------- ---- -- --- ------- --<br>------- ---------- ------ -- ----- -- ----- to ---- ------<br>--- ----- --- --- ------ -------- ----- --- ------ ----- --<br>----- ----- ---------- --- --- ------ ------ ---- -- ------<br>------- --- ------ ----- --- ---- ------- -- ---- --- --<br>------- ------,144158.29999998212,144157.5,143580.508,143582.69999998808,143597.179,144163.92,,19,to
screen,html.Screen,0_2_1_1_20,2021-10-22T11:03:24.559Z,,,,,,,,,,,,,,,,54,,,,,,,,,,,,,,458.17999999402673,,response,,,100,,,,,,Space,keypress(Space),,,,,-- --- ---- --- ------ ----- ------- ---- -- --- ------- --<br>------- ---------- ------ -- ----- -- ----- -- save ------<br>--- ----- --- --- ------ -------- ----- --- ------ ----- --<br>----- ----- ---------- --- --- ------ ------ ---- -- ------<br>------- --- ------ ----- --- ---- ------- -- ---- --- --<br>------- ------,144623,144622.09999999404,144147.25,144158.59999999404,144163.92,144630.821,,20,save
screen,html.Screen,0_2_1_1_21,2021-10-22T11:03:25.038Z,,,,,,,,,,,,,,,,54,,,,,,,,,,,,,,470.6790000000037,,response,,,100,,,,,,Space,keypress(Space),,,,,"-- --- ---- --- ------ ----- ------- ---- -- --- ------- --<br>------- ---------- ------ -- ----- -- ----- -- ---- money,<br>--- ----- --- --- ------ -------- ----- --- ------ ----- --<br>----- ----- ---------- --- --- ------ ------ ---- -- ------<br>------- --- ------ ----- --- ---- ------- -- ---- --- --<br>------- ------",145102.19999998808,145101.5,144614.15,144623.29999998212,144630.821,145114.309,,21,"money,"
screen,html.Screen,0_2_1_1_22,2021-10-22T11:03:25.535Z,,,,,,,,,,,,,,,,54,,,,,,,,,,,,,,483.1909999999916,,response,,,100,,,,,,Space,keypress(Space),,,,,-- --- ---- --- ------ ----- ------- ---- -- --- ------- --<br>------- ---------- ------ -- ----- -- ----- -- ---- ------<br>the ----- --- --- ------ -------- ----- --- ------ ----- --<br>----- ----- ---------- --- --- ------ ------ ---- -- ------<br>------- --- ------ ----- --- ---- ------- -- ---- --- --<br>------- ------,145598.39999997616,145597.5,145097.638,145102.5,145114.309,145614.435,,22,the
screen,html.Screen,0_2_1_1_23,2021-10-22T11:03:25.942Z,,,,,,,,,,,,,,,,54,,,,,,,,,,,,,,391.0650000000023,,response,,,100,,,,,,Space,keypress(Space),,,,,-- --- ---- --- ------ ----- ------- ---- -- --- ------- --<br>------- ---------- ------ -- ----- -- ----- -- ---- ------<br>--- state --- --- ------ -------- ----- --- ------ ----- --<br>----- ----- ---------- --- --- ------ ------ ---- -- ------<br>------- --- ------ ----- --- ---- ------- -- ---- --- --<br>------- ------,146006.19999998808,146005.5,145597.764,145598.69999998808,145614.435,146014.564,,23,state
screen,html.Screen,0_2_1_1_24,2021-10-22T11:03:26.359Z,,,,,,,,,,,,,,,,54,,,,,,,,,,,,,,406.8359999761451,,response,,,100,,,,,,Space,keypress(Space),,,,,-- --- ---- --- ------ ----- ------- ---- -- --- ------- --<br>------- ---------- ------ -- ----- -- ----- -- ---- ------<br>--- ----- cut --- ------ -------- ----- --- ------ ----- --<br>----- ----- ---------- --- --- ------ ------ ---- -- ------<br>------- --- ------ ----- --- ---- ------- -- ---- --- --<br>------- ------,146422.29999998212,146421.39999997616,145997.893,146006.59999999404,146014.564,146431.36,,24,cut
screen,html.Screen,0_2_1_1_25,2021-10-22T11:03:26.774Z,,,,,,,,,,,,,,,,54,,,,,,,,,,,,,,406.0399999761721,,response,,,100,,,,,,Space,keypress(Space),,,,,-- --- ---- --- ------ ----- ------- ---- -- --- ------- --<br>------- ---------- ------ -- ----- -- ----- -- ---- ------<br>--- ----- --- the ------ -------- ----- --- ------ ----- --<br>----- ----- ---------- --- --- ------ ------ ---- -- ------<br>------- --- ------ ----- --- ---- ------- -- ---- --- --<br>------- ------,146838.19999998808,146837.39999997616,146414.689,146422.59999999404,146431.36,146848.139,,25,the
screen,html.Screen,0_2_1_1_26,2021-10-22T11:03:27.230Z,,,,,,,,,,,,,,,,54,,,,,,,,,,,,,,445.26099997616257,,response,,,100,,,,,,Space,keypress(Space),,,,,-- --- ---- --- ------ ----- ------- ---- -- --- ------- --<br>------- ---------- ------ -- ----- -- ----- -- ---- ------<br>--- ----- --- --- bonds' -------- ----- --- ------ ----- --<br>----- ----- ---------- --- --- ------ ------ ---- -- ------<br>------- --- ------ ----- --- ---- ------- -- ---- --- --<br>------- ------,147294.29999998212,147293.39999997616,146831.468,146838.39999997616,146848.139,147298.295,,26,bonds'
screen,html.Screen,0_2_1_1_27,2021-10-22T11:03:27.790Z,,,,,,,,,,,,,,,,54,,,,,,,,,,,,,,555.2049999999872,,response,,,100,,,,,,Space,keypress(Space),,,,,-- --- ---- --- ------ ----- ------- ---- -- --- ------- --<br>------- ---------- ------ -- ----- -- ----- -- ---- ------<br>--- ----- --- --- ------ interest ----- --- ------ ----- --<br>----- ----- ---------- --- --- ------ ------ ---- -- ------<br>------- --- ------ ----- --- ---- ------- -- ---- --- --<br>------- ------,147854.29999998212,147853.5,147281.624,147294.59999999404,147298.295,147865.046,,27,interest
screen,html.Screen,0_2_1_1_28,2021-10-22T11:03:28.806Z,,,,,,,,,,,,,,,,54,,,,,,,,,,,,,,1004.353999976156,,response,,,100,,,,,,Space,keypress(Space),,,,,-- --- ---- --- ------ ----- ------- ---- -- --- ------- --<br>------- ---------- ------ -- ----- -- ----- -- ---- ------<br>--- ----- --- --- ------ -------- rate. --- ------ ----- --<br>----- ----- ---------- --- --- ------ ------ ---- -- ------<br>------- --- ------ ----- --- ---- ------- -- ---- --- --<br>------- ------,148870.19999998808,148869.39999997616,147848.376,147854.5,147865.046,148882.154,,28,rate.
screen,html.Screen,0_2_1_1_29,2021-10-22T11:03:29.359Z,,,,,,,,,,,,,,,,54,,,,,,,,,,,,,,539.5459999880695,,response,,,100,,,,,,Space,keypress(Space),,,,,-- --- ---- --- ------ ----- ------- ---- -- --- ------- --<br>------- ---------- ------ -- ----- -- ----- -- ---- ------<br>--- ----- --- --- ------ -------- ----- The ------ ----- --<br>----- ----- ---------- --- --- ------ ------ ---- -- ------<br>------- --- ------ ----- --- ---- ------- -- ---- --- --<br>------- ------,149422.5,149421.69999998808,148865.482,148870.5,148882.154,149432.258,,29,The
screen,html.Screen,0_2_1_1_30,2021-10-22T11:03:29.847Z,,,,,,,,,,,,,,,,54,,,,,,,,,,,,,,477.1419999761565,,response,,,100,,,,,,Space,keypress(Space),,,,,-- --- ---- --- ------ ----- ------- ---- -- --- ------- --<br>------- ---------- ------ -- ----- -- ----- -- ---- ------<br>--- ----- --- --- ------ -------- ----- --- market ----- --<br>----- ----- ---------- --- --- ------ ------ ---- -- ------<br>------- --- ------ ----- --- ---- ------- -- ---- --- --<br>------- ------,149910.39999997616,149909.39999997616,149415.587,149422.79999998212,149432.258,149915.725,,30,market
screen,html.Screen,0_2_1_1_31,2021-10-22T11:03:30.358Z,,,,,,,,,,,,,,,,54,,,,,,,,,,,,,,505.7749999999942,,response,,,100,,,,,,Space,keypress(Space),,,,,-- --- ---- --- ------ ----- ------- ---- -- --- ------- --<br>------- ---------- ------ -- ----- -- ----- -- ---- ------<br>--- ----- --- --- ------ -------- ----- --- ------ value --<br>----- ----- ---------- --- --- ------ ------ ---- -- ------<br>------- --- ------ ----- --- ---- ------- -- ---- --- --<br>------- ------,150422.29999998212,150421.5,149899.054,149910.69999998808,149915.725,150432.544,,31,value
screen,html.Screen,0_2_1_1_32,2021-10-22T11:03:30.910Z,,,,,,,,,,,,,,,,54,,,,,,,,,,,,,,540.9560000000056,,response,,,100,,,,,,Space,keypress(Space),,,,,-- --- ---- --- ------ ----- ------- ---- -- --- ------- --<br>------- ---------- ------ -- ----- -- ----- -- ---- ------<br>--- ----- --- --- ------ -------- ----- --- ------ ----- of<br>----- ----- ---------- --- --- ------ ------ ---- -- ------<br>------- --- ------ ----- --- ---- ------- -- ---- --- --<br>------- ------,150974.29999998212,150973.5,150415.873,150422.5,150432.544,150982.716,,32,of
screen,html.Screen,0_2_1_1_33,2021-10-22T11:03:31.350Z,,,,,,,,,,,,,,,,54,,,,,,,,,,,,,,430.68399997617234,,response,,,100,,,,,,Space,keypress(Space),,,,,-- --- ---- --- ------ ----- ------- ---- -- --- ------- --<br>------- ---------- ------ -- ----- -- ----- -- ---- ------<br>--- ----- --- --- ------ -------- ----- --- ------ ----- --<br>these ----- ---------- --- --- ------ ------ ---- -- ------<br>------- --- ------ ----- --- ---- ------- -- ---- --- --<br>------- ------,151414.19999998808,151413.39999997616,150966.045,150974.5,150982.716,151416.183,,33,these
screen,html.Screen,0_2_1_1_34,2021-10-22T11:03:31.774Z,,,,,,,,,,,,,,,,54,,,,,,,,,,,,,,421.21699997616815,,response,,,100,,,,,,Space,keypress(Space),,,,,-- --- ---- --- ------ ----- ------- ---- -- --- ------- --<br>------- ---------- ------ -- ----- -- ----- -- ---- ------<br>--- ----- --- --- ------ -------- ----- --- ------ ----- --<br>----- bonds ---------- --- --- ------ ------ ---- -- ------<br>------- --- ------ ----- --- ---- ------- -- ---- --- --<br>------- ------,151838.19999998808,151837.39999997616,151399.512,151414.5,151416.183,151849.574,,34,bonds
screen,html.Screen,0_2_1_1_35,2021-10-22T11:03:32.230Z,,,,,,,,,,,,,,,,54,,,,,,,,,,,,,,443.8259999761649,,response,,,100,,,,,,Space,keypress(Space),,,,,"-- --- ---- --- ------ ----- ------- ---- -- --- ------- --<br>------- ---------- ------ -- ----- -- ----- -- ---- ------<br>--- ----- --- --- ------ -------- ----- --- ------ ----- --<br>----- ----- plummeted, --- --- ------ ------ ---- -- ------<br>------- --- ------ ----- --- ---- ------- -- ---- --- --<br>------- ------",152294.19999998808,152293.39999997616,151832.904,151838.39999997616,151849.574,152299.88,,35,"plummeted,"
screen,html.Screen,0_2_1_1_36,2021-10-22T11:03:32.758Z,,,,,,,,,,,,,,,,54,,,,,,,,,,,,,,521.5199999761535,,response,,,100,,,,,,Space,keypress(Space),,,,,-- --- ---- --- ------ ----- ------- ---- -- --- ------- --<br>------- ---------- ------ -- ----- -- ----- -- ---- ------<br>--- ----- --- --- ------ -------- ----- --- ------ ----- --<br>----- ----- ---------- and --- ------ ------ ---- -- ------<br>------- --- ------ ----- --- ---- ------- -- ---- --- --<br>------- ------,152822.19999998808,152821.39999997616,152283.207,152294.5,152299.88,152833.264,,36,and
screen,html.Screen,0_2_1_1_37,2021-10-22T11:03:33.158Z,,,,,,,,,,,,,,,,54,,,,,,,,,,,,,,388.13599997616257,,response,,,100,,,,,,Space,keypress(Space),,,,,-- --- ---- --- ------ ----- ------- ---- -- --- ------- --<br>------- ---------- ------ -- ----- -- ----- -- ---- ------<br>--- ----- --- --- ------ -------- ----- --- ------ ----- --<br>----- ----- ---------- --- the ------ ------ ---- -- ------<br>------- --- ------ ----- --- ---- ------- -- ---- --- --<br>------- ------,153222.19999998808,153221.39999997616,152816.593,152822.5,152833.264,153233.308,,37,the
screen,html.Screen,0_2_1_1_38,2021-10-22T11:03:33.694Z,,,,,,,,,,,,,,,,54,,,,,,,,,,,,,,524.0919999761682,,response,,,100,,,,,,Space,keypress(Space),,,,,-- --- ---- --- ------ ----- ------- ---- -- --- ------- --<br>------- ---------- ------ -- ----- -- ----- -- ---- ------<br>--- ----- --- --- ------ -------- ----- --- ------ ----- --<br>----- ----- ---------- --- --- market ------ ---- -- ------<br>------- --- ------ ----- --- ---- ------- -- ---- --- --<br>------- ------,153758.19999998808,153757.39999997616,153216.638,153222.5,153233.308,153766.952,,38,market
screen,html.Screen,0_2_1_1_39,2021-10-22T11:03:34.071Z,,,,,,,,,,,,,,,,54,,,,,,,,,,,,,,366.4479999761679,,response,,,100,,,,,,Space,keypress(Space),,,,,-- --- ---- --- ------ ----- ------- ---- -- --- ------- --<br>------- ---------- ------ -- ----- -- ----- -- ---- ------<br>--- ----- --- --- ------ -------- ----- --- ------ ----- --<br>----- ----- ---------- --- --- ------ became ---- -- ------<br>------- --- ------ ----- --- ---- ------- -- ---- --- --<br>------- ------,154134.29999998212,154133.39999997616,153750.28,153758.5,153766.952,154150.351,,39,became
screen,html.Screen,0_2_1_1_40,2021-10-22T11:03:34.486Z,,,,,,,,,,,,,,,,54,,,,,,,,,,,,,,399.04899997616303,,response,,,100,,,,,,Space,keypress(Space),,,,,-- --- ---- --- ------ ----- ------- ---- -- --- ------- --<br>------- ---------- ------ -- ----- -- ----- -- ---- ------<br>--- ----- --- --- ------ -------- ----- --- ------ ----- --<br>----- ----- ---------- --- --- ------ ------ wary -- ------<br>------- --- ------ ----- --- ---- ------- -- ---- --- --<br>------- ------,154550.19999998808,154549.39999997616,154133.68,154134.59999999404,154150.351,154567.036,,40,wary
screen,html.Screen,0_2_1_1_41,2021-10-22T11:03:34.919Z,,,,,,,,,,,,,,,,54,,,,,,,,,,,,,,414.6639999880863,,response,,,100,,,,,,Space,keypress(Space),,,,,-- --- ---- --- ------ ----- ------- ---- -- --- ------- --<br>------- ---------- ------ -- ----- -- ----- -- ---- ------<br>--- ----- --- --- ------ -------- ----- --- ------ ----- --<br>----- ----- ---------- --- --- ------ ------ ---- of ------<br>------- --- ------ ----- --- ---- ------- -- ---- --- --<br>------- ------,154982.69999998808,154981.69999998808,154550.366,154550.59999999404,154567.036,154984.026,,41,of
screen,html.Screen,0_2_1_1_42,2021-10-22T11:03:35.350Z,,,,,,,,,,,,,,,,54,,,,,,,,,,,,,,429.37399997614557,,response,,,100,,,,,,Space,keypress(Space),,,,,-- --- ---- --- ------ ----- ------- ---- -- --- ------- --<br>------- ---------- ------ -- ----- -- ----- -- ---- ------<br>--- ----- --- --- ------ -------- ----- --- ------ ----- --<br>----- ----- ---------- --- --- ------ ------ ---- -- French<br>------- --- ------ ----- --- ---- ------- -- ---- --- --<br>------- ------,155414.19999998808,155413.39999997616,154967.353,154983,154984.026,155417.393,,42,French
screen,html.Screen,0_2_1_1_43,2021-10-22T11:03:35.798Z,,,,,,,,,,,,,,,,54,,,,,,,,,,,,,,444.0069999761472,,response,,,100,,,,,,Space,keypress(Space),,,,,-- --- ---- --- ------ ----- ------- ---- -- --- ------- --<br>------- ---------- ------ -- ----- -- ----- -- ---- ------<br>--- ----- --- --- ------ -------- ----- --- ------ ----- --<br>----- ----- ---------- --- --- ------ ------ ---- -- ------<br>credit. --- ------ ----- --- ---- ------- -- ---- --- --<br>------- ------,155862.09999999404,155861.39999997616,155400.722,155414.39999997616,155417.393,155867.472,,43,credit.
screen,html.Screen,0_2_1_1_44,2021-10-22T11:03:36.214Z,,,,,,,,,,,,,,,,54,,,,,,,,,,,,,,409.82799998210976,,response,,,100,,,,,,Space,keypress(Space),,,,,-- --- ---- --- ------ ----- ------- ---- -- --- ------- --<br>------- ---------- ------ -- ----- -- ----- -- ---- ------<br>--- ----- --- --- ------ -------- ----- --- ------ ----- --<br>----- ----- ---------- --- --- ------ ------ ---- -- ------<br>------- The ------ ----- --- ---- ------- -- ---- --- --<br>------- ------,156278.19999998808,156277.29999998212,155850.802,155862.5,155867.472,156284.373,,44,The
screen,html.Screen,0_2_1_1_45,2021-10-22T11:03:36.638Z,,,,,,,,,,,,,,,,54,,,,,,,,,,,,,,417.0269999761658,,response,,,100,,,,,,Space,keypress(Space),,,,,-- --- ---- --- ------ ----- ------- ---- -- --- ------- --<br>------- ---------- ------ -- ----- -- ----- -- ---- ------<br>--- ----- --- --- ------ -------- ----- --- ------ ----- --<br>----- ----- ---------- --- --- ------ ------ ---- -- ------<br>------- --- French ----- --- ---- ------- -- ---- --- --<br>------- ------,156702.19999998808,156701.39999997616,156267.701,156278.5,156284.373,156717.776,,45,French
screen,html.Screen,0_2_1_1_46,2021-10-22T11:03:37.046Z,,,,,,,,,,,,,,,,54,,,,,,,,,,,,,,391.62399997614557,,response,,,100,,,,,,Space,keypress(Space),,,,,-- --- ---- --- ------ ----- ------- ---- -- --- ------- --<br>------- ---------- ------ -- ----- -- ----- -- ---- ------<br>--- ----- --- --- ------ -------- ----- --- ------ ----- --<br>----- ----- ---------- --- --- ------ ------ ---- -- ------<br>------- --- ------ state --- ---- ------- -- ---- --- --<br>------- ------,157110.19999998808,157109.39999997616,156701.105,156705,156717.776,157117.902,,46,state
screen,html.Screen,0_2_1_1_47,2021-10-22T11:03:37.478Z,,,,,,,,,,,,,,,,54,,,,,,,,,,,,,,423.39799998211674,,response,,,100,,,,,,Space,keypress(Space),,,,,-- --- ---- --- ------ ----- ------- ---- -- --- ------- --<br>------- ---------- ------ -- ----- -- ----- -- ---- ------<br>--- ----- --- --- ------ -------- ----- --- ------ ----- --<br>----- ----- ---------- --- --- ------ ------ ---- -- ------<br>------- --- ------ ----- was ---- ------- -- ---- --- --<br>------- ------,157542.19999998808,157541.29999998212,157101.231,157110.59999999404,157117.902,157551.363,,47,was
screen,html.Screen,0_2_1_1_48,2021-10-22T11:03:37.934Z,,,,,,,,,,,,,,,,54,,,,,,,,,,,,,,446.03699997614603,,response,,,100,,,,,,Space,keypress(Space),,,,,-- --- ---- --- ------ ----- ------- ---- -- --- ------- --<br>------- ---------- ------ -- ----- -- ----- -- ---- ------<br>--- ----- --- --- ------ -------- ----- --- ------ ----- --<br>----- ----- ---------- --- --- ------ ------ ---- -- ------<br>------- --- ------ ----- --- left ------- -- ---- --- --<br>------- ------,157998.09999999404,157997.39999997616,157534.692,157542.5,157551.363,158001.51,,48,left
screen,html.Screen,0_2_1_1_49,2021-10-22T11:03:38.398Z,,,,,,,,,,,,,,,,54,,,,,,,,,,,,,,459.88999997614883,,response,,,100,,,,,,Space,keypress(Space),,,,,-- --- ---- --- ------ ----- ------- ---- -- --- ------- --<br>------- ---------- ------ -- ----- -- ----- -- ---- ------<br>--- ----- --- --- ------ -------- ----- --- ------ ----- --<br>----- ----- ---------- --- --- ------ ------ ---- -- ------<br>------- --- ------ ----- --- ---- without -- ---- --- --<br>------- ------,158462.09999999404,158461.39999997616,157984.839,157998.39999997616,158001.51,158468.309,,49,without
screen,html.Screen,0_2_1_1_50,2021-10-22T11:03:38.838Z,,,,,,,,,,,,,,,,54,,,,,,,,,,,,,,432.9909999821102,,response,,,100,,,,,,Space,keypress(Space),,,,,-- --- ---- --- ------ ----- ------- ---- -- --- ------- --<br>------- ---------- ------ -- ----- -- ----- -- ---- ------<br>--- ----- --- --- ------ -------- ----- --- ------ ----- --<br>----- ----- ---------- --- --- ------ ------ ---- -- ------<br>------- --- ------ ----- --- ---- ------- an ---- --- --<br>------- ------,158902.19999998808,158901.29999998212,158451.638,158462.39999997616,158468.309,158918.442,,50,an
screen,html.Screen,0_2_1_1_51,2021-10-22T11:03:39.262Z,,,,,,,,,,,,,,,,54,,,,,,,,,,,,,,406.95799997614813,,response,,,100,,,,,,Space,keypress(Space),,,,,-- --- ---- --- ------ ----- ------- ---- -- --- ------- --<br>------- ---------- ------ -- ----- -- ----- -- ---- ------<br>--- ----- --- --- ------ -------- ----- --- ------ ----- --<br>----- ----- ---------- --- --- ------ ------ ---- -- ------<br>------- --- ------ ----- --- ---- ------- -- easy --- --<br>------- ------,159326.09999999404,159325.39999997616,158901.771,158902.39999997616,158918.442,159335.219,,51,easy
screen,html.Screen,0_2_1_1_52,2021-10-22T11:03:39.686Z,,,,,,,,,,,,,,,,54,,,,,,,,,,,,,,413.9809999880672,,response,,,100,,,,,,Space,keypress(Space),,,,,-- --- ---- --- ------ ----- ------- ---- -- --- ------- --<br>------- ---------- ------ -- ----- -- ----- -- ---- ------<br>--- ----- --- --- ------ -------- ----- --- ------ ----- --<br>----- ----- ---------- --- --- ------ ------ ---- -- ------<br>------- --- ------ ----- --- ---- ------- -- ---- way --<br>------- ------,159750,159749.19999998808,159318.548,159326.29999998212,159335.219,159752.071,,52,way
screen,html.Screen,0_2_1_1_53,2021-10-22T11:03:40.118Z,,,,,,,,,,,,,,,,54,,,,,,,,,,,,,,429.32899997616187,,response,,,100,,,,,,Space,keypress(Space),,,,,-- --- ---- --- ------ ----- ------- ---- -- --- ------- --<br>------- ---------- ------ -- ----- -- ----- -- ---- ------<br>--- ----- --- --- ------ -------- ----- --- ------ ----- --<br>----- ----- ---------- --- --- ------ ------ ---- -- ------<br>------- --- ------ ----- --- ---- ------- -- ---- --- of<br>------- ------,160182.09999999404,160181.39999997616,159735.399,159750.29999998212,159752.071,160185.445,,53,of
screen,html.Screen,0_2_1_1_54,2021-10-22T11:03:40.542Z,,,,,,,,,,,,,,,,54,,,,,,,,,,,,,,419.8549999821116,,response,,,100,,,,,,Space,keypress(Space),,,,,-- --- ---- --- ------ ----- ------- ---- -- --- ------- --<br>------- ---------- ------ -- ----- -- ----- -- ---- ------<br>--- ----- --- --- ------ -------- ----- --- ------ ----- --<br>----- ----- ---------- --- --- ------ ------ ---- -- ------<br>------- --- ------ ----- --- ---- ------- -- ---- --- --<br>raising ------,160606.09999999404,160605.29999998212,160168.775,160182.39999997616,160185.445,160618.961,,54,raising
screen,html.Screen,0_2_1_1_55,2021-10-22T11:03:40.894Z,,,,,,,,,,,,,,,,54,,,,,,,,,,,,,,338.33899998210836,,response,,,100,,,,,,Space,keypress(Space),,,,,-- --- ---- --- ------ ----- ------- ---- -- --- ------- --<br>------- ---------- ------ -- ----- -- ----- -- ---- ------<br>--- ----- --- --- ------ -------- ----- --- ------ ----- --<br>----- ----- ---------- --- --- ------ ------ ---- -- ------<br>------- --- ------ ----- --- ---- ------- -- ---- --- --<br>------- money.,160958.09999999404,160957.29999998212,160602.29,160606.39999997616,160618.961,160969.065,,55,money.
Item 100,flow.Loop,0_2_1_1,2021-10-22T11:03:40.895Z,,,,,,,,,,,,,,,,,,,,,,,,,,,,,,28180.121999982104,,completion,,,,D,,,,,,,,,,silence,,160958.69999998808,160957.29999998212,132760.507,132762.29999998212,132777.178,160969.065,,,
Question 1,html.Screen,0_2_1_2,2021-10-22T11:03:44.447Z,,,,,,,,,,,,,,,,,,,,,,,,,,,true,TRUE,,3540.034999994037,,response,,,100,D,,,,,TRUE,click #choice-1,,,,silence,,164510.39999997616,164509.09999999404,160952.394,160958.79999998212,160969.065,164520.153,,,
Question 2,html.Screen,0_2_1_3,2021-10-22T11:03:47.950Z,,,,,,,,,,,,,,,,,,,,,,,,,,,true,FALSE,,3492.847000000009,,response,,,100,D,,,,,FALSE,click #choice-2,,,,silence,,168014.19999998808,168013,164503.481,164510.69999998808,164520.153,168021.178,,,
Item 100,flow.Sequence,0_2_1,2021-10-22T11:03:47.951Z,,,,,,,,,,,,,,,,,,,,,,,,,,,,,,45238.727,,completion,,,,,,,,,,,,,,,,168014.69999998808,168013,122757.602,122767.79999998212,122774.273,168021.178,,,
End of Practice,html.Page,0_2_2,2021-10-22T11:03:53.351Z,,,,,,,,,,,,,,,,,,,,,,,,,,,,,,5393.521999988065,,form submission,,,,,,,,,,,,,,,,173415.29999998212,173414.69999998808,168004.507,168014.89999997616,168021.178,173422.753,,,
Practice,flow.Sequence,0_2,2021-10-22T11:03:53.352Z,,,,,,,,,,,,,,,,,,,,,,,,,,,,,,127780.16799998807,,completion,,,,,,,,,,,,,,,,173415.79999998212,173414.69999998808,45617.859,45624.79999998212,45634.532,173422.753,,,
Trap_instruction,html.Page,0_3_0,2021-10-22T11:03:59.535Z,,,,,,,,,,,,,,,,,,,,,,,,,,,,,,6175.646999976161,,form submission,,,,,,,,,,,,,,,,179598.89999997616,179598.39999997616,173406.082,173416.19999998808,173422.753,179657.694,,,
trap_trial,html.Screen,0_3_1,2021-10-22T11:04:02.359Z,,,,,,,,,,,,,,,,,,,,,,,,,,,true,1,,2763.10599998213,,response,,,,,,,,,1,click #choice-1,,,,,,182422,182420.79999998212,179591.01,179602.59999999404,179657.694,182425.352,,,
end of trap trial,html.Page,0_3_2,2021-10-22T11:04:05.232Z,,,,,,,,,,,,,,,,,,,,,,,,,,,,,,2868.8479999880656,,form submission,,,,,,,,,,,,,,,,185294.69999998808,185294.19999998808,182408.681,182422.29999998212,182425.352,185309.643,,,
Trap 1,flow.Sequence,0_3,2021-10-22T11:04:05.232Z,,,,,,,,,,,,,,,,,,,,,,,,,,,,,,11871.446999988082,,completion,,,,,,,,,,,,,,,,185295.39999997616,185294.19999998808,173406.082,173416.09999999404,173422.753,185309.643,,,
Standby,html.Page,0_4_0,2021-10-22T11:04:13.233Z,,,,,,,,,,,,,,,,,,,,,,,,,,,,,,8001.588999999978,,timeout,,,,,,,,,,,,,,,,193295.79999998212,193294.562,185292.972,185295.69999998808,185309.643,193311.232,,,
Holding screen,html.Screen,0_4_1_0_0,2021-10-22T11:04:20.236Z,,,,,,,,,,,,,,,,,,,,,,,,,,,,,,7002.941000000021,,timeout,,,,,,,,,,,,,,,,200299,200297.502,193294.562,193296.09999999404,193311.232,200314.173,,,
screen,html.Screen,0_4_1_0_1_0,2021-10-22T11:04:23.736Z,,,,,,,,,,,,,,,,51,,,,,,,,,,,,,,3483.0269999880693,,response,,,13,D,,,,,Space,keypress(Space),,,,silence,American -------- --- --- ---- --- --- ------ -- --------<br>---- --------- --- ------- ------------ ---------- ---------<br>--- ---------- ------- ---------- ------- -- -------- ----<br>---- --- ------ ----- ------ -- ---- --- ----- -- - -------<br>-------- -- --- --- -- ----- ----------- ----- -----------<br>---- --- ---------- --- ---- --- -- ----------,203798.39999997616,203797.19999998808,200297.502,200299.29999998212,200314.173,203798.436,,0,American
screen,html.Screen,0_4_1_0_1_1,2021-10-22T11:04:24.455Z,,,,,,,,,,,,,,,,51,,,,,,,,,,,,,,718.2639999880921,,response,,,13,D,,,,,Space,keypress(Space),,,,silence,-------- industry --- --- ---- --- --- ------ -- --------<br>---- --------- --- ------- ------------ ---------- ---------<br>--- ---------- ------- ---------- ------- -- -------- ----<br>---- --- ------ ----- ------ -- ---- --- ----- -- - -------<br>-------- -- --- --- -- ----- ----------- ----- -----------<br>---- --- ---------- --- ---- --- -- ----------,204517.59999999404,204516.69999998808,203781.765,203798.89999997616,203798.436,204531.91,,1,industry
screen,html.Screen,0_4_1_0_1_2,2021-10-22T11:04:25.623Z,,,,,,,,,,,,,,,,51,,,,,,,,,,,,,,1152.7899999880756,,response,,,13,D,,,,,Space,keypress(Space),,,,silence,-------- -------- may --- ---- --- --- ------ -- --------<br>---- --------- --- ------- ------------ ---------- ---------<br>--- ---------- ------- ---------- ------- -- -------- ----<br>---- --- ------ ----- ------ -- ---- --- ----- -- - -------<br>-------- -- --- --- -- ----- ----------- ----- -----------<br>---- --- ---------- --- ---- --- -- ----------,205685.59999999404,205684.69999998808,204515.24,204518,204531.91,205699.036,,2,may
screen,html.Screen,0_4_1_0_1_3,2021-10-22T11:04:26.199Z,,,,,,,,,,,,,,,,51,,,,,,,,,,,,,,561.6639999880863,,response,,,13,D,,,,,Space,keypress(Space),,,,silence,-------- -------- --- not ---- --- --- ------ -- --------<br>---- --------- --- ------- ------------ ---------- ---------<br>--- ---------- ------- ---------- ------- -- -------- ----<br>---- --- ------ ----- ------ -- ---- --- ----- -- - -------<br>-------- -- --- --- -- ----- ----------- ----- -----------<br>---- --- ---------- --- ---- --- -- ----------,206261.59999999404,206260.69999998808,205682.365,205685.89999997616,205699.036,206266.124,,3,not
screen,html.Screen,0_4_1_0_1_4,2021-10-22T11:04:26.919Z,,,,,,,,,,,,,,,,51,,,,,,,,,,,,,,714.5759999880684,,response,,,13,D,,,,,Space,keypress(Space),,,,silence,-------- -------- --- --- know --- --- ------ -- --------<br>---- --------- --- ------- ------------ ---------- ---------<br>--- ---------- ------- ---------- ------- -- -------- ----<br>---- --- ------ ----- ------ -- ---- --- ----- -- - -------<br>-------- -- --- --- -- ----- ----------- ----- -----------<br>---- --- ---------- --- ---- --- -- ----------,206981.59999999404,206980.69999998808,206249.451,206262,206266.124,206982.854,,4,know
screen,html.Screen,0_4_1_0_1_5,2021-10-22T11:04:28.207Z,,,,,,,,,,,,,,,,51,,,,,,,,,,,,,,1285.9459999821265,,response,,,13,D,,,,,Space,keypress(Space),,,,silence,"-------- -------- --- --- ---- it, --- ------ -- --------<br>---- --------- --- ------- ------------ ---------- ---------<br>--- ---------- ------- ---------- ------- -- -------- ----<br>---- --- ------ ----- ------ -- ---- --- ----- -- - -------<br>-------- -- --- --- -- ----- ----------- ----- -----------<br>---- --- ---------- --- ---- --- -- ----------",208269.69999998808,208268.79999998212,206966.183,206981.89999997616,206982.854,208283.225,,5,"it,"
screen,html.Screen,0_4_1_0_1_6,2021-10-22T11:04:29.007Z,,,,,,,,,,,,,,,,51,,,,,,,,,,,,,,785.4749999880733,,response,,,13,D,,,,,Space,keypress(Space),,,,silence,-------- -------- --- --- ---- --- but ------ -- --------<br>---- --------- --- ------- ------------ ---------- ---------<br>--- ---------- ------- ---------- ------- -- -------- ----<br>---- --- ------ ----- ------ -- ---- --- ----- -- - -------<br>-------- -- --- --- -- ----- ----------- ----- -----------<br>---- --- ---------- --- ---- --- -- ----------,209069.69999998808,209068.69999998808,208266.554,208270,208283.225,209083.483,,6,but
screen,html.Screen,0_4_1_0_1_7,2021-10-22T11:04:29.463Z,,,,,,,,,,,,,,,,51,,,,,,,,,,,,,,441.2169999880716,,response,,,13,D,,,,,Space,keypress(Space),,,,silence,-------- -------- --- --- ---- --- --- debate -- --------<br>---- --------- --- ------- ------------ ---------- ---------<br>--- ---------- ------- ---------- ------- -- -------- ----<br>---- --- ------ ----- ------ -- ---- --- ----- -- - -------<br>-------- -- --- --- -- ----- ----------- ----- -----------<br>---- --- ---------- --- ---- --- -- ----------,209525.5,209524.69999998808,209066.812,209070,209083.483,209533.633,,7,debate
screen,html.Screen,0_4_1_0_1_8,2021-10-22T11:04:29.895Z,,,,,,,,,,,,,,,,51,,,,,,,,,,,,,,423.06699998807744,,response,,,13,D,,,,,Space,keypress(Space),,,,silence,-------- -------- --- --- ---- --- --- ------ in --------<br>---- --------- --- ------- ------------ ---------- ---------<br>--- ---------- ------- ---------- ------- -- -------- ----<br>---- --- ------ ----- ------ -- ---- --- ----- -- - -------<br>-------- -- --- --- -- ----- ----------- ----- -----------<br>---- --- ---------- --- ---- --- -- ----------,209957.5,209956.69999998808,209516.962,209525.79999998212,209533.633,209967.082,,8,in
screen,html.Screen,0_4_1_0_1_9,2021-10-22T11:04:30.327Z,,,,,,,,,,,,,,,,51,,,,,,,,,,,,,,421.6179999880842,,response,,,13,D,,,,,Space,keypress(Space),,,,silence,-------- -------- --- --- ---- --- --- ------ -- Congress<br>---- --------- --- ------- ------------ ---------- ---------<br>--- ---------- ------- ---------- ------- -- -------- ----<br>---- --- ------ ----- ------ -- ---- --- ----- -- - -------<br>-------- -- --- --- -- ----- ----------- ----- -----------<br>---- --- ---------- --- ---- --- -- ----------,210389.59999999404,210388.69999998808,209950.411,209957.79999998212,209967.082,210400.553,,9,Congress
screen,html.Screen,0_4_1_0_1_10,2021-10-22T11:04:30.879Z,,,,,,,,,,,,,,,,51,,,,,,,,,,,,,,540.1469999880646,,response,,,13,D,,,,,Space,keypress(Space),,,,silence,-------- -------- --- --- ---- --- --- ------ -- --------<br>over --------- --- ------- ------------ ---------- ---------<br>--- ---------- ------- ---------- ------- -- -------- ----<br>---- --- ------ ----- ------ -- ---- --- ----- -- - -------<br>-------- -- --- --- -- ----- ----------- ----- -----------<br>---- --- ---------- --- ---- --- -- ----------,210941.5,210940.69999998808,210383.882,210389.79999998212,210400.553,210950.711,,10,over
screen,html.Screen,0_4_1_0_1_11,2021-10-22T11:04:31.327Z,,,,,,,,,,,,,,,,51,,,,,,,,,,,,,,437.9889999880688,,response,,,13,D,,,,,Space,keypress(Space),,,,silence,-------- -------- --- --- ---- --- --- ------ -- --------<br>---- reforming --- ------- ------------ ---------- ---------<br>--- ---------- ------- ---------- ------- -- -------- ----<br>---- --- ------ ----- ------ -- ---- --- ----- -- - -------<br>-------- -- --- --- -- ----- ----------- ----- -----------<br>---- --- ---------- --- ---- --- -- ----------,211389.5,211388.69999998808,210934.04,210941.79999998212,210950.711,211400.864,,11,reforming
screen,html.Screen,0_4_1_0_1_12,2021-10-22T11:04:31.871Z,,,,,,,,,,,,,,,,51,,,,,,,,,,,,,,531.8359999880777,,response,,,13,D,,,,,Space,keypress(Space),,,,silence,-------- -------- --- --- ---- --- --- ------ -- --------<br>---- --------- the ------- ------------ ---------- ---------<br>--- ---------- ------- ---------- ------- -- -------- ----<br>---- --- ------ ----- ------ -- ---- --- ----- -- - -------<br>-------- -- --- --- -- ----- ----------- ----- -----------<br>---- --- ---------- --- ---- --- -- ----------,211933.5,211932.69999998808,211384.193,211389.79999998212,211400.864,211934.335,,12,the
screen,html.Screen,0_4_1_0_1_13,2021-10-22T11:04:32.511Z,,,,,,,,,,,,,,,,51,,,,,,,,,,,,,,638.3649999880872,,response,,,13,D,,,,,Space,keypress(Space),,,,silence,-------- -------- --- --- ---- --- --- ------ -- --------<br>---- --------- --- federal ------------ ---------- ---------<br>--- ---------- ------- ---------- ------- -- -------- ----<br>---- --- ------ ----- ------ -- ---- --- ----- -- - -------<br>-------- -- --- --- -- ----- ----------- ----- -----------<br>---- --- ---------- --- ---- --- -- ----------,212573.39999997616,212572.69999998808,211917.664,211933.69999998808,211934.335,212584.549,,13,federal
screen,html.Screen,0_4_1_0_1_14,2021-10-22T11:04:32.959Z,,,,,,,,,,,,,,,,51,,,,,,,,,,,,,,436.15099998808,,response,,,13,D,,,,,Space,keypress(Space),,,,silence,-------- -------- --- --- ---- --- --- ------ -- --------<br>---- --------- --- ------- government's ---------- ---------<br>--- ---------- ------- ---------- ------- -- -------- ----<br>---- --- ------ ----- ------ -- ---- --- ----- -- - -------<br>-------- -- --- --- -- ----- ----------- ----- -----------<br>---- --- ---------- --- ---- --- -- ----------,213021.5,213020.69999998808,212567.878,212573.69999998808,212584.549,213034.61,,14,government's
screen,html.Screen,0_4_1_0_1_15,2021-10-22T11:04:33.495Z,,,,,,,,,,,,,,,,51,,,,,,,,,,,,,,522.089999988093,,response,,,13,D,,,,,Space,keypress(Space),,,,silence,-------- -------- --- --- ---- --- --- ------ -- --------<br>---- --------- --- ------- ------------ regulatory ---------<br>--- ---------- ------- ---------- ------- -- -------- ----<br>---- --- ------ ----- ------ -- ---- --- ----- -- - -------<br>-------- -- --- --- -- ----- ----------- ----- -----------<br>---- --- ---------- --- ---- --- -- ----------,213557.5,213556.69999998808,213017.94,213021.69999998808,213034.61,213568.222,,15,regulatory
screen,html.Screen,0_4_1_0_1_16,2021-10-22T11:04:34.391Z,,,,,,,,,,,,,,,,51,,,,,,,,,,,,,,884.6779999761493,,response,,,13,D,,,,,Space,keypress(Space),,,,silence,-------- -------- --- --- ---- --- --- ------ -- --------<br>---- --------- --- ------- ------------ ---------- apparatus<br>--- ---------- ------- ---------- ------- -- -------- ----<br>---- --- ------ ----- ------ -- ---- --- ----- -- - -------<br>-------- -- --- --- -- ----- ----------- ----- -----------<br>---- --- ---------- --- ---- --- -- ----------,214453.79999998212,214452.89999997616,213551.55,213557.69999998808,213568.222,214468.427,,16,apparatus
screen,html.Screen,0_4_1_0_1_17,2021-10-22T11:04:34.879Z,,,,,,,,,,,,,,,,51,,,,,,,,,,,,,,472.37299998212256,,response,,,13,D,,,,,Space,keypress(Space),,,,silence,-------- -------- --- --- ---- --- --- ------ -- --------<br>---- --------- --- ------- ------------ ---------- ---------<br>may ---------- ------- ---------- ------- -- -------- ----<br>---- --- ------ ----- ------ -- ---- --- ----- -- - -------<br>-------- -- --- --- -- ----- ----------- ----- -----------<br>---- --- ---------- --- ---- --- -- ----------,214941.59999999404,214940.79999998212,214451.756,214454,214468.427,214951.79,,17,may
screen,html.Screen,0_4_1_0_1_18,2021-10-22T11:04:35.319Z,,,,,,,,,,,,,,,,51,,,,,,,,,,,,,,428.8099999940314,,response,,,13,D,,,,,Space,keypress(Space),,,,silence,-------- -------- --- --- ---- --- --- ------ -- --------<br>---- --------- --- ------- ------------ ---------- ---------<br>--- profoundly ------- ---------- ------- -- -------- ----<br>---- --- ------ ----- ------ -- ---- --- ----- -- - -------<br>-------- -- --- --- -- ----- ----------- ----- -----------<br>---- --- ---------- --- ---- --- -- ----------,215381.39999997616,215380.59999999404,214935.12,214941.79999998212,214951.79,215385.424,,18,profoundly
screen,html.Screen,0_4_1_0_1_19,2021-10-22T11:04:35.759Z,,,,,,,,,,,,,,,,51,,,,,,,,,,,,,,435.17599999404047,,response,,,13,D,,,,,Space,keypress(Space),,,,silence,-------- -------- --- --- ---- --- --- ------ -- --------<br>---- --------- --- ------- ------------ ---------- ---------<br>--- ---------- improve ---------- ------- -- -------- ----<br>---- --- ------ ----- ------ -- ---- --- ----- -- - -------<br>-------- -- --- --- -- ----- ----------- ----- -----------<br>---- --- ---------- --- ---- --- -- ----------,215821.5,215820.59999999404,215368.752,215381.69999998808,215385.424,215835.521,,19,improve
screen,html.Screen,0_4_1_0_1_20,2021-10-22T11:04:36.239Z,,,,,,,,,,,,,,,,51,,,,,,,,,,,,,,465.0789999940316,,response,,,13,D,,,,,Space,keypress(Space),,,,silence,-------- -------- --- --- ---- --- --- ------ -- --------<br>---- --------- --- ------- ------------ ---------- ---------<br>--- ---------- ------- companies' ------- -- -------- ----<br>---- --- ------ ----- ------ -- ---- --- ----- -- - -------<br>-------- -- --- --- -- ----- ----------- ----- -----------<br>---- --- ---------- --- ---- --- -- ----------,216301.5,216300.59999999404,215818.85,215821.69999998808,215835.521,216302.328,,20,companies'
screen,html.Screen,0_4_1_0_1_21,2021-10-22T11:04:36.759Z,,,,,,,,,,,,,,,,51,,,,,,,,,,,,,,518.2719999940309,,response,,,13,D,,,,,Space,keypress(Space),,,,silence,-------- -------- --- --- ---- --- --- ------ -- --------<br>---- --------- --- ------- ------------ ---------- ---------<br>--- ---------- ------- ---------- ability -- -------- ----<br>---- --- ------ ----- ------ -- ---- --- ----- -- - -------<br>-------- -- --- --- -- ----- ----------- ----- -----------<br>---- --- ---------- --- ---- --- -- ----------,216821.39999997616,216820.59999999404,216285.657,216301.79999998212,216302.328,216835.804,,21,ability
screen,html.Screen,0_4_1_0_1_22,2021-10-22T11:04:37.175Z,,,,,,,,,,,,,,,,51,,,,,,,,,,,,,,400.7959999940358,,response,,,13,D,,,,,Space,keypress(Space),,,,silence,-------- -------- --- --- ---- --- --- ------ -- --------<br>---- --------- --- ------- ------------ ---------- ---------<br>--- ---------- ------- ---------- ------- to -------- ----<br>---- --- ------ ----- ------ -- ---- --- ----- -- - -------<br>-------- -- --- --- -- ----- ----------- ----- -----------<br>---- --- ---------- --- ---- --- -- ----------,217237.39999997616,217236.59999999404,216819.133,216821.69999998808,216835.804,217252.666,,22,to
screen,html.Screen,0_4_1_0_1_23,2021-10-22T11:04:37.623Z,,,,,,,,,,,,,,,,51,,,,,,,,,,,,,,431.83400000000256,,response,,,13,D,,,,,Space,keypress(Space),,,,silence,-------- -------- --- --- ---- --- --- ------ -- --------<br>---- --------- --- ------- ------------ ---------- ---------<br>--- ---------- ------- ---------- ------- -- survive. ----<br>---- --- ------ ----- ------ -- ---- --- ----- -- - -------<br>-------- -- --- --- -- ----- ----------- ----- -----------<br>---- --- ---------- --- ---- --- -- ----------,217685.29999998212,217684.5,217235.994,217237.69999998808,217252.666,217702.702,,23,survive.
screen,html.Screen,0_4_1_0_1_24,2021-10-22T11:04:38.279Z,,,,,,,,,,,,,,,,51,,,,,,,,,,,,,,637.8979999940493,,response,,,13,D,,,,,Space,keypress(Space),,,,silence,-------- -------- --- --- ---- --- --- ------ -- --------<br>---- --------- --- ------- ------------ ---------- ---------<br>--- ---------- ------- ---------- ------- -- -------- This<br>---- --- ------ ----- ------ -- ---- --- ----- -- - -------<br>-------- -- --- --- -- ----- ----------- ----- -----------<br>---- --- ---------- --- ---- --- -- ----------,218341.39999997616,218340.59999999404,217686.032,217685.59999999404,217702.702,218352.944,,24,This
screen,html.Screen,0_4_1_0_1_25,2021-10-22T11:04:38.671Z,,,,,,,,,,,,,,,,51,,,,,,,,,,,,,,379.65599999405094,,response,,,13,D,,,,,Space,keypress(Space),,,,silence,-------- -------- --- --- ---- --- --- ------ -- --------<br>---- --------- --- ------- ------------ ---------- ---------<br>--- ---------- ------- ---------- ------- -- -------- ----<br>week --- ------ ----- ------ -- ---- --- ----- -- - -------<br>-------- -- --- --- -- ----- ----------- ----- -----------<br>---- --- ---------- --- ---- --- -- ----------,218733.29999998212,218732.59999999404,218336.273,218341.69999998808,218352.944,218736.378,,25,week
screen,html.Screen,0_4_1_0_1_26,2021-10-22T11:04:39.022Z,,,,,,,,,,,,,,,,51,,,,,,,,,,,,,,348.122000000003,,response,,,13,D,,,,,Space,keypress(Space),,,,silence,-------- -------- --- --- ---- --- --- ------ -- --------<br>---- --------- --- ------- ------------ ---------- ---------<br>--- ---------- ------- ---------- ------- -- -------- ----<br>---- the ------ ----- ------ -- ---- --- ----- -- - -------<br>-------- -- --- --- -- ----- ----------- ----- -----------<br>---- --- ---------- --- ---- --- -- ----------,219085.39999997616,219084.5,218719.707,218733.59999999404,218736.378,219086.502,,26,the
screen,html.Screen,0_4_1_0_1_27,2021-10-22T11:04:39.423Z,,,,,,,,,,,,,,,,51,,,,,,,,,,,,,,398.09799999403185,,response,,,13,D,,,,,Space,keypress(Space),,,,silence,-------- -------- --- --- ---- --- --- ------ -- --------<br>---- --------- --- ------- ------------ ---------- ---------<br>--- ---------- ------- ---------- ------- -- -------- ----<br>---- --- Senate ----- ------ -- ---- --- ----- -- - -------<br>-------- -- --- --- -- ----- ----------- ----- -----------<br>---- --- ---------- --- ---- --- -- ----------,219485.39999997616,219484.59999999404,219069.831,219085.59999999404,219086.502,219486.61,,27,Senate
screen,html.Screen,0_4_1_0_1_28,2021-10-22T11:04:39.839Z,,,,,,,,,,,,,,,,51,,,,,,,,,,,,,,413.89000000001397,,response,,,13,D,,,,,Space,keypress(Space),,,,silence,-------- -------- --- --- ---- --- --- ------ -- --------<br>---- --------- --- ------- ------------ ---------- ---------<br>--- ---------- ------- ---------- ------- -- -------- ----<br>---- --- ------ seems ------ -- ---- --- ----- -- - -------<br>-------- -- --- --- -- ----- ----------- ----- -----------<br>---- --- ---------- --- ---- --- -- ----------,219901.39999997616,219900.5,219469.939,219485.59999999404,219486.61,219903.456,,28,seems
screen,html.Screen,0_4_1_0_1_29,2021-10-22T11:04:40.263Z,,,,,,,,,,,,,,,,51,,,,,,,,,,,,,,421.14399999403395,,response,,,13,D,,,,,Space,keypress(Space),,,,silence,-------- -------- --- --- ---- --- --- ------ -- --------<br>---- --------- --- ------- ------------ ---------- ---------<br>--- ---------- ------- ---------- ------- -- -------- ----<br>---- --- ------ ----- poised -- ---- --- ----- -- - -------<br>-------- -- --- --- -- ----- ----------- ----- -----------<br>---- --- ---------- --- ---- --- -- ----------,220325.39999997616,220324.59999999404,219886.784,219901.69999998808,219903.456,220336.722,,29,poised
screen,html.Screen,0_4_1_0_1_30,2021-10-22T11:04:40.671Z,,,,,,,,,,,,,,,,51,,,,,,,,,,,,,,395.8779999940307,,response,,,13,D,,,,,Space,keypress(Space),,,,silence,-------- -------- --- --- ---- --- --- ------ -- --------<br>---- --------- --- ------- ------------ ---------- ---------<br>--- ---------- ------- ---------- ------- -- -------- ----<br>---- --- ------ ----- ------ to ---- --- ----- -- - -------<br>-------- -- --- --- -- ----- ----------- ----- -----------<br>---- --- ---------- --- ---- --- -- ----------,220733.29999998212,220732.59999999404,220320.053,220325.59999999404,220336.722,220737.098,,30,to
screen,html.Screen,0_4_1_0_1_31,2021-10-22T11:04:41.087Z,,,,,,,,,,,,,,,,51,,,,,,,,,,,,,,411.5019999940414,,response,,,13,D,,,,,Space,keypress(Space),,,,silence,-------- -------- --- --- ---- --- --- ------ -- --------<br>---- --------- --- ------- ------------ ---------- ---------<br>--- ---------- ------- ---------- ------- -- -------- ----<br>---- --- ------ ----- ------ -- join --- ----- -- - -------<br>-------- -- --- --- -- ----- ----------- ----- -----------<br>---- --- ---------- --- ---- --- -- ----------,221149.39999997616,221148.59999999404,220720.425,220733.59999999404,220737.098,221153.792,,31,join
screen,html.Screen,0_4_1_0_1_32,2021-10-22T11:04:41.527Z,,,,,,,,,,,,,,,,51,,,,,,,,,,,,,,434.70800000001327,,response,,,13,D,,,,,Space,keypress(Space),,,,silence,-------- -------- --- --- ---- --- --- ------ -- --------<br>---- --------- --- ------- ------------ ---------- ---------<br>--- ---------- ------- ---------- ------- -- -------- ----<br>---- --- ------ ----- ------ -- ---- the ----- -- - -------<br>-------- -- --- --- -- ----- ----------- ----- -----------<br>---- --- ---------- --- ---- --- -- ----------,221589.39999997616,221588.5,221137.121,221149.59999999404,221153.792,221603.874,,32,the
screen,html.Screen,0_4_1_0_1_33,2021-10-22T11:04:41.903Z,,,,,,,,,,,,,,,,51,,,,,,,,,,,,,,360.7259999940288,,response,,,13,D,,,,,Space,keypress(Space),,,,silence,-------- -------- --- --- ---- --- --- ------ -- --------<br>---- --------- --- ------- ------------ ---------- ---------<br>--- ---------- ------- ---------- ------- -- -------- ----<br>---- --- ------ ----- ------ -- ---- --- House -- - -------<br>-------- -- --- --- -- ----- ----------- ----- -----------<br>---- --- ---------- --- ---- --- -- ----------,221965.39999997616,221964.59999999404,221587.204,221589.69999998808,221603.874,221970.612,,33,House
screen,html.Screen,0_4_1_0_1_34,2021-10-22T11:04:42.239Z,,,,,,,,,,,,,,,,51,,,,,,,,,,,,,,329.8880000000063,,response,,,13,D,,,,,Space,keypress(Space),,,,silence,-------- -------- --- --- ---- --- --- ------ -- --------<br>---- --------- --- ------- ------------ ---------- ---------<br>--- ---------- ------- ---------- ------- -- -------- ----<br>---- --- ------ ----- ------ -- ---- --- ----- in - -------<br>-------- -- --- --- -- ----- ----------- ----- -----------<br>---- --- ---------- --- ---- --- -- ----------,222301.39999997616,222300.5,221953.942,221965.59999999404,221970.612,222304.174,,34,in
screen,html.Screen,0_4_1_0_1_35,2021-10-22T11:04:42.711Z,,,,,,,,,,,,,,,,51,,,,,,,,,,,,,,468.42599999404047,,response,,,13,D,,,,,Space,keypress(Space),,,,silence,-------- -------- --- --- ---- --- --- ------ -- --------<br>---- --------- --- ------- ------------ ---------- ---------<br>--- ---------- ------- ---------- ------- -- -------- ----<br>---- --- ------ ----- ------ -- ---- --- ----- -- a -------<br>-------- -- --- --- -- ----- ----------- ----- -----------<br>---- --- ---------- --- ---- --- -- ----------,222773.39999997616,222772.59999999404,222287.502,222301.59999999404,222304.174,222787.654,,35,a
screen,html.Screen,0_4_1_0_1_36,2021-10-22T11:04:43.183Z,,,,,,,,,,,,,,,,51,,,,,,,,,,,,,,456.84599999999045,,response,,,13,D,,,,,Space,keypress(Space),,,,silence,-------- -------- --- --- ---- --- --- ------ -- --------<br>---- --------- --- ------- ------------ ---------- ---------<br>--- ---------- ------- ---------- ------- -- -------- ----<br>---- --- ------ ----- ------ -- ---- --- ----- -- - massive<br>-------- -- --- --- -- ----- ----------- ----- -----------<br>---- --- ---------- --- ---- --- -- ----------,223245.29999998212,223244.5,222770.982,222773.59999999404,222787.654,223254.407,,36,massive
screen,html.Screen,0_4_1_0_1_37,2021-10-22T11:04:43.511Z,,,,,,,,,,,,,,,,51,,,,,,,,,,,,,,318.5929999999935,,response,,,13,D,,,,,Space,keypress(Space),,,,silence,-------- -------- --- --- ---- --- --- ------ -- --------<br>---- --------- --- ------- ------------ ---------- ---------<br>--- ---------- ------- ---------- ------- -- -------- ----<br>---- --- ------ ----- ------ -- ---- --- ----- -- - -------<br>overhaul -- --- --- -- ----- ----------- ----- -----------<br>---- --- ---------- --- ---- --- -- ----------,223573.79999998212,223573,223237.736,223245.59999999404,223254.407,223587.8,,37,overhaul
screen,html.Screen,0_4_1_0_1_38,2021-10-22T11:04:43.871Z,,,,,,,,,,,,,,,,51,,,,,,,,,,,,,,344.7999999940512,,response,,,13,D,,,,,Space,keypress(Space),,,,silence,-------- -------- --- --- ---- --- --- ------ -- --------<br>---- --------- --- ------- ------------ ---------- ---------<br>--- ---------- ------- ---------- ------- -- -------- ----<br>---- --- ------ ----- ------ -- ---- --- ----- -- - -------<br>-------- of --- --- -- ----- ----------- ----- -----------<br>---- --- ---------- --- ---- --- -- ----------,223933.29999998212,223932.59999999404,223571.13,223574.09999999404,223587.8,223938.002,,38,of
screen,html.Screen,0_4_1_0_1_39,2021-10-22T11:04:44.199Z,,,,,,,,,,,,,,,,51,,,,,,,,,,,,,,322.4979999999923,,response,,,13,D,,,,,Space,keypress(Space),,,,silence,-------- -------- --- --- ---- --- --- ------ -- --------<br>---- --------- --- ------- ------------ ---------- ---------<br>--- ---------- ------- ---------- ------- -- -------- ----<br>---- --- ------ ----- ------ -- ---- --- ----- -- - -------<br>-------- -- the --- -- ----- ----------- ----- -----------<br>---- --- ---------- --- ---- --- -- ----------,224261.29999998212,224260.5,223921.33,223933.59999999404,223938.002,224271.356,,39,the
screen,html.Screen,0_4_1_0_1_40,2021-10-22T11:04:44.575Z,,,,,,,,,,,,,,,,51,,,,,,,,,,,,,,365.5439999761584,,response,,,13,D,,,,,Space,keypress(Space),,,,silence,-------- -------- --- --- ---- --- --- ------ -- --------<br>---- --------- --- ------- ------------ ---------- ---------<br>--- ---------- ------- ---------- ------- -- -------- ----<br>---- --- ------ ----- ------ -- ---- --- ----- -- - -------<br>-------- -- --- way -- ----- ----------- ----- -----------<br>---- --- ---------- --- ---- --- -- ----------,224637.69999998808,224636.89999997616,224254.686,224261.59999999404,224271.356,224654.751,,40,way
screen,html.Screen,0_4_1_0_1_41,2021-10-22T11:04:44.935Z,,,,,,,,,,,,,,,,51,,,,,,,,,,,,,,341.7490000000107,,response,,,13,D,,,,,Space,keypress(Space),,,,silence,-------- -------- --- --- ---- --- --- ------ -- --------<br>---- --------- --- ------- ------------ ---------- ---------<br>--- ---------- ------- ---------- ------- -- -------- ----<br>---- --- ------ ----- ------ -- ---- --- ----- -- - -------<br>-------- -- --- --- in ----- ----------- ----- -----------<br>---- --- ---------- --- ---- --- -- ----------,224997.29999998212,224996.5,224638.081,224637.89999997616,224654.751,225005.031,,41,in
screen,html.Screen,0_4_1_0_1_42,2021-10-22T11:04:45.343Z,,,,,,,,,,,,,,,,51,,,,,,,,,,,,,,399.4690000000119,,response,,,13,D,,,,,Space,keypress(Space),,,,silence,-------- -------- --- --- ---- --- --- ------ -- --------<br>---- --------- --- ------- ------------ ---------- ---------<br>--- ---------- ------- ---------- ------- -- -------- ----<br>---- --- ------ ----- ------ -- ---- --- ----- -- - -------<br>-------- -- --- --- -- which ----------- ----- -----------<br>---- --- ---------- --- ---- --- -- ----------,225405.29999998212,225404.5,224988.358,224997.59999999404,225005.031,225421.598,,42,which
screen,html.Screen,0_4_1_0_1_43,2021-10-22T11:04:45.687Z,,,,,,,,,,,,,,,,51,,,,,,,,,,,,,,326.90200000000186,,response,,,13,D,,,,,Space,keypress(Space),,,,silence,-------- -------- --- --- ---- --- --- ------ -- --------<br>---- --------- --- ------- ------------ ---------- ---------<br>--- ---------- ------- ---------- ------- -- -------- ----<br>---- --- ------ ----- ------ -- ---- --- ----- -- - -------<br>-------- -- --- --- -- ----- bureaucrats ----- -----------<br>---- --- ---------- --- ---- --- -- ----------,225749.29999998212,225748.5,225404.929,225405.59999999404,225421.598,225755.172,,43,bureaucrats
screen,html.Screen,0_4_1_0_1_44,2021-10-22T11:04:46.503Z,,,,,,,,,,,,,,,,51,,,,,,,,,,,,,,809.3280000000086,,response,,,13,D,,,,,Space,keypress(Space),,,,silence,-------- -------- --- --- ---- --- --- ------ -- --------<br>---- --------- --- ------- ------------ ---------- ---------<br>--- ---------- ------- ---------- ------- -- -------- ----<br>---- --- ------ ----- ------ -- ---- --- ----- -- - -------<br>-------- -- --- --- -- ----- ----------- enact -----------<br>---- --- ---------- --- ---- --- -- ----------,226565.29999998212,226564.5,225738.5,225749.59999999404,225755.172,226572.019,,44,enact
screen,html.Screen,0_4_1_0_1_45,2021-10-22T11:04:47.078Z,,,,,,,,,,,,,,,,51,,,,,,,,,,,,,,568.4809999999998,,response,,,13,D,,,,,Space,keypress(Space),,,,silence,-------- -------- --- --- ---- --- --- ------ -- --------<br>---- --------- --- ------- ------------ ---------- ---------<br>--- ---------- ------- ---------- ------- -- -------- ----<br>---- --- ------ ----- ------ -- ---- --- ----- -- - -------<br>-------- -- --- --- -- ----- ----------- ----- regulations<br>---- --- ---------- --- ---- --- -- ----------,227141.29999998212,227140.5,226555.348,226565.59999999404,226572.019,227155.728,,45,regulations
screen,html.Screen,0_4_1_0_1_46,2021-10-22T11:04:47.518Z,,,,,,,,,,,,,,,,51,,,,,,,,,,,,,,424.7719999999972,,response,,,13,D,,,,,Space,keypress(Space),,,,silence,-------- -------- --- --- ---- --- --- ------ -- --------<br>---- --------- --- ------- ------------ ---------- ---------<br>--- ---------- ------- ---------- ------- -- -------- ----<br>---- --- ------ ----- ------ -- ---- --- ----- -- - -------<br>-------- -- --- --- -- ----- ----------- ----- -----------<br>that --- ---------- --- ---- --- -- ----------,227581.19999998808,227580.5,227139.055,227141.5,227155.728,227589.022,,46,that
screen,html.Screen,0_4_1_0_1_47,2021-10-22T11:04:48.006Z,,,,,,,,,,,,,,,,51,,,,,,,,,,,,,,479.4780000000028,,response,,,13,D,,,,,Space,keypress(Space),,,,silence,-------- -------- --- --- ---- --- --- ------ -- --------<br>---- --------- --- ------- ------------ ---------- ---------<br>--- ---------- ------- ---------- ------- -- -------- ----<br>---- --- ------ ----- ------ -- ---- --- ----- -- - -------<br>-------- -- --- --- -- ----- ----------- ----- -----------<br>---- are ---------- --- ---- --- -- ----------,228069.29999998212,228068.5,227572.351,227581.5,227589.022,228072.528,,47,are
screen,html.Screen,0_4_1_0_1_48,2021-10-22T11:04:48.358Z,,,,,,,,,,,,,,,,51,,,,,,,,,,,,,,347.97200000000885,,response,,,13,D,,,,,Space,keypress(Space),,,,silence,-------- -------- --- --- ---- --- --- ------ -- --------<br>---- --------- --- ------- ------------ ---------- ---------<br>--- ---------- ------- ---------- ------- -- -------- ----<br>---- --- ------ ----- ------ -- ---- --- ----- -- - -------<br>-------- -- --- --- -- ----- ----------- ----- -----------<br>---- --- strangling --- ---- --- -- ----------,228421.29999998212,228420.5,228055.857,228069.5,228072.528,228422.549,,48,strangling
screen,html.Screen,0_4_1_0_1_49,2021-10-22T11:04:48.646Z,,,,,,,,,,,,,,,,51,,,,,,,,,,,,,,285.95100000000093,,response,,,13,D,,,,,Space,keypress(Space),,,,silence,-------- -------- --- --- ---- --- --- ------ -- --------<br>---- --------- --- ------- ------------ ---------- ---------<br>--- ---------- ------- ---------- ------- -- -------- ----<br>---- --- ------ ----- ------ -- ---- --- ----- -- - -------<br>-------- -- --- --- -- ----- ----------- ----- -----------<br>---- --- ---------- the ---- --- -- ----------,228709.29999998212,228708.5,228405.879,228421.59999999404,228422.549,228722.77,,49,the
screen,html.Screen,0_4_1_0_1_50,2021-10-22T11:04:49.119Z,,,,,,,,,,,,,,,,51,,,,,,,,,,,,,,457.7300000000105,,response,,,13,D,,,,,Space,keypress(Space),,,,silence,-------- -------- --- --- ---- --- --- ------ -- --------<br>---- --------- --- ------- ------------ ---------- ---------<br>--- ---------- ------- ---------- ------- -- -------- ----<br>---- --- ------ ----- ------ -- ---- --- ----- -- - -------<br>-------- -- --- --- -- ----- ----------- ----- -----------<br>---- --- ---------- --- life --- -- ----------,229181.29999998212,229180.5,228706.098,228709.5,228722.77,229189.52,,50,life
