sender,sender_type,sender_id,timestamp,meta,,Blues,Classical,Country,Dance,Electronic,Folk,Gospel,Hip-Hop,Jazz,Latin,Musical/Film,New-age,Pop,Provo_ID,R&B,Rap,Reggae,Religious,Rock,Soul,Swing,Traditional,age,artist_name,correct,correctResponse,distraction,duration,education,ended_on,familiarity,gender,item,list,music_frequency,offensiveness,pleasantness,preference,response,response_action,snippet_file,song_name,song_rating,sound,text,time_commit,time_end,time_render,time_run,time_show,time_switch,url,word,word_ID
Instructions,html.Page,0_0,2021-11-05T13:34:17.328Z,"{""labjs_version"":""20.2.3"",""labjs_build"":{""flavor"":""production"",""commit"":""7ea907d66ca8aeef8054924ca5d82ffbe11e34e5""},""location"":""https://run.pavlovia.org/mvasilev/lab_music_c/"",""userAgent"":""Mozilla/5.0 (Windows NT 6.1; Win64; x64) AppleWebKit/537.36 (KHTML, like Gecko) Chrome/95.0.4638.69 Safari/537.36"",""platform"":""Win32"",""language"":""en-US"",""locale"":""en-US"",""timeZone"":""Europe/London"",""timezoneOffset"":0,""screen_width"":1920,""screen_height"":1080,""scroll_width"":1920,""scroll_height"":959,""window_innerWidth"":1920,""window_innerHeight"":1007,""devicePixelRatio"":1}",,,,,,,,,,,,,,,,,,,,,,,,,,,,,16734.764999991057,,form submission,,,,,,,,,,,,,,,,27900.69999998808,27899.89999999106,11148.458,11157,11165.135,27911.292,{},,
Headphones,html.Page,0_1,2021-11-05T13:34:22.611Z,,,,,,,,,,,,,,,,,,,,,,,,,,,,,,5272.207999999999,,form submission,,,,,,,,,,,,,,,,33183.79999999702,33183.5,27894.652,27901.19999998808,27911.292,33195.467,,,
Holding screen,html.Screen,0_2_0_0,2021-11-05T13:34:32.609Z,,,,,,,,,,,,,,,,,,,,,,,,,,,,,,10000.080000000002,,timeout,,,,,,,,,,,,,,,,43182.19999998808,43178.882,33178.804,33184.19999998808,33195.467,43195.547,,,
screen,html.Screen,0_2_0_1_0,2021-11-05T13:34:33.383Z,,,,,,,,,,,,,,,,53,,,,,,,,,,,,,,759.2529999970211,,response,,,99,,,,,,Space,keypress(Space),,,,,When -- ----- -- ------ - ------- --- ----------<br>------------- ------ ------ ---- ---- ------- ----- -- ----<br>-------- ------- -- ---------- --- - --- ----- ----- ----<br>---- --- --- ----- --- ---- ---- ------- ----- ---- -------<br>--- --- -- ----- -- --- ---- -- --- ---- -- ------ ------<br>--- ----- -- ----,43955.79999999702,43954.79999999702,43178.882,43182.5,43195.547,43962.172,,0,When
screen,html.Screen,0_2_0_1_1,2021-11-05T13:34:33.758Z,,,,,,,,,,,,,,,,53,,,,,,,,,,,,,,368.32800000000134,,response,,,99,,,,,,Space,keypress(Space),,,,,---- it ----- -- ------ - ------- --- ----------<br>------------- ------ ------ ---- ---- ------- ----- -- ----<br>-------- ------- -- ---------- --- - --- ----- ----- ----<br>---- --- --- ----- --- ---- ---- ------- ----- ---- -------<br>--- --- -- ----- -- --- ---- -- --- ---- -- ------ ------<br>--- ----- -- ----,44331.09999999404,44330.5,43945.507,43956.09999999404,43962.172,44345.486,,1,it
screen,html.Screen,0_2_0_1_2,2021-11-05T13:34:34.190Z,,,,,,,,,,,,,,,,53,,,,,,,,,,,,,,417.01400000000285,,response,,,99,,,,,,Space,keypress(Space),,,,,---- -- comes -- ------ - ------- --- ----------<br>------------- ------ ------ ---- ---- ------- ----- -- ----<br>-------- ------- -- ---------- --- - --- ----- ----- ----<br>---- --- --- ----- --- ---- ---- ------- ----- ---- -------<br>--- --- -- ----- -- --- ---- -- --- ---- -- ------ ------<br>--- ----- -- ----,44763.19999998808,44762.5,44328.821,44331.29999999702,44345.486,44778.814,,2,comes
screen,html.Screen,0_2_0_1_3,2021-11-05T13:34:34.774Z,,,,,,,,,,,,,,,,53,,,,,,,,,,,,,,567.6860000000015,,response,,,99,,,,,,Space,keypress(Space),,,,,---- -- ----- to ------ - ------- --- ----------<br>------------- ------ ------ ---- ---- ------- ----- -- ----<br>-------- ------- -- ---------- --- - --- ----- ----- ----<br>---- --- --- ----- --- ---- ---- ------- ----- ---- -------<br>--- --- -- ----- -- --- ---- -- --- ---- -- ------ ------<br>--- ----- -- ----,45347.19999998808,45346.5,44762.149,44763.29999999702,44778.814,45362.12,,3,to
screen,html.Screen,0_2_0_1_4,2021-11-05T13:34:35.206Z,,,,,,,,,,,,,,,,53,,,,,,,,,,,,,,416.2799999910567,,response,,,99,,,,,,Space,keypress(Space),,,,,---- -- ----- -- having - ------- --- ----------<br>------------- ------ ------ ---- ---- ------- ----- -- ----<br>-------- ------- -- ---------- --- - --- ----- ----- ----<br>---- --- --- ----- --- ---- ---- ------- ----- ---- -------<br>--- --- -- ----- -- --- ---- -- --- ---- -- ------ ------<br>--- ----- -- ----,45779.29999999702,45778.39999999106,45345.455,45347.5,45362.12,45795.422,,4,having
screen,html.Screen,0_2_0_1_5,2021-11-05T13:34:35.646Z,,,,,,,,,,,,,,,,53,,,,,,,,,,,,,,422.97799999106064,,response,,,99,,,,,,Space,keypress(Space),,,,,---- -- ----- -- ------ a ------- --- ----------<br>------------- ------ ------ ---- ---- ------- ----- -- ----<br>-------- ------- -- ---------- --- - --- ----- ----- ----<br>---- --- --- ----- --- ---- ---- ------- ----- ---- -------<br>--- --- -- ----- -- --- ---- -- --- ---- -- ------ ------<br>--- ----- -- ----,46219,46218.39999999106,45778.757,45779.5,45795.422,46228.793,,5,a
screen,html.Screen,0_2_0_1_6,2021-11-05T13:34:36.110Z,,,,,,,,,,,,,,,,53,,,,,,,,,,,,,,453.60699999106146,,response,,,99,,,,,,Space,keypress(Space),,,,,---- -- ----- -- ------ - lasting --- ----------<br>------------- ------ ------ ---- ---- ------- ----- -- ----<br>-------- ------- -- ---------- --- - --- ----- ----- ----<br>---- --- --- ----- --- ---- ---- ------- ----- ---- -------<br>--- --- -- ----- -- --- ---- -- --- ---- -- ------ ------<br>--- ----- -- ----,46683.09999999404,46682.39999999106,46212.127,46219.39999999106,46228.793,46695.406,,6,lasting
screen,html.Screen,0_2_0_1_7,2021-11-05T13:34:36.590Z,,,,,,,,,,,,,,,,53,,,,,,,,,,,,,,466.9939999910566,,response,,,99,,,,,,Space,keypress(Space),,,,,---- -- ----- -- ------ - ------- and ----------<br>------------- ------ ------ ---- ---- ------- ----- -- ----<br>-------- ------- -- ---------- --- - --- ----- ----- ----<br>---- --- --- ----- --- ---- ---- ------- ----- ---- -------<br>--- --- -- ----- -- --- ---- -- --- ---- -- ------ ------<br>--- ----- -- ----,47163.09999999404,47162.39999999106,46678.741,46683.29999999702,46695.406,47178.681,,7,and
screen,html.Screen,0_2_0_1_8,2021-11-05T13:34:37.238Z,,,,,,,,,,,,,,,,53,,,,,,,,,,,,,,631.7189999910624,,response,,,99,,,,,,Space,keypress(Space),,,,,---- -- ----- -- ------ - ------- --- fulfilling<br>------------- ------ ------ ---- ---- ------- ----- -- ----<br>-------- ------- -- ---------- --- - --- ----- ----- ----<br>---- --- --- ----- --- ---- ---- ------- ----- ---- -------<br>--- --- -- ----- -- --- ---- -- --- ---- -- ------ ------<br>--- ----- -- ----,47811.19999998808,47810.39999999106,47162.016,47163.29999999702,47178.681,47812.05,,8,fulfilling
screen,html.Screen,0_2_0_1_9,2021-11-05T13:34:37.822Z,,,,,,,,,,,,,,,,53,,,,,,,,,,,,,,582.2499999970169,,response,,,99,,,,,,Space,keypress(Space),,,,,"---- -- ----- -- ------ - ------- --- ----------<br>relationship, ------ ------ ---- ---- ------- ----- -- ----<br>-------- ------- -- ---------- --- - --- ----- ----- ----<br>---- --- --- ----- --- ---- ---- ------- ----- ---- -------<br>--- --- -- ----- -- --- ---- -- --- ---- -- ------ ------<br>--- ----- -- ----",48395,48394.29999999702,47795.384,47811.39999999106,47812.05,48411.766,,9,"relationship,"
screen,html.Screen,0_2_0_1_10,2021-11-05T13:34:38.358Z,,,,,,,,,,,,,,,,53,,,,,,,,,,,,,,518.5339999970165,,response,,,99,,,,,,Space,keypress(Space),,,,,---- -- ----- -- ------ - ------- --- ----------<br>------------- common ------ ---- ---- ------- ----- -- ----<br>-------- ------- -- ---------- --- - --- ----- ----- ----<br>---- --- --- ----- --- ---- ---- ------- ----- ---- -------<br>--- --- -- ----- -- --- ---- -- --- ---- -- ------ ------<br>--- ----- -- ----,48931,48930.29999999702,48395.103,48395.19999998808,48411.766,48945.308,,10,common
screen,html.Screen,0_2_0_1_11,2021-11-05T13:34:38.950Z,,,,,,,,,,,,,,,,53,,,,,,,,,,,,,,576.8919999880818,,response,,,99,,,,,,Space,keypress(Space),,,,,---- -- ----- -- ------ - ------- --- ----------<br>------------- ------ wisdom ---- ---- ------- ----- -- ----<br>-------- ------- -- ---------- --- - --- ----- ----- ----<br>---- --- --- ----- --- ---- ---- ------- ----- ---- -------<br>--- --- -- ----- -- --- ---- -- --- ---- -- ------ ------<br>--- ----- -- ----,49522.89999999106,49522.19999998808,48928.642,48931.09999999404,48945.308,49528.632,,11,wisdom
screen,html.Screen,0_2_0_1_12,2021-11-05T13:34:39.414Z,,,,,,,,,,,,,,,,53,,,,,,,,,,,,,,457.46799999404175,,response,,,99,,,,,,Space,keypress(Space),,,,,---- -- ----- -- ------ - ------- --- ----------<br>------------- ------ ------ says ---- ------- ----- -- ----<br>-------- ------- -- ---------- --- - --- ----- ----- ----<br>---- --- --- ----- --- ---- ---- ------- ----- ---- -------<br>--- --- -- ----- -- --- ---- -- --- ---- -- ------ ------<br>--- ----- -- ----,49986.79999999702,49986.09999999404,49511.966,49523.09999999404,49528.632,49995.216,,12,says
screen,html.Screen,0_2_0_1_13,2021-11-05T13:34:39.878Z,,,,,,,,,,,,,,,,53,,,,,,,,,,,,,,454.8839999940392,,response,,,99,,,,,,Space,keypress(Space),,,,,---- -- ----- -- ------ - ------- --- ----------<br>------------- ------ ------ ---- that ------- ----- -- ----<br>-------- ------- -- ---------- --- - --- ----- ----- ----<br>---- --- --- ----- --- ---- ---- ------- ----- ---- -------<br>--- --- -- ----- -- --- ---- -- --- ---- -- ------ ------<br>--- ----- -- ----,50450.79999999702,50450.09999999404,49978.551,49987,49995.216,50461.855,,13,that
screen,html.Screen,0_2_0_1_14,2021-11-05T13:34:40.582Z,,,,,,,,,,,,,,,,53,,,,,,,,,,,,,,692.3449999880759,,response,,,99,,,,,,Space,keypress(Space),,,,,---- -- ----- -- ------ - ------- --- ----------<br>------------- ------ ------ ---- ---- feeling ----- -- ----<br>-------- ------- -- ---------- --- - --- ----- ----- ----<br>---- --- --- ----- --- ---- ---- ------- ----- ---- -------<br>--- --- -- ----- -- --- ---- -- --- ---- -- ------ ------<br>--- ----- -- ----,51154.79999999702,51154.19999998808,50445.19,50450.89999999106,50461.855,51161.816,,14,feeling
screen,html.Screen,0_2_0_1_15,2021-11-05T13:34:41.086Z,,,,,,,,,,,,,,,,53,,,,,,,,,,,,,,496.28399999404064,,response,,,99,,,,,,Space,keypress(Space),,,,,---- -- ----- -- ------ - ------- --- ----------<br>------------- ------ ------ ---- ---- ------- close -- ----<br>-------- ------- -- ---------- --- - --- ----- ----- ----<br>---- --- --- ----- --- ---- ---- ------- ----- ---- -------<br>--- --- -- ----- -- --- ---- -- --- ---- -- ------ ------<br>--- ----- -- ----,51658.79999999702,51658.09999999404,51145.151,51155,51161.816,51661.801,,15,close
screen,html.Screen,0_2_0_1_16,2021-11-05T13:34:41.574Z,,,,,,,,,,,,,,,,53,,,,,,,,,,,,,,484.29899999404006,,response,,,99,,,,,,Space,keypress(Space),,,,,---- -- ----- -- ------ - ------- --- ----------<br>------------- ------ ------ ---- ---- ------- ----- to ----<br>-------- ------- -- ---------- --- - --- ----- ----- ----<br>---- --- --- ----- --- ---- ---- ------- ----- ---- -------<br>--- --- -- ----- -- --- ---- -- --- ---- -- ------ ------<br>--- ----- -- ----,52146.69999998808,52146.09999999404,51645.136,51659,51661.801,52161.688,,16,to
screen,html.Screen,0_2_0_1_17,2021-11-05T13:34:42.110Z,,,,,,,,,,,,,,,,53,,,,,,,,,,,,,,520.4119999940376,,response,,,99,,,,,,Space,keypress(Space),,,,,---- -- ----- -- ------ - ------- --- ----------<br>------------- ------ ------ ---- ---- ------- ----- -- your<br>-------- ------- -- ---------- --- - --- ----- ----- ----<br>---- --- --- ----- --- ---- ---- ------- ----- ---- -------<br>--- --- -- ----- -- --- ---- -- --- ---- -- ------ ------<br>--- ----- -- ----,52682.59999999404,52682.09999999404,52145.024,52146.89999999106,52161.688,52695.048,,17,your
screen,html.Screen,0_2_0_1_18,2021-11-05T13:34:42.798Z,,,,,,,,,,,,,,,,53,,,,,,,,,,,,,,675.051999994037,,response,,,99,,,,,,Space,keypress(Space),,,,,---- -- ----- -- ------ - ------- --- ----------<br>------------- ------ ------ ---- ---- ------- ----- -- ----<br>romantic ------- -- ---------- --- - --- ----- ----- ----<br>---- --- --- ----- --- ---- ---- ------- ----- ---- -------<br>--- --- -- ----- -- --- ---- -- --- ---- -- ------ ------<br>--- ----- -- ----,53370.59999999404,53370.09999999404,52678.383,52682.79999999702,52695.048,53378.226,,18,romantic
screen,html.Screen,0_2_0_1_19,2021-11-05T13:34:43.318Z,,,,,,,,,,,,,,,,53,,,,,,,,,,,,,,511.6739999910569,,response,,,99,,,,,,Space,keypress(Space),,,,,---- -- ----- -- ------ - ------- --- ----------<br>------------- ------ ------ ---- ---- ------- ----- -- ----<br>-------- partner -- ---------- --- - --- ----- ----- ----<br>---- --- --- ----- --- ---- ---- ------- ----- ---- -------<br>--- --- -- ----- -- --- ---- -- --- ---- -- ------ ------<br>--- ----- -- ----,53890.59999999404,53889.89999999106,53361.562,53370.79999999702,53378.226,53895.069,,19,partner
screen,html.Screen,0_2_0_1_20,2021-11-05T13:34:43.774Z,,,,,,,,,,,,,,,,53,,,,,,,,,,,,,,451.1309999880759,,response,,,99,,,,,,Space,keypress(Space),,,,,---- -- ----- -- ------ - ------- --- ----------<br>------------- ------ ------ ---- ---- ------- ----- -- ----<br>-------- ------- is ---------- --- - --- ----- ----- ----<br>---- --- --- ----- --- ---- ---- ------- ----- ---- -------<br>--- --- -- ----- -- --- ---- -- --- ---- -- ------ ------<br>--- ----- -- ----,54346.69999998808,54346.19999998808,53878.402,53890.69999998808,53895.069,54361.63,,20,is
screen,html.Screen,0_2_0_1_21,2021-11-05T13:34:44.950Z,,,,,,,,,,,,,,,,53,,,,,,,,,,,,,,1160.3700000000026,,response,,,99,,,,,,Space,keypress(Space),,,,,---- -- ----- -- ------ - ------- --- ----------<br>------------- ------ ------ ---- ---- ------- ----- -- ----<br>-------- ------- -- paramount. --- - --- ----- ----- ----<br>---- --- --- ----- --- ---- ---- ------- ----- ---- -------<br>--- --- -- ----- -- --- ---- -- --- ---- -- ------ ------<br>--- ----- -- ----,55522.5,55522,54344.965,54346.89999999106,54361.63,55528.216,,21,paramount.
screen,html.Screen,0_2_0_1_22,2021-11-05T13:34:45.525Z,,,,,,,,,,,,,,,,53,,,,,,,,,,,,,,569.683999991059,,response,,,99,,,,,,Space,keypress(Space),,,,,---- -- ----- -- ------ - ------- --- ----------<br>------------- ------ ------ ---- ---- ------- ----- -- ----<br>-------- ------- -- ---------- But - --- ----- ----- ----<br>---- --- --- ----- --- ---- ---- ------- ----- ---- -------<br>--- --- -- ----- -- --- ---- -- --- ---- -- ------ ------<br>--- ----- -- ----,56098.5,56097.89999999106,55511.551,55522.89999999106,55528.216,56111.428,,22,But
screen,html.Screen,0_2_0_1_23,2021-11-05T13:34:46.053Z,,,,,,,,,,,,,,,,53,,,,,,,,,,,,,,514.3719999970199,,response,,,99,,,,,,Space,keypress(Space),,,,,---- -- ----- -- ------ - ------- --- ----------<br>------------- ------ ------ ---- ---- ------- ----- -- ----<br>-------- ------- -- ---------- --- a --- ----- ----- ----<br>---- --- --- ----- --- ---- ---- ------- ----- ---- -------<br>--- --- -- ----- -- --- ---- -- --- ---- -- ------ ------<br>--- ----- -- ----,56626.39999999106,56625.79999999702,56094.764,56098.59999999404,56111.428,56628.189,,23,a
screen,html.Screen,0_2_0_1_24,2021-11-05T13:34:46.581Z,,,,,,,,,,,,,,,,53,,,,,,,,,,,,,,525.6109999970213,,response,,,99,,,,,,Space,keypress(Space),,,,,---- -- ----- -- ------ - ------- --- ----------<br>------------- ------ ------ ---- ---- ------- ----- -- ----<br>-------- ------- -- ---------- --- - new ----- ----- ----<br>---- --- --- ----- --- ---- ---- ------- ----- ---- -------<br>--- --- -- ----- -- --- ---- -- --- ---- -- ------ ------<br>--- ----- -- ----,57154.39999999106,57153.79999999702,56611.524,56626.59999999404,56628.189,57161.408,,24,new
screen,html.Screen,0_2_0_1_25,2021-11-05T13:34:47.053Z,,,,,,,,,,,,,,,,53,,,,,,,,,,,,,,464.291999988076,,response,,,99,,,,,,Space,keypress(Space),,,,,---- -- ----- -- ------ - ------- --- ----------<br>------------- ------ ------ ---- ---- ------- ----- -- ----<br>-------- ------- -- ---------- --- - --- study ----- ----<br>---- --- --- ----- --- ---- ---- ------- ----- ---- -------<br>--- --- -- ----- -- --- ---- -- --- ---- -- ------ ------<br>--- ----- -- ----,57626.39999999106,57625.69999998808,57144.744,57154.59999999404,57161.408,57628.167,,25,study
screen,html.Screen,0_2_0_1_26,2021-11-05T13:34:47.597Z,,,,,,,,,,,,,,,,53,,,,,,,,,,,,,,541.6329999970185,,response,,,99,,,,,,Space,keypress(Space),,,,,---- -- ----- -- ------ - ------- --- ----------<br>------------- ------ ------ ---- ---- ------- ----- -- ----<br>-------- ------- -- ---------- --- - --- ----- finds ----<br>---- --- --- ----- --- ---- ---- ------- ----- ---- -------<br>--- --- -- ----- -- --- ---- -- --- ---- -- ------ ------<br>--- ----- -- ----,58170.39999999106,58169.79999999702,57611.501,57626.69999998808,57628.167,58178.02,,26,finds
screen,html.Screen,0_2_0_1_27,2021-11-05T13:34:48.149Z,,,,,,,,,,,,,,,,53,,,,,,,,,,,,,,543.6799999880823,,response,,,99,,,,,,Space,keypress(Space),,,,,---- -- ----- -- ------ - ------- --- ----------<br>------------- ------ ------ ---- ---- ------- ----- -- ----<br>-------- ------- -- ---------- --- - --- ----- ----- that<br>---- --- --- ----- --- ---- ---- ------- ----- ---- -------<br>--- --- -- ----- -- --- ---- -- --- ---- -- ------ ------<br>--- ----- -- ----,58722.29999999702,58721.69999998808,58161.356,58170.5,58178.02,58728.054,,27,that
screen,html.Screen,0_2_0_1_28,2021-11-05T13:34:48.853Z,,,,,,,,,,,,,,,,53,,,,,,,,,,,,,,697.7459999970233,,response,,,99,,,,,,Space,keypress(Space),,,,,---- -- ----- -- ------ - ------- --- ----------<br>------------- ------ ------ ---- ---- ------- ----- -- ----<br>-------- ------- -- ---------- --- - --- ----- ----- ----<br>it's --- --- ----- --- ---- ---- ------- ----- ---- -------<br>--- --- -- ----- -- --- ---- -- --- ---- -- ------ ------<br>--- ----- -- ----,59426.39999999106,59425.79999999702,58711.389,58722.5,58728.054,59428.017,,28,it's
screen,html.Screen,0_2_0_1_29,2021-11-05T13:34:49.365Z,,,,,,,,,,,,,,,,53,,,,,,,,,,,,,,509.68299998807925,,response,,,99,,,,,,Space,keypress(Space),,,,,---- -- ----- -- ------ - ------- --- ----------<br>------------- ------ ------ ---- ---- ------- ----- -- ----<br>-------- ------- -- ---------- --- - --- ----- ----- ----<br>---- not --- ----- --- ---- ---- ------- ----- ---- -------<br>--- --- -- ----- -- --- ---- -- --- ---- -- ------ ------<br>--- ----- -- ----,59938.29999999702,59937.69999998808,59411.352,59426.59999999404,59428.017,59944.625,,29,not
screen,html.Screen,0_2_0_1_30,2021-11-05T13:34:50.185Z,,,,,,,,,,,,,,,,53,,,,,,,,,,,,,,808.9749999940395,,response,,,99,,,,,,Space,keypress(Space),,,,,---- -- ----- -- ------ - ------- --- ----------<br>------------- ------ ------ ---- ---- ------- ----- -- ----<br>-------- ------- -- ---------- --- - --- ----- ----- ----<br>---- --- how ----- --- ---- ---- ------- ----- ---- -------<br>--- --- -- ----- -- --- ---- -- --- ---- -- ------ ------<br>--- ----- -- ----,60754.29999999702,60753.59999999404,59927.96,59938.5,59944.625,60761.272,,30,how
screen,html.Screen,0_2_0_1_31,2021-11-05T13:34:50.705Z,,,,,,,,,,,,,,,,53,,,,,,,,,,,,,,512.3279999940423,,response,,,99,,,,,,Space,keypress(Space),,,,,---- -- ----- -- ------ - ------- --- ----------<br>------------- ------ ------ ---- ---- ------- ----- -- ----<br>-------- ------- -- ---------- --- - --- ----- ----- ----<br>---- --- --- close --- ---- ---- ------- ----- ---- -------<br>--- --- -- ----- -- --- ---- -- --- ---- -- ------ ------<br>--- ----- -- ----,61274.09999999404,61273.59999999404,60744.607,60754.5,60761.272,61277.98,,31,close
screen,html.Screen,0_2_0_1_32,2021-11-05T13:34:51.105Z,,,,,,,,,,,,,,,,53,,,,,,,,,,,,,,395.5199999999968,,response,,,99,,,,,,Space,keypress(Space),,,,,---- -- ----- -- ------ - ------- --- ----------<br>------------- ------ ------ ---- ---- ------- ----- -- ----<br>-------- ------- -- ---------- --- - --- ----- ----- ----<br>---- --- --- ----- you ---- ---- ------- ----- ---- -------<br>--- --- -- ----- -- --- ---- -- --- ---- -- ------ ------<br>--- ----- -- ----,61674.19999998808,61673.5,61261.314,61274.39999999106,61277.98,61677.871,,32,you
screen,html.Screen,0_2_0_1_33,2021-11-05T13:34:51.609Z,,,,,,,,,,,,,,,,53,,,,,,,,,,,,,,499.6290000000008,,response,,,99,,,,,,Space,keypress(Space),,,,,---- -- ----- -- ------ - ------- --- ----------<br>------------- ------ ------ ---- ---- ------- ----- -- ----<br>-------- ------- -- ---------- --- - --- ----- ----- ----<br>---- --- --- ----- --- feel ---- ------- ----- ---- -------<br>--- --- -- ----- -- --- ---- -- --- ---- -- ------ ------<br>--- ----- -- ----,62178.29999999702,62177.5,61661.206,61674.39999999106,61677.871,62194.575,,33,feel
screen,html.Screen,0_2_0_1_34,2021-11-05T13:34:52.081Z,,,,,,,,,,,,,,,,53,,,,,,,,,,,,,,455.02499999404245,,response,,,99,,,,,,Space,keypress(Space),,,,,---- -- ----- -- ------ - ------- --- ----------<br>------------- ------ ------ ---- ---- ------- ----- -- ----<br>-------- ------- -- ---------- --- - --- ----- ----- ----<br>---- --- --- ----- --- ---- that ------- ----- ---- -------<br>--- --- -- ----- -- --- ---- -- --- ---- -- ------ ------<br>--- ----- -- ----,62650.09999999404,62649.59999999404,62177.909,62178.5,62194.575,62661.111,,34,that
screen,html.Screen,0_2_0_1_35,2021-11-05T13:34:52.569Z,,,,,,,,,,,,,,,,53,,,,,,,,,,,,,,476.5889999880819,,response,,,99,,,,,,Space,keypress(Space),,,,,---- -- ----- -- ------ - ------- --- ----------<br>------------- ------ ------ ---- ---- ------- ----- -- ----<br>-------- ------- -- ---------- --- - --- ----- ----- ----<br>---- --- --- ----- --- ---- ---- matters ----- ---- -------<br>--- --- -- ----- -- --- ---- -- --- ---- -- ------ ------<br>--- ----- -- ----,63138.29999999702,63137.69999998808,62644.447,62650.29999999702,62661.111,63144.543,,35,matters
screen,html.Screen,0_2_0_1_36,2021-11-05T13:34:53.409Z,,,,,,,,,,,,,,,,53,,,,,,,,,,,,,,832.8569999910615,,response,,,99,,,,,,Space,keypress(Space),,,,,"---- -- ----- -- ------ - ------- --- ----------<br>------------- ------ ------ ---- ---- ------- ----- -- ----<br>-------- ------- -- ---------- --- - --- ----- ----- ----<br>---- --- --- ----- --- ---- ---- ------- most, ---- -------<br>--- --- -- ----- -- --- ---- -- --- ---- -- ------ ------<br>--- ----- -- ----",63978,63977.39999999106,63127.877,63138.39999999106,63144.543,63994.323,,36,"most,"
screen,html.Screen,0_2_0_1_37,2021-11-05T13:34:53.825Z,,,,,,,,,,,,,,,,53,,,,,,,,,,,,,,399.1770000000033,,response,,,99,,,,,,Space,keypress(Space),,,,,---- -- ----- -- ------ - ------- --- ----------<br>------------- ------ ------ ---- ---- ------- ----- -- ----<br>-------- ------- -- ---------- --- - --- ----- ----- ----<br>---- --- --- ----- --- ---- ---- ------- ----- it's -------<br>--- --- -- ----- -- --- ---- -- --- ---- -- ------ ------<br>--- ----- -- ----,64394.19999998808,64393.5,63977.659,63978.19999998808,63994.323,64411.153,,37,it's
screen,html.Screen,0_2_0_1_38,2021-11-05T13:34:54.376Z,,,,,,,,,,,,,,,,53,,,,,,,,,,,,,,534.2469999910609,,response,,,99,,,,,,Space,keypress(Space),,,,,---- -- ----- -- ------ - ------- --- ----------<br>------------- ------ ------ ---- ---- ------- ----- -- ----<br>-------- ------- -- ---------- --- - --- ----- ----- ----<br>---- --- --- ----- --- ---- ---- ------- ----- ---- whether<br>--- --- -- ----- -- --- ---- -- --- ---- -- ------ ------<br>--- ----- -- ----,64946,64945.39999999106,64394.487,64394.39999999106,64411.153,64961.054,,38,whether
screen,html.Screen,0_2_0_1_39,2021-11-05T13:34:54.992Z,,,,,,,,,,,,,,,,53,,,,,,,,,,,,,,600.2459999970233,,response,,,99,,,,,,Space,keypress(Space),,,,,---- -- ----- -- ------ - ------- --- ----------<br>------------- ------ ------ ---- ---- ------- ----- -- ----<br>-------- ------- -- ---------- --- - --- ----- ----- ----<br>---- --- --- ----- --- ---- ---- ------- ----- ---- -------<br>you --- -- ----- -- --- ---- -- --- ---- -- ------ ------<br>--- ----- -- ----,65561.89999999106,65561.29999999702,64944.389,64946.19999998808,64961.054,65577.682,,39,you
screen,html.Screen,0_2_0_1_40,2021-11-05T13:34:55.610Z,,,,,,,,,,,,,,,,53,,,,,,,,,,,,,,599.6179999970191,,response,,,99,,,,,,Space,keypress(Space),,,,,---- -- ----- -- ------ - ------- --- ----------<br>------------- ------ ------ ---- ---- ------- ----- -- ----<br>-------- ------- -- ---------- --- - --- ----- ----- ----<br>---- --- --- ----- --- ---- ---- ------- ----- ---- -------<br>--- are -- ----- -- --- ---- -- --- ---- -- ------ ------<br>--- ----- -- ----,66179.19999998808,66177.29999999702,65561.017,65562.09999999404,65577.682,66194.229,,40,are
screen,html.Screen,0_2_0_1_41,2021-11-05T13:34:56.216Z,,,,,,,,,,,,,,,,53,,,,,,,,,,,,,,591.0709999970131,,response,,,99,,,,,,Space,keypress(Space),,,,,---- -- ----- -- ------ - ------- --- ----------<br>------------- ------ ------ ---- ---- ------- ----- -- ----<br>-------- ------- -- ---------- --- - --- ----- ----- ----<br>---- --- --- ----- --- ---- ---- ------- ----- ---- -------<br>--- --- as ----- -- --- ---- -- --- ---- -- ------ ------<br>--- ----- -- ----,66785.89999999106,66785.29999999702,66177.565,66179.29999999702,66194.229,66794.358,,41,as
screen,html.Screen,0_2_0_1_42,2021-11-05T13:34:56.720Z,,,,,,,,,,,,,,,,53,,,,,,,,,,,,,,494.8419999880862,,response,,,99,,,,,,Space,keypress(Space),,,,,---- -- ----- -- ------ - ------- --- ----------<br>------------- ------ ------ ---- ---- ------- ----- -- ----<br>-------- ------- -- ---------- --- - --- ----- ----- ----<br>---- --- --- ----- --- ---- ---- ------- ----- ---- -------<br>--- --- -- close -- --- ---- -- --- ---- -- ------ ------<br>--- ----- -- ----,67289.89999999106,67289.19999998808,66777.692,66786.09999999404,66794.358,67294.258,,42,close
screen,html.Screen,0_2_0_1_43,2021-11-05T13:34:57.168Z,,,,,,,,,,,,,,,,53,,,,,,,,,,,,,,442.94199998807744,,response,,,99,,,,,,Space,keypress(Space),,,,,---- -- ----- -- ------ - ------- --- ----------<br>------------- ------ ------ ---- ---- ------- ----- -- ----<br>-------- ------- -- ---------- --- - --- ----- ----- ----<br>---- --- --- ----- --- ---- ---- ------- ----- ---- -------<br>--- --- -- ----- as --- ---- -- --- ---- -- ------ ------<br>--- ----- -- ----,67737.79999999702,67737.19999998808,67277.593,67290,67294.258,67744.238,,43,as
screen,html.Screen,0_2_0_1_44,2021-11-05T13:34:57.656Z,,,,,,,,,,,,,,,,53,,,,,,,,,,,,,,480.9619999880815,,response,,,99,,,,,,Space,keypress(Space),,,,,---- -- ----- -- ------ - ------- --- ----------<br>------------- ------ ------ ---- ---- ------- ----- -- ----<br>-------- ------- -- ---------- --- - --- ----- ----- ----<br>---- --- --- ----- --- ---- ---- ------- ----- ---- -------<br>--- --- -- ----- -- you ---- -- --- ---- -- ------ ------<br>--- ----- -- ----,68225.79999999702,68225.19999998808,67727.573,67738,67744.238,68227.541,,44,you
screen,html.Screen,0_2_0_1_45,2021-11-05T13:34:58.552Z,,,,,,,,,,,,,,,,53,,,,,,,,,,,,,,893.6589999880816,,response,,,99,,,,,,Space,keypress(Space),,,,,---- -- ----- -- ------ - ------- --- ----------<br>------------- ------ ------ ---- ---- ------- ----- -- ----<br>-------- ------- -- ---------- --- - --- ----- ----- ----<br>---- --- --- ----- --- ---- ---- ------- ----- ---- -------<br>--- --- -- ----- -- --- want -- --- ---- -- ------ ------<br>--- ----- -- ----,69121.79999999702,69121.19999998808,68210.876,68226,68227.541,69127.473,,45,want
screen,html.Screen,0_2_0_1_46,2021-11-05T13:34:59.032Z,,,,,,,,,,,,,,,,53,,,,,,,,,,,,,,473.6269999940414,,response,,,99,,,,,,Space,keypress(Space),,,,,---- -- ----- -- ------ - ------- --- ----------<br>------------- ------ ------ ---- ---- ------- ----- -- ----<br>-------- ------- -- ---------- --- - --- ----- ----- ----<br>---- --- --- ----- --- ---- ---- ------- ----- ---- -------<br>--- --- -- ----- -- --- ---- to --- ---- -- ------ ------<br>--- ----- -- ----,69601.79999999702,69601.09999999404,69110.808,69121.89999999106,69127.473,69610.792,,46,to
screen,html.Screen,0_2_0_1_47,2021-11-05T13:34:59.616Z,,,,,,,,,,,,,,,,53,,,,,,,,,,,,,,574.3079999940383,,response,,,99,,,,,,Space,keypress(Space),,,,,"---- -- ----- -- ------ - ------- --- ----------<br>------------- ------ ------ ---- ---- ------- ----- -- ----<br>-------- ------- -- ---------- --- - --- ----- ----- ----<br>---- --- --- ----- --- ---- ---- ------- ----- ---- -------<br>--- --- -- ----- -- --- ---- -- be, ---- -- ------ ------<br>--- ----- -- ----",70185.69999998808,70185.09999999404,69594.127,69601.89999999106,69610.792,70194.096,,47,"be,"
screen,html.Screen,0_2_0_1_48,2021-11-05T13:35:00.120Z,,,,,,,,,,,,,,,,53,,,,,,,,,,,,,,495.00399999403453,,response,,,99,,,,,,Space,keypress(Space),,,,,---- -- ----- -- ------ - ------- --- ----------<br>------------- ------ ------ ---- ---- ------- ----- -- ----<br>-------- ------- -- ---------- --- - --- ----- ----- ----<br>---- --- --- ----- --- ---- ---- ------- ----- ---- -------<br>--- --- -- ----- -- --- ---- -- --- even -- ------ ------<br>--- ----- -- ----,70689.69999998808,70689.09999999404,70177.431,70185.79999999702,70194.096,70693.914,,48,even
screen,html.Screen,0_2_0_1_49,2021-11-05T13:35:00.536Z,,,,,,,,,,,,,,,,53,,,,,,,,,,,,,,411.1859999940352,,response,,,99,,,,,,Space,keypress(Space),,,,,---- -- ----- -- ------ - ------- --- ----------<br>------------- ------ ------ ---- ---- ------- ----- -- ----<br>-------- ------- -- ---------- --- - --- ----- ----- ----<br>---- --- --- ----- --- ---- ---- ------- ----- ---- -------<br>--- --- -- ----- -- --- ---- -- --- ---- if ------ ------<br>--- ----- -- ----,71105.69999998808,71105.09999999404,70677.251,70689.79999999702,70693.914,71110.773,,49,if
screen,html.Screen,0_2_0_1_50,2021-11-05T13:35:00.992Z,,,,,,,,,,,,,,,,53,,,,,,,,,,,,,,450.22699999999895,,response,,,99,,,,,,Space,keypress(Space),,,,,---- -- ----- -- ------ - ------- --- ----------<br>------------- ------ ------ ---- ---- ------- ----- -- ----<br>-------- ------- -- ---------- --- - --- ----- ----- ----<br>---- --- --- ----- --- ---- ---- ------- ----- ---- -------<br>--- --- -- ----- -- --- ---- -- --- ---- -- that's ------<br>--- ----- -- ----,71561.69999998808,71561,71094.107,71105.79999999702,71110.773,71577.364,,50,that's
screen,html.Screen,0_2_0_1_51,2021-11-05T13:35:01.448Z,,,,,,,,,,,,,,,,53,,,,,,,,,,,,,,439.6359999999986,,response,,,99,,,,,,Space,keypress(Space),,,,,---- -- ----- -- ------ - ------- --- ----------<br>------------- ------ ------ ---- ---- ------- ----- -- ----<br>-------- ------- -- ---------- --- - --- ----- ----- ----<br>---- --- --- ----- --- ---- ---- ------- ----- ---- -------<br>--- --- -- ----- -- --- ---- -- --- ---- -- ------ really<br>--- ----- -- ----,72017.59999999404,72017,71560.699,71561.89999999106,71577.364,72027.311,,51,really
screen,html.Screen,0_2_0_1_52,2021-11-05T13:35:01.976Z,,,,,,,,,,,,,,,,53,,,,,,,,,,,,,,517.5889999910578,,response,,,99,,,,,,Space,keypress(Space),,,,,---- -- ----- -- ------ - ------- --- ----------<br>------------- ------ ------ ---- ---- ------- ----- -- ----<br>-------- ------- -- ---------- --- - --- ----- ----- ----<br>---- --- --- ----- --- ---- ---- ------- ----- ---- -------<br>--- --- -- ----- -- --- ---- -- --- ---- -- ------ ------<br>not ----- -- ----,72545.59999999404,72544.89999999106,72010.646,72017.79999999702,72027.311,72560.557,,52,not
screen,html.Screen,0_2_0_1_53,2021-11-05T13:35:02.448Z,,,,,,,,,,,,,,,,53,,,,,,,,,,,,,,456.3429999910586,,response,,,99,,,,,,Space,keypress(Space),,,,,---- -- ----- -- ------ - ------- --- ----------<br>------------- ------ ------ ---- ---- ------- ----- -- ----<br>-------- ------- -- ---------- --- - --- ----- ----- ----<br>---- --- --- ----- --- ---- ---- ------- ----- ---- -------<br>--- --- -- ----- -- --- ---- -- --- ---- -- ------ ------<br>--- close -- ----,73017.5,73016.89999999106,72543.893,72545.89999999106,72560.557,73027.323,,53,close
screen,html.Screen,0_2_0_1_54,2021-11-05T13:35:02.856Z,,,,,,,,,,,,,,,,53,,,,,,,,,,,,,,397.57699999105535,,response,,,99,,,,,,Space,keypress(Space),,,,,---- -- ----- -- ------ - ------- --- ----------<br>------------- ------ ------ ---- ---- ------- ----- -- ----<br>-------- ------- -- ---------- --- - --- ----- ----- ----<br>---- --- --- ----- --- ---- ---- ------- ----- ---- -------<br>--- --- -- ----- -- --- ---- -- --- ---- -- ------ ------<br>--- ----- at ----,73425.5,73424.89999999106,73010.657,73017.79999999702,73027.323,73427.232,,54,at
screen,html.Screen,0_2_0_1_55,2021-11-05T13:35:03.280Z,,,,,,,,,,,,,,,,53,,,,,,,,,,,,,,421.6679999910557,,response,,,99,,,,,,Space,keypress(Space),,,,,---- -- ----- -- ------ - ------- --- ----------<br>------------- ------ ------ ---- ---- ------- ----- -- ----<br>-------- ------- -- ---------- --- - --- ----- ----- ----<br>---- --- --- ----- --- ---- ---- ------- ----- ---- -------<br>--- --- -- ----- -- --- ---- -- --- ---- -- ------ ------<br>--- ----- -- all.,73849.5,73848.89999999106,73410.567,73425.79999999702,73427.232,73860.565,,55,all.
Item 99,flow.Loop,0_2_0_1,2021-11-05T13:35:03.283Z,,,,,,,,,,,,,,,,,,,,,,,,,,,,,,30653.35299999106,,completion,,,,C,,,,,,,,,,silence,,73853,73848.89999999106,43178.882,43182.39999999106,43195.547,73860.565,,,
Question 1,html.Screen,0_2_0_2,2021-11-05T13:35:07.836Z,,,,,,,,,,,,,,,,,,,,,,,,,,,true,FALSE,,4544.034999994037,,response,,,99,C,,,,,FALSE,click #choice-2,,,,silence,,78405.5,78404.59999999404,73843.9,73853.29999999702,73860.565,78410.289,,,
Question 2,html.Screen,0_2_0_3,2021-11-05T13:35:14.783Z,,,,,,,,,,,,,,,,,,,,,,,,,,,true,TRUE,,6941.210999999996,,response,,,99,C,,,,,TRUE,click #choice-1,,,,silence,,85352.29999999702,85351.5,78393.624,78405.69999998808,78410.289,85359.933,,,
Item 99,flow.Sequence,0_2_0,2021-11-05T13:35:14.783Z,,,,,,,,,,,,,,,,,,,,,,,,,,,,,,52156.033,,completion,,,,,,,,,,,,,,,,85352.59999999404,85351.5,33178.804,33184.09999999404,33195.467,85359.933,,,
Holding screen,html.Screen,0_2_1_0,2021-11-05T13:35:24.774Z,,,,,,,,,,,,,,,,,,,,,,,,,,,,,,9999.513999999996,,timeout,,,,,,,,,,,,,,,,95344,95342.781,85343.267,85352.79999999702,85359.933,95359.447,,,
screen,html.Screen,0_2_1_1_0,2021-11-05T13:35:25.911Z,,,,,,,,,,,,,,,,54,,,,,,,,,,,,,,1120.5529999999999,,response,,,100,,,,,,Space,keypress(Space),,,,,At --- ---- --- ------ ----- ------- ---- -- --- ------- --<br>------- ---------- ------ -- ----- -- ----- -- ---- ------<br>--- ----- --- --- ------ -------- ----- --- ------ ----- --<br>----- ----- ---------- --- --- ------ ------ ---- -- ------<br>------- --- ------ ----- --- ---- ------- -- ---- --- --<br>------- ------,96480.59999999404,96480,95342.781,95344.29999999702,95359.447,96492.568,,0,At
screen,html.Screen,0_2_1_1_1,2021-11-05T13:35:26.423Z,,,,,,,,,,,,,,,,54,,,,,,,,,,,,,,499.03199999404023,,response,,,100,,,,,,Space,keypress(Space),,,,,-- the ---- --- ------ ----- ------- ---- -- --- ------- --<br>------- ---------- ------ -- ----- -- ----- -- ---- ------<br>--- ----- --- --- ------ -------- ----- --- ------ ----- --<br>----- ----- ---------- --- --- ------ ------ ---- -- ------<br>------- --- ------ ----- --- ---- ------- -- ---- --- --<br>------- ------,96992.19999998808,96991.59999999404,96475.903,96480.79999999702,96492.568,97009.25,,1,the
screen,html.Screen,0_2_1_1_2,2021-11-05T13:35:26.799Z,,,,,,,,,,,,,,,,54,,,,,,,,,,,,,,358.34999999403954,,response,,,100,,,,,,Space,keypress(Space),,,,,-- --- time --- ------ ----- ------- ---- -- --- ------- --<br>------- ---------- ------ -- ----- -- ----- -- ---- ------<br>--- ----- --- --- ------ -------- ----- --- ------ ----- --<br>----- ----- ---------- --- --- ------ ------ ---- -- ------<br>------- --- ------ ----- --- ---- ------- -- ---- --- --<br>------- ------,97368.19999998808,97367.59999999404,96992.585,96992.39999999106,97009.25,97375.98,,2,time
screen,html.Screen,0_2_1_1_3,2021-11-05T13:35:27.215Z,,,,,,,,,,,,,,,,54,,,,,,,,,,,,,,407.71999998808315,,response,,,100,,,,,,Space,keypress(Space),,,,,-- --- ---- the ------ ----- ------- ---- -- --- ------- --<br>------- ---------- ------ -- ----- -- ----- -- ---- ------<br>--- ----- --- --- ------ -------- ----- --- ------ ----- --<br>----- ----- ---------- --- --- ------ ------ ---- -- ------<br>------- --- ------ ----- --- ---- ------- -- ---- --- --<br>------- ------,97784.19999998808,97783.69999998808,97359.314,97368.29999999702,97375.98,97792.577,,3,the
screen,html.Screen,0_2_1_1_4,2021-11-05T13:35:27.751Z,,,,,,,,,,,,,,,,54,,,,,,,,,,,,,,527.0229999940348,,response,,,100,,,,,,Space,keypress(Space),,,,,-- --- ---- --- French ----- ------- ---- -- --- ------- --<br>------- ---------- ------ -- ----- -- ----- -- ---- ------<br>--- ----- --- --- ------ -------- ----- --- ------ ----- --<br>----- ----- ---------- --- --- ------ ------ ---- -- ------<br>------- --- ------ ----- --- ---- ------- -- ---- --- --<br>------- ------,98320.09999999404,98319.59999999404,97775.912,97784.39999999106,97792.577,98325.815,,4,French
screen,html.Screen,0_2_1_1_5,2021-11-05T13:35:29.375Z,,,,,,,,,,,,,,,,54,,,,,,,,,,,,,,1617.6849999999977,,response,,,100,,,,,,Space,keypress(Space),,,,,-- --- ---- --- ------ crown ------- ---- -- --- ------- --<br>------- ---------- ------ -- ----- -- ----- -- ---- ------<br>--- ----- --- --- ------ -------- ----- --- ------ ----- --<br>----- ----- ---------- --- --- ------ ------ ---- -- ------<br>------- --- ------ ----- --- ---- ------- -- ---- --- --<br>------- ------,99944.09999999404,99943.5,98309.151,98320.19999998808,98325.815,99959.196,,5,crown
screen,html.Screen,0_2_1_1_6,2021-11-05T13:35:29.846Z,,,,,,,,,,,,,,,,54,,,,,,,,,,,,,,456.1039999970235,,response,,,100,,,,,,Space,keypress(Space),,,,,-- --- ---- --- ------ ----- secured ---- -- --- ------- --<br>------- ---------- ------ -- ----- -- ----- -- ---- ------<br>--- ----- --- --- ------ -------- ----- --- ------ ----- --<br>----- ----- ---------- --- --- ------ ------ ---- -- ------<br>------- --- ------ ----- --- ---- ------- -- ---- --- --<br>------- ------,100416,100415.29999999702,99942.53,99944.19999998808,99959.196,100425.709,,6,secured
screen,html.Screen,0_2_1_1_7,2021-11-05T13:35:30.294Z,,,,,,,,,,,,,,,,54,,,,,,,,,,,,,,437.69099999105674,,response,,,100,,,,,,Space,keypress(Space),,,,,-- --- ---- --- ------ ----- ------- much -- --- ------- --<br>------- ---------- ------ -- ----- -- ----- -- ---- ------<br>--- ----- --- --- ------ -------- ----- --- ------ ----- --<br>----- ----- ---------- --- --- ------ ------ ---- -- ------<br>------- --- ------ ----- --- ---- ------- -- ---- --- --<br>------- ------,100864,100863.39999999106,100409.044,100416.09999999404,100425.709,100875.697,,7,much
screen,html.Screen,0_2_1_1_8,2021-11-05T13:35:30.774Z,,,,,,,,,,,,,,,,54,,,,,,,,,,,,,,467.60299999701965,,response,,,100,,,,,,Space,keypress(Space),,,,,-- --- ---- --- ------ ----- ------- ---- of --- ------- --<br>------- ---------- ------ -- ----- -- ----- -- ---- ------<br>--- ----- --- --- ------ -------- ----- --- ------ ----- --<br>----- ----- ---------- --- --- ------ ------ ---- -- ------<br>------- --- ------ ----- --- ---- ------- -- ---- --- --<br>------- ------,101344,101343.29999999702,100859.032,100864.09999999404,100875.697,101359.076,,8,of
screen,html.Screen,0_2_1_1_9,2021-11-05T13:35:31.190Z,,,,,,,,,,,,,,,,54,,,,,,,,,,,,,,400.22399999701884,,response,,,100,,,,,,Space,keypress(Space),,,,,-- --- ---- --- ------ ----- ------- ---- -- its ------- --<br>------- ---------- ------ -- ----- -- ----- -- ---- ------<br>--- ----- --- --- ------ -------- ----- --- ------ ----- --<br>----- ----- ---------- --- --- ------ ------ ---- -- ------<br>------- --- ------ ----- --- ---- ------- -- ---- --- --<br>------- ------,101760.09999999404,101759.29999999702,101342.41,101344.09999999404,101359.076,101775.666,,9,its
screen,html.Screen,0_2_1_1_10,2021-11-05T13:35:31.662Z,,,,,,,,,,,,,,,,54,,,,,,,,,,,,,,455.63399999702233,,response,,,100,,,,,,Space,keypress(Space),,,,,-- --- ---- --- ------ ----- ------- ---- -- --- revenue --<br>------- ---------- ------ -- ----- -- ----- -- ---- ------<br>--- ----- --- --- ------ -------- ----- --- ------ ----- --<br>----- ----- ---------- --- --- ------ ------ ---- -- ------<br>------- --- ------ ----- --- ---- ------- -- ---- --- --<br>------- ------,102231.89999999106,102231.29999999702,101759.001,101760.29999999702,101775.666,102242.31,,10,revenue
screen,html.Screen,0_2_1_1_11,2021-11-05T13:35:32.102Z,,,,,,,,,,,,,,,,54,,,,,,,,,,,,,,428.9899999970221,,response,,,100,,,,,,Space,keypress(Space),,,,,-- --- ---- --- ------ ----- ------- ---- -- --- ------- by<br>------- ---------- ------ -- ----- -- ----- -- ---- ------<br>--- ----- --- --- ------ -------- ----- --- ------ ----- --<br>----- ----- ---------- --- --- ------ ------ ---- -- ------<br>------- --- ------ ----- --- ---- ------- -- ---- --- --<br>------- ------,102672,102671.29999999702,102225.645,102232.09999999404,102242.31,102675.632,,11,by
screen,html.Screen,0_2_1_1_12,2021-11-05T13:35:32.630Z,,,,,,,,,,,,,,,,54,,,,,,,,,,,,,,523.667999997022,,response,,,100,,,,,,Space,keypress(Space),,,,,-- --- ---- --- ------ ----- ------- ---- -- --- ------- --<br>issuing ---------- ------ -- ----- -- ----- -- ---- ------<br>--- ----- --- --- ------ -------- ----- --- ------ ----- --<br>----- ----- ---------- --- --- ------ ------ ---- -- ------<br>------- --- ------ ----- --- ---- ------- -- ---- --- --<br>------- ------,103200,103199.29999999702,102658.967,102672.09999999404,102675.632,103208.983,,12,issuing
screen,html.Screen,0_2_1_1_13,2021-11-05T13:35:33.270Z,,,,,,,,,,,,,,,,54,,,,,,,,,,,,,,630.2169999880862,,response,,,100,,,,,,Space,keypress(Space),,,,,-- --- ---- --- ------ ----- ------- ---- -- --- ------- --<br>------- government ------ -- ----- -- ----- -- ---- ------<br>--- ----- --- --- ------ -------- ----- --- ------ ----- --<br>----- ----- ---------- --- --- ------ ------ ---- -- ------<br>------- --- ------ ----- --- ---- ------- -- ---- --- --<br>------- ------,103839.89999999106,103839.19999998808,103192.317,103200.19999998808,103208.983,103842.226,,13,government
screen,html.Screen,0_2_1_1_14,2021-11-05T13:35:34.902Z,,,,,,,,,,,,,,,,54,,,,,,,,,,,,,,1628.973999988084,,response,,,100,,,,,,Space,keypress(Space),,,,,-- --- ---- --- ------ ----- ------- ---- -- --- ------- --<br>------- ---------- bonds. -- ----- -- ----- -- ---- ------<br>--- ----- --- --- ------ -------- ----- --- ------ ----- --<br>----- ----- ---------- --- --- ------ ------ ---- -- ------<br>------- --- ------ ----- --- ---- ------- -- ---- --- --<br>------- ------,105471.79999999702,105471.19999998808,103825.561,103840,103842.226,105475.396,,14,bonds.
screen,html.Screen,0_2_1_1_15,2021-11-05T13:35:35.358Z,,,,,,,,,,,,,,,,54,,,,,,,,,,,,,,451.70399999404617,,response,,,100,,,,,,Space,keypress(Space),,,,,-- --- ---- --- ------ ----- ------- ---- -- --- ------- --<br>------- ---------- ------ In ----- -- ----- -- ---- ------<br>--- ----- --- --- ------ -------- ----- --- ------ ----- --<br>----- ----- ---------- --- --- ------ ------ ---- -- ------<br>------- --- ------ ----- --- ---- ------- -- ---- --- --<br>------- ------,105927.59999999404,105927.09999999404,105458.731,105472,105475.396,105942.184,,15,In
screen,html.Screen,0_2_1_1_16,2021-11-05T13:35:36.590Z,,,,,,,,,,,,,,,,54,,,,,,,,,,,,,,1217.2159999910655,,response,,,100,,,,,,Space,keypress(Space),,,,,"-- --- ---- --- ------ ----- ------- ---- -- --- ------- --<br>------- ---------- ------ -- 1727, -- ----- -- ---- ------<br>--- ----- --- --- ------ -------- ----- --- ------ ----- --<br>----- ----- ---------- --- --- ------ ------ ---- -- ------<br>------- --- ------ ----- --- ---- ------- -- ---- --- --<br>------- ------",107159.89999999106,107159.39999999106,105925.518,105927.79999999702,105942.184,107175.335,,16,"1727,"
screen,html.Screen,0_2_1_1_17,2021-11-05T13:35:37.142Z,,,,,,,,,,,,,,,,54,,,,,,,,,,,,,,535.6649999999936,,response,,,100,,,,,,Space,keypress(Space),,,,,-- --- ---- --- ------ ----- ------- ---- -- --- ------- --<br>------- ---------- ------ -- ----- in ----- -- ---- ------<br>--- ----- --- --- ------ -------- ----- --- ------ ----- --<br>----- ----- ---------- --- --- ------ ------ ---- -- ------<br>------- --- ------ ----- --- ---- ------- -- ---- --- --<br>------- ------,107711.59999999404,107711,107158.67,107160.19999998808,107175.335,107725.349,,17,in
screen,html.Screen,0_2_1_1_18,2021-11-05T13:35:37.630Z,,,,,,,,,,,,,,,,54,,,,,,,,,,,,,,473.5509999910573,,response,,,100,,,,,,Space,keypress(Space),,,,,-- --- ---- --- ------ ----- ------- ---- -- --- ------- --<br>------- ---------- ------ -- ----- -- order -- ---- ------<br>--- ----- --- --- ------ -------- ----- --- ------ ----- --<br>----- ----- ---------- --- --- ------ ------ ---- -- ------<br>------- --- ------ ----- --- ---- ------- -- ---- --- --<br>------- ------,108199.5,108198.89999999106,107708.684,107711.79999999702,107725.349,108208.665,,18,order
screen,html.Screen,0_2_1_1_19,2021-11-05T13:35:38.014Z,,,,,,,,,,,,,,,,54,,,,,,,,,,,,,,374.2349999910657,,response,,,100,,,,,,Space,keypress(Space),,,,,-- --- ---- --- ------ ----- ------- ---- -- --- ------- --<br>------- ---------- ------ -- ----- -- ----- to ---- ------<br>--- ----- --- --- ------ -------- ----- --- ------ ----- --<br>----- ----- ---------- --- --- ------ ------ ---- -- ------<br>------- --- ------ ----- --- ---- ------- -- ---- --- --<br>------- ------,108583.5,108582.89999999106,108192,108199.79999999702,108208.665,108591.953,,19,to
screen,html.Screen,0_2_1_1_20,2021-11-05T13:35:38.390Z,,,,,,,,,,,,,,,,54,,,,,,,,,,,,,,367.04700000000594,,response,,,100,,,,,,Space,keypress(Space),,,,,-- --- ---- --- ------ ----- ------- ---- -- --- ------- --<br>------- ---------- ------ -- ----- -- ----- -- save ------<br>--- ----- --- --- ------ -------- ----- --- ------ ----- --<br>----- ----- ---------- --- --- ------ ------ ---- -- ------<br>------- --- ------ ----- --- ---- ------- -- ---- --- --<br>------- ------,108959.5,108959,108575.288,108583.69999998808,108591.953,108975.275,,20,save
screen,html.Screen,0_2_1_1_21,2021-11-05T13:35:38.982Z,,,,,,,,,,,,,,,,54,,,,,,,,,,,,,,575.6249999910651,,response,,,100,,,,,,Space,keypress(Space),,,,,"-- --- ---- --- ------ ----- ------- ---- -- --- ------- --<br>------- ---------- ------ -- ----- -- ----- -- ---- money,<br>--- ----- --- --- ------ -------- ----- --- ------ ----- --<br>----- ----- ---------- --- --- ------ ------ ---- -- ------<br>------- --- ------ ----- --- ---- ------- -- ---- --- --<br>------- ------",109551.5,109550.89999999106,108958.61,108959.59999999404,108975.275,109558.578,,21,"money,"
screen,html.Screen,0_2_1_1_22,2021-11-05T13:35:39.510Z,,,,,,,,,,,,,,,,54,,,,,,,,,,,,,,520.2219999970257,,response,,,100,,,,,,Space,keypress(Space),,,,,-- --- ---- --- ------ ----- ------- ---- -- --- ------- --<br>------- ---------- ------ -- ----- -- ----- -- ---- ------<br>the ----- --- --- ------ -------- ----- --- ------ ----- --<br>----- ----- ---------- --- --- ------ ------ ---- -- ------<br>------- --- ------ ----- --- ---- ------- -- ---- --- --<br>------- ------,110079.5,110078.79999999702,109541.913,109551.59999999404,109558.578,110091.803,,22,the
screen,html.Screen,0_2_1_1_23,2021-11-05T13:35:40.094Z,,,,,,,,,,,,,,,,54,,,,,,,,,,,,,,570.9969999970199,,response,,,100,,,,,,Space,keypress(Space),,,,,-- --- ---- --- ------ ----- ------- ---- -- --- ------- --<br>------- ---------- ------ -- ----- -- ----- -- ---- ------<br>--- state --- --- ------ -------- ----- --- ------ ----- --<br>----- ----- ---------- --- --- ------ ------ ---- -- ------<br>------- --- ------ ----- --- ---- ------- -- ---- --- --<br>------- ------,110663.5,110662.79999999702,110075.139,110079.59999999404,110091.803,110675.223,,23,state
screen,html.Screen,0_2_1_1_24,2021-11-05T13:35:40.662Z,,,,,,,,,,,,,,,,54,,,,,,,,,,,,,,555.5769999970216,,response,,,100,,,,,,Space,keypress(Space),,,,,-- --- ---- --- ------ ----- ------- ---- -- --- ------- --<br>------- ---------- ------ -- ----- -- ----- -- ---- ------<br>--- ----- cut --- ------ -------- ----- --- ------ ----- --<br>----- ----- ---------- --- --- ------ ------ ---- -- ------<br>------- --- ------ ----- --- ---- ------- -- ---- --- --<br>------- ------,111231.39999999106,111230.79999999702,110658.557,110663.59999999404,110675.223,111241.895,,24,cut
screen,html.Screen,0_2_1_1_25,2021-11-05T13:35:41.166Z,,,,,,,,,,,,,,,,54,,,,,,,,,,,,,,492.9049999970157,,response,,,100,,,,,,Space,keypress(Space),,,,,-- --- ---- --- ------ ----- ------- ---- -- --- ------- --<br>------- ---------- ------ -- ----- -- ----- -- ---- ------<br>--- ----- --- the ------ -------- ----- --- ------ ----- --<br>----- ----- ---------- --- --- ------ ------ ---- -- ------<br>------- --- ------ ----- --- ---- ------- -- ---- --- --<br>------- ------,111735.39999999106,111734.79999999702,111225.229,111231.59999999404,111241.895,111741.689,,25,the
screen,html.Screen,0_2_1_1_26,2021-11-05T13:35:41.830Z,,,,,,,,,,,,,,,,54,,,,,,,,,,,,,,657.1109999970213,,response,,,100,,,,,,Space,keypress(Space),,,,,-- --- ---- --- ------ ----- ------- ---- -- --- ------- --<br>------- ---------- ------ -- ----- -- ----- -- ---- ------<br>--- ----- --- --- bonds' -------- ----- --- ------ ----- --<br>----- ----- ---------- --- --- ------ ------ ---- -- ------<br>------- --- ------ ----- --- ---- ------- -- ---- --- --<br>------- ------,112399.39999999106,112398.79999999702,111725.025,111735.59999999404,111741.689,112408.554,,26,bonds'
screen,html.Screen,0_2_1_1_27,2021-11-05T13:35:42.246Z,,,,,,,,,,,,,,,,54,,,,,,,,,,,,,,406.14599998807535,,response,,,100,,,,,,Space,keypress(Space),,,,,-- --- ---- --- ------ ----- ------- ---- -- --- ------- --<br>------- ---------- ------ -- ----- -- ----- -- ---- ------<br>--- ----- --- --- ------ interest ----- --- ------ ----- --<br>----- ----- ---------- --- --- ------ ------ ---- -- ------<br>------- --- ------ ----- --- ---- ------- -- ---- --- --<br>------- ------,112815.29999999702,112814.69999998808,112391.887,112399.5,112408.554,112825.082,,27,interest
screen,html.Screen,0_2_1_1_28,2021-11-05T13:35:42.870Z,,,,,,,,,,,,,,,,54,,,,,,,,,,,,,,613.6179999880842,,response,,,100,,,,,,Space,keypress(Space),,,,,-- --- ---- --- ------ ----- ------- ---- -- --- ------- --<br>------- ---------- ------ -- ----- -- ----- -- ---- ------<br>--- ----- --- --- ------ -------- rate. --- ------ ----- --<br>----- ----- ---------- --- --- ------ ------ ---- -- ------<br>------- --- ------ ----- --- ---- ------- -- ---- --- --<br>------- ------,113439.29999999702,113438.69999998808,112808.417,112815.39999999106,112825.082,113441.701,,28,rate.
screen,html.Screen,0_2_1_1_29,2021-11-05T13:35:43.302Z,,,,,,,,,,,,,,,,54,,,,,,,,,,,,,,428.8989999940386,,response,,,100,,,,,,Space,keypress(Space),,,,,-- --- ---- --- ------ ----- ------- ---- -- --- ------- --<br>------- ---------- ------ -- ----- -- ----- -- ---- ------<br>--- ----- --- --- ------ -------- ----- The ------ ----- --<br>----- ----- ---------- --- --- ------ ------ ---- -- ------<br>------- --- ------ ----- --- ---- ------- -- ---- --- --<br>------- ------,113871.19999998808,113870.59999999404,113425.036,113439.5,113441.701,113875.013,,29,The
screen,html.Screen,0_2_1_1_30,2021-11-05T13:35:43.726Z,,,,,,,,,,,,,,,,54,,,,,,,,,,,,,,419.58699999403325,,response,,,100,,,,,,Space,keypress(Space),,,,,-- --- ---- --- ------ ----- ------- ---- -- --- ------- --<br>------- ---------- ------ -- ----- -- ----- -- ---- ------<br>--- ----- --- --- ------ -------- ----- --- market ----- --<br>----- ----- ---------- --- --- ------ ------ ---- -- ------<br>------- --- ------ ----- --- ---- ------- -- ---- --- --<br>------- ------,114295.19999998808,114294.59999999404,113858.348,113871.39999999106,113875.013,114308.345,,30,market
screen,html.Screen,0_2_1_1_31,2021-11-05T13:35:44.150Z,,,,,,,,,,,,,,,,54,,,,,,,,,,,,,,410.3549999880779,,response,,,100,,,,,,Space,keypress(Space),,,,,-- --- ---- --- ------ ----- ------- ---- -- --- ------- --<br>------- ---------- ------ -- ----- -- ----- -- ---- ------<br>--- ----- --- --- ------ -------- ----- --- ------ value --<br>----- ----- ---------- --- --- ------ ------ ---- -- ------<br>------- --- ------ ----- --- ---- ------- -- ---- --- --<br>------- ------,114719.29999999702,114718.69999998808,114291.68,114295.39999999106,114308.345,114724.994,,31,value
screen,html.Screen,0_2_1_1_32,2021-11-05T13:35:44.574Z,,,,,,,,,,,,,,,,54,,,,,,,,,,,,,,417.6059999940335,,response,,,100,,,,,,Space,keypress(Space),,,,,-- --- ---- --- ------ ----- ------- ---- -- --- ------- --<br>------- ---------- ------ -- ----- -- ----- -- ---- ------<br>--- ----- --- --- ------ -------- ----- --- ------ ----- of<br>----- ----- ---------- --- --- ------ ------ ---- -- ------<br>------- --- ------ ----- --- ---- ------- -- ---- --- --<br>------- ------,115143.29999999702,115142.59999999404,114708.329,114719.5,114724.994,115158.218,,32,of
screen,html.Screen,0_2_1_1_33,2021-11-05T13:35:45.022Z,,,,,,,,,,,,,,,,54,,,,,,,,,,,,,,432.38199999404605,,response,,,100,,,,,,Space,keypress(Space),,,,,-- --- ---- --- ------ ----- ------- ---- -- --- ------- --<br>------- ---------- ------ -- ----- -- ----- -- ---- ------<br>--- ----- --- --- ------ -------- ----- --- ------ ----- --<br>these ----- ---------- --- --- ------ ------ ---- -- ------<br>------- --- ------ ----- --- ---- ------- -- ---- --- --<br>------- ------,115591.19999998808,115590.59999999404,115141.554,115143.39999999106,115158.218,115608.295,,33,these
screen,html.Screen,0_2_1_1_34,2021-11-05T13:35:45.590Z,,,,,,,,,,,,,,,,54,,,,,,,,,,,,,,550.3049999940413,,response,,,100,,,,,,Space,keypress(Space),,,,,-- --- ---- --- ------ ----- ------- ---- -- --- ------- --<br>------- ---------- ------ -- ----- -- ----- -- ---- ------<br>--- ----- --- --- ------ -------- ----- --- ------ ----- --<br>----- bonds ---------- --- --- ------ ------ ---- -- ------<br>------- --- ------ ----- --- ---- ------- -- ---- --- --<br>------- ------,116159.09999999404,116158.59999999404,115591.629,115591.29999999702,115608.295,116174.734,,34,bonds
screen,html.Screen,0_2_1_1_35,2021-11-05T13:35:46.006Z,,,,,,,,,,,,,,,,54,,,,,,,,,,,,,,399.76600000000326,,response,,,100,,,,,,Space,keypress(Space),,,,,"-- --- ---- --- ------ ----- ------- ---- -- --- ------- --<br>------- ---------- ------ -- ----- -- ----- -- ---- ------<br>--- ----- --- --- ------ -------- ----- --- ------ ----- --<br>----- ----- plummeted, --- --- ------ ------ ---- -- ------<br>------- --- ------ ----- --- ---- ------- -- ---- --- --<br>------- ------",116575.09999999404,116574.5,116158.071,116159.29999999702,116174.734,116591.637,,35,"plummeted,"
screen,html.Screen,0_2_1_1_36,2021-11-05T13:35:46.429Z,,,,,,,,,,,,,,,,54,,,,,,,,,,,,,,406.86299999999756,,response,,,100,,,,,,Space,keypress(Space),,,,,-- --- ---- --- ------ ----- ------- ---- -- --- ------- --<br>------- ---------- ------ -- ----- -- ----- -- ---- ------<br>--- ----- --- --- ------ -------- ----- --- ------ ----- --<br>----- ----- ---------- and --- ------ ------ ---- -- ------<br>------- --- ------ ----- --- ---- ------- -- ---- --- --<br>------- ------,116999.09999999404,116998.5,116574.97,116575.29999999702,116591.637,117008.169,,36,and
screen,html.Screen,0_2_1_1_37,2021-11-05T13:35:46.830Z,,,,,,,,,,,,,,,,54,,,,,,,,,,,,,,390.63099999702536,,response,,,100,,,,,,Space,keypress(Space),,,,,-- --- ---- --- ------ ----- ------- ---- -- --- ------- --<br>------- ---------- ------ -- ----- -- ----- -- ---- ------<br>--- ----- --- --- ------ -------- ----- --- ------ ----- --<br>----- ----- ---------- --- the ------ ------ ---- -- ------<br>------- --- ------ ----- --- ---- ------- -- ---- --- --<br>------- ------,117399.39999999106,117398.79999999702,116991.504,116999.19999998808,117008.169,117408.156,,37,the
screen,html.Screen,0_2_1_1_38,2021-11-05T13:35:47.293Z,,,,,,,,,,,,,,,,54,,,,,,,,,,,,,,454.2439999910566,,response,,,100,,,,,,Space,keypress(Space),,,,,-- --- ---- --- ------ ----- ------- ---- -- --- ------- --<br>------- ---------- ------ -- ----- -- ----- -- ---- ------<br>--- ----- --- --- ------ -------- ----- --- ------ ----- --<br>----- ----- ---------- --- --- market ------ ---- -- ------<br>------- --- ------ ----- --- ---- ------- -- ---- --- --<br>------- ------,117863,117862.39999999106,117391.491,117399.5,117408.156,117874.775,,38,market
screen,html.Screen,0_2_1_1_39,2021-11-05T13:35:47.773Z,,,,,,,,,,,,,,,,54,,,,,,,,,,,,,,467.6249999910651,,response,,,100,,,,,,Space,keypress(Space),,,,,-- --- ---- --- ------ ----- ------- ---- -- --- ------- --<br>------- ---------- ------ -- ----- -- ----- -- ---- ------<br>--- ----- --- --- ------ -------- ----- --- ------ ----- --<br>----- ----- ---------- --- --- ------ became ---- -- ------<br>------- --- ------ ----- --- ---- ------- -- ---- --- --<br>------- ------,118343,118342.39999999106,117858.11,117863.19999998808,117874.775,118358.084,,39,became
screen,html.Screen,0_2_1_1_40,2021-11-05T13:35:48.197Z,,,,,,,,,,,,,,,,54,,,,,,,,,,,,,,408.2159999970172,,response,,,100,,,,,,Space,keypress(Space),,,,,-- --- ---- --- ------ ----- ------- ---- -- --- ------- --<br>------- ---------- ------ -- ----- -- ----- -- ---- ------<br>--- ----- --- --- ------ -------- ----- --- ------ ----- --<br>----- ----- ---------- --- --- ------ ------ wary -- ------<br>------- --- ------ ----- --- ---- ------- -- ---- --- --<br>------- ------,118767,118766.29999999702,118341.419,118343.19999998808,118358.084,118774.788,,40,wary
screen,html.Screen,0_2_1_1_41,2021-11-05T13:35:48.637Z,,,,,,,,,,,,,,,,54,,,,,,,,,,,,,,431.61199999105884,,response,,,100,,,,,,Space,keypress(Space),,,,,-- --- ---- --- ------ ----- ------- ---- -- --- ------- --<br>------- ---------- ------ -- ----- -- ----- -- ---- ------<br>--- ----- --- --- ------ -------- ----- --- ------ ----- --<br>----- ----- ---------- --- --- ------ ------ ---- of ------<br>------- --- ------ ----- --- ---- ------- -- ---- --- --<br>------- ------,119207,119206.39999999106,118758.122,118767.09999999404,118774.788,119224.699,,41,of
screen,html.Screen,0_2_1_1_42,2021-11-05T13:35:49.118Z,,,,,,,,,,,,,,,,54,,,,,,,,,,,,,,461.70099999106606,,response,,,100,,,,,,Space,keypress(Space),,,,,-- --- ---- --- ------ ----- ------- ---- -- --- ------- --<br>------- ---------- ------ -- ----- -- ----- -- ---- ------<br>--- ----- --- --- ------ -------- ----- --- ------ ----- --<br>----- ----- ---------- --- --- ------ ------ ---- -- French<br>------- --- ------ ----- --- ---- ------- -- ---- --- --<br>------- ------,119687.09999999404,119686.39999999106,119208.034,119207.79999999702,119224.699,119691.404,,42,French
screen,html.Screen,0_2_1_1_43,2021-11-05T13:35:50.264Z,,,,,,,,,,,,,,,,54,,,,,,,,,,,,,,1138.8959999970248,,response,,,100,,,,,,Space,keypress(Space),,,,,-- --- ---- --- ------ ----- ------- ---- -- --- ------- --<br>------- ---------- ------ -- ----- -- ----- -- ---- ------<br>--- ----- --- --- ------ -------- ----- --- ------ ----- --<br>----- ----- ---------- --- --- ------ ------ ---- -- ------<br>credit. --- ------ ----- --- ---- ------- -- ---- --- --<br>------- ------,120831,120830.29999999702,119674.738,119687.19999998808,119691.404,120841.165,,43,credit.
screen,html.Screen,0_2_1_1_44,2021-11-05T13:35:50.608Z,,,,,,,,,,,,,,,,54,,,,,,,,,,,,,,333.13499999702617,,response,,,100,,,,,,Space,keypress(Space),,,,,-- --- ---- --- ------ ----- ------- ---- -- --- ------- --<br>------- ---------- ------ -- ----- -- ----- -- ---- ------<br>--- ----- --- --- ------ -------- ----- --- ------ ----- --<br>----- ----- ---------- --- --- ------ ------ ---- -- ------<br>------- The ------ ----- --- ---- ------- -- ---- --- --<br>------- ------,121174.89999999106,121174.29999999702,120824.501,120831.09999999404,120841.165,121191.253,,44,The
screen,html.Screen,0_2_1_1_45,2021-11-05T13:35:51.016Z,,,,,,,,,,,,,,,,54,,,,,,,,,,,,,,391.0469999970228,,response,,,100,,,,,,Space,keypress(Space),,,,,-- --- ---- --- ------ ----- ------- ---- -- --- ------- --<br>------- ---------- ------ -- ----- -- ----- -- ---- ------<br>--- ----- --- --- ------ -------- ----- --- ------ ----- --<br>----- ----- ---------- --- --- ------ ------ ---- -- ------<br>------- --- French ----- --- ---- ------- -- ---- --- --<br>------- ------,121582.79999999702,121582.29999999702,121174.588,121175.09999999404,121191.253,121591.209,,45,French
screen,html.Screen,0_2_1_1_46,2021-11-05T13:35:51.368Z,,,,,,,,,,,,,,,,54,,,,,,,,,,,,,,343.0909999970172,,response,,,100,,,,,,Space,keypress(Space),,,,,-- --- ---- --- ------ ----- ------- ---- -- --- ------- --<br>------- ---------- ------ -- ----- -- ----- -- ---- ------<br>--- ----- --- --- ------ -------- ----- --- ------ ----- --<br>----- ----- ---------- --- --- ------ ------ ---- -- ------<br>------- --- ------ state --- ---- ------- -- ---- --- --<br>------- ------,121934.89999999106,121934.29999999702,121574.544,121583.09999999404,121591.209,121941.245,,46,state
screen,html.Screen,0_2_1_1_47,2021-11-05T13:35:51.800Z,,,,,,,,,,,,,,,,54,,,,,,,,,,,,,,424.9549999880837,,response,,,100,,,,,,Space,keypress(Space),,,,,-- --- ---- --- ------ ----- ------- ---- -- --- ------- --<br>------- ---------- ------ -- ----- -- ----- -- ---- ------<br>--- ----- --- --- ------ -------- ----- --- ------ ----- --<br>----- ----- ---------- --- --- ------ ------ ---- -- ------<br>------- --- ------ ----- was ---- ------- -- ---- --- --<br>------- ------,122366.79999999702,122366.19999998808,121924.579,121935,121941.245,122374.591,,47,was
screen,html.Screen,0_2_1_1_48,2021-11-05T13:35:52.192Z,,,,,,,,,,,,,,,,54,,,,,,,,,,,,,,383.5089999940392,,response,,,100,,,,,,Space,keypress(Space),,,,,-- --- ---- --- ------ ----- ------- ---- -- --- ------- --<br>------- ---------- ------ -- ----- -- ----- -- ---- ------<br>--- ----- --- --- ------ -------- ----- --- ------ ----- --<br>----- ----- ---------- --- --- ------ ------ ---- -- ------<br>------- --- ------ ----- --- left ------- -- ---- --- --<br>------- ------,122758.79999999702,122758.09999999404,122357.925,122366.89999999106,122374.591,122774.586,,48,left
screen,html.Screen,0_2_1_1_49,2021-11-05T13:35:52.632Z,,,,,,,,,,,,,,,,54,,,,,,,,,,,,,,423.51399999404384,,response,,,100,,,,,,Space,keypress(Space),,,,,-- --- ---- --- ------ ----- ------- ---- -- --- ------- --<br>------- ---------- ------ -- ----- -- ----- -- ---- ------<br>--- ----- --- --- ------ -------- ----- --- ------ ----- --<br>----- ----- ---------- --- --- ------ ------ ---- -- ------<br>------- --- ------ ----- --- ---- without -- ---- --- --<br>------- ------,123198.69999998808,123198.09999999404,122757.92,122758.89999999106,122774.586,123207.828,,49,without
screen,html.Screen,0_2_1_1_50,2021-11-05T13:35:52.992Z,,,,,,,,,,,,,,,,54,,,,,,,,,,,,,,350.2719999940455,,response,,,100,,,,,,Space,keypress(Space),,,,,-- --- ---- --- ------ ----- ------- ---- -- --- ------- --<br>------- ---------- ------ -- ----- -- ----- -- ---- ------<br>--- ----- --- --- ------ -------- ----- --- ------ ----- --<br>----- ----- ---------- --- --- ------ ------ ---- -- ------<br>------- --- ------ ----- --- ---- ------- an ---- --- --<br>------- ------,123558.59999999404,123558.09999999404,123191.163,123198.89999999106,123207.828,123574.485,,50,an
screen,html.Screen,0_2_1_1_51,2021-11-05T13:35:53.328Z,,,,,,,,,,,,,,,,54,,,,,,,,,,,,,,319.5149999999994,,response,,,100,,,,,,Space,keypress(Space),,,,,-- --- ---- --- ------ ----- ------- ---- -- --- ------- --<br>------- ---------- ------ -- ----- -- ----- -- ---- ------<br>--- ----- --- --- ------ -------- ----- --- ------ ----- --<br>----- ----- ---------- --- --- ------ ------ ---- -- ------<br>------- --- ------ ----- --- ---- ------- -- easy --- --<br>------- ------,123894.59999999404,123894,123557.82,123558.79999999702,123574.485,123907.753,,51,easy
screen,html.Screen,0_2_1_1_52,2021-11-05T13:35:53.648Z,,,,,,,,,,,,,,,,54,,,,,,,,,,,,,,306.4469999880821,,response,,,100,,,,,,Space,keypress(Space),,,,,-- --- ---- --- ------ ----- ------- ---- -- --- ------- --<br>------- ---------- ------ -- ----- -- ----- -- ---- ------<br>--- ----- --- --- ------ -------- ----- --- ------ ----- --<br>----- ----- ---------- --- --- ------ ------ ---- -- ------<br>------- --- ------ ----- --- ---- ------- -- ---- way --<br>------- ------,124214.79999999702,124214.19999998808,123891.089,123894.79999999702,123907.753,124224.443,,52,way
screen,html.Screen,0_2_1_1_53,2021-11-05T13:35:53.976Z,,,,,,,,,,,,,,,,54,,,,,,,,,,,,,,317.5570000000007,,response,,,100,,,,,,Space,keypress(Space),,,,,-- --- ---- --- ------ ----- ------- ---- -- --- ------- --<br>------- ---------- ------ -- ----- -- ----- -- ---- ------<br>--- ----- --- --- ------ -------- ----- --- ------ ----- --<br>----- ----- ---------- --- --- ------ ------ ---- -- ------<br>------- --- ------ ----- --- ---- ------- -- ---- --- of<br>------- ------,124542.69999998808,124542,124207.778,124214.89999999106,124224.443,124557.752,,53,of
screen,html.Screen,0_2_1_1_54,2021-11-05T13:35:54.320Z,,,,,,,,,,,,,,,,54,,,,,,,,,,,,,,328.3479999940464,,response,,,100,,,,,,Space,keypress(Space),,,,,-- --- ---- --- ------ ----- ------- ---- -- --- ------- --<br>------- ---------- ------ -- ----- -- ----- -- ---- ------<br>--- ----- --- --- ------ -------- ----- --- ------ ----- --<br>----- ----- ---------- --- --- ------ ------ ---- -- ------<br>------- --- ------ ----- --- ---- ------- -- ---- --- --<br>raising ------,124886.69999998808,124886.09999999404,124541.087,124542.79999999702,124557.752,124891.073,,54,raising
screen,html.Screen,0_2_1_1_55,2021-11-05T13:35:54.792Z,,,,,,,,,,,,,,,,54,,,,,,,,,,,,,,466.92699999999604,,response,,,100,,,,,,Space,keypress(Space),,,,,-- --- ---- --- ------ ----- ------- ---- -- --- ------- --<br>------- ---------- ------ -- ----- -- ----- -- ---- ------<br>--- ----- --- --- ------ -------- ----- --- ------ ----- --<br>----- ----- ---------- --- --- ------ ------ ---- -- ------<br>------- --- ------ ----- --- ---- ------- -- ---- --- --<br>------- money.,125358.59999999404,125358,124874.408,124886.89999999106,124891.073,125374.415,,55,money.
Item 100,flow.Loop,0_2_1_1,2021-11-05T13:35:54.792Z,,,,,,,,,,,,,,,,,,,,,,,,,,,,,,29998.553,,completion,,,,C,,,,,,,,,,silence,,125359,125358,95342.781,95344.19999998808,95359.447,125374.415,,,
Question 1,html.Screen,0_2_1_2,2021-11-05T13:35:58.101Z,,,,,,,,,,,,,,,,,,,,,,,,,,,true,TRUE,,3292.4849999910657,,response,,,100,C,,,,,TRUE,click #choice-1,,,,silence,,128667.89999999106,128666.89999999106,125357.749,125359.09999999404,125374.415,128674.29,,,
Question 2,html.Screen,0_2_1_3,2021-11-05T13:35:59.970Z,,,,,,,,,,,,,,,,,,,,,,,,,,,true,FALSE,,1861.6099999910657,,response,,,100,C,,,,,FALSE,click #choice-2,,,,silence,,130536.59999999404,130535.89999999106,128657.623,128668,128674.29,130540.245,,,
Item 100,flow.Sequence,0_2_1,2021-11-05T13:35:59.970Z,,,,,,,,,,,,,,,,,,,,,,,,,,,,,,45175.966999991055,,completion,,,,,,,,,,,,,,,,130537,130535.89999999106,85343.267,85352.69999998808,85359.933,130540.245,,,
End of Practice,html.Page,0_2_2,2021-11-05T13:36:03.761Z,,,,,,,,,,,,,,,,,,,,,,,,,,,,,,3787.654999991064,,form submission,,,,,,,,,,,,,,,,134328.19999998808,134327.89999999106,130523.59,130537,130540.245,134340.244,,,
Practice,flow.Sequence,0_2,2021-11-05T13:36:03.762Z,,,,,,,,,,,,,,,,,,,,,,,,,,,,,,101132.43299999106,,completion,,,,,,,,,,,,,,,,134328.5,134327.89999999106,33178.804,33184.09999999404,33195.467,134340.244,,,
Trap_instruction,html.Page,0_3_0,2021-11-05T13:36:08.811Z,,,,,,,,,,,,,,,,,,,,,,,,,,,,,,5037.655999991053,,form submission,,,,,,,,,,,,,,,,139378.29999999702,139377.89999999106,134323.58,134328.69999998808,134340.244,139390.231,,,
trap_trial,html.Screen,0_3_1,2021-11-05T13:36:11.166Z,,,,,,,,,,,,,,,,,,,,,,,,,,,true,1,,2341.8689999940398,,response,,,,,,,,,1,click #choice-1,,,,,,141733,141732.09999999404,139373.566,139378.5,139390.231,141743.191,,,
end of trap trial,html.Page,0_3_2,2021-11-05T13:36:14.801Z,,,,,,,,,,,,,,,,,,,,,,,,,,,,,,3624.608999997028,,form submission,,,,,,,,,,,,,,,,145368.09999999404,145367.79999999702,141726.503,141733.19999998808,141743.191,145372.924,,,
Trap 1,flow.Sequence,0_3,2021-11-05T13:36:14.802Z,,,,,,,,,,,,,,,,,,,,,,,,,,,,,,11027.555999997014,,completion,,,,,,,,,,,,,,,,145368.39999999106,145367.79999999702,134323.58,134328.59999999404,134340.244,145372.924,,,
Standby,html.Page,0_4_0,2021-11-05T13:36:22.790Z,,,,,,,,,,,,,,,,,,,,,,,,,,,,,,7999.572000000015,,timeout,,,,,,,,,,,,,,,,153356.59999999404,153355.831,145356.261,145368.5,145372.924,153372.496,,,
Holding screen,html.Screen,0_4_1_0_0,2021-11-05T13:36:29.790Z,,,,,,,,,,,,,,,,,,,,,,,,,,,,,,6999.906999999977,,timeout,,,,,,,,,,,,,,,,160356.59999999404,160355.738,153355.831,153356.79999999702,153372.496,160372.403,,,
screen,html.Screen,0_4_1_0_1_0,2021-11-05T13:36:31.206Z,,,,,,,,,,,,,,,,2,,,,,,,,,,,,,,1399.8969999970286,,response,,,1,C,,,,,Space,keypress(Space),,,,instrumental,Two ---- ------ --- ------- ---------- ------- ----------<br>--- --------- --- ----------- ------- ----- ------- ---<br>--------- ---- -- --- ---- -- --------- -- ---- -------<br>-- --------- ------ --- ----- ------ ---- --- --------- --<br>------ - ---- -- --- ----------- ------- ---- ----- -----<br>--- -------- - ------ ---- -- ----- ---- --- --- -----------<br>-- -------,161773,161772.29999999702,160355.738,160356.89999999106,160372.403,161789.108,,0,Two
screen,html.Screen,0_4_1_0_1_1,2021-11-05T13:36:31.678Z,,,,,,,,,,,,,,,,2,,,,,,,,,,,,,,454.89199999999255,,response,,,1,C,,,,,Space,keypress(Space),,,,instrumental,--- days ------ --- ------- ---------- ------- ----------<br>--- --------- --- ----------- ------- ----- ------- ---<br>--------- ---- -- --- ---- -- --------- -- ---- -------<br>-- --------- ------ --- ----- ------ ---- --- --------- --<br>------ - ---- -- --- ----------- ------- ---- ----- -----<br>--- -------- - ------ ---- -- ----- ---- --- --- -----------<br>-- -------,162244.69999998808,162244,161772.442,161773.29999999702,161789.108,162255.629,,1,days
screen,html.Screen,0_4_1_0_1_2,2021-11-05T13:36:32.078Z,,,,,,,,,,,,,,,,2,,,,,,,,,,,,,,388.27099999107304,,response,,,1,C,,,,,Space,keypress(Space),,,,instrumental,"--- ---- later, --- ------- ---------- ------- ----------<br>--- --------- --- ----------- ------- ----- ------- ---<br>--------- ---- -- --- ---- -- --------- -- ---- -------<br>-- --------- ------ --- ----- ------ ---- --- --------- --<br>------ - ---- -- --- ----------- ------- ---- ----- -----<br>--- -------- - ------ ---- -- ----- ---- --- --- -----------<br>-- -------",162644.59999999404,162643.89999999106,162238.964,162244.79999999702,162255.629,162655.676,,2,"later,"
screen,html.Screen,0_4_1_0_1_3,2021-11-05T13:36:32.966Z,,,,,,,,,,,,,,,,2,,,,,,,,,,,,,,876.2239999910526,,response,,,1,C,,,,,Space,keypress(Space),,,,instrumental,--- ---- ------ the ------- ---------- ------- ----------<br>--- --------- --- ----------- ------- ----- ------- ---<br>--------- ---- -- --- ---- -- --------- -- ---- -------<br>-- --------- ------ --- ----- ------ ---- --- --------- --<br>------ - ---- -- --- ----------- ------- ---- ----- -----<br>--- -------- - ------ ---- -- ----- ---- --- --- -----------<br>-- -------,163532.69999998808,163531.89999999106,162639.011,162644.79999999702,162655.676,163538.817,,3,the
screen,html.Screen,0_4_1_0_1_4,2021-11-05T13:36:34.326Z,,,,,,,,,,,,,,,,2,,,,,,,,,,,,,,1353.0829999910493,,response,,,1,C,,,,,Space,keypress(Space),,,,instrumental,--- ---- ------ --- British ---------- ------- ----------<br>--- --------- --- ----------- ------- ----- ------- ---<br>--------- ---- -- --- ---- -- --------- -- ---- -------<br>-- --------- ------ --- ----- ------ ---- --- --------- --<br>------ - ---- -- --- ----------- ------- ---- ----- -----<br>--- -------- - ------ ---- -- ----- ---- --- --- -----------<br>-- -------,164892.5,164891.89999999106,163522.153,163532.79999999702,163538.817,164905.455,,4,British
screen,html.Screen,0_4_1_0_1_5,2021-11-05T13:36:35.390Z,,,,,,,,,,,,,,,,2,,,,,,,,,,,,,,1050.3449999970326,,response,,,1,C,,,,,Space,keypress(Space),,,,instrumental,--- ---- ------ --- ------- astronomer ------- ----------<br>--- --------- --- ----------- ------- ----- ------- ---<br>--------- ---- -- --- ---- -- --------- -- ---- -------<br>-- --------- ------ --- ----- ------ ---- --- --------- --<br>------ - ---- -- --- ----------- ------- ---- ----- -----<br>--- -------- - ------ ---- -- ----- ---- --- --- -----------<br>-- -------,165956.5,165955.79999999702,164888.79,164892.69999998808,164905.455,165972.206,,5,astronomer
screen,html.Screen,0_4_1_0_1_6,2021-11-05T13:36:36.014Z,,,,,,,,,,,,,,,,2,,,,,,,,,,,,,,607.5939999970142,,response,,,1,C,,,,,Space,keypress(Space),,,,instrumental,--- ---- ------ --- ------- ---------- Richard ----------<br>--- --------- --- ----------- ------- ----- ------- ---<br>--------- ---- -- --- ---- -- --------- -- ---- -------<br>-- --------- ------ --- ----- ------ ---- --- --------- --<br>------ - ---- -- --- ----------- ------- ---- ----- -----<br>--- -------- - ------ ---- -- ----- ---- --- --- -----------<br>-- -------,166580.39999999106,166579.79999999702,165955.54,165956.59999999404,165972.206,166588.743,,6,Richard
screen,html.Screen,0_4_1_0_1_7,2021-11-05T13:36:36.614Z,,,,,,,,,,,,,,,,2,,,,,,,,,,,,,,590.9569999880914,,response,,,1,C,,,,,Space,keypress(Space),,,,instrumental,--- ---- ------ --- ------- ---------- ------- Carrington<br>--- --------- --- ----------- ------- ----- ------- ---<br>--------- ---- -- --- ---- -- --------- -- ---- -------<br>-- --------- ------ --- ----- ------ ---- --- --------- --<br>------ - ---- -- --- ----------- ------- ---- ----- -----<br>--- -------- - ------ ---- -- ----- ---- --- --- -----------<br>-- -------,167180.39999999106,167179.69999998808,166572.078,166580.59999999404,166588.743,167188.716,,7,Carrington
screen,html.Screen,0_4_1_0_1_8,2021-11-05T13:36:37.230Z,,,,,,,,,,,,,,,,2,,,,,,,,,,,,,,607.083999997034,,response,,,1,C,,,,,Space,keypress(Space),,,,instrumental,--- ---- ------ --- ------- ---------- ------- ----------<br>was --------- --- ----------- ------- ----- ------- ---<br>--------- ---- -- --- ---- -- --------- -- ---- -------<br>-- --------- ------ --- ----- ------ ---- --- --------- --<br>------ - ---- -- --- ----------- ------- ---- ----- -----<br>--- -------- - ------ ---- -- ----- ---- --- --- -----------<br>-- -------,167796.29999999702,167795.79999999702,167172.051,167180.5,167188.716,167805.349,,8,was
screen,html.Screen,0_4_1_0_1_9,2021-11-05T13:36:37.933Z,,,,,,,,,,,,,,,,2,,,,,,,,,,,,,,694.2509999940521,,response,,,1,C,,,,,Space,keypress(Space),,,,instrumental,--- ---- ------ --- ------- ---------- ------- ----------<br>--- observing --- ----------- ------- ----- ------- ---<br>--------- ---- -- --- ---- -- --------- -- ---- -------<br>-- --------- ------ --- ----- ------ ---- --- --------- --<br>------ - ---- -- --- ----------- ------- ---- ----- -----<br>--- -------- - ------ ---- -- ----- ---- --- --- -----------<br>-- -------,168500.29999999702,168499.59999999404,167788.684,167796.5,167805.349,168505.301,,9,observing
screen,html.Screen,0_4_1_0_1_10,2021-11-05T13:36:38.645Z,,,,,,,,,,,,,,,,2,,,,,,,,,,,,,,706.2989999940328,,response,,,1,C,,,,,Space,keypress(Space),,,,instrumental,--- ---- ------ --- ------- ---------- ------- ----------<br>--- --------- the ----------- ------- ----- ------- ---<br>--------- ---- -- --- ---- -- --------- -- ---- -------<br>-- --------- ------ --- ----- ------ ---- --- --------- --<br>------ - ---- -- --- ----------- ------- ---- ----- -----<br>--- -------- - ------ ---- -- ----- ---- --- --- -----------<br>-- -------,169212.29999999702,169211.59999999404,168488.636,168500.5,168505.301,169221.917,,10,the
screen,html.Screen,0_4_1_0_1_11,2021-11-05T13:36:39.261Z,,,,,,,,,,,,,,,,2,,,,,,,,,,,,,,605.6829999940528,,response,,,1,C,,,,,Space,keypress(Space),,,,instrumental,--- ---- ------ --- ------- ---------- ------- ----------<br>--- --------- --- interesting ------- ----- ------- ---<br>--------- ---- -- --- ---- -- --------- -- ---- -------<br>-- --------- ------ --- ----- ------ ---- --- --------- --<br>------ - ---- -- --- ----------- ------- ---- ----- -----<br>--- -------- - ------ ---- -- ----- ---- --- --- -----------<br>-- -------,169828.19999998808,169827.59999999404,169205.252,169212.39999999106,169221.917,169838.554,,11,interesting
screen,html.Screen,0_4_1_0_1_12,2021-11-05T13:36:39.789Z,,,,,,,,,,,,,,,,2,,,,,,,,,,,,,,517.0459999940358,,response,,,1,C,,,,,Space,keypress(Space),,,,instrumental,--- ---- ------ --- ------- ---------- ------- ----------<br>--- --------- --- ----------- sunspot ----- ------- ---<br>--------- ---- -- --- ---- -- --------- -- ---- -------<br>-- --------- ------ --- ----- ------ ---- --- --------- --<br>------ - ---- -- --- ----------- ------- ---- ----- -----<br>--- -------- - ------ ---- -- ----- ---- --- --- -----------<br>-- -------,170356.19999998808,170355.59999999404,169821.889,169828.29999999702,169838.554,170371.945,,12,sunspot
screen,html.Screen,0_4_1_0_1_13,2021-11-05T13:36:40.869Z,,,,,,,,,,,,,,,,2,,,,,,,,,,,,,,1063.554999999993,,response,,,1,C,,,,,Space,keypress(Space),,,,instrumental,--- ---- ------ --- ------- ---------- ------- ----------<br>--- --------- --- ----------- ------- group ------- ---<br>--------- ---- -- --- ---- -- --------- -- ---- -------<br>-- --------- ------ --- ----- ------ ---- --- --------- --<br>------ - ---- -- --- ----------- ------- ---- ----- -----<br>--- -------- - ------ ---- -- ----- ---- --- --- -----------<br>-- -------,171436.19999998808,171435.5,170355.279,170356.39999999106,170371.945,171438.497,,13,group
screen,html.Screen,0_4_1_0_1_14,2021-11-05T13:36:41.525Z,,,,,,,,,,,,,,,,2,,,,,,,,,,,,,,653.202999988076,,response,,,1,C,,,,,Space,keypress(Space),,,,instrumental,--- ---- ------ --- ------- ---------- ------- ----------<br>--- --------- --- ----------- ------- ----- through ---<br>--------- ---- -- --- ---- -- --------- -- ---- -------<br>-- --------- ------ --- ----- ------ ---- --- --------- --<br>------ - ---- -- --- ----------- ------- ---- ----- -----<br>--- -------- - ------ ---- -- ----- ---- --- --- -----------<br>-- -------,172092.39999999106,172091.69999998808,171421.832,171436.29999999702,171438.497,172105.097,,14,through
screen,html.Screen,0_4_1_0_1_15,2021-11-05T13:36:41.997Z,,,,,,,,,,,,,,,,2,,,,,,,,,,,,,,458.30299999105046,,response,,,1,C,,,,,Space,keypress(Space),,,,instrumental,--- ---- ------ --- ------- ---------- ------- ----------<br>--- --------- --- ----------- ------- ----- ------- his<br>--------- ---- -- --- ---- -- --------- -- ---- -------<br>-- --------- ------ --- ----- ------ ---- --- --------- --<br>------ - ---- -- --- ----------- ------- ---- ----- -----<br>--- -------- - ------ ---- -- ----- ---- --- --- -----------<br>-- -------,172564,172563.39999999106,172088.432,172092.5,172105.097,172571.735,,15,his
screen,html.Screen,0_4_1_0_1_16,2021-11-05T13:36:42.925Z,,,,,,,,,,,,,,,,2,,,,,,,,,,,,,,919.6649999910733,,response,,,1,C,,,,,Space,keypress(Space),,,,instrumental,--- ---- ------ --- ------- ---------- ------- ----------<br>--- --------- --- ----------- ------- ----- ------- ---<br>telescope ---- -- --- ---- -- --------- -- ---- -------<br>-- --------- ------ --- ----- ------ ---- --- --------- --<br>------ - ---- -- --- ----------- ------- ---- ----- -----<br>--- -------- - ------ ---- -- ----- ---- --- --- -----------<br>-- -------,173492,173491.39999999106,172555.07,172564.19999998808,172571.735,173505.031,,16,telescope
screen,html.Screen,0_4_1_0_1_17,2021-11-05T13:36:43.565Z,,,,,,,,,,,,,,,,2,,,,,,,,,,,,,,626.2689999970316,,response,,,1,C,,,,,Space,keypress(Space),,,,instrumental,--- ---- ------ --- ------- ---------- ------- ----------<br>--- --------- --- ----------- ------- ----- ------- ---<br>--------- when -- --- ---- -- --------- -- ---- -------<br>-- --------- ------ --- ----- ------ ---- --- --------- --<br>------ - ---- -- --- ----------- ------- ---- ----- -----<br>--- -------- - ------ ---- -- ----- ---- --- --- -----------<br>-- -------,174132,174131.29999999702,173488.366,173492.29999999702,173505.031,174138.234,,17,when
screen,html.Screen,0_4_1_0_1_18,2021-11-05T13:36:44.221Z,,,,,,,,,,,,,,,,2,,,,,,,,,,,,,,649.065999997023,,response,,,1,C,,,,,Space,keypress(Space),,,,instrumental,--- ---- ------ --- ------- ---------- ------- ----------<br>--- --------- --- ----------- ------- ----- ------- ---<br>--------- ---- he --- ---- -- --------- -- ---- -------<br>-- --------- ------ --- ----- ------ ---- --- --------- --<br>------ - ---- -- --- ----------- ------- ---- ----- -----<br>--- -------- - ------ ---- -- ----- ---- --- --- -----------<br>-- -------,174788,174787.29999999702,174121.57,174132.09999999404,174138.234,174804.957,,18,he
screen,html.Screen,0_4_1_0_1_19,2021-11-05T13:36:44.941Z,,,,,,,,,,,,,,,,2,,,,,,,,,,,,,,702.3429999970249,,response,,,1,C,,,,,Space,keypress(Space),,,,instrumental,--- ---- ------ --- ------- ---------- ------- ----------<br>--- --------- --- ----------- ------- ----- ------- ---<br>--------- ---- -- saw ---- -- --------- -- ---- -------<br>-- --------- ------ --- ----- ------ ---- --- --------- --<br>------ - ---- -- --- ----------- ------- ---- ----- -----<br>--- -------- - ------ ---- -- ----- ---- --- --- -----------<br>-- -------,175507.89999999106,175507.29999999702,174788.292,174788.19999998808,174804.957,175521.658,,19,saw
screen,html.Screen,0_4_1_0_1_20,2021-11-05T13:36:45.597Z,,,,,,,,,,,,,,,,2,,,,,,,,,,,,,,641.641999997024,,response,,,1,C,,,,,Space,keypress(Space),,,,instrumental,--- ---- ------ --- ------- ---------- ------- ----------<br>--- --------- --- ----------- ------- ----- ------- ---<br>--------- ---- -- --- what -- --------- -- ---- -------<br>-- --------- ------ --- ----- ------ ---- --- --------- --<br>------ - ---- -- --- ----------- ------- ---- ----- -----<br>--- -------- - ------ ---- -- ----- ---- --- --- -----------<br>-- -------,176163.89999999106,176163.29999999702,175504.992,175508.09999999404,175521.658,176171.555,,20,what
screen,html.Screen,0_4_1_0_1_21,2021-11-05T13:36:46.309Z,,,,,,,,,,,,,,,,2,,,,,,,,,,,,,,703.644999988086,,response,,,1,C,,,,,Space,keypress(Space),,,,instrumental,--- ---- ------ --- ------- ---------- ------- ----------<br>--- --------- --- ----------- ------- ----- ------- ---<br>--------- ---- -- --- ---- he --------- -- ---- -------<br>-- --------- ------ --- ----- ------ ---- --- --------- --<br>------ - ---- -- --- ----------- ------- ---- ----- -----<br>--- -------- - ------ ---- -- ----- ---- --- --- -----------<br>-- -------,176876,176875.19999998808,176154.89,176164,176171.555,176888.182,,21,he
screen,html.Screen,0_4_1_0_1_22,2021-11-05T13:36:47.045Z,,,,,,,,,,,,,,,,2,,,,,,,,,,,,,,723.0179999880784,,response,,,1,C,,,,,Space,keypress(Space),,,,instrumental,--- ---- ------ --- ------- ---------- ------- ----------<br>--- --------- --- ----------- ------- ----- ------- ---<br>--------- ---- -- --- ---- -- described -- ---- -------<br>-- --------- ------ --- ----- ------ ---- --- --------- --<br>------ - ---- -- --- ----------- ------- ---- ----- -----<br>--- -------- - ------ ---- -- ----- ---- --- --- -----------<br>-- -------,177611.79999999702,177611.19999998808,176871.517,176876.09999999404,176888.182,177621.562,,22,described
screen,html.Screen,0_4_1_0_1_23,2021-11-05T13:36:47.749Z,,,,,,,,,,,,,,,,2,,,,,,,,,,,,,,693.6379999880737,,response,,,1,C,,,,,Space,keypress(Space),,,,instrumental,--- ---- ------ --- ------- ---------- ------- ----------<br>--- --------- --- ----------- ------- ----- ------- ---<br>--------- ---- -- --- ---- -- --------- as ---- -------<br>-- --------- ------ --- ----- ------ ---- --- --------- --<br>------ - ---- -- --- ----------- ------- ---- ----- -----<br>--- -------- - ------ ---- -- ----- ---- --- --- -----------<br>-- -------,178315.79999999702,178315.19999998808,177604.896,177612.09999999404,177621.562,178321.368,,23,as
screen,html.Screen,0_4_1_0_1_24,2021-11-05T13:36:48.421Z,,,,,,,,,,,,,,,,2,,,,,,,,,,,,,,665.7319999940519,,response,,,1,C,,,,,Space,keypress(Space),,,,instrumental,"--- ---- ------ --- ------- ---------- ------- ----------<br>--- --------- --- ----------- ------- ----- ------- ---<br>--------- ---- -- --- ---- -- --------- -- ""two -------<br>-- --------- ------ --- ----- ------ ---- --- --------- --<br>------ - ---- -- --- ----------- ------- ---- ----- -----<br>--- -------- - ------ ---- -- ----- ---- --- --- -----------<br>-- -------",178987.79999999702,178987.09999999404,178304.704,178316.09999999404,178321.368,179004.726,,24,"""two"
screen,html.Screen,0_4_1_0_1_25,2021-11-05T13:36:49.141Z,,,,,,,,,,,,,,,,2,,,,,,,,,,,,,,702.3739999940444,,response,,,1,C,,,,,Space,keypress(Space),,,,instrumental,--- ---- ------ --- ------- ---------- ------- ----------<br>--- --------- --- ----------- ------- ----- ------- ---<br>--------- ---- -- --- ---- -- --------- -- ---- patches<br>-- --------- ------ --- ----- ------ ---- --- --------- --<br>------ - ---- -- --- ----------- ------- ---- ----- -----<br>--- -------- - ------ ---- -- ----- ---- --- --- -----------<br>-- -------,179707.79999999702,179707.09999999404,178988.061,178988.09999999404,179004.726,179721.434,,25,patches
screen,html.Screen,0_4_1_0_1_26,2021-11-05T13:36:49.877Z,,,,,,,,,,,,,,,,2,,,,,,,,,,,,,,721.5659999999916,,response,,,1,C,,,,,Space,keypress(Space),,,,instrumental,--- ---- ------ --- ------- ---------- ------- ----------<br>--- --------- --- ----------- ------- ----- ------- ---<br>--------- ---- -- --- ---- -- --------- -- ---- -------<br>of --------- ------ --- ----- ------ ---- --- --------- --<br>------ - ---- -- --- ----------- ------- ---- ----- -----<br>--- -------- - ------ ---- -- ----- ---- --- --- -----------<br>-- -------,180443.79999999702,180443,179704.768,179708,179721.434,180454.634,,26,of
screen,html.Screen,0_4_1_0_1_27,2021-11-05T13:36:50.480Z,,,,,,,,,,,,,,,,2,,,,,,,,,,,,,,588.3660000000091,,response,,,1,C,,,,,Space,keypress(Space),,,,instrumental,--- ---- ------ --- ------- ---------- ------- ----------<br>--- --------- --- ----------- ------- ----- ------- ---<br>--------- ---- -- --- ---- -- --------- -- ---- -------<br>-- intensely ------ --- ----- ------ ---- --- --------- --<br>------ - ---- -- --- ----------- ------- ---- ----- -----<br>--- -------- - ------ ---- -- ----- ---- --- --- -----------<br>-- -------,181043.59999999404,181043,180437.969,180444,180454.634,181054.615,,27,intensely
screen,html.Screen,0_4_1_0_1_28,2021-11-05T13:36:51.192Z,,,,,,,,,,,,,,,,2,,,,,,,,,,,,,,700.3850000000093,,response,,,1,C,,,,,Space,keypress(Space),,,,instrumental,--- ---- ------ --- ------- ---------- ------- ----------<br>--- --------- --- ----------- ------- ----- ------- ---<br>--------- ---- -- --- ---- -- --------- -- ---- -------<br>-- --------- bright --- ----- ------ ---- --- --------- --<br>------ - ---- -- --- ----------- ------- ---- ----- -----<br>--- -------- - ------ ---- -- ----- ---- --- --- -----------<br>-- -------,181755.59999999404,181755,181037.95,181043.69999998808,181054.615,181771.253,,28,bright
screen,html.Screen,0_4_1_0_1_29,2021-11-05T13:36:51.768Z,,,,,,,,,,,,,,,,2,,,,,,,,,,,,,,559.9469999880821,,response,,,1,C,,,,,Space,keypress(Space),,,,instrumental,--- ---- ------ --- ------- ---------- ------- ----------<br>--- --------- --- ----------- ------- ----- ------- ---<br>--------- ---- -- --- ---- -- --------- -- ---- -------<br>-- --------- ------ and ----- ------ ---- --- --------- --<br>------ - ---- -- --- ----------- ------- ---- ----- -----<br>--- -------- - ------ ---- -- ----- ---- --- --- -----------<br>-- -------,182331.89999999106,182331.19999998808,181754.588,181755.69999998808,181771.253,182337.855,,29,and
screen,html.Screen,0_4_1_0_1_30,2021-11-05T13:36:52.264Z,,,,,,,,,,,,,,,,2,,,,,,,,,,,,,,489.0449999910488,,response,,,1,C,,,,,Space,keypress(Space),,,,instrumental,--- ---- ------ --- ------- ---------- ------- ----------<br>--- --------- --- ----------- ------- ----- ------- ---<br>--------- ---- -- --- ---- -- --------- -- ---- -------<br>-- --------- ------ --- white ------ ---- --- --------- --<br>------ - ---- -- --- ----------- ------- ---- ----- -----<br>--- -------- - ------ ---- -- ----- ---- --- --- -----------<br>-- -------,182827.5,182826.89999999106,182321.19,182332.09999999404,182337.855,182837.869,,30,white
screen,html.Screen,0_4_1_0_1_31,2021-11-05T13:36:52.752Z,,,,,,,,,,,,,,,,2,,,,,,,,,,,,,,476.9309999970137,,response,,,1,C,,,,,Space,keypress(Space),,,,instrumental,"--- ---- ------ --- ------- ---------- ------- ----------<br>--- --------- --- ----------- ------- ----- ------- ---<br>--------- ---- -- --- ---- -- --------- -- ---- -------<br>-- --------- ------ --- ----- light"" ---- --- --------- --<br>------ - ---- -- --- ----------- ------- ---- ----- -----<br>--- -------- - ------ ---- -- ----- ---- --- --- -----------<br>-- -------",183315.5,183314.79999999702,182821.204,182827.69999998808,182837.869,183321.164,,31,"light"""
screen,html.Screen,0_4_1_0_1_32,2021-11-05T13:36:53.336Z,,,,,,,,,,,,,,,,2,,,,,,,,,,,,,,577.63599999703,,response,,,1,C,,,,,Space,keypress(Space),,,,instrumental,--- ---- ------ --- ------- ---------- ------- ----------<br>--- --------- --- ----------- ------- ----- ------- ---<br>--------- ---- -- --- ---- -- --------- -- ---- -------<br>-- --------- ------ --- ----- ------ over --- --------- --<br>------ - ---- -- --- ----------- ------- ---- ----- -----<br>--- -------- - ------ ---- -- ----- ---- --- --- -----------<br>-- -------,183899.5,183898.79999999702,183304.499,183315.69999998808,183321.164,183904.461,,32,over
screen,html.Screen,0_4_1_0_1_33,2021-11-05T13:36:53.847Z,,,,,,,,,,,,,,,,2,,,,,,,,,,,,,,506.2389999880688,,response,,,1,C,,,,,Space,keypress(Space),,,,instrumental,--- ---- ------ --- ------- ---------- ------- ----------<br>--- --------- --- ----------- ------- ----- ------- ---<br>--------- ---- -- --- ---- -- --------- -- ---- -------<br>-- --------- ------ --- ----- ------ ---- the --------- --<br>------ - ---- -- --- ----------- ------- ---- ----- -----<br>--- -------- - ------ ---- -- ----- ---- --- --- -----------<br>-- -------,184411.29999999702,184410.69999998808,183887.796,183899.69999998808,183904.461,184421.102,,33,the
screen,html.Screen,0_4_1_0_1_34,2021-11-05T13:36:54.367Z,,,,,,,,,,,,,,,,2,,,,,,,,,,,,,,509.59799998806557,,response,,,1,C,,,,,Space,keypress(Space),,,,instrumental,--- ---- ------ --- ------- ---------- ------- ----------<br>--- --------- --- ----------- ------- ----- ------- ---<br>--------- ---- -- --- ---- -- --------- -- ---- -------<br>-- --------- ------ --- ----- ------ ---- --- sunspots. --<br>------ - ---- -- --- ----------- ------- ---- ----- -----<br>--- -------- - ------ ---- -- ----- ---- --- --- -----------<br>-- -------,184931.39999999106,184930.69999998808,184404.437,184411.59999999404,184421.102,184937.754,,34,sunspots.
screen,html.Screen,0_4_1_0_1_35,2021-11-05T13:36:55.255Z,,,,,,,,,,,,,,,,2,,,,,,,,,,,,,,880.9459999880928,,response,,,1,C,,,,,Space,keypress(Space),,,,instrumental,--- ---- ------ --- ------- ---------- ------- ----------<br>--- --------- --- ----------- ------- ----- ------- ---<br>--------- ---- -- --- ---- -- --------- -- ---- -------<br>-- --------- ------ --- ----- ------ ---- --- --------- He<br>------ - ---- -- --- ----------- ------- ---- ----- -----<br>--- -------- - ------ ---- -- ----- ---- --- --- -----------<br>-- -------,185819.29999999702,185818.69999998808,184921.089,184931.5,184937.754,185821.096,,35,He
screen,html.Screen,0_4_1_0_1_36,2021-11-05T13:36:56.151Z,,,,,,,,,,,,,,,,2,,,,,,,,,,,,,,893.6039999880886,,response,,,1,C,,,,,Space,keypress(Space),,,,instrumental,--- ---- ------ --- ------- ---------- ------- ----------<br>--- --------- --- ----------- ------- ----- ------- ---<br>--------- ---- -- --- ---- -- --------- -- ---- -------<br>-- --------- ------ --- ----- ------ ---- --- --------- --<br>jotted - ---- -- --- ----------- ------- ---- ----- -----<br>--- -------- - ------ ---- -- ----- ---- --- --- -----------<br>-- -------,186715.39999999106,186714.69999998808,185804.43,185819.5,185821.096,186720.962,,36,jotted
screen,html.Screen,0_4_1_0_1_37,2021-11-05T13:36:56.719Z,,,,,,,,,,,,,,,,2,,,,,,,,,,,,,,561.63799999404,,response,,,1,C,,,,,Space,keypress(Space),,,,instrumental,--- ---- ------ --- ------- ---------- ------- ----------<br>--- --------- --- ----------- ------- ----- ------- ---<br>--------- ---- -- --- ---- -- --------- -- ---- -------<br>-- --------- ------ --- ----- ------ ---- --- --------- --<br>------ a ---- -- --- ----------- ------- ---- ----- -----<br>--- -------- - ------ ---- -- ----- ---- --- --- -----------<br>-- -------,187283.29999999702,187282.59999999404,186704.297,186715.5,186720.962,187287.605,,37,a
screen,html.Screen,0_4_1_0_1_38,2021-11-05T13:36:57.407Z,,,,,,,,,,,,,,,,2,,,,,,,,,,,,,,683.0949999880686,,response,,,1,C,,,,,Space,keypress(Space),,,,instrumental,--- ---- ------ --- ------- ---------- ------- ----------<br>--- --------- --- ----------- ------- ----- ------- ---<br>--------- ---- -- --- ---- -- --------- -- ---- -------<br>-- --------- ------ --- ----- ------ ---- --- --------- --<br>------ - note -- --- ----------- ------- ---- ----- -----<br>--- -------- - ------ ---- -- ----- ---- --- --- -----------<br>-- -------,187971.19999998808,187970.69999998808,187270.94,187283.39999999106,187287.605,187987.567,,38,note
screen,html.Screen,0_4_1_0_1_39,2021-11-05T13:36:57.935Z,,,,,,,,,,,,,,,,2,,,,,,,,,,,,,,511.0329999940295,,response,,,1,C,,,,,Space,keypress(Space),,,,instrumental,--- ---- ------ --- ------- ---------- ------- ----------<br>--- --------- --- ----------- ------- ----- ------- ---<br>--------- ---- -- --- ---- -- --------- -- ---- -------<br>-- --------- ------ --- ----- ------ ---- --- --------- --<br>------ - ---- in --- ----------- ------- ---- ----- -----<br>--- -------- - ------ ---- -- ----- ---- --- --- -----------<br>-- -------,188499.19999998808,188498.59999999404,187970.902,187971.39999999106,187987.567,188504.305,,39,in
screen,html.Screen,0_4_1_0_1_40,2021-11-05T13:36:58.567Z,,,,,,,,,,,,,,,,2,,,,,,,,,,,,,,626.195000000007,,response,,,1,C,,,,,Space,keypress(Space),,,,instrumental,--- ---- ------ --- ------- ---------- ------- ----------<br>--- --------- --- ----------- ------- ----- ------- ---<br>--------- ---- -- --- ---- -- --------- -- ---- -------<br>-- --------- ------ --- ----- ------ ---- --- --------- --<br>------ - ---- -- his ----------- ------- ---- ----- -----<br>--- -------- - ------ ---- -- ----- ---- --- --- -----------<br>-- -------,189131.09999999404,189130.5,188487.639,188499.39999999106,188504.305,189137.502,,40,his
screen,html.Screen,0_4_1_0_1_41,2021-11-05T13:36:59.447Z,,,,,,,,,,,,,,,,2,,,,,,,,,,,,,,872.9979999999923,,response,,,1,C,,,,,Space,keypress(Space),,,,instrumental,--- ---- ------ --- ------- ---------- ------- ----------<br>--- --------- --- ----------- ------- ----- ------- ---<br>--------- ---- -- --- ---- -- --------- -- ---- -------<br>-- --------- ------ --- ----- ------ ---- --- --------- --<br>------ - ---- -- --- painstaking ------- ---- ----- -----<br>--- -------- - ------ ---- -- ----- ---- --- --- -----------<br>-- -------,190011.19999998808,190010.5,189120.837,189131.29999999702,189137.502,190020.778,,41,painstaking
screen,html.Screen,0_4_1_0_1_42,2021-11-05T13:37:00.007Z,,,,,,,,,,,,,,,,2,,,,,,,,,,,,,,549.7220000000088,,response,,,1,C,,,,,Space,keypress(Space),,,,instrumental,--- ---- ------ --- ------- ---------- ------- ----------<br>--- --------- --- ----------- ------- ----- ------- ---<br>--------- ---- -- --- ---- -- --------- -- ---- -------<br>-- --------- ------ --- ----- ------ ---- --- --------- --<br>------ - ---- -- --- ----------- record. ---- ----- -----<br>--- -------- - ------ ---- -- ----- ---- --- --- -----------<br>-- -------,190571,190570.5,190004.113,190011.29999999702,190020.778,190587.446,,42,record.
screen,html.Screen,0_4_1_0_1_43,2021-11-05T13:37:00.615Z,,,,,,,,,,,,,,,,2,,,,,,,,,,,,,,590.953999991063,,response,,,1,C,,,,,Space,keypress(Space),,,,instrumental,--- ---- ------ --- ------- ---------- ------- ----------<br>--- --------- --- ----------- ------- ----- ------- ---<br>--------- ---- -- --- ---- -- --------- -- ---- -------<br>-- --------- ------ --- ----- ------ ---- --- --------- --<br>------ - ---- -- --- ----------- ------- That ----- -----<br>--- -------- - ------ ---- -- ----- ---- --- --- -----------<br>-- -------,191179,191178.39999999106,190570.781,190571.19999998808,190587.446,191187.415,,43,That
screen,html.Screen,0_4_1_0_1_44,2021-11-05T13:37:01.287Z,,,,,,,,,,,,,,,,2,,,,,,,,,,,,,,662.9849999910512,,response,,,1,C,,,,,Space,keypress(Space),,,,instrumental,--- ---- ------ --- ------- ---------- ------- ----------<br>--- --------- --- ----------- ------- ----- ------- ---<br>--------- ---- -- --- ---- -- --------- -- ---- -------<br>-- --------- ------ --- ----- ------ ---- --- --------- --<br>------ - ---- -- --- ----------- ------- ---- night -----<br>--- -------- - ------ ---- -- ----- ---- --- --- -----------<br>-- -------,191851,191850.39999999106,191170.75,191179.19999998808,191187.415,191854.108,,44,night
screen,html.Screen,0_4_1_0_1_45,2021-11-05T13:37:01.935Z,,,,,,,,,,,,,,,,2,,,,,,,,,,,,,,644.3919999999925,,response,,,1,C,,,,,Space,keypress(Space),,,,instrumental,--- ---- ------ --- ------- ---------- ------- ----------<br>--- --------- --- ----------- ------- ----- ------- ---<br>--------- ---- -- --- ---- -- --------- -- ---- -------<br>-- --------- ------ --- ----- ------ ---- --- --------- --<br>------ - ---- -- --- ----------- ------- ---- ----- there<br>--- -------- - ------ ---- -- ----- ---- --- --- -----------<br>-- -------,192499.09999999404,192498.5,191837.442,191851.19999998808,191854.108,192504.007,,45,there
screen,html.Screen,0_4_1_0_1_46,2021-11-05T13:37:02.471Z,,,,,,,,,,,,,,,,2,,,,,,,,,,,,,,530.2929999970074,,response,,,1,C,,,,,Space,keypress(Space),,,,instrumental,--- ---- ------ --- ------- ---------- ------- ----------<br>--- --------- --- ----------- ------- ----- ------- ---<br>--------- ---- -- --- ---- -- --------- -- ---- -------<br>-- --------- ------ --- ----- ------ ---- --- --------- --<br>------ - ---- -- --- ----------- ------- ---- ----- -----<br>was -------- - ------ ---- -- ----- ---- --- --- -----------<br>-- -------,193034.89999999106,193034.29999999702,192487.342,192499.39999999106,192504.007,193037.239,,46,was
screen,html.Screen,0_4_1_0_1_47,2021-11-05T13:37:03.783Z,,,,,,,,,,,,,,,,2,,,,,,,,,,,,,,1309.0609999970184,,response,,,1,C,,,,,Space,keypress(Space),,,,instrumental,--- ---- ------ --- ------- ---------- ------- ----------<br>--- --------- --- ----------- ------- ----- ------- ---<br>--------- ---- -- --- ---- -- --------- -- ---- -------<br>-- --------- ------ --- ----- ------ ---- --- --------- --<br>------ - ---- -- --- ----------- ------- ---- ----- -----<br>--- scarcely - ------ ---- -- ----- ---- --- --- -----------<br>-- -------,194346.89999999106,194346.29999999702,193020.575,193035,193037.239,194353.85,,47,scarcely
screen,html.Screen,0_4_1_0_1_48,2021-11-05T13:37:04.263Z,,,,,,,,,,,,,,,,2,,,,,,,,,,,,,,472.44999999701395,,response,,,1,C,,,,,Space,keypress(Space),,,,instrumental,--- ---- ------ --- ------- ---------- ------- ----------<br>--- --------- --- ----------- ------- ----- ------- ---<br>--------- ---- -- --- ---- -- --------- -- ---- -------<br>-- --------- ------ --- ----- ------ ---- --- --------- --<br>------ - ---- -- --- ----------- ------- ---- ----- -----<br>--- -------- a ------ ---- -- ----- ---- --- --- -----------<br>-- -------,194826.89999999106,194826.29999999702,194337.185,194347.09999999404,194353.85,194837.216,,48,a
