sender,sender_type,sender_id,timestamp,meta,,Blues,Classical,Country,Dance,Electronic,Folk,Gospel,Hip-Hop,Jazz,Latin,Musical/Film,New-age,Pop,Provo_ID,R&B,Rap,Reggae,Religious,Rock,Soul,Swing,Traditional,age,artist_name,correct,correctResponse,distraction,duration,education,ended_on,familiarity,gender,item,list,music_frequency,offensiveness,pleasantness,preference,response,response_action,snippet_file,song_name,song_rating,sound,text,time_commit,time_end,time_render,time_run,time_show,time_switch,url,word,word_ID
Instructions,html.Page,0_0,2021-11-12T15:28:02.210Z,"{""labjs_version"":""20.2.3"",""labjs_build"":{""flavor"":""production"",""commit"":""7ea907d66ca8aeef8054924ca5d82ffbe11e34e5""},""location"":""https://run.pavlovia.org/mvasilev/lab_music_a/"",""userAgent"":""Mozilla/5.0 (Windows NT 6.1; Win64; x64) AppleWebKit/537.36 (KHTML, like Gecko) Chrome/95.0.4638.69 Safari/537.36"",""platform"":""Win32"",""language"":""en-US"",""locale"":""en-US"",""timeZone"":""Europe/London"",""timezoneOffset"":0,""screen_width"":1920,""screen_height"":1080,""scroll_width"":1920,""scroll_height"":959,""window_innerWidth"":1920,""window_innerHeight"":1007,""devicePixelRatio"":1}",,,,,,,,,,,,,,,,,,,,,,,,,,,,,34076.58900002384,,form submission,,,,,,,,,,,,,,,,43363.90000003576,43362.60000002384,9252.671,9268.200000047684,9286.011,43366.343,{},,
Headphones,html.Page,0_1,2021-11-12T15:28:06.167Z,,,,,,,,,,,,,,,,,,,,,,,,,,,,,,3953.95700001192,,form submission,,,,,,,,,,,,,,,,47320.80000001192,47320.30000001192,43349.623,43364.30000001192,43366.343,47329.174,,,
Holding screen,html.Screen,0_2_0_0,2021-11-12T15:28:16.168Z,,,,,,,,,,,,,,,,,,,,,,,,,,,,,,10002.572,,timeout,,,,,,,,,,,,,,,,57321.90000003576,57315.077,47312.504,47321.30000001192,47329.174,57331.746,,,
screen,html.Screen,0_2_0_1_0,2021-11-12T15:28:17.318Z,,,,,,,,,,,,,,,,53,,,,,,,,,,,,,,1138.8540000238427,,response,,,99,,,,,,Space,keypress(Space),,,,,When -- ----- -- ------ - ------- --- ----------<br>------------- ------ ------ ---- ---- ------- ----- -- ----<br>-------- ------- -- ---------- --- - --- ----- ----- ----<br>---- --- --- ----- --- ---- ---- ------- ----- ---- -------<br>--- --- -- ----- -- --- ---- -- --- ---- -- ------ ------<br>--- ----- -- ----,58472,58470.60000002384,57315.077,57322.30000001192,57331.746,58482.339,,0,When
screen,html.Screen,0_2_0_1_1,2021-11-12T15:28:17.965Z,,,,,,,,,,,,,,,,53,,,,,,,,,,,,,,635.7610000238419,,response,,,99,,,,,,Space,keypress(Space),,,,,---- it ----- -- ------ - ------- --- ----------<br>------------- ------ ------ ---- ---- ------- ----- -- ----<br>-------- ------- -- ---------- --- - --- ----- ----- ----<br>---- --- --- ----- --- ---- ---- ------- ----- ---- -------<br>--- --- -- ----- -- --- ---- -- --- ---- -- ------ ------<br>--- ----- -- ----,59119,59118.10000002384,58465.668,58472.40000003576,58482.339,59132.452,,1,it
screen,html.Screen,0_2_0_1_2,2021-11-12T15:28:18.429Z,,,,,,,,,,,,,,,,53,,,,,,,,,,,,,,449.5480000000025,,response,,,99,,,,,,Space,keypress(Space),,,,,---- -- comes -- ------ - ------- --- ----------<br>------------- ------ ------ ---- ---- ------- ----- -- ----<br>-------- ------- -- ---------- --- - --- ----- ----- ----<br>---- --- --- ----- --- ---- ---- ------- ----- ---- -------<br>--- --- -- ----- -- --- ---- -- --- ---- -- ------ ------<br>--- ----- -- ----,59583,59582,59115.782,59119.30000001192,59132.452,59599.26,,2,comes
screen,html.Screen,0_2_0_1_3,2021-11-12T15:28:18.797Z,,,,,,,,,,,,,,,,53,,,,,,,,,,,,,,350.8400000238398,,response,,,99,,,,,,Space,keypress(Space),,,,,---- -- ----- to ------ - ------- --- ----------<br>------------- ------ ------ ---- ---- ------- ----- -- ----<br>-------- ------- -- ---------- --- - --- ----- ----- ----<br>---- --- --- ----- --- ---- ---- ------- ----- ---- -------<br>--- --- -- ----- -- --- ---- -- --- ---- -- ------ ------<br>--- ----- -- ----,59951.10000002384,59950.10000002384,59582.59,59583.30000001192,59599.26,59966.028,,3,to
screen,html.Screen,0_2_0_1_4,2021-11-12T15:28:19.144Z,,,,,,,,,,,,,,,,53,,,,,,,,,,,,,,327.9720000000016,,response,,,99,,,,,,Space,keypress(Space),,,,,---- -- ----- -- having - ------- --- ----------<br>------------- ------ ------ ---- ---- ------- ----- -- ----<br>-------- ------- -- ---------- --- - --- ----- ----- ----<br>---- --- --- ----- --- ---- ---- ------- ----- ---- -------<br>--- --- -- ----- -- --- ---- -- --- ---- -- ------ ------<br>--- ----- -- ----,60295.200000047684,60294,59949.358,59951.60000002384,59966.028,60299.436,,4,having
screen,html.Screen,0_2_0_1_5,2021-11-12T15:28:19.552Z,,,,,,,,,,,,,,,,53,,,,,,,,,,,,,,402.5639999999985,,response,,,99,,,,,,Space,keypress(Space),,,,,---- -- ----- -- ------ a ------- --- ----------<br>------------- ------ ------ ---- ---- ------- ----- -- ----<br>-------- ------- -- ---------- --- - --- ----- ----- ----<br>---- --- --- ----- --- ---- ---- ------- ----- ---- -------<br>--- --- -- ----- -- --- ---- -- --- ---- -- ------ ------<br>--- ----- -- ----,60702.90000003576,60702,60282.766,60295.60000002384,60299.436,60716.258,,5,a
screen,html.Screen,0_2_0_1_6,2021-11-12T15:28:19.936Z,,,,,,,,,,,,,,,,53,,,,,,,,,,,,,,369.74199999999837,,response,,,99,,,,,,Space,keypress(Space),,,,,---- -- ----- -- ------ - lasting --- ----------<br>------------- ------ ------ ---- ---- ------- ----- -- ----<br>-------- ------- -- ---------- --- - --- ----- ----- ----<br>---- --- --- ----- --- ---- ---- ------- ----- ---- -------<br>--- --- -- ----- -- --- ---- -- --- ---- -- ------ ------<br>--- ----- -- ----,61087,61086,60699.587,60703.5,60716.258,61099.694,,6,lasting
screen,html.Screen,0_2_0_1_7,2021-11-12T15:28:20.320Z,,,,,,,,,,,,,,,,53,,,,,,,,,,,,,,370.20600003575964,,response,,,99,,,,,,Space,keypress(Space),,,,,---- -- ----- -- ------ - ------- and ----------<br>------------- ------ ------ ---- ---- ------- ----- -- ----<br>-------- ------- -- ---------- --- - --- ----- ----- ----<br>---- --- --- ----- --- ---- ---- ------- ----- ---- -------<br>--- --- -- ----- -- --- ---- -- --- ---- -- ------ ------<br>--- ----- -- ----,61470.90000003576,61469.90000003576,61083.023,61087.40000003576,61099.694,61482.992,,7,and
screen,html.Screen,0_2_0_1_8,2021-11-12T15:28:20.744Z,,,,,,,,,,,,,,,,53,,,,,,,,,,,,,,410.9080000357644,,response,,,99,,,,,,Space,keypress(Space),,,,,---- -- ----- -- ------ - ------- --- fulfilling<br>------------- ------ ------ ---- ---- ------- ----- -- ----<br>-------- ------- -- ---------- --- - --- ----- ----- ----<br>---- --- --- ----- --- ---- ---- ------- ----- ---- -------<br>--- --- -- ----- -- --- ---- -- --- ---- -- ------ ------<br>--- ----- -- ----,61895.200000047684,61893.90000003576,61466.323,61471.30000001192,61482.992,61899.932,,8,fulfilling
screen,html.Screen,0_2_0_1_9,2021-11-12T15:28:21.144Z,,,,,,,,,,,,,,,,53,,,,,,,,,,,,,,393.9680000357621,,response,,,99,,,,,,Space,keypress(Space),,,,,"---- -- ----- -- ------ - ------- --- ----------<br>relationship, ------ ------ ---- ---- ------- ----- -- ----<br>-------- ------- -- ---------- --- - --- ----- ----- ----<br>---- --- --- ----- --- ---- ---- ------- ----- ---- -------<br>--- --- -- ----- -- --- ---- -- --- ---- -- ------ ------<br>--- ----- -- ----",62294.90000003576,62293.90000003576,61883.26,61895.5,61899.932,62300.024,,9,"relationship,"
screen,html.Screen,0_2_0_1_10,2021-11-12T15:28:21.528Z,,,,,,,,,,,,,,,,53,,,,,,,,,,,,,,377.8760000357652,,response,,,99,,,,,,Space,keypress(Space),,,,,---- -- ----- -- ------ - ------- --- ----------<br>------------- common ------ ---- ---- ------- ----- -- ----<br>-------- ------- -- ---------- --- - --- ----- ----- ----<br>---- --- --- ----- --- ---- ---- ------- ----- ---- -------<br>--- --- -- ----- -- --- ---- -- --- ---- -- ------ ------<br>--- ----- -- ----,62678.90000003576,62677.90000003576,62283.353,62295.200000047684,62300.024,62683.352,,10,common
screen,html.Screen,0_2_0_1_11,2021-11-12T15:28:21.896Z,,,,,,,,,,,,,,,,53,,,,,,,,,,,,,,362.54800003576383,,response,,,99,,,,,,Space,keypress(Space),,,,,---- -- ----- -- ------ - ------- --- ----------<br>------------- ------ wisdom ---- ---- ------- ----- -- ----<br>-------- ------- -- ---------- --- - --- ----- ----- ----<br>---- --- --- ----- --- ---- ---- ------- ----- ---- -------<br>--- --- -- ----- -- --- ---- -- --- ---- -- ------ ------<br>--- ----- -- ----,63046.80000001192,63045.90000003576,62666.683,62679.200000047684,62683.352,63050.192,,11,wisdom
screen,html.Screen,0_2_0_1_12,2021-11-12T15:28:22.248Z,,,,,,,,,,,,,,,,53,,,,,,,,,,,,,,347.6080000119182,,response,,,99,,,,,,Space,keypress(Space),,,,,---- -- ----- -- ------ - ------- --- ----------<br>------------- ------ ------ says ---- ------- ----- -- ----<br>-------- ------- -- ---------- --- - --- ----- ----- ----<br>---- --- --- ----- --- ---- ---- ------- ----- ---- -------<br>--- --- -- ----- -- --- ---- -- --- ---- -- ------ ------<br>--- ----- -- ----,63398.700000047684,63397.80000001192,63033.521,63047.10000002384,63050.192,63400.258,,12,says
screen,html.Screen,0_2_0_1_13,2021-11-12T15:28:22.600Z,,,,,,,,,,,,,,,,53,,,,,,,,,,,,,,349.5420000119193,,response,,,99,,,,,,Space,keypress(Space),,,,,---- -- ----- -- ------ - ------- --- ----------<br>------------- ------ ------ ---- that ------- ----- -- ----<br>-------- ------- -- ---------- --- - --- ----- ----- ----<br>---- --- --- ----- --- ---- ---- ------- ----- ---- -------<br>--- --- -- ----- -- --- ---- -- --- ---- -- ------ ------<br>--- ----- -- ----,63750.700000047684,63749.80000001192,63383.588,63399,63400.258,63767.02,,13,that
screen,html.Screen,0_2_0_1_14,2021-11-12T15:28:22.992Z,,,,,,,,,,,,,,,,53,,,,,,,,,,,,,,374.78000001192413,,response,,,99,,,,,,Space,keypress(Space),,,,,---- -- ----- -- ------ - ------- --- ----------<br>------------- ------ ------ ---- ---- feeling ----- -- ----<br>-------- ------- -- ---------- --- - --- ----- ----- ----<br>---- --- --- ----- --- ---- ---- ------- ----- ---- -------<br>--- --- -- ----- -- --- ---- -- --- ---- -- ------ ------<br>--- ----- -- ----,64142.60000002384,64141.80000001192,63750.35,63751,63767.02,64150.426,,14,feeling
screen,html.Screen,0_2_0_1_15,2021-11-12T15:28:23.415Z,,,,,,,,,,,,,,,,53,,,,,,,,,,,,,,415.27400004768424,,response,,,99,,,,,,Space,keypress(Space),,,,,---- -- ----- -- ------ - ------- --- ----------<br>------------- ------ ------ ---- ---- ------- close -- ----<br>-------- ------- -- ---------- --- - --- ----- ----- ----<br>---- --- --- ----- --- ---- ---- ------- ----- ---- -------<br>--- --- -- ----- -- --- ---- -- --- ---- -- ------ ------<br>--- ----- -- ----,64566.60000002384,64565.700000047684,64133.756,64142.90000003576,64150.426,64583.922,,15,close
screen,html.Screen,0_2_0_1_16,2021-11-12T15:28:23.815Z,,,,,,,,,,,,,,,,53,,,,,,,,,,,,,,381.77800004768505,,response,,,99,,,,,,Space,keypress(Space),,,,,---- -- ----- -- ------ - ------- --- ----------<br>------------- ------ ------ ---- ---- ------- ----- to ----<br>-------- ------- -- ---------- --- - --- ----- ----- ----<br>---- --- --- ----- --- ---- ---- ------- ----- ---- -------<br>--- --- -- ----- -- --- ---- -- --- ---- -- ------ ------<br>--- ----- -- ----,64966.5,64965.700000047684,64567.251,64566.90000003576,64583.922,64983.983,,16,to
screen,html.Screen,0_2_0_1_17,2021-11-12T15:28:24.199Z,,,,,,,,,,,,,,,,53,,,,,,,,,,,,,,365.81700001192075,,response,,,99,,,,,,Space,keypress(Space),,,,,---- -- ----- -- ------ - ------- --- ----------<br>------------- ------ ------ ---- ---- ------- ----- -- your<br>-------- ------- -- ---------- --- - --- ----- ----- ----<br>---- --- --- ----- --- ---- ---- ------- ----- ---- -------<br>--- --- -- ----- -- --- ---- -- --- ---- -- ------ ------<br>--- ----- -- ----,65350.60000002384,65349.80000001192,64967.313,64966.80000001192,64983.983,65367.411,,17,your
screen,html.Screen,0_2_0_1_18,2021-11-12T15:28:24.551Z,,,,,,,,,,,,,,,,53,,,,,,,,,,,,,,334.28900004768366,,response,,,99,,,,,,Space,keypress(Space),,,,,---- -- ----- -- ------ - ------- --- ----------<br>------------- ------ ------ ---- ---- ------- ----- -- ----<br>romantic ------- -- ---------- --- - --- ----- ----- ----<br>---- --- --- ----- --- ---- ---- ------- ----- ---- -------<br>--- --- -- ----- -- --- ---- -- --- ---- -- ------ ------<br>--- ----- -- ----,65702.60000002384,65701.70000004768,65350.741,65350.90000003576,65367.411,65717.545,,18,romantic
screen,html.Screen,0_2_0_1_19,2021-11-12T15:28:24.943Z,,,,,,,,,,,,,,,,53,,,,,,,,,,,,,,376.15500004768546,,response,,,99,,,,,,Space,keypress(Space),,,,,---- -- ----- -- ------ - ------- --- ----------<br>------------- ------ ------ ---- ---- ------- ----- -- ----<br>-------- partner -- ---------- --- - --- ----- ----- ----<br>---- --- --- ----- --- ---- ---- ------- ----- ---- -------<br>--- --- -- ----- -- --- ---- -- --- ---- -- ------ ------<br>--- ----- -- ----,66094.5,66093.70000004768,65700.874,65702.90000003576,65717.545,66100.948,,19,partner
screen,html.Screen,0_2_0_1_20,2021-11-12T15:28:25.431Z,,,,,,,,,,,,,,,,53,,,,,,,,,,,,,,480.75200004767976,,response,,,99,,,,,,Space,keypress(Space),,,,,---- -- ----- -- ------ - ------- --- ----------<br>------------- ------ ------ ---- ---- ------- ----- -- ----<br>-------- ------- is ---------- --- - --- ----- ----- ----<br>---- --- --- ----- --- ---- ---- ------- ----- ---- -------<br>--- --- -- ----- -- --- ---- -- --- ---- -- ------ ------<br>--- ----- -- ----,66582.60000002384,66581.70000004768,66084.278,66094.80000001192,66100.948,66584.4,,20,is
screen,html.Screen,0_2_0_1_21,2021-11-12T15:28:25.831Z,,,,,,,,,,,,,,,,53,,,,,,,,,,,,,,397.30000004768954,,response,,,99,,,,,,Space,keypress(Space),,,,,---- -- ----- -- ------ - ------- --- ----------<br>------------- ------ ------ ---- ---- ------- ----- -- ----<br>-------- ------- -- paramount. --- - --- ----- ----- ----<br>---- --- --- ----- --- ---- ---- ------- ----- ---- -------<br>--- --- -- ----- -- --- ---- -- --- ---- -- ------ ------<br>--- ----- -- ----,66982.5,66981.70000004768,66567.73,66582.90000003576,66584.4,66984.493,,21,paramount.
screen,html.Screen,0_2_0_1_22,2021-11-12T15:28:26.319Z,,,,,,,,,,,,,,,,53,,,,,,,,,,,,,,485.10700002383965,,response,,,99,,,,,,Space,keypress(Space),,,,,---- -- ----- -- ------ - ------- --- ----------<br>------------- ------ ------ ---- ---- ------- ----- -- ----<br>-------- ------- -- ---------- But - --- ----- ----- ----<br>---- --- --- ----- --- ---- ---- ------- ----- ---- -------<br>--- --- -- ----- -- --- ---- -- --- ---- -- ------ ------<br>--- ----- -- ----,67470.5,67469.60000002384,66967.823,66983,66984.493,67484.52,,22,But
screen,html.Screen,0_2_0_1_23,2021-11-12T15:28:26.663Z,,,,,,,,,,,,,,,,53,,,,,,,,,,,,,,328.9799999999959,,response,,,99,,,,,,Space,keypress(Space),,,,,---- -- ----- -- ------ - ------- --- ----------<br>------------- ------ ------ ---- ---- ------- ----- -- ----<br>-------- ------- -- ---------- --- a --- ----- ----- ----<br>---- --- --- ----- --- ---- ---- ------- ----- ---- -------<br>--- --- -- ----- -- --- ---- -- --- ---- -- ------ ------<br>--- ----- -- ----,67814.5,67813.5,67467.851,67470.70000004768,67484.52,67818.06,,23,a
screen,html.Screen,0_2_0_1_24,2021-11-12T15:28:27.031Z,,,,,,,,,,,,,,,,53,,,,,,,,,,,,,,363.5400000238442,,response,,,99,,,,,,Space,keypress(Space),,,,,---- -- ----- -- ------ - ------- --- ----------<br>------------- ------ ------ ---- ---- ------- ----- -- ----<br>-------- ------- -- ---------- --- - new ----- ----- ----<br>---- --- --- ----- --- ---- ---- ------- ----- ---- -------<br>--- --- -- ----- -- --- ---- -- --- ---- -- ------ ------<br>--- ----- -- ----,68182.40000003576,68181.60000002384,67801.389,67815.30000001192,67818.06,68184.85,,24,new
screen,html.Screen,0_2_0_1_25,2021-11-12T15:28:27.376Z,,,,,,,,,,,,,,,,53,,,,,,,,,,,,,,341.1499999999942,,response,,,99,,,,,,Space,keypress(Space),,,,,---- -- ----- -- ------ - ------- --- ----------<br>------------- ------ ------ ---- ---- ------- ----- -- ----<br>-------- ------- -- ---------- --- - --- study ----- ----<br>---- --- --- ----- --- ---- ---- ------- ----- ---- -------<br>--- --- -- ----- -- --- ---- -- --- ---- -- ------ ------<br>--- ----- -- ----,68526.80000001192,68526,68168.179,68182.70000004768,68184.85,68534.958,,25,study
screen,html.Screen,0_2_0_1_26,2021-11-12T15:28:27.711Z,,,,,,,,,,,,,,,,53,,,,,,,,,,,,,,326.5420000000013,,response,,,99,,,,,,Space,keypress(Space),,,,,---- -- ----- -- ------ - ------- --- ----------<br>------------- ------ ------ ---- ---- ------- ----- -- ----<br>-------- ------- -- ---------- --- - --- ----- finds ----<br>---- --- --- ----- --- ---- ---- ------- ----- ---- -------<br>--- --- -- ----- -- --- ---- -- --- ---- -- ------ ------<br>--- ----- -- ----,68862.40000003576,68861.5,68518.287,68527.20000004768,68534.958,68868.32,,26,finds
screen,html.Screen,0_2_0_1_27,2021-11-12T15:28:28.039Z,,,,,,,,,,,,,,,,53,,,,,,,,,,,,,,321.2800000238349,,response,,,99,,,,,,Space,keypress(Space),,,,,---- -- ----- -- ------ - ------- --- ----------<br>------------- ------ ------ ---- ---- ------- ----- -- ----<br>-------- ------- -- ---------- --- - --- ----- ----- that<br>---- --- --- ----- --- ---- ---- ------- ----- ---- -------<br>--- --- -- ----- -- --- ---- -- --- ---- -- ------ ------<br>--- ----- -- ----,69190.30000001192,69189.60000002384,68851.65,68862.70000004768,68868.32,69201.737,,27,that
screen,html.Screen,0_2_0_1_28,2021-11-12T15:28:28.383Z,,,,,,,,,,,,,,,,53,,,,,,,,,,,,,,331.86300002384814,,response,,,99,,,,,,Space,keypress(Space),,,,,---- -- ----- -- ------ - ------- --- ----------<br>------------- ------ ------ ---- ---- ------- ----- -- ----<br>-------- ------- -- ---------- --- - --- ----- ----- ----<br>it's --- --- ----- --- ---- ---- ------- ----- ---- -------<br>--- --- -- ----- -- --- ---- -- --- ---- -- ------ ------<br>--- ----- -- ----,69534.30000001192,69533.60000002384,69185.067,69190.60000002384,69201.737,69551.785,,28,it's
screen,html.Screen,0_2_0_1_29,2021-11-12T15:28:28.735Z,,,,,,,,,,,,,,,,53,,,,,,,,,,,,,,333.7149999999965,,response,,,99,,,,,,Space,keypress(Space),,,,,---- -- ----- -- ------ - ------- --- ----------<br>------------- ------ ------ ---- ---- ------- ----- -- ----<br>-------- ------- -- ---------- --- - --- ----- ----- ----<br>---- not --- ----- --- ---- ---- ------- ----- ---- -------<br>--- --- -- ----- -- --- ---- -- --- ---- -- ------ ------<br>--- ----- -- ----,69886.40000003576,69885.5,69535.116,69534.60000002384,69551.785,69901.957,,29,not
screen,html.Screen,0_2_0_1_30,2021-11-12T15:28:29.103Z,,,,,,,,,,,,,,,,53,,,,,,,,,,,,,,351.5430000000051,,response,,,99,,,,,,Space,keypress(Space),,,,,---- -- ----- -- ------ - ------- --- ----------<br>------------- ------ ------ ---- ---- ------- ----- -- ----<br>-------- ------- -- ---------- --- - --- ----- ----- ----<br>---- --- how ----- --- ---- ---- ------- ----- ---- -------<br>--- --- -- ----- -- --- ---- -- --- ---- -- ------ ------<br>--- ----- -- ----,70254.40000003576,70253.5,69885.286,69886.60000002384,69901.957,70268.548,,30,how
screen,html.Screen,0_2_0_1_31,2021-11-12T15:28:29.463Z,,,,,,,,,,,,,,,,53,,,,,,,,,,,,,,344.85200003576756,,response,,,99,,,,,,Space,keypress(Space),,,,,---- -- ----- -- ------ - ------- --- ----------<br>------------- ------ ------ ---- ---- ------- ----- -- ----<br>-------- ------- -- ---------- --- - --- ----- ----- ----<br>---- --- --- close --- ---- ---- ------- ----- ---- -------<br>--- --- -- ----- -- --- ---- -- --- ---- -- ------ ------<br>--- ----- -- ----,70614.30000001192,70613.40000003576,70251.88,70254.60000002384,70268.548,70618.848,,31,close
screen,html.Screen,0_2_0_1_32,2021-11-12T15:28:29.799Z,,,,,,,,,,,,,,,,53,,,,,,,,,,,,,,330.55200003576465,,response,,,99,,,,,,Space,keypress(Space),,,,,---- -- ----- -- ------ - ------- --- ----------<br>------------- ------ ------ ---- ---- ------- ----- -- ----<br>-------- ------- -- ---------- --- - --- ----- ----- ----<br>---- --- --- ----- you ---- ---- ------- ----- ---- -------<br>--- --- -- ----- -- --- ---- -- --- ---- -- ------ ------<br>--- ----- -- ----,70950.20000004768,70949.40000003576,70602.176,70614.60000002384,70618.848,70952.245,,32,you
screen,html.Screen,0_2_0_1_33,2021-11-12T15:28:30.135Z,,,,,,,,,,,,,,,,53,,,,,,,,,,,,,,333.15500003576744,,response,,,99,,,,,,Space,keypress(Space),,,,,---- -- ----- -- ------ - ------- --- ----------<br>------------- ------ ------ ---- ---- ------- ----- -- ----<br>-------- ------- -- ---------- --- - --- ----- ----- ----<br>---- --- --- ----- --- feel ---- ------- ----- ---- -------<br>--- --- -- ----- -- --- ---- -- --- ---- -- ------ ------<br>--- ----- -- ----,71286.20000004768,71285.40000003576,70935.574,70951.40000003576,70952.245,71302.275,,33,feel
screen,html.Screen,0_2_0_1_34,2021-11-12T15:28:30.559Z,,,,,,,,,,,,,,,,53,,,,,,,,,,,,,,407.1250000357686,,response,,,99,,,,,,Space,keypress(Space),,,,,---- -- ----- -- ------ - ------- --- ----------<br>------------- ------ ------ ---- ---- ------- ----- -- ----<br>-------- ------- -- ---------- --- - --- ----- ----- ----<br>---- --- --- ----- --- ---- that ------- ----- ---- -------<br>--- --- -- ----- -- --- ---- -- --- ---- -- ------ ------<br>--- ----- -- ----,71710.20000004768,71709.40000003576,71285.605,71286.60000002384,71302.275,71718.915,,34,that
screen,html.Screen,0_2_0_1_35,2021-11-12T15:28:30.919Z,,,,,,,,,,,,,,,,53,,,,,,,,,,,,,,350.4850000357692,,response,,,99,,,,,,Space,keypress(Space),,,,,---- -- ----- -- ------ - ------- --- ----------<br>------------- ------ ------ ---- ---- ------- ----- -- ----<br>-------- ------- -- ---------- --- - --- ----- ----- ----<br>---- --- --- ----- --- ---- ---- matters ----- ---- -------<br>--- --- -- ----- -- --- ---- -- --- ---- -- ------ ------<br>--- ----- -- ----,72070.60000002384,72069.40000003576,71702.247,71710.5,71718.915,72085.753,,35,matters
screen,html.Screen,0_2_0_1_36,2021-11-12T15:28:31.296Z,,,,,,,,,,,,,,,,53,,,,,,,,,,,,,,359.6470000357658,,response,,,99,,,,,,Space,keypress(Space),,,,,"---- -- ----- -- ------ - ------- --- ----------<br>------------- ------ ------ ---- ---- ------- ----- -- ----<br>-------- ------- -- ---------- --- - --- ----- ----- ----<br>---- --- --- ----- --- ---- ---- ------- most, ---- -------<br>--- --- -- ----- -- --- ---- -- --- ---- -- ------ ------<br>--- ----- -- ----",72446.70000004768,72445.40000003576,72069.083,72070.90000003576,72085.753,72452.519,,36,"most,"
screen,html.Screen,0_2_0_1_37,2021-11-12T15:28:31.735Z,,,,,,,,,,,,,,,,53,,,,,,,,,,,,,,432.88100003576255,,response,,,99,,,,,,Space,keypress(Space),,,,,---- -- ----- -- ------ - ------- --- ----------<br>------------- ------ ------ ---- ---- ------- ----- -- ----<br>-------- ------- -- ---------- --- - --- ----- ----- ----<br>---- --- --- ----- --- ---- ---- ------- ----- it's -------<br>--- --- -- ----- -- --- ---- -- --- ---- -- ------ ------<br>--- ----- -- ----,72886.10000002384,72885.40000003576,72435.849,72446.90000003576,72452.519,72902.624,,37,it's
screen,html.Screen,0_2_0_1_38,2021-11-12T15:28:32.063Z,,,,,,,,,,,,,,,,53,,,,,,,,,,,,,,310.67600001192477,,response,,,99,,,,,,Space,keypress(Space),,,,,---- -- ----- -- ------ - ------- --- ----------<br>------------- ------ ------ ---- ---- ------- ----- -- ----<br>-------- ------- -- ---------- --- - --- ----- ----- ----<br>---- --- --- ----- --- ---- ---- ------- ----- ---- whether<br>--- --- -- ----- -- --- ---- -- --- ---- -- ------ ------<br>--- ----- -- ----,73214.10000002384,73213.30000001192,72885.954,72886.40000003576,72902.624,73219.57,,38,whether
screen,html.Screen,0_2_0_1_39,2021-11-12T15:28:32.463Z,,,,,,,,,,,,,,,,53,,,,,,,,,,,,,,393.73000001191394,,response,,,99,,,,,,Space,keypress(Space),,,,,---- -- ----- -- ------ - ------- --- ----------<br>------------- ------ ------ ---- ---- ------- ----- -- ----<br>-------- ------- -- ---------- --- - --- ----- ----- ----<br>---- --- --- ----- --- ---- ---- ------- ----- ---- -------<br>you --- -- ----- -- --- ---- -- --- ---- -- ------ ------<br>--- ----- -- ----,73614,73613.30000001192,73202.897,73214.40000003576,73219.57,73619.55,,39,you
screen,html.Screen,0_2_0_1_40,2021-11-12T15:28:32.895Z,,,,,,,,,,,,,,,,53,,,,,,,,,,,,,,426.1500000476808,,response,,,99,,,,,,Space,keypress(Space),,,,,---- -- ----- -- ------ - ------- --- ----------<br>------------- ------ ------ ---- ---- ------- ----- -- ----<br>-------- ------- -- ---------- --- - --- ----- ----- ----<br>---- --- --- ----- --- ---- ---- ------- ----- ---- -------<br>--- are -- ----- -- --- ---- -- --- ---- -- ------ ------<br>--- ----- -- ----,74046.5,74045.70000004768,73602.88,73614.30000001192,73619.55,74052.982,,40,are
screen,html.Screen,0_2_0_1_41,2021-11-12T15:28:33.215Z,,,,,,,,,,,,,,,,53,,,,,,,,,,,,,,312.3180000119173,,response,,,99,,,,,,Space,keypress(Space),,,,,---- -- ----- -- ------ - ------- --- ----------<br>------------- ------ ------ ---- ---- ------- ----- -- ----<br>-------- ------- -- ---------- --- - --- ----- ----- ----<br>---- --- --- ----- --- ---- ---- ------- ----- ---- -------<br>--- --- as ----- -- --- ---- -- --- ---- -- ------ ------<br>--- ----- -- ----,74366.10000002384,74365.30000001192,74036.312,74046.80000001192,74052.982,74369.747,,41,as
screen,html.Screen,0_2_0_1_42,2021-11-12T15:28:33.663Z,,,,,,,,,,,,,,,,53,,,,,,,,,,,,,,443.4530000476807,,response,,,99,,,,,,Space,keypress(Space),,,,,---- -- ----- -- ------ - ------- --- ----------<br>------------- ------ ------ ---- ---- ------- ----- -- ----<br>-------- ------- -- ---------- --- - --- ----- ----- ----<br>---- --- --- ----- --- ---- ---- ------- ----- ---- -------<br>--- --- -- close -- --- ---- -- --- ---- -- ------ ------<br>--- ----- -- ----,74814.20000004768,74813.20000004768,74353.077,74366.40000003576,74369.747,74819.842,,42,close
screen,html.Screen,0_2_0_1_43,2021-11-12T15:28:34.031Z,,,,,,,,,,,,,,,,53,,,,,,,,,,,,,,361.25800002383767,,response,,,99,,,,,,Space,keypress(Space),,,,,---- -- ----- -- ------ - ------- --- ----------<br>------------- ------ ------ ---- ---- ------- ----- -- ----<br>-------- ------- -- ---------- --- - --- ----- ----- ----<br>---- --- --- ----- --- ---- ---- ------- ----- ---- -------<br>--- --- -- ----- as --- ---- -- --- ---- -- ------ ------<br>--- ----- -- ----,75182,75181.10000002384,74803.172,74814.40000003576,74819.842,75186.645,,43,as
screen,html.Screen,0_2_0_1_44,2021-11-12T15:28:34.375Z,,,,,,,,,,,,,,,,53,,,,,,,,,,,,,,338.55500004767964,,response,,,99,,,,,,Space,keypress(Space),,,,,---- -- ----- -- ------ - ------- --- ----------<br>------------- ------ ------ ---- ---- ------- ----- -- ----<br>-------- ------- -- ---------- --- - --- ----- ----- ----<br>---- --- --- ----- --- ---- ---- ------- ----- ---- -------<br>--- --- -- ----- -- you ---- -- --- ---- -- ------ ------<br>--- ----- -- ----,75526,75525.20000004768,75169.974,75182.30000001192,75186.645,75536.71,,44,you
screen,html.Screen,0_2_0_1_45,2021-11-12T15:28:34.751Z,,,,,,,,,,,,,,,,53,,,,,,,,,,,,,,364.2899999999936,,response,,,99,,,,,,Space,keypress(Space),,,,,---- -- ----- -- ------ - ------- --- ----------<br>------------- ------ ------ ---- ---- ------- ----- -- ----<br>-------- ------- -- ---------- --- - --- ----- ----- ----<br>---- --- --- ----- --- ---- ---- ------- ----- ---- -------<br>--- --- -- ----- -- --- want -- --- ---- -- ------ ------<br>--- ----- -- ----,75901.80000001192,75901,75520.04,75526.20000004768,75536.71,75903.503,,45,want
screen,html.Screen,0_2_0_1_46,2021-11-12T15:28:35.095Z,,,,,,,,,,,,,,,,53,,,,,,,,,,,,,,341.5970000238449,,response,,,99,,,,,,Space,keypress(Space),,,,,---- -- ----- -- ------ - ------- --- ----------<br>------------- ------ ------ ---- ---- ------- ----- -- ----<br>-------- ------- -- ---------- --- - --- ----- ----- ----<br>---- --- --- ----- --- ---- ---- ------- ----- ---- -------<br>--- --- -- ----- -- --- ---- to --- ---- -- ------ ------<br>--- ----- -- ----,76245.90000003576,76245.10000002384,75886.832,75902.10000002384,75903.503,76253.568,,46,to
screen,html.Screen,0_2_0_1_47,2021-11-12T15:28:35.447Z,,,,,,,,,,,,,,,,53,,,,,,,,,,,,,,343.53200002384256,,response,,,99,,,,,,Space,keypress(Space),,,,,"---- -- ----- -- ------ - ------- --- ----------<br>------------- ------ ------ ---- ---- ------- ----- -- ----<br>-------- ------- -- ---------- --- - --- ----- ----- ----<br>---- --- --- ----- --- ---- ---- ------- ----- ---- -------<br>--- --- -- ----- -- --- ---- -- be, ---- -- ------ ------<br>--- ----- -- ----",76597.80000001192,76597.10000002384,76236.898,76246.10000002384,76253.568,76603.633,,47,"be,"
screen,html.Screen,0_2_0_1_48,2021-11-12T15:28:35.840Z,,,,,,,,,,,,,,,,53,,,,,,,,,,,,,,386.9670000238402,,response,,,99,,,,,,Space,keypress(Space),,,,,---- -- ----- -- ------ - ------- --- ----------<br>------------- ------ ------ ---- ---- ------- ----- -- ----<br>-------- ------- -- ---------- --- - --- ----- ----- ----<br>---- --- --- ----- --- ---- ---- ------- ----- ---- -------<br>--- --- -- ----- -- --- ---- -- --- even -- ------ ------<br>--- ----- -- ----,76991.40000003576,76990.60000002384,76586.963,76598.20000004768,76603.633,77003.779,,48,even
screen,html.Screen,0_2_0_1_49,2021-11-12T15:28:36.175Z,,,,,,,,,,,,,,,,53,,,,,,,,,,,,,,321.221000000005,,response,,,99,,,,,,Space,keypress(Space),,,,,---- -- ----- -- ------ - ------- --- ----------<br>------------- ------ ------ ---- ---- ------- ----- -- ----<br>-------- ------- -- ---------- --- - --- ----- ----- ----<br>---- --- --- ----- --- ---- ---- ------- ----- ---- -------<br>--- --- -- ----- -- --- ---- -- --- ---- if ------ ------<br>--- ----- -- ----,77325.80000001192,77325,76987.108,76991.60000002384,77003.779,77337.204,,49,if
screen,html.Screen,0_2_0_1_50,2021-11-12T15:28:36.511Z,,,,,,,,,,,,,,,,53,,,,,,,,,,,,,,323.7960000000021,,response,,,99,,,,,,Space,keypress(Space),,,,,---- -- ----- -- ------ - ------- --- ----------<br>------------- ------ ------ ---- ---- ------- ----- -- ----<br>-------- ------- -- ---------- --- - --- ----- ----- ----<br>---- --- --- ----- --- ---- ---- ------- ----- ---- -------<br>--- --- -- ----- -- --- ---- -- --- ---- -- that's ------<br>--- ----- -- ----,77661.90000003576,77661,77320.533,77326,77337.204,77670.588,,50,that's
screen,html.Screen,0_2_0_1_51,2021-11-12T15:28:36.895Z,,,,,,,,,,,,,,,,53,,,,,,,,,,,,,,374.5120000238385,,response,,,99,,,,,,Space,keypress(Space),,,,,---- -- ----- -- ------ - ------- --- ----------<br>------------- ------ ------ ---- ---- ------- ----- -- ----<br>-------- ------- -- ---------- --- - --- ----- ----- ----<br>---- --- --- ----- --- ---- ---- ------- ----- ---- -------<br>--- --- -- ----- -- --- ---- -- --- ---- -- ------ really<br>--- ----- -- ----,78045.80000001192,78045.10000002384,77653.918,77662.10000002384,77670.588,78054,,51,really
screen,html.Screen,0_2_0_1_52,2021-11-12T15:28:37.255Z,,,,,,,,,,,,,,,,53,,,,,,,,,,,,,,351.10000002384186,,response,,,99,,,,,,Space,keypress(Space),,,,,---- -- ----- -- ------ - ------- --- ----------<br>------------- ------ ------ ---- ---- ------- ----- -- ----<br>-------- ------- -- ---------- --- - --- ----- ----- ----<br>---- --- --- ----- --- ---- ---- ------- ----- ---- -------<br>--- --- -- ----- -- --- ---- -- --- ---- -- ------ ------<br>not ----- -- ----,78405.80000001192,78405.10000002384,78037.33,78046.10000002384,78054,78420.763,,52,not
screen,html.Screen,0_2_0_1_53,2021-11-12T15:28:37.615Z,,,,,,,,,,,,,,,,53,,,,,,,,,,,,,,344.7369999999937,,response,,,99,,,,,,Space,keypress(Space),,,,,---- -- ----- -- ------ - ------- --- ----------<br>------------- ------ ------ ---- ---- ------- ----- -- ----<br>-------- ------- -- ---------- --- - --- ----- ----- ----<br>---- --- --- ----- --- ---- ---- ------- ----- ---- -------<br>--- --- -- ----- -- --- ---- -- --- ---- -- ------ ------<br>--- close -- ----,78766.30000001192,78765.5,78404.093,78406.10000002384,78420.763,78770.906,,53,close
screen,html.Screen,0_2_0_1_54,2021-11-12T15:28:37.943Z,,,,,,,,,,,,,,,,53,,,,,,,,,,,,,,322.1940000238392,,response,,,99,,,,,,Space,keypress(Space),,,,,---- -- ----- -- ------ - ------- --- ----------<br>------------- ------ ------ ---- ---- ------- ----- -- ----<br>-------- ------- -- ---------- --- - --- ----- ----- ----<br>---- --- --- ----- --- ---- ---- ------- ----- ---- -------<br>--- --- -- ----- -- --- ---- -- --- ---- -- ------ ------<br>--- ----- at ----,79093.90000003576,79093.10000002384,78754.235,78766.5,78770.906,79104.246,,54,at
screen,html.Screen,0_2_0_1_55,2021-11-12T15:28:38.263Z,,,,,,,,,,,,,,,,53,,,,,,,,,,,,,,308.7540000000008,,response,,,99,,,,,,Space,keypress(Space),,,,,---- -- ----- -- ------ - ------- --- ----------<br>------------- ------ ------ ---- ---- ------- ----- -- ----<br>-------- ------- -- ---------- --- - --- ----- ----- ----<br>---- --- --- ----- --- ---- ---- ------- ----- ---- -------<br>--- --- -- ----- -- --- ---- -- --- ---- -- ------ ------<br>--- ----- -- all.,79413.80000001192,79413,79087.577,79094.10000002384,79104.246,79421.061,,55,all.
Item 99,flow.Loop,0_2_0_1,2021-11-12T15:28:38.269Z,,,,,,,,,,,,,,,,,,,,,,,,,,,,,,22081.254,,completion,,,,A,,,,,,,,,,silence,,79419.60000002384,79413,57315.077,57322.30000001192,57331.746,79421.061,,,
Question 1,html.Screen,0_2_0_2,2021-11-12T15:28:43.314Z,,,,,,,,,,,,,,,,,,,,,,,,,,,false,FALSE,,5042.239000011919,,response,,,99,A,,,,,TRUE,click #choice-1,,,,silence,,84464.80000001192,84463.30000001192,79404.39,79420,79421.061,84488.979,,,
Question 2,html.Screen,0_2_0_3,2021-11-12T15:28:48.598Z,,,,,,,,,,,,,,,,,,,,,,,,,,,false,TRUE,,5258.621000023835,,response,,,99,A,,,,,FALSE,click #choice-2,,,,silence,,89749.20000004768,89747.60000002384,84472.309,84465.10000002384,84488.979,89756.968,,,
Item 99,flow.Sequence,0_2_0,2021-11-12T15:28:48.599Z,,,,,,,,,,,,,,,,,,,,,,,,,,,,,,42418.42600002384,,completion,,,,,,,,,,,,,,,,89749.80000001192,89747.60000002384,47312.504,47321.200000047684,47329.174,89756.968,,,
Holding screen,html.Screen,0_2_1_0,2021-11-12T15:28:58.593Z,,,,,,,,,,,,,,,,,,,,,,,,,,,,,,10002.483000000007,,timeout,,,,,,,,,,,,,,,,99744.40000003576,99742.781,89740.299,89750.20000004768,89756.968,99759.451,,,
screen,html.Screen,0_2_1_1_0,2021-11-12T15:29:01.270Z,,,,,,,,,,,,,,,,54,,,,,,,,,,,,,,2660.749000047683,,response,,,100,,,,,,Space,keypress(Space),,,,,At --- ---- --- ------ ----- ------- ---- -- --- ------- --<br>------- ---------- ------ -- ----- -- ----- -- ---- ------<br>--- ----- --- --- ------ -------- ----- --- ------ ----- --<br>----- ----- ---------- --- --- ------ ------ ---- -- ------<br>------- --- ------ ----- --- ---- ------- -- ---- --- --<br>------- ------,102421.10000002384,102420.20000004768,99742.781,99744.80000001192,99759.451,102426.986,,0,At
screen,html.Screen,0_2_1_1_1,2021-11-12T15:29:01.781Z,,,,,,,,,,,,,,,,54,,,,,,,,,,,,,,504.7140000476793,,response,,,100,,,,,,Space,keypress(Space),,,,,-- the ---- --- ------ ----- ------- ---- -- --- ------- --<br>------- ---------- ------ -- ----- -- ----- -- ---- ------<br>--- ----- --- --- ------ -------- ----- --- ------ ----- --<br>----- ----- ---------- --- --- ------ ------ ---- -- ------<br>------- --- ------ ----- --- ---- ------- -- ---- --- --<br>------- ------,102932.5,102931.70000004768,102410.315,102421.40000003576,102426.986,102943.834,,1,the
screen,html.Screen,0_2_1_1_2,2021-11-12T15:29:02.166Z,,,,,,,,,,,,,,,,54,,,,,,,,,,,,,,371.86600004768115,,response,,,100,,,,,,Space,keypress(Space),,,,,-- --- time --- ------ ----- ------- ---- -- --- ------- --<br>------- ---------- ------ -- ----- -- ----- -- ---- ------<br>--- ----- --- --- ------ -------- ----- --- ------ ----- --<br>----- ----- ---------- --- --- ------ ------ ---- -- ------<br>------- --- ------ ----- --- ---- ------- -- ---- --- --<br>------- ------,103316.70000004768,103315.70000004768,102927.163,102932.90000003576,102943.834,103327.104,,2,time
screen,html.Screen,0_2_1_1_3,2021-11-12T15:29:02.525Z,,,,,,,,,,,,,,,,54,,,,,,,,,,,,,,348.5960000476771,,response,,,100,,,,,,Space,keypress(Space),,,,,-- --- ---- the ------ ----- ------- ---- -- --- ------- --<br>------- ---------- ------ -- ----- -- ----- -- ---- ------<br>--- ----- --- --- ------ -------- ----- --- ------ ----- --<br>----- ----- ---------- --- --- ------ ------ ---- -- ------<br>------- --- ------ ----- --- ---- ------- -- ---- --- --<br>------- ------,103676.60000002384,103675.70000004768,103310.434,103317.10000002384,103327.104,103694.075,,3,the
screen,html.Screen,0_2_1_1_4,2021-11-12T15:29:02.973Z,,,,,,,,,,,,,,,,54,,,,,,,,,,,,,,429.52500002384477,,response,,,100,,,,,,Space,keypress(Space),,,,,-- --- ---- --- French ----- ------- ---- -- --- ------- --<br>------- ---------- ------ -- ----- -- ----- -- ---- ------<br>--- ----- --- --- ------ -------- ----- --- ------ ----- --<br>----- ----- ---------- --- --- ------ ------ ---- -- ------<br>------- --- ------ ----- --- ---- ------- -- ---- --- --<br>------- ------,104124.60000002384,104123.60000002384,103677.402,103676.90000003576,103694.075,104127.398,,4,French
screen,html.Screen,0_2_1_1_5,2021-11-12T15:29:03.360Z,,,,,,,,,,,,,,,,54,,,,,,,,,,,,,,382.4020000119199,,response,,,100,,,,,,Space,keypress(Space),,,,,-- --- ---- --- ------ crown ------- ---- -- --- ------- --<br>------- ---------- ------ -- ----- -- ----- -- ---- ------<br>--- ----- --- --- ------ -------- ----- --- ------ ----- --<br>----- ----- ---------- --- --- ------ ------ ---- -- ------<br>------- --- ------ ----- --- ---- ------- -- ---- --- --<br>------- ------,104510.60000002384,104509.80000001192,104110.728,104124.90000003576,104127.398,104527.442,,5,crown
screen,html.Screen,0_2_1_1_6,2021-11-12T15:29:03.773Z,,,,,,,,,,,,,,,,54,,,,,,,,,,,,,,396.1580000238464,,response,,,100,,,,,,Space,keypress(Space),,,,,-- --- ---- --- ------ ----- secured ---- -- --- ------- --<br>------- ---------- ------ -- ----- -- ----- -- ---- ------<br>--- ----- --- --- ------ -------- ----- --- ------ ----- --<br>----- ----- ---------- --- --- ------ ------ ---- -- ------<br>------- --- ------ ----- --- ---- ------- -- ---- --- --<br>------- ------,104924.5,104923.60000002384,104510.773,104510.90000003576,104527.442,104927.645,,6,secured
screen,html.Screen,0_2_1_1_7,2021-11-12T15:29:04.277Z,,,,,,,,,,,,,,,,54,,,,,,,,,,,,,,499.8549999999959,,response,,,100,,,,,,Space,keypress(Space),,,,,-- --- ---- --- ------ ----- ------- much -- --- ------- --<br>------- ---------- ------ -- ----- -- ----- -- ---- ------<br>--- ----- --- --- ------ -------- ----- --- ------ ----- --<br>----- ----- ---------- --- --- ------ ------ ---- -- ------<br>------- --- ------ ----- --- ---- ------- -- ---- --- --<br>------- ------,105428.20000004768,105427.5,104910.974,104924.80000001192,104927.645,105444.39,,7,much
screen,html.Screen,0_2_1_1_8,2021-11-12T15:29:04.685Z,,,,,,,,,,,,,,,,54,,,,,,,,,,,,,,391.21000002384244,,response,,,100,,,,,,Space,keypress(Space),,,,,-- --- ---- --- ------ ----- ------- ---- of --- ------- --<br>------- ---------- ------ -- ----- -- ----- -- ---- ------<br>--- ----- --- --- ------ -------- ----- --- ------ ----- --<br>----- ----- ---------- --- --- ------ ------ ---- -- ------<br>------- --- ------ ----- --- ---- ------- -- ---- --- --<br>------- ------,105836.30000001192,105835.60000002384,105427.72,105428.5,105444.39,105844.507,,8,of
screen,html.Screen,0_2_1_1_9,2021-11-12T15:29:05.237Z,,,,,,,,,,,,,,,,54,,,,,,,,,,,,,,542.893000035765,,response,,,100,,,,,,Space,keypress(Space),,,,,-- --- ---- --- ------ ----- ------- ---- -- its ------- --<br>------- ---------- ------ -- ----- -- ----- -- ---- ------<br>--- ----- --- --- ------ -------- ----- --- ------ ----- --<br>----- ----- ---------- --- --- ------ ------ ---- -- ------<br>------- --- ------ ----- --- ---- ------- -- ---- --- --<br>------- ------,106388.40000003576,106387.40000003576,105827.837,105836.60000002384,105844.507,106394.618,,9,its
screen,html.Screen,0_2_1_1_10,2021-11-12T15:29:05.733Z,,,,,,,,,,,,,,,,54,,,,,,,,,,,,,,488.8819999999978,,response,,,100,,,,,,Space,keypress(Space),,,,,-- --- ---- --- ------ ----- ------- ---- -- --- revenue --<br>------- ---------- ------ -- ----- -- ----- -- ---- ------<br>--- ----- --- --- ------ -------- ----- --- ------ ----- --<br>----- ----- ---------- --- --- ------ ------ ---- -- ------<br>------- --- ------ ----- --- ---- ------- -- ---- --- --<br>------- ------,106884.30000001192,106883.5,106377.948,106388.60000002384,106394.618,106894.757,,10,revenue
screen,html.Screen,0_2_1_1_11,2021-11-12T15:29:06.613Z,,,,,,,,,,,,,,,,54,,,,,,,,,,,,,,868.7430000000022,,response,,,100,,,,,,Space,keypress(Space),,,,,-- --- ---- --- ------ ----- ------- ---- -- --- ------- by<br>------- ---------- ------ -- ----- -- ----- -- ---- ------<br>--- ----- --- --- ------ -------- ----- --- ------ ----- --<br>----- ----- ---------- --- --- ------ ------ ---- -- ------<br>------- --- ------ ----- --- ---- ------- -- ---- --- --<br>------- ------,107764.20000004768,107763.5,106878.087,106884.60000002384,106894.757,107778.305,,11,by
screen,html.Screen,0_2_1_1_12,2021-11-12T15:29:07.221Z,,,,,,,,,,,,,,,,54,,,,,,,,,,,,,,593.0950000357698,,response,,,100,,,,,,Space,keypress(Space),,,,,-- --- ---- --- ------ ----- ------- ---- -- --- ------- --<br>issuing ---------- ------ -- ----- -- ----- -- ---- ------<br>--- ----- --- --- ------ -------- ----- --- ------ ----- --<br>----- ----- ---------- --- --- ------ ------ ---- -- ------<br>------- --- ------ ----- --- ---- ------- -- ---- --- --<br>------- ------,108372.30000001192,108371.40000003576,107761.635,107764.5,107778.305,108378.316,,12,issuing
screen,html.Screen,0_2_1_1_13,2021-11-12T15:29:07.728Z,,,,,,,,,,,,,,,,54,,,,,,,,,,,,,,499.88400004767755,,response,,,100,,,,,,Space,keypress(Space),,,,,-- --- ---- --- ------ ----- ------- ---- -- --- ------- --<br>------- government ------ -- ----- -- ----- -- ---- ------<br>--- ----- --- --- ------ -------- ----- --- ------ ----- --<br>----- ----- ---------- --- --- ------ ------ ---- -- ------<br>------- --- ------ ----- --- ---- ------- -- ---- --- --<br>------- ------,108879.10000002384,108878.20000004768,108361.647,108372.40000003576,108378.316,108895.334,,13,government
screen,html.Screen,0_2_1_1_14,2021-11-12T15:29:08.197Z,,,,,,,,,,,,,,,,54,,,,,,,,,,,,,,451.96600001191837,,response,,,100,,,,,,Space,keypress(Space),,,,,-- --- ---- --- ------ ----- ------- ---- -- --- ------- --<br>------- ---------- bonds. -- ----- -- ----- -- ---- ------<br>--- ----- --- --- ------ -------- ----- --- ------ ----- --<br>----- ----- ---------- --- --- ------ ------ ---- -- ------<br>------- --- ------ ----- --- ---- ------- -- ---- --- --<br>------- ------,109348.10000002384,109347.30000001192,108878.663,108879.5,108895.334,109362.059,,14,bonds.
screen,html.Screen,0_2_1_1_15,2021-11-12T15:29:08.757Z,,,,,,,,,,,,,,,,54,,,,,,,,,,,,,,545.2410000119271,,response,,,100,,,,,,Space,keypress(Space),,,,,-- --- ---- --- ------ ----- ------- ---- -- --- ------- --<br>------- ---------- ------ In ----- -- ----- -- ---- ------<br>--- ----- --- --- ------ -------- ----- --- ------ ----- --<br>----- ----- ---------- --- --- ------ ------ ---- -- ------<br>------- --- ------ ----- --- ---- ------- -- ---- --- --<br>------- ------,109908.10000002384,109907.30000001192,109345.389,109348.40000003576,109362.059,109912.256,,15,In
screen,html.Screen,0_2_1_1_16,2021-11-12T15:29:10.573Z,,,,,,,,,,,,,,,,54,,,,,,,,,,,,,,1810.9440000476898,,response,,,100,,,,,,Space,keypress(Space),,,,,"-- --- ---- --- ------ ----- ------- ---- -- --- ------- --<br>------- ---------- ------ -- 1727, -- ----- -- ---- ------<br>--- ----- --- --- ------ -------- ----- --- ------ ----- --<br>----- ----- ---------- --- --- ------ ------ ---- -- ------<br>------- --- ------ ----- --- ---- ------- -- ---- --- --<br>------- ------",111724.10000002384,111723.20000004768,109895.585,109908.40000003576,109912.256,111729.258,,16,"1727,"
screen,html.Screen,0_2_1_1_17,2021-11-12T15:29:11.111Z,,,,,,,,,,,,,,,,54,,,,,,,,,,,,,,531.8420000238402,,response,,,100,,,,,,Space,keypress(Space),,,,,-- --- ---- --- ------ ----- ------- ---- -- --- ------- --<br>------- ---------- ------ -- ----- in ----- -- ---- ------<br>--- ----- --- --- ------ -------- ----- --- ------ ----- --<br>----- ----- ---------- --- --- ------ ------ ---- -- ------<br>------- --- ------ ----- --- ---- ------- -- ---- --- --<br>------- ------,112261.90000003576,112261.10000002384,111712.588,111724.40000003576,111729.258,112279.438,,17,in
screen,html.Screen,0_2_1_1_18,2021-11-12T15:29:11.573Z,,,,,,,,,,,,,,,,54,,,,,,,,,,,,,,444.06200000000536,,response,,,100,,,,,,Space,keypress(Space),,,,,-- --- ---- --- ------ ----- ------- ---- -- --- ------- --<br>------- ---------- ------ -- ----- -- order -- ---- ------<br>--- ----- --- --- ------ -------- ----- --- ------ ----- --<br>----- ----- ---------- --- --- ------ ------ ---- -- ------<br>------- --- ------ ----- --- ---- ------- -- ---- --- --<br>------- ------,112724.40000003576,112723.5,112262.768,112262.20000004768,112279.438,112729.606,,18,order
screen,html.Screen,0_2_1_1_19,2021-11-12T15:29:11.973Z,,,,,,,,,,,,,,,,54,,,,,,,,,,,,,,393.4940000238421,,response,,,100,,,,,,Space,keypress(Space),,,,,-- --- ---- --- ------ ----- ------- ---- -- --- ------- --<br>------- ---------- ------ -- ----- -- ----- to ---- ------<br>--- ----- --- --- ------ -------- ----- --- ------ ----- --<br>----- ----- ---------- --- --- ------ ------ ---- -- ------<br>------- --- ------ ----- --- ---- ------- -- ---- --- --<br>------- ------,113124,113123.10000002384,112712.936,112724.70000004768,112729.606,113129.705,,19,to
screen,html.Screen,0_2_1_1_20,2021-11-12T15:29:12.397Z,,,,,,,,,,,,,,,,54,,,,,,,,,,,,,,417.29499999999825,,response,,,100,,,,,,Space,keypress(Space),,,,,-- --- ---- --- ------ ----- ------- ---- -- --- ------- --<br>------- ---------- ------ -- ----- -- ----- -- save ------<br>--- ----- --- --- ------ -------- ----- --- ------ ----- --<br>----- ----- ---------- --- --- ------ ------ ---- -- ------<br>------- --- ------ ----- --- ---- ------- -- ---- --- --<br>------- ------,113547.90000003576,113547,113113.035,113124.20000004768,113129.705,113563.156,,20,save
screen,html.Screen,0_2_1_1_21,2021-11-12T15:29:12.709Z,,,,,,,,,,,,,,,,54,,,,,,,,,,,,,,295.8439999999973,,response,,,100,,,,,,Space,keypress(Space),,,,,"-- --- ---- --- ------ ----- ------- ---- -- --- ------- --<br>------- ---------- ------ -- ----- -- ----- -- ---- money,<br>--- ----- --- --- ------ -------- ----- --- ------ ----- --<br>----- ----- ---------- --- --- ------ ------ ---- -- ------<br>------- --- ------ ----- --- ---- ------- -- ---- --- --<br>------- ------",113859.90000003576,113859,113546.486,113548.10000002384,113563.156,113863.226,,21,"money,"
screen,html.Screen,0_2_1_1_22,2021-11-12T15:29:13.101Z,,,,,,,,,,,,,,,,54,,,,,,,,,,,,,,387.87400002384675,,response,,,100,,,,,,Space,keypress(Space),,,,,-- --- ---- --- ------ ----- ------- ---- -- --- ------- --<br>------- ---------- ------ -- ----- -- ----- -- ---- ------<br>the ----- --- --- ------ -------- ----- --- ------ ----- --<br>----- ----- ---------- --- --- ------ ------ ---- -- ------<br>------- --- ------ ----- --- ---- ------- -- ---- --- --<br>------- ------,114251.80000001192,114251.10000002384,113846.556,113860.20000004768,113863.226,114263.322,,22,the
screen,html.Screen,0_2_1_1_23,2021-11-12T15:29:13.516Z,,,,,,,,,,,,,,,,54,,,,,,,,,,,,,,403.57800003576267,,response,,,100,,,,,,Space,keypress(Space),,,,,-- --- ---- --- ------ ----- ------- ---- -- --- ------- --<br>------- ---------- ------ -- ----- -- ----- -- ---- ------<br>--- state --- --- ------ -------- ----- --- ------ ----- --<br>----- ----- ---------- --- --- ------ ------ ---- -- ------<br>------- --- ------ ----- --- ---- ------- -- ---- --- --<br>------- ------,114667.60000002384,114666.90000003576,114246.652,114252.10000002384,114263.322,114680.016,,23,state
screen,html.Screen,0_2_1_1_24,2021-11-12T15:29:13.869Z,,,,,,,,,,,,,,,,54,,,,,,,,,,,,,,338.98399999999674,,response,,,100,,,,,,Space,keypress(Space),,,,,-- --- ---- --- ------ ----- ------- ---- -- --- ------- --<br>------- ---------- ------ -- ----- -- ----- -- ---- ------<br>--- ----- cut --- ------ -------- ----- --- ------ ----- --<br>----- ----- ---------- --- --- ------ ------ ---- -- ------<br>------- --- ------ ----- --- ---- ------- -- ---- --- --<br>------- ------,115019.90000003576,115019,114663.347,114667.90000003576,114680.016,115030.282,,24,cut
screen,html.Screen,0_2_1_1_25,2021-11-12T15:29:14.229Z,,,,,,,,,,,,,,,,54,,,,,,,,,,,,,,348.7179999999935,,response,,,100,,,,,,Space,keypress(Space),,,,,-- --- ---- --- ------ ----- ------- ---- -- --- ------- --<br>------- ---------- ------ -- ----- -- ----- -- ---- ------<br>--- ----- --- the ------ -------- ----- --- ------ ----- --<br>----- ----- ---------- --- --- ------ ------ ---- -- ------<br>------- --- ------ ----- --- ---- ------- -- ---- --- --<br>------- ------,115379.80000001192,115379,115013.61,115020.20000004768,115030.282,115396.832,,25,the
screen,html.Screen,0_2_1_1_26,2021-11-12T15:29:14.581Z,,,,,,,,,,,,,,,,54,,,,,,,,,,,,,,334.0680000357679,,response,,,100,,,,,,Space,keypress(Space),,,,,-- --- ---- --- ------ ----- ------- ---- -- --- ------- --<br>------- ---------- ------ -- ----- -- ----- -- ---- ------<br>--- ----- --- --- bonds' -------- ----- --- ------ ----- --<br>----- ----- ---------- --- --- ------ ------ ---- -- ------<br>------- --- ------ ----- --- ---- ------- -- ---- --- --<br>------- ------,115731.80000001192,115730.90000003576,115380.164,115380,115396.832,115747.138,,26,bonds'
screen,html.Screen,0_2_1_1_27,2021-11-12T15:29:14.965Z,,,,,,,,,,,,,,,,54,,,,,,,,,,,,,,367.8619999999937,,response,,,100,,,,,,Space,keypress(Space),,,,,-- --- ---- --- ------ ----- ------- ---- -- --- ------- --<br>------- ---------- ------ -- ----- -- ----- -- ---- ------<br>--- ----- --- --- ------ interest ----- --- ------ ----- --<br>----- ----- ---------- --- --- ------ ------ ---- -- ------<br>------- --- ------ ----- --- ---- ------- -- ---- --- --<br>------- ------,116115.70000004768,116115,115730.466,115732.10000002384,115747.138,116130.485,,27,interest
screen,html.Screen,0_2_1_1_28,2021-11-12T15:29:15.301Z,,,,,,,,,,,,,,,,54,,,,,,,,,,,,,,320.4150000357622,,response,,,100,,,,,,Space,keypress(Space),,,,,-- --- ---- --- ------ ----- ------- ---- -- --- ------- --<br>------- ---------- ------ -- ----- -- ----- -- ---- ------<br>--- ----- --- --- ------ -------- rate. --- ------ ----- --<br>----- ----- ---------- --- --- ------ ------ ---- -- ------<br>------- --- ------ ----- --- ---- ------- -- ---- --- --<br>------- ------,116451.80000001192,116450.90000003576,116113.815,116116.10000002384,116130.485,116463.782,,28,rate.
screen,html.Screen,0_2_1_1_29,2021-11-12T15:29:15.677Z,,,,,,,,,,,,,,,,54,,,,,,,,,,,,,,363.2179999999935,,response,,,100,,,,,,Space,keypress(Space),,,,,-- --- ---- --- ------ ----- ------- ---- -- --- ------- --<br>------- ---------- ------ -- ----- -- ----- -- ---- ------<br>--- ----- --- --- ------ -------- ----- The ------ ----- --<br>----- ----- ---------- --- --- ------ ------ ---- -- ------<br>------- --- ------ ----- --- ---- ------- -- ---- --- --<br>------- ------,116827.80000001192,116827,116447.114,116452.10000002384,116463.782,116830.731,,29,The
screen,html.Screen,0_2_1_1_30,2021-11-12T15:29:16.037Z,,,,,,,,,,,,,,,,54,,,,,,,,,,,,,,356.169000035763,,response,,,100,,,,,,Space,keypress(Space),,,,,-- --- ---- --- ------ ----- ------- ---- -- --- ------- --<br>------- ---------- ------ -- ----- -- ----- -- ---- ------<br>--- ----- --- --- ------ -------- ----- --- market ----- --<br>----- ----- ---------- --- --- ------ ------ ---- -- ------<br>------- --- ------ ----- --- ---- ------- -- ---- --- --<br>------- ------,117187.70000004768,117186.90000003576,116814.059,116828,116830.731,117197.456,,30,market
screen,html.Screen,0_2_1_1_31,2021-11-12T15:29:16.477Z,,,,,,,,,,,,,,,,54,,,,,,,,,,,,,,429.4440000357572,,response,,,100,,,,,,Space,keypress(Space),,,,,-- --- ---- --- ------ ----- ------- ---- -- --- ------- --<br>------- ---------- ------ -- ----- -- ----- -- ---- ------<br>--- ----- --- --- ------ -------- ----- --- ------ value --<br>----- ----- ---------- --- --- ------ ------ ---- -- ------<br>------- --- ------ ----- --- ---- ------- -- ---- --- --<br>------- ------,117627.70000004768,117626.90000003576,117180.785,117188,117197.456,117630.857,,31,value
screen,html.Screen,0_2_1_1_32,2021-11-12T15:29:16.949Z,,,,,,,,,,,,,,,,54,,,,,,,,,,,,,,467.9430000119173,,response,,,100,,,,,,Space,keypress(Space),,,,,-- --- ---- --- ------ ----- ------- ---- -- --- ------- --<br>------- ---------- ------ -- ----- -- ----- -- ---- ------<br>--- ----- --- --- ------ -------- ----- --- ------ ----- of<br>----- ----- ---------- --- --- ------ ------ ---- -- ------<br>------- --- ------ ----- --- ---- ------- -- ---- --- --<br>------- ------,118099.70000004768,118098.80000001192,117614.187,117627.90000003576,117630.857,118114.359,,32,of
screen,html.Screen,0_2_1_1_33,2021-11-12T15:29:17.261Z,,,,,,,,,,,,,,,,54,,,,,,,,,,,,,,296.54100003576605,,response,,,100,,,,,,Space,keypress(Space),,,,,-- --- ---- --- ------ ----- ------- ---- -- --- ------- --<br>------- ---------- ------ -- ----- -- ----- -- ---- ------<br>--- ----- --- --- ------ -------- ----- --- ------ ----- --<br>these ----- ---------- --- --- ------ ------ ---- -- ------<br>------- --- ------ ----- --- ---- ------- -- ---- --- --<br>------- ------,118411.70000004768,118410.90000003576,118097.688,118099.90000003576,118114.359,118414.395,,33,these
screen,html.Screen,0_2_1_1_34,2021-11-12T15:29:17.597Z,,,,,,,,,,,,,,,,54,,,,,,,,,,,,,,332.40500001191685,,response,,,100,,,,,,Space,keypress(Space),,,,,-- --- ---- --- ------ ----- ------- ---- -- --- ------- --<br>------- ---------- ------ -- ----- -- ----- -- ---- ------<br>--- ----- --- --- ------ -------- ----- --- ------ ----- --<br>----- bonds ---------- --- --- ------ ------ ---- -- ------<br>------- --- ------ ----- --- ---- ------- -- ---- --- --<br>------- ------,118747.70000004768,118746.80000001192,118397.725,118411.90000003576,118414.395,118764.493,,34,bonds
screen,html.Screen,0_2_1_1_35,2021-11-12T15:29:17.989Z,,,,,,,,,,,,,,,,54,,,,,,,,,,,,,,374.5069999999978,,response,,,100,,,,,,Space,keypress(Space),,,,,"-- --- ---- --- ------ ----- ------- ---- -- --- ------- --<br>------- ---------- ------ -- ----- -- ----- -- ---- ------<br>--- ----- --- --- ------ -------- ----- --- ------ ----- --<br>----- ----- plummeted, --- --- ------ ------ ---- -- ------<br>------- --- ------ ----- --- ---- ------- -- ---- --- --<br>------- ------",119139.80000001192,119139,118747.823,118748.10000002384,118764.493,119147.796,,35,"plummeted,"
screen,html.Screen,0_2_1_1_36,2021-11-12T15:29:18.348Z,,,,,,,,,,,,,,,,54,,,,,,,,,,,,,,350.9040000476816,,response,,,100,,,,,,Space,keypress(Space),,,,,-- --- ---- --- ------ ----- ------- ---- -- --- ------- --<br>------- ---------- ------ -- ----- -- ----- -- ---- ------<br>--- ----- --- --- ------ -------- ----- --- ------ ----- --<br>----- ----- ---------- and --- ------ ------ ---- -- ------<br>------- --- ------ ----- --- ---- ------- -- ---- --- --<br>------- ------,119499.60000002384,119498.70000004768,119131.128,119140.10000002384,119147.796,119514.806,,36,and
screen,html.Screen,0_2_1_1_37,2021-11-12T15:29:18.676Z,,,,,,,,,,,,,,,,54,,,,,,,,,,,,,,311.9940000119241,,response,,,100,,,,,,Space,keypress(Space),,,,,-- --- ---- --- ------ ----- ------- ---- -- --- ------- --<br>------- ---------- ------ -- ----- -- ----- -- ---- ------<br>--- ----- --- --- ------ -------- ----- --- ------ ----- --<br>----- ----- ---------- --- the ------ ------ ---- -- ------<br>------- --- ------ ----- --- ---- ------- -- ---- --- --<br>------- ------,119827.60000002384,119826.80000001192,119498.133,119499.90000003576,119514.806,119831.443,,37,the
screen,html.Screen,0_2_1_1_38,2021-11-12T15:29:19.028Z,,,,,,,,,,,,,,,,54,,,,,,,,,,,,,,347.2570000476844,,response,,,100,,,,,,Space,keypress(Space),,,,,-- --- ---- --- ------ ----- ------- ---- -- --- ------- --<br>------- ---------- ------ -- ----- -- ----- -- ---- ------<br>--- ----- --- --- ------ -------- ----- --- ------ ----- --<br>----- ----- ---------- --- --- market ------ ---- -- ------<br>------- --- ------ ----- --- ---- ------- -- ---- --- --<br>------- ------,120179.60000002384,120178.70000004768,119814.773,119827.80000001192,119831.443,120181.534,,38,market
screen,html.Screen,0_2_1_1_39,2021-11-12T15:29:19.367Z,,,,,,,,,,,,,,,,54,,,,,,,,,,,,,,333.16600004768407,,response,,,100,,,,,,Space,keypress(Space),,,,,-- --- ---- --- ------ ----- ------- ---- -- --- ------- --<br>------- ---------- ------ -- ----- -- ----- -- ---- ------<br>--- ----- --- --- ------ -------- ----- --- ------ ----- --<br>----- ----- ---------- --- --- ------ became ---- -- ------<br>------- --- ------ ----- --- ---- ------- -- ---- --- --<br>------- ------,120515.5,120514.70000004768,120164.864,120179.80000001192,120181.534,120531.503,,39,became
screen,html.Screen,0_2_1_1_40,2021-11-12T15:29:19.847Z,,,,,,,,,,,,,,,,54,,,,,,,,,,,,,,463.19700004768674,,response,,,100,,,,,,Space,keypress(Space),,,,,-- --- ---- --- ------ ----- ------- ---- -- --- ------- --<br>------- ---------- ------ -- ----- -- ----- -- ---- ------<br>--- ----- --- --- ------ -------- ----- --- ------ ----- --<br>----- ----- ---------- --- --- ------ ------ wary -- ------<br>------- --- ------ ----- --- ---- ------- -- ---- --- --<br>------- ------,120995.5,120994.70000004768,120514.835,120515.80000001192,120531.503,120998.342,,40,wary
screen,html.Screen,0_2_1_1_41,2021-11-12T15:29:20.439Z,,,,,,,,,,,,,,,,54,,,,,,,,,,,,,,588.3580000476795,,response,,,100,,,,,,Space,keypress(Space),,,,,-- --- ---- --- ------ ----- ------- ---- -- --- ------- --<br>------- ---------- ------ -- ----- -- ----- -- ---- ------<br>--- ----- --- --- ------ -------- ----- --- ------ ----- --<br>----- ----- ---------- --- --- ------ ------ ---- of ------<br>------- --- ------ ----- --- ---- ------- -- ---- --- --<br>------- ------,121587.5,121586.70000004768,120981.672,120995.80000001192,120998.342,121598.671,,41,of
screen,html.Screen,0_2_1_1_42,2021-11-12T15:29:20.839Z,,,,,,,,,,,,,,,,54,,,,,,,,,,,,,,388.0290000476816,,response,,,100,,,,,,Space,keypress(Space),,,,,-- --- ---- --- ------ ----- ------- ---- -- --- ------- --<br>------- ---------- ------ -- ----- -- ----- -- ---- ------<br>--- ----- --- --- ------ -------- ----- --- ------ ----- --<br>----- ----- ---------- --- --- ------ ------ ---- -- French<br>------- --- ------ ----- --- ---- ------- -- ---- --- --<br>------- ------,121987.40000003576,121986.70000004768,121581.999,121587.70000004768,121598.671,121998.539,,42,French
screen,html.Screen,0_2_1_1_43,2021-11-12T15:29:21.103Z,,,,,,,,,,,,,,,,54,,,,,,,,,,,,,,252.06100002383755,,response,,,100,,,,,,Space,keypress(Space),,,,,-- --- ---- --- ------ ----- ------- ---- -- --- ------- --<br>------- ---------- ------ -- ----- -- ----- -- ---- ------<br>--- ----- --- --- ------ -------- ----- --- ------ ----- --<br>----- ----- ---------- --- --- ------ ------ ---- -- ------<br>credit. --- ------ ----- --- ---- ------- -- ---- --- --<br>------- ------,122251.5,122250.60000002384,121981.87,121987.70000004768,121998.539,122265.456,,43,credit.
screen,html.Screen,0_2_1_1_44,2021-11-12T15:29:21.608Z,,,,,,,,,,,,,,,,54,,,,,,,,,,,,,,489.5439999999944,,response,,,100,,,,,,Space,keypress(Space),,,,,-- --- ---- --- ------ ----- ------- ---- -- --- ------- --<br>------- ---------- ------ -- ----- -- ----- -- ---- ------<br>--- ----- --- --- ------ -------- ----- --- ------ ----- --<br>----- ----- ---------- --- --- ------ ------ ---- -- ------<br>------- The ------ ----- --- ---- ------- -- ---- --- --<br>------- ------,122755.80000001192,122755,122248.784,122251.70000004768,122265.456,122765.558,,44,The
screen,html.Screen,0_2_1_1_45,2021-11-12T15:29:21.991Z,,,,,,,,,,,,,,,,54,,,,,,,,,,,,,,372.94199999999546,,response,,,100,,,,,,Space,keypress(Space),,,,,-- --- ---- --- ------ ----- ------- ---- -- --- ------- --<br>------- ---------- ------ -- ----- -- ----- -- ---- ------<br>--- ----- --- --- ------ -------- ----- --- ------ ----- --<br>----- ----- ---------- --- --- ------ ------ ---- -- ------<br>------- --- French ----- --- ---- ------- -- ---- --- --<br>------- ------,123139.30000001192,123138.5,122748.887,122756,122765.558,123148.948,,45,French
screen,html.Screen,0_2_1_1_46,2021-11-12T15:29:22.399Z,,,,,,,,,,,,,,,,54,,,,,,,,,,,,,,397.55199999999604,,response,,,100,,,,,,Space,keypress(Space),,,,,-- --- ---- --- ------ ----- ------- ---- -- --- ------- --<br>------- ---------- ------ -- ----- -- ----- -- ---- ------<br>--- ----- --- --- ------ -------- ----- --- ------ ----- --<br>----- ----- ---------- --- --- ------ ------ ---- -- ------<br>------- --- ------ state --- ---- ------- -- ---- --- --<br>------- ------,123547.40000003576,123546.5,123132.278,123139.70000004768,123148.948,123549.046,,46,state
screen,html.Screen,0_2_1_1_47,2021-11-12T15:29:22.911Z,,,,,,,,,,,,,,,,54,,,,,,,,,,,,,,509.4539999999979,,response,,,100,,,,,,Space,keypress(Space),,,,,-- --- ---- --- ------ ----- ------- ---- -- --- ------- --<br>------- ---------- ------ -- ----- -- ----- -- ---- ------<br>--- ----- --- --- ------ -------- ----- --- ------ ----- --<br>----- ----- ---------- --- --- ------ ------ ---- -- ------<br>------- --- ------ ----- was ---- ------- -- ---- --- --<br>------- ------,124059.30000001192,124058.5,123532.376,123547.60000002384,123549.046,124065.682,,47,was
screen,html.Screen,0_2_1_1_48,2021-11-12T15:29:23.391Z,,,,,,,,,,,,,,,,54,,,,,,,,,,,,,,472.7180000357621,,response,,,100,,,,,,Space,keypress(Space),,,,,-- --- ---- --- ------ ----- ------- ---- -- --- ------- --<br>------- ---------- ------ -- ----- -- ----- -- ---- ------<br>--- ----- --- --- ------ -------- ----- --- ------ ----- --<br>----- ----- ---------- --- --- ------ ------ ---- -- ------<br>------- --- ------ ----- --- left ------- -- ---- --- --<br>------- ------,124539.30000001192,124538.40000003576,124049.014,124059.60000002384,124065.682,124549.416,,48,left
screen,html.Screen,0_2_1_1_49,2021-11-12T15:29:23.807Z,,,,,,,,,,,,,,,,54,,,,,,,,,,,,,,404.98400003576535,,response,,,100,,,,,,Space,keypress(Space),,,,,-- --- ---- --- ------ ----- ------- ---- -- --- ------- --<br>------- ---------- ------ -- ----- -- ----- -- ---- ------<br>--- ----- --- --- ------ -------- ----- --- ------ ----- --<br>----- ----- ---------- --- --- ------ ------ ---- -- ------<br>------- --- ------ ----- --- ---- without -- ---- --- --<br>------- ------,124955.30000001192,124954.40000003576,124532.744,124539.60000002384,124549.416,124966.128,,49,without
screen,html.Screen,0_2_1_1_50,2021-11-12T15:29:24.231Z,,,,,,,,,,,,,,,,54,,,,,,,,,,,,,,412.2720000357658,,response,,,100,,,,,,Space,keypress(Space),,,,,-- --- ---- --- ------ ----- ------- ---- -- --- ------- --<br>------- ---------- ------ -- ----- -- ----- -- ---- ------<br>--- ----- --- --- ------ -------- ----- --- ------ ----- --<br>----- ----- ---------- --- --- ------ ------ ---- -- ------<br>------- --- ------ ----- --- ---- ------- an ---- --- --<br>------- ------,125379.20000004768,125378.40000003576,124949.457,124955.5,124966.128,125382.859,,50,an
screen,html.Screen,0_2_1_1_51,2021-11-12T15:29:24.703Z,,,,,,,,,,,,,,,,54,,,,,,,,,,,,,,467.54100003576605,,response,,,100,,,,,,Space,keypress(Space),,,,,-- --- ---- --- ------ ----- ------- ---- -- --- ------- --<br>------- ---------- ------ -- ----- -- ----- -- ---- ------<br>--- ----- --- --- ------ -------- ----- --- ------ ----- --<br>----- ----- ---------- --- --- ------ ------ ---- -- ------<br>------- --- ------ ----- --- ---- ------- -- easy --- --<br>------- ------,125851.20000004768,125850.40000003576,125366.189,125379.5,125382.859,125866.218,,51,easy
screen,html.Screen,0_2_1_1_52,2021-11-12T15:29:25.103Z,,,,,,,,,,,,,,,,54,,,,,,,,,,,,,,384.1820000357693,,response,,,100,,,,,,Space,keypress(Space),,,,,-- --- ---- --- ------ ----- ------- ---- -- --- ------- --<br>------- ---------- ------ -- ----- -- ----- -- ---- ------<br>--- ----- --- --- ------ -------- ----- --- ------ ----- --<br>----- ----- ---------- --- --- ------ ------ ---- -- ------<br>------- --- ------ ----- --- ---- ------- -- ---- way --<br>------- ------,126251.20000004768,126250.40000003576,125849.549,125851.5,125866.218,126266.517,,52,way
screen,html.Screen,0_2_1_1_53,2021-11-12T15:29:25.479Z,,,,,,,,,,,,,,,,54,,,,,,,,,,,,,,359.8830000357557,,response,,,100,,,,,,Space,keypress(Space),,,,,-- --- ---- --- ------ ----- ------- ---- -- --- ------- --<br>------- ---------- ------ -- ----- -- ----- -- ---- ------<br>--- ----- --- --- ------ -------- ----- --- ------ ----- --<br>----- ----- ---------- --- --- ------ ------ ---- -- ------<br>------- --- ------ ----- --- ---- ------- -- ---- --- of<br>------- ------,126627.10000002384,126626.40000003576,126249.845,126251.5,126266.517,126633.192,,53,of
screen,html.Screen,0_2_1_1_54,2021-11-12T15:29:26.479Z,,,,,,,,,,,,,,,,54,,,,,,,,,,,,,,993.2080000357673,,response,,,100,,,,,,Space,keypress(Space),,,,,-- --- ---- --- ------ ----- ------- ---- -- --- ------- --<br>------- ---------- ------ -- ----- -- ----- -- ---- ------<br>--- ----- --- --- ------ -------- ----- --- ------ ----- --<br>----- ----- ---------- --- --- ------ ------ ---- -- ------<br>------- --- ------ ----- --- ---- ------- -- ---- --- --<br>raising ------,127627.20000004768,127626.40000003576,126616.522,126627.40000003576,126633.192,127633.391,,54,raising
screen,html.Screen,0_2_1_1_55,2021-11-12T15:29:26.895Z,,,,,,,,,,,,,,,,54,,,,,,,,,,,,,,408.90900001191767,,response,,,100,,,,,,Space,keypress(Space),,,,,-- --- ---- --- ------ ----- ------- ---- -- --- ------- --<br>------- ---------- ------ -- ----- -- ----- -- ---- ------<br>--- ----- --- --- ------ -------- ----- --- ------ ----- --<br>----- ----- ---------- --- --- ------ ------ ---- -- ------<br>------- --- ------ ----- --- ---- ------- -- ---- --- --<br>------- money.,128043.10000002384,128042.30000001192,127616.721,127627.40000003576,127633.391,128050.256,,55,money.
Item 100,flow.Loop,0_2_1_1,2021-11-12T15:29:26.895Z,,,,,,,,,,,,,,,,,,,,,,,,,,,,,,28282.84900001192,,completion,,,,A,,,,,,,,,,silence,,128043.60000002384,128042.30000001192,99742.781,99744.60000002384,99759.451,128050.256,,,
Question 1,html.Screen,0_2_1_2,2021-11-12T15:29:29.003Z,,,,,,,,,,,,,,,,,,,,,,,,,,,true,TRUE,,2099.344000023848,,response,,,100,A,,,,,TRUE,click #choice-1,,,,silence,,130150.90000003576,130149.60000002384,128033.585,128043.80000001192,128050.256,130150.788,,,
Question 2,html.Screen,0_2_1_3,2021-11-12T15:29:30.791Z,,,,,,,,,,,,,,,,,,,,,,,,,,,true,FALSE,,1787.5120000119205,,response,,,100,A,,,,,FALSE,click #choice-2,,,,silence,,131939.5,131938.30000001192,130134.117,130151.10000002384,130150.788,131951.223,,,
Item 100,flow.Sequence,0_2_1,2021-11-12T15:29:30.792Z,,,,,,,,,,,,,,,,,,,,,,,,,,,,,,42181.33200001193,,completion,,,,,,,,,,,,,,,,131940,131938.30000001192,89740.299,89750.10000002384,89756.968,131951.223,,,
End of Practice,html.Page,0_2_2,2021-11-12T15:29:35.440Z,,,,,,,,,,,,,,,,,,,,,,,,,,,,,,4636.377000023844,,form submission,,,,,,,,,,,,,,,,136588.30000001192,136587.60000002384,131934.553,131940.20000004768,131951.223,136602.403,,,
Practice,flow.Sequence,0_2,2021-11-12T15:29:35.441Z,,,,,,,,,,,,,,,,,,,,,,,,,,,,,,89258.42600002384,,completion,,,,,,,,,,,,,,,,136588.80000001192,136587.60000002384,47312.504,47321.10000002384,47329.174,136602.403,,,
Trap_instruction,html.Page,0_3_0,2021-11-12T15:29:40.667Z,,,,,,,,,,,,,,,,,,,,,,,,,,,,,,5211.89700001193,,form submission,,,,,,,,,,,,,,,,141814.90000003576,141814.30000001192,136585.732,136589.20000004768,136602.403,141836.73,,,
trap_trial,html.Screen,0_3_1,2021-11-12T15:29:43.144Z,,,,,,,,,,,,,,,,,,,,,,,,,,,true,1,,2453.8700000238314,,response,,,,,,,,,1,click #choice-1,,,,,,144291.90000003576,144290.60000002384,141803.39,141815.20000004768,141836.73,144302.967,,,
end of trap trial,html.Page,0_3_2,2021-11-12T15:29:45.454Z,,,,,,,,,,,,,,,,,,,,,,,,,,,,,,2298.532999999996,,form submission,,,,,,,,,,,,,,,,146602.10000002384,146601.5,144286.306,144292.30000001192,144302.967,146604.979,,,
Trap 1,flow.Sequence,0_3,2021-11-12T15:29:45.454Z,,,,,,,,,,,,,,,,,,,,,,,,,,,,,,9999.097000000009,,completion,,,,,,,,,,,,,,,,146602.40000003576,146601.5,136585.732,136589.10000002384,136602.403,146604.979,,,
Standby,html.Page,0_4_0,2021-11-12T15:29:53.443Z,,,,,,,,,,,,,,,,,,,,,,,,,,,,,,8001.610000000015,,timeout,,,,,,,,,,,,,,,,154591.60000002384,154589.919,146588.309,146602.70000004768,146604.979,154606.589,,,
Holding screen,html.Screen,0_4_1_0_0,2021-11-12T15:30:00.445Z,,,,,,,,,,,,,,,,,,,,,,,,,,,,,,7002.128999999986,,timeout,,,,,,,,,,,,,,,,161593.60000002384,161592.048,154589.919,154591.90000003576,154606.589,161608.718,,,
screen,html.Screen,0_4_1_0_1_0,2021-11-12T15:30:01.502Z,,,,,,,,,,,,,,,,48,,,,,,,,,,,,,,1040.1820000357693,,response,,,10,A,,,,,Space,keypress(Space),,,,silence,As -- --- ------ ------- --------- ----------- --------<br>--------- -------- --- ------- -- ------- ---- -- ------<br>-- --- -------- -------- ---------- ---- ---- ---- ------<br>-- --------- -- ---- -- --- -- --- ------- -- - -----<br>---------- -- -- -- ---- ----- -- ------ -- --- ------<br>-------,162649.90000003576,162648.90000003576,161592.048,161593.90000003576,161608.718,162659.131,,0,As
screen,html.Screen,0_4_1_0_1_1,2021-11-12T15:30:01.893Z,,,,,,,,,,,,,,,,48,,,,,,,,,,,,,,381.26900003576884,,response,,,10,A,,,,,Space,keypress(Space),,,,silence,-- in --- ------ ------- --------- ----------- --------<br>--------- -------- --- ------- -- ------- ---- -- ------<br>-- --- -------- -------- ---------- ---- ---- ---- ------<br>-- --------- -- ---- -- --- -- --- ------- -- - -----<br>---------- -- -- -- ---- ----- -- ------ -- --- ------<br>-------,163041.20000004768,163040.40000003576,162642.46,162650.30000001192,162659.131,163059.084,,1,in
screen,html.Screen,0_4_1_0_1_2,2021-11-12T15:30:02.253Z,,,,,,,,,,,,,,,,48,,,,,,,,,,,,,,341.21600001191837,,response,,,10,A,,,,,Space,keypress(Space),,,,silence,-- -- the ------ ------- --------- ----------- --------<br>--------- -------- --- ------- -- ------- ---- -- ------<br>-- --- -------- -------- ---------- ---- ---- ---- ------<br>-- --------- -- ---- -- --- -- --- ------- -- - -----<br>---------- -- -- -- ---- ----- -- ------ -- --- ------<br>-------,163401.20000004768,163400.30000001192,163042.415,163041.5,163059.084,163409.352,,2,the
screen,html.Screen,0_4_1_0_1_3,2021-11-12T15:30:02.621Z,,,,,,,,,,,,,,,,48,,,,,,,,,,,,,,358.9480000119074,,response,,,10,A,,,,,Space,keypress(Space),,,,silence,-- -- --- United ------- --------- ----------- --------<br>--------- -------- --- ------- -- ------- ---- -- ------<br>-- --- -------- -------- ---------- ---- ---- ---- ------<br>-- --------- -- ---- -- --- -- --- ------- -- - -----<br>---------- -- -- -- ---- ----- -- ------ -- --- ------<br>-------,163769.20000004768,163768.30000001192,163392.681,163401.5,163409.352,163775.976,,3,United
screen,html.Screen,0_4_1_0_1_4,2021-11-12T15:30:03.021Z,,,,,,,,,,,,,,,,48,,,,,,,,,,,,,,392.3240000119258,,response,,,10,A,,,,,Space,keypress(Space),,,,silence,"-- -- --- ------ States, --------- ----------- --------<br>--------- -------- --- ------- -- ------- ---- -- ------<br>-- --- -------- -------- ---------- ---- ---- ---- ------<br>-- --------- -- ---- -- --- -- --- ------- -- - -----<br>---------- -- -- -- ---- ----- -- ------ -- --- ------<br>-------",164169.10000002384,164168.30000001192,163759.307,163769.5,163775.976,164176.318,,4,"States,"
screen,html.Screen,0_4_1_0_1_5,2021-11-12T15:30:03.645Z,,,,,,,,,,,,,,,,48,,,,,,,,,,,,,,615.9820000119216,,response,,,10,A,,,,,Space,keypress(Space),,,,silence,-- -- --- ------ ------- Colombian ----------- --------<br>--------- -------- --- ------- -- ------- ---- -- ------<br>-- --- -------- -------- ---------- ---- ---- ---- ------<br>-- --------- -- ---- -- --- -- --- ------- -- - -----<br>---------- -- -- -- ---- ----- -- ------ -- --- ------<br>-------,164793,164792.30000001192,164159.645,164169.5,164176.318,164809.564,,5,Colombian
screen,html.Screen,0_4_1_0_1_6,2021-11-12T15:30:04.109Z,,,,,,,,,,,,,,,,48,,,,,,,,,,,,,,446.6360000476707,,response,,,10,A,,,,,Space,keypress(Space),,,,silence,-- -- --- ------ ------- --------- legislation --------<br>--------- -------- --- ------- -- ------- ---- -- ------<br>-- --- -------- -------- ---------- ---- ---- ---- ------<br>-- --------- -- ---- -- --- -- --- ------- -- - -----<br>---------- -- -- -- ---- ----- -- ------ -- --- ------<br>-------,165257.10000002384,165256.20000004768,164792.895,164793.40000003576,164809.564,165259.845,,6,legislation
screen,html.Screen,0_4_1_0_1_7,2021-11-12T15:30:04.669Z,,,,,,,,,,,,,,,,48,,,,,,,,,,,,,,556.3550000476826,,response,,,10,A,,,,,Space,keypress(Space),,,,silence,-- -- --- ------ ------- --------- ----------- requires<br>--------- -------- --- ------- -- ------- ---- -- ------<br>-- --- -------- -------- ---------- ---- ---- ---- ------<br>-- --------- -- ---- -- --- -- --- ------- -- - -----<br>---------- -- -- -- ---- ----- -- ------ -- --- ------<br>-------,165817.10000002384,165816.20000004768,165243.174,165257.30000001192,165259.845,165826.581,,7,requires
screen,html.Screen,0_4_1_0_1_8,2021-11-12T15:30:05.101Z,,,,,,,,,,,,,,,,48,,,,,,,,,,,,,,421.6190000476781,,response,,,10,A,,,,,Space,keypress(Space),,,,silence,-- -- --- ------ ------- --------- ----------- --------<br>travelers -------- --- ------- -- ------- ---- -- ------<br>-- --- -------- -------- ---------- ---- ---- ---- ------<br>-- --------- -- ---- -- --- -- --- ------- -- - -----<br>---------- -- -- -- ---- ----- -- ------ -- --- ------<br>-------,166248.90000003576,166248.20000004768,165809.911,165817.20000004768,165826.581,166260.08,,8,travelers
screen,html.Screen,0_4_1_0_1_9,2021-11-12T15:30:05.541Z,,,,,,,,,,,,,,,,48,,,,,,,,,,,,,,428.1200000476965,,response,,,10,A,,,,,Space,keypress(Space),,,,silence,-- -- --- ------ ------- --------- ----------- --------<br>--------- entering --- ------- -- ------- ---- -- ------<br>-- --- -------- -------- ---------- ---- ---- ---- ------<br>-- --------- -- ---- -- --- -- --- ------- -- - -----<br>---------- -- -- -- ---- ----- -- ------ -- --- ------<br>-------,166689,166688.20000004768,166243.409,166249.20000004768,166260.08,166693.476,,9,entering
screen,html.Screen,0_4_1_0_1_10,2021-11-12T15:30:05.925Z,,,,,,,,,,,,,,,,48,,,,,,,,,,,,,,378.7240000476886,,response,,,10,A,,,,,Space,keypress(Space),,,,silence,-- -- --- ------ ------- --------- ----------- --------<br>--------- -------- the ------- -- ------- ---- -- ------<br>-- --- -------- -------- ---------- ---- ---- ---- ------<br>-- --------- -- ---- -- --- -- --- ------- -- - -----<br>---------- -- -- -- ---- ----- -- ------ -- --- ------<br>-------,167073,167072.20000004768,166676.806,166689.30000001192,166693.476,167076.986,,10,the
screen,html.Screen,0_4_1_0_1_11,2021-11-12T15:30:06.365Z,,,,,,,,,,,,,,,,48,,,,,,,,,,,,,,435.2140000476793,,response,,,10,A,,,,,Space,keypress(Space),,,,silence,-- -- --- ------ ------- --------- ----------- --------<br>--------- -------- --- country -- ------- ---- -- ------<br>-- --- -------- -------- ---------- ---- ---- ---- ------<br>-- --------- -- ---- -- --- -- --- ------- -- - -----<br>---------- -- -- -- ---- ----- -- ------ -- --- ------<br>-------,167512.90000003576,167512.20000004768,167060.315,167073.20000004768,167076.986,167526.945,,11,country
screen,html.Screen,0_4_1_0_1_12,2021-11-12T15:30:06.701Z,,,,,,,,,,,,,,,,48,,,,,,,,,,,,,,321.1550000238349,,response,,,10,A,,,,,Space,keypress(Space),,,,silence,-- -- --- ------ ------- --------- ----------- --------<br>--------- -------- --- ------- to ------- ---- -- ------<br>-- --- -------- -------- ---------- ---- ---- ---- ------<br>-- --------- -- ---- -- --- -- --- ------- -- - -----<br>---------- -- -- -- ---- ----- -- ------ -- --- ------<br>-------,167849,167848.10000002384,167510.276,167513.20000004768,167526.945,167860.53,,12,to
screen,html.Screen,0_4_1_0_1_13,2021-11-12T15:30:07.141Z,,,,,,,,,,,,,,,,48,,,,,,,,,,,,,,427.47000000000116,,response,,,10,A,,,,,Space,keypress(Space),,,,silence,-- -- --- ------ ------- --------- ----------- --------<br>--------- -------- --- ------- -- declare ---- -- ------<br>-- --- -------- -------- ---------- ---- ---- ---- ------<br>-- --------- -- ---- -- --- -- --- ------- -- - -----<br>---------- -- -- -- ---- ----- -- ------ -- --- ------<br>-------,168288.90000003576,168288,167843.858,167849.10000002384,167860.53,168293.944,,13,declare
screen,html.Screen,0_4_1_0_1_14,2021-11-12T15:30:07.501Z,,,,,,,,,,,,,,,,48,,,,,,,,,,,,,,354.0560000000114,,response,,,10,A,,,,,Space,keypress(Space),,,,silence,-- -- --- ------ ------- --------- ----------- --------<br>--------- -------- --- ------- -- ------- cash -- ------<br>-- --- -------- -------- ---------- ---- ---- ---- ------<br>-- --------- -- ---- -- --- -- --- ------- -- - -----<br>---------- -- -- -- ---- ----- -- ------ -- --- ------<br>-------,168648.80000001192,168648,168277.273,168289.10000002384,168293.944,168660.65,,14,cash
screen,html.Screen,0_4_1_0_1_15,2021-11-12T15:30:07.877Z,,,,,,,,,,,,,,,,48,,,,,,,,,,,,,,363.3500000000058,,response,,,10,A,,,,,Space,keypress(Space),,,,silence,-- -- --- ------ ------- --------- ----------- --------<br>--------- -------- --- ------- -- ------- ---- in ------<br>-- --- -------- -------- ---------- ---- ---- ---- ------<br>-- --------- -- ---- -- --- -- --- ------- -- - -----<br>---------- -- -- -- ---- ----- -- ------ -- --- ------<br>-------,169024.90000003576,169024,168643.98,168649.10000002384,168660.65,169027.427,,15,in
screen,html.Screen,0_4_1_0_1_16,2021-11-12T15:30:08.224Z,,,,,,,,,,,,,,,,48,,,,,,,,,,,,,,343.47300003576674,,response,,,10,A,,,,,Space,keypress(Space),,,,silence,-- -- --- ------ ------- --------- ----------- --------<br>--------- -------- --- ------- -- ------- ---- -- excess<br>-- --- -------- -------- ---------- ---- ---- ---- ------<br>-- --------- -- ---- -- --- -- --- ------- -- - -----<br>---------- -- -- -- ---- ----- -- ------ -- --- ------<br>-------,169371.70000004768,169370.90000003576,169010.757,169025.10000002384,169027.427,169377.509,,16,excess
screen,html.Screen,0_4_1_0_1_17,2021-11-12T15:30:08.685Z,,,,,,,,,,,,,,,,48,,,,,,,,,,,,,,454.39100003577187,,response,,,10,A,,,,,Space,keypress(Space),,,,silence,-- -- --- ------ ------- --------- ----------- --------<br>--------- -------- --- ------- -- ------- ---- -- ------<br>of --- -------- -------- ---------- ---- ---- ---- ------<br>-- --------- -- ---- -- --- -- --- ------- -- - -----<br>---------- -- -- -- ---- ----- -- ------ -- --- ------<br>-------,169833,169831.90000003576,169360.839,169372,169377.509,169844.191,,17,of
screen,html.Screen,0_4_1_0_1_18,2021-11-12T15:30:09.037Z,,,,,,,,,,,,,,,,48,,,,,,,,,,,,,,339.8090000000084,,response,,,10,A,,,,,Space,keypress(Space),,,,silence,-- -- --- ------ ------- --------- ----------- --------<br>--------- -------- --- ------- -- ------- ---- -- ------<br>-- ten -------- -------- ---------- ---- ---- ---- ------<br>-- --------- -- ---- -- --- -- --- ------- -- - -----<br>---------- -- -- -- ---- ----- -- ------ -- --- ------<br>-------,170184.80000001192,170184,169827.522,169833.30000001192,169844.191,170194.351,,18,ten
screen,html.Screen,0_4_1_0_1_19,2021-11-12T15:30:09.429Z,,,,,,,,,,,,,,,,48,,,,,,,,,,,,,,381.6490000000049,,response,,,10,A,,,,,Space,keypress(Space),,,,silence,-- -- --- ------ ------- --------- ----------- --------<br>--------- -------- --- ------- -- ------- ---- -- ------<br>-- --- thousand -------- ---------- ---- ---- ---- ------<br>-- --------- -- ---- -- --- -- --- ------- -- - -----<br>---------- -- -- -- ---- ----- -- ------ -- --- ------<br>-------,170576.80000001192,170576,170177.681,170185.10000002384,170194.351,170594.563,,19,thousand
screen,html.Screen,0_4_1_0_1_20,2021-11-12T15:30:09.813Z,,,,,,,,,,,,,,,,48,,,,,,,,,,,,,,365.43700000000536,,response,,,10,A,,,,,Space,keypress(Space),,,,silence,-- -- --- ------ ------- --------- ----------- --------<br>--------- -------- --- ------- -- ------- ---- -- ------<br>-- --- -------- dollars. ---------- ---- ---- ---- ------<br>-- --------- -- ---- -- --- -- --- ------- -- - -----<br>---------- -- -- -- ---- ----- -- ------ -- --- ------<br>-------,170960.80000001192,170960,170577.891,170577.10000002384,170594.563,170977.96,,20,dollars.
screen,html.Screen,0_4_1_0_1_21,2021-11-12T15:30:10.277Z,,,,,,,,,,,,,,,,48,,,,,,,,,,,,,,445.94000003577094,,response,,,10,A,,,,,Space,keypress(Space),,,,silence,-- -- --- ------ ------- --------- ----------- --------<br>--------- -------- --- ------- -- ------- ---- -- ------<br>-- --- -------- -------- Concealing ---- ---- ---- ------<br>-- --------- -- ---- -- --- -- --- ------- -- - -----<br>---------- -- -- -- ---- ----- -- ------ -- --- ------<br>-------,171424.70000004768,171423.90000003576,170961.289,170961,170977.96,171428.043,,21,Concealing
screen,html.Screen,0_4_1_0_1_22,2021-11-12T15:30:10.677Z,,,,,,,,,,,,,,,,48,,,,,,,,,,,,,,395.7570000119158,,response,,,10,A,,,,,Space,keypress(Space),,,,silence,-- -- --- ------ ------- --------- ----------- --------<br>--------- -------- --- ------- -- ------- ---- -- ------<br>-- --- -------- -------- ---------- more ---- ---- ------<br>-- --------- -- ---- -- --- -- --- ------- -- - -----<br>---------- -- -- -- ---- ----- -- ------ -- --- ------<br>-------,171824.70000004768,171823.80000001192,171411.373,171425.10000002384,171428.043,171828.15,,22,more
screen,html.Screen,0_4_1_0_1_23,2021-11-12T15:30:11.013Z,,,,,,,,,,,,,,,,48,,,,,,,,,,,,,,331.65000001192675,,response,,,10,A,,,,,Space,keypress(Space),,,,silence,-- -- --- ------ ------- --------- ----------- --------<br>--------- -------- --- ------- -- ------- ---- -- ------<br>-- --- -------- -------- ---------- ---- than ---- ------<br>-- --------- -- ---- -- --- -- --- ------- -- - -----<br>---------- -- -- -- ---- ----- -- ------ -- --- ------<br>-------,172160.70000004768,172159.80000001192,171811.48,171825,171828.15,172178.243,,23,than
screen,html.Screen,0_4_1_0_1_24,2021-11-12T15:30:11.349Z,,,,,,,,,,,,,,,,48,,,,,,,,,,,,,,317.55700001193327,,response,,,10,A,,,,,Space,keypress(Space),,,,silence,-- -- --- ------ ------- --------- ----------- --------<br>--------- -------- --- ------- -- ------- ---- -- ------<br>-- --- -------- -------- ---------- ---- ---- that ------<br>-- --------- -- ---- -- --- -- --- ------- -- - -----<br>---------- -- -- -- ---- ----- -- ------ -- --- ------<br>-------,172496.70000004768,172495.80000001192,172161.573,172161,172178.243,172511.66,,24,that
screen,html.Screen,0_4_1_0_1_25,2021-11-12T15:30:11.725Z,,,,,,,,,,,,,,,,48,,,,,,,,,,,,,,360.64000001191744,,response,,,10,A,,,,,Space,keypress(Space),,,,silence,-- -- --- ------ ------- --------- ----------- --------<br>--------- -------- --- ------- -- ------- ---- -- ------<br>-- --- -------- -------- ---------- ---- ---- ---- amount<br>-- --------- -- ---- -- --- -- --- ------- -- - -----<br>---------- -- -- -- ---- ----- -- ------ -- --- ------<br>-------,172873.10000002384,172872.30000001192,172494.99,172497,172511.66,172878.286,,25,amount
screen,html.Screen,0_4_1_0_1_26,2021-11-12T15:30:12.109Z,,,,,,,,,,,,,,,,48,,,,,,,,,,,,,,377.51400001192815,,response,,,10,A,,,,,Space,keypress(Space),,,,silence,-- -- --- ------ ------- --------- ----------- --------<br>--------- -------- --- ------- -- ------- ---- -- ------<br>-- --- -------- -------- ---------- ---- ---- ---- ------<br>to --------- -- ---- -- --- -- --- ------- -- - -----<br>---------- -- -- -- ---- ----- -- ------ -- --- ------<br>-------,173256.60000002384,173255.80000001192,172861.618,172873.40000003576,172878.286,173261.963,,26,to
screen,html.Screen,0_4_1_0_1_27,2021-11-12T15:30:12.532Z,,,,,,,,,,,,,,,,48,,,,,,,,,,,,,,417.8370000119321,,response,,,10,A,,,,,Space,keypress(Space),,,,silence,-- -- --- ------ ------- --------- ----------- --------<br>--------- -------- --- ------- -- ------- ---- -- ------<br>-- --- -------- -------- ---------- ---- ---- ---- ------<br>-- transport -- ---- -- --- -- --- ------- -- - -----<br>---------- -- -- -- ---- ----- -- ------ -- --- ------<br>-------,173680.60000002384,173679.80000001192,173245.29,173257,173261.963,173695.265,,27,transport
screen,html.Screen,0_4_1_0_1_28,2021-11-12T15:30:12.908Z,,,,,,,,,,,,,,,,48,,,,,,,,,,,,,,360.53500001190696,,response,,,10,A,,,,,Space,keypress(Space),,,,silence,-- -- --- ------ ------- --------- ----------- --------<br>--------- -------- --- ------- -- ------- ---- -- ------<br>-- --- -------- -------- ---------- ---- ---- ---- ------<br>-- --------- it ---- -- --- -- --- ------- -- - -----<br>---------- -- -- -- ---- ----- -- ------ -- --- ------<br>-------,174056.5,174055.80000001192,173678.595,173680.80000001192,173695.265,174062.081,,28,it
screen,html.Screen,0_4_1_0_1_29,2021-11-12T15:30:13.252Z,,,,,,,,,,,,,,,,48,,,,,,,,,,,,,,337.71900001191534,,response,,,10,A,,,,,Space,keypress(Space),,,,silence,-- -- --- ------ ------- --------- ----------- --------<br>--------- -------- --- ------- -- ------- ---- -- ------<br>-- --- -------- -------- ---------- ---- ---- ---- ------<br>-- --------- -- into -- --- -- --- ------- -- - -----<br>---------- -- -- -- ---- ----- -- ------ -- --- ------<br>-------,174400.60000002384,174399.80000001192,174045.41,174056.80000001192,174062.081,174412.173,,29,into
screen,html.Screen,0_4_1_0_1_30,2021-11-12T15:30:13.668Z,,,,,,,,,,,,,,,,48,,,,,,,,,,,,,,403.52700004767394,,response,,,10,A,,,,,Space,keypress(Space),,,,silence,-- -- --- ------ ------- --------- ----------- --------<br>--------- -------- --- ------- -- ------- ---- -- ------<br>-- --- -------- -------- ---------- ---- ---- ---- ------<br>-- --------- -- ---- or --- -- --- ------- -- - -----<br>---------- -- -- -- ---- ----- -- ------ -- --- ------<br>-------,174816.5,174815.70000004768,174395.502,174400.80000001192,174412.173,174828.918,,30,or
screen,html.Screen,0_4_1_0_1_31,2021-11-12T15:30:14.076Z,,,,,,,,,,,,,,,,48,,,,,,,,,,,,,,394.7820000476786,,response,,,10,A,,,,,Space,keypress(Space),,,,silence,-- -- --- ------ ------- --------- ----------- --------<br>--------- -------- --- ------- -- ------- ---- -- ------<br>-- --- -------- -------- ---------- ---- ---- ---- ------<br>-- --------- -- ---- -- out -- --- ------- -- - -----<br>---------- -- -- -- ---- ----- -- ------ -- --- ------<br>-------,175224.60000002384,175223.70000004768,174812.248,174816.70000004768,174828.918,175228.873,,31,out
screen,html.Screen,0_4_1_0_1_32,2021-11-12T15:30:14.508Z,,,,,,,,,,,,,,,,48,,,,,,,,,,,,,,426.72700002384954,,response,,,10,A,,,,,Space,keypress(Space),,,,silence,-- -- --- ------ ------- --------- ----------- --------<br>--------- -------- --- ------- -- ------- ---- -- ------<br>-- --- -------- -------- ---------- ---- ---- ---- ------<br>-- --------- -- ---- -- --- of --- ------- -- - -----<br>---------- -- -- -- ---- ----- -- ------ -- --- ------<br>-------,175656.5,175655.60000002384,175212.205,175224.90000003576,175228.873,175662.57,,32,of
screen,html.Screen,0_4_1_0_1_33,2021-11-12T15:30:14.908Z,,,,,,,,,,,,,,,,48,,,,,,,,,,,,,,392.929999999993,,response,,,10,A,,,,,Space,keypress(Space),,,,silence,-- -- --- ------ ------- --------- ----------- --------<br>--------- -------- --- ------- -- ------- ---- -- ------<br>-- --- -------- -------- ---------- ---- ---- ---- ------<br>-- --------- -- ---- -- --- -- the ------- -- - -----<br>---------- -- -- -- ---- ----- -- ------ -- --- ------<br>-------,176056.30000001192,176055.5,175645.898,175656.70000004768,175662.57,176062.578,,33,the
screen,html.Screen,0_4_1_0_1_34,2021-11-12T15:30:15.388Z,,,,,,,,,,,,,,,,48,,,,,,,,,,,,,,472.9219999999914,,response,,,10,A,,,,,Space,keypress(Space),,,,silence,-- -- --- ------ ------- --------- ----------- --------<br>--------- -------- --- ------- -- ------- ---- -- ------<br>-- --- -------- -------- ---------- ---- ---- ---- ------<br>-- --------- -- ---- -- --- -- --- country -- - -----<br>---------- -- -- -- ---- ----- -- ------ -- --- ------<br>-------,176536.30000001192,176535.5,176045.908,176056.60000002384,176062.578,176545.919,,34,country
screen,html.Screen,0_4_1_0_1_35,2021-11-12T15:30:15.757Z,,,,,,,,,,,,,,,,48,,,,,,,,,,,,,,358.0810000000056,,response,,,10,A,,,,,Space,keypress(Space),,,,silence,-- -- --- ------ ------- --------- ----------- --------<br>--------- -------- --- ------- -- ------- ---- -- ------<br>-- --- -------- -------- ---------- ---- ---- ---- ------<br>-- --------- -- ---- -- --- -- --- ------- is - -----<br>---------- -- -- -- ---- ----- -- ------ -- --- ------<br>-------,176904.80000001192,176904,176529.25,176536.60000002384,176545.919,176912.857,,35,is
screen,html.Screen,0_4_1_0_1_36,2021-11-12T15:30:16.068Z,,,,,,,,,,,,,,,,48,,,,,,,,,,,,,,302.64300000001094,,response,,,10,A,,,,,Space,keypress(Space),,,,silence,-- -- --- ------ ------- --------- ----------- --------<br>--------- -------- --- ------- -- ------- ---- -- ------<br>-- --- -------- -------- ---------- ---- ---- ---- ------<br>-- --------- -- ---- -- --- -- --- ------- -- a -----<br>---------- -- -- -- ---- ----- -- ------ -- --- ------<br>-------,177216.30000001192,177215.5,176896.185,176905.10000002384,176912.857,177229.455,,36,a
screen,html.Screen,0_4_1_0_1_37,2021-11-12T15:30:16.436Z,,,,,,,,,,,,,,,,48,,,,,,,,,,,,,,354.0450000000128,,response,,,10,A,,,,,Space,keypress(Space),,,,silence,-- -- --- ------ ------- --------- ----------- --------<br>--------- -------- --- ------- -- ------- ---- -- ------<br>-- --- -------- -------- ---------- ---- ---- ---- ------<br>-- --------- -- ---- -- --- -- --- ------- -- - crime<br>---------- -- -- -- ---- ----- -- ------ -- --- ------<br>-------,177584.5,177583.5,177212.786,177216.60000002384,177229.455,177596.337,,37,crime
screen,html.Screen,0_4_1_0_1_38,2021-11-12T15:30:16.916Z,,,,,,,,,,,,,,,,48,,,,,,,,,,,,,,467.16300000000047,,response,,,10,A,,,,,Space,keypress(Space),,,,silence,-- -- --- ------ ------- --------- ----------- --------<br>--------- -------- --- ------- -- ------- ---- -- ------<br>-- --- -------- -------- ---------- ---- ---- ---- ------<br>-- --------- -- ---- -- --- -- --- ------- -- - -----<br>punishable -- -- -- ---- ----- -- ------ -- --- ------<br>-------,178064.40000003576,178063.5,177579.665,177584.90000003576,177596.337,178079.556,,38,punishable
screen,html.Screen,0_4_1_0_1_39,2021-11-12T15:30:17.324Z,,,,,,,,,,,,,,,,48,,,,,,,,,,,,,,391.9439999999886,,response,,,10,A,,,,,Space,keypress(Space),,,,silence,-- -- --- ------ ------- --------- ----------- --------<br>--------- -------- --- ------- -- ------- ---- -- ------<br>-- --- -------- -------- ---------- ---- ---- ---- ------<br>-- --------- -- ---- -- --- -- --- ------- -- - -----<br>---------- by -- -- ---- ----- -- ------ -- --- ------<br>-------,178472.40000003576,178471.5,178062.889,178064.60000002384,178079.556,178479.935,,39,by
screen,html.Screen,0_4_1_0_1_40,2021-11-12T15:30:17.725Z,,,,,,,,,,,,,,,,48,,,,,,,,,,,,,,392.0650000000023,,response,,,10,A,,,,,Space,keypress(Space),,,,silence,-- -- --- ------ ------- --------- ----------- --------<br>--------- -------- --- ------- -- ------- ---- -- ------<br>-- --- -------- -------- ---------- ---- ---- ---- ------<br>-- --------- -- ---- -- --- -- --- ------- -- - -----<br>---------- -- up -- ---- ----- -- ------ -- --- ------<br>-------,178872.70000004768,178872,178463.263,178472.60000002384,178479.935,178879.987,,40,up
screen,html.Screen,0_4_1_0_1_41,2021-11-12T15:30:18.052Z,,,,,,,,,,,,,,,,48,,,,,,,,,,,,,,319.4130000357691,,response,,,10,A,,,,,Space,keypress(Space),,,,silence,-- -- --- ------ ------- --------- ----------- --------<br>--------- -------- --- ------- -- ------- ---- -- ------<br>-- --- -------- -------- ---------- ---- ---- ---- ------<br>-- --------- -- ---- -- --- -- --- ------- -- - -----<br>---------- -- -- to ---- ----- -- ------ -- --- ------<br>-------,179200.30000001192,179199.40000003576,178863.316,178873.10000002384,178879.987,179213.36,,41,to
screen,html.Screen,0_4_1_0_1_42,2021-11-12T15:30:18.436Z,,,,,,,,,,,,,,,,48,,,,,,,,,,,,,,370.14000000001397,,response,,,10,A,,,,,Space,keypress(Space),,,,silence,-- -- --- ------ ------- --------- ----------- --------<br>--------- -------- --- ------- -- ------- ---- -- ------<br>-- --- -------- -------- ---------- ---- ---- ---- ------<br>-- --------- -- ---- -- --- -- --- ------- -- - -----<br>---------- -- -- -- five ----- -- ------ -- --- ------<br>-------,179584.30000001192,179583.5,179196.69,179200.5,179213.36,179596.847,,42,five
screen,html.Screen,0_4_1_0_1_43,2021-11-12T15:30:18.836Z,,,,,,,,,,,,,,,,48,,,,,,,,,,,,,,386.55300003575394,,response,,,10,A,,,,,Space,keypress(Space),,,,silence,-- -- --- ------ ------- --------- ----------- --------<br>--------- -------- --- ------- -- ------- ---- -- ------<br>-- --- -------- -------- ---------- ---- ---- ---- ------<br>-- --------- -- ---- -- --- -- --- ------- -- - -----<br>---------- -- -- -- ---- years -- ------ -- --- ------<br>-------,179984.30000001192,179983.40000003576,179580.176,179584.5,179596.847,179996.862,,43,years
screen,html.Screen,0_4_1_0_1_44,2021-11-12T15:30:19.204Z,,,,,,,,,,,,,,,,48,,,,,,,,,,,,,,354.4380000119272,,response,,,10,A,,,,,Space,keypress(Space),,,,silence,-- -- --- ------ ------- --------- ----------- --------<br>--------- -------- --- ------- -- ------- ---- -- ------<br>-- --- -------- -------- ---------- ---- ---- ---- ------<br>-- --------- -- ---- -- --- -- --- ------- -- - -----<br>---------- -- -- -- ---- ----- in ------ -- --- ------<br>-------,180352.20000004768,180351.30000001192,179980.193,179984.5,179996.862,180363.7,,44,in
screen,html.Screen,0_4_1_0_1_45,2021-11-12T15:30:19.864Z,,,,,,,,,,,,,,,,48,,,,,,,,,,,,,,643.6000000119093,,response,,,10,A,,,,,Space,keypress(Space),,,,silence,-- -- --- ------ ------- --------- ----------- --------<br>--------- -------- --- ------- -- ------- ---- -- ------<br>-- --- -------- -------- ---------- ---- ---- ---- ------<br>-- --------- -- ---- -- --- -- --- ------- -- - -----<br>---------- -- -- -- ---- ----- -- prison -- --- ------<br>-------,181008.20000004768,181007.30000001192,180347.029,180352.40000003576,180363.7,181013.824,,45,prison
screen,html.Screen,0_4_1_0_1_46,2021-11-12T15:30:20.272Z,,,,,,,,,,,,,,,,48,,,,,,,,,,,,,,401.57600003576954,,response,,,10,A,,,,,Space,keypress(Space),,,,silence,-- -- --- ------ ------- --------- ----------- --------<br>--------- -------- --- ------- -- ------- ---- -- ------<br>-- --- -------- -------- ---------- ---- ---- ---- ------<br>-- --------- -- ---- -- --- -- --- ------- -- - -----<br>---------- -- -- -- ---- ----- -- ------ in --- ------<br>-------,181416.10000002384,181415.40000003576,180997.154,181008.5,181013.824,181430.58,,46,in
screen,html.Screen,0_4_1_0_1_47,2021-11-12T15:30:20.584Z,,,,,,,,,,,,,,,,48,,,,,,,,,,,,,,296.72000001193373,,response,,,10,A,,,,,Space,keypress(Space),,,,silence,-- -- --- ------ ------- --------- ----------- --------<br>--------- -------- --- ------- -- ------- ---- -- ------<br>-- --- -------- -------- ---------- ---- ---- ---- ------<br>-- --------- -- ---- -- --- -- --- ------- -- - -----<br>---------- -- -- -- ---- ----- -- ------ -- the ------<br>-------,181728.20000004768,181727.30000001192,181413.91,181416.40000003576,181430.58,181730.694,,47,the
screen,html.Screen,0_4_1_0_1_48,2021-11-12T15:30:20.936Z,,,,,,,,,,,,,,,,48,,,,,,,,,,,,,,348.60600001193234,,response,,,10,A,,,,,Space,keypress(Space),,,,silence,-- -- --- ------ ------- --------- ----------- --------<br>--------- -------- --- ------- -- ------- ---- -- ------<br>-- --- -------- -------- ---------- ---- ---- ---- ------<br>-- --------- -- ---- -- --- -- --- ------- -- - -----<br>---------- -- -- -- ---- ----- -- ------ -- --- United<br>-------,182080.20000004768,182079.30000001192,181714.024,181728.40000003576,181730.694,182097.455,,48,United
screen,html.Screen,0_4_1_0_1_49,2021-11-12T15:30:21.296Z,,,,,,,,,,,,,,,,48,,,,,,,,,,,,,,341.84500001193373,,response,,,10,A,,,,,Space,keypress(Space),,,,silence,-- -- --- ------ ------- --------- ----------- --------<br>--------- -------- --- ------- -- ------- ---- -- ------<br>-- --- -------- -------- ---------- ---- ---- ---- ------<br>-- --------- -- ---- -- --- -- --- ------- -- - -----<br>---------- -- -- -- ---- ----- -- ------ -- --- ------<br>States.,182440.10000002384,182439.30000001192,182080.785,182080.40000003576,182097.455,182447.415,,49,States.
Item 10,flow.Loop,0_4_1_0_1,2021-11-12T15:30:21.296Z,,,,,,,,,,,,,,,,,,,,,,,,,,,,,,20830.582000011927,,completion,,,,,,,,,,,,,,,,182440.5,182439.30000001192,161592.048,161593.90000003576,161608.718,182447.415,,,
Question 1,html.Screen,0_4_1_0_2,2021-11-12T15:30:24.507Z,,,,,,,,,,,,,,,,,,,,,,,,,,,true,TRUE,,3202.385000011913,,response,,,10,A,,,,,TRUE,click #choice-1,,,,silence,,185651,185649.80000001192,182430.747,182440.80000001192,182447.415,185664.21,,,
Question 2,html.Screen,0_4_1_0_3,2021-11-12T15:30:26.731Z,,,,,,,,,,,,,,,,,,,,,,,,,,,true,TRUE,,2210.290000000008,,response,,,10,A,,,,,TRUE,click #choice-1,,,,silence,,187875.60000002384,187874.5,185647.568,185651.30000001192,185664.21,187882.281,,,
Item 10,flow.Sequence,0_4_1_0,2021-11-12T15:30:26.732Z,,,,,,,,,,,,,,,,,,,,,,,,,,,,,,33267.91099999999,,completion,,,,,,,,,,,,,,,,187876.10000002384,187874.5,154589.919,154591.90000003576,154606.589,187882.281,,,
Holding screen,html.Screen,0_4_1_1_0,2021-11-12T15:30:33.725Z,,,,,,,,,,,,,,,,,,,,,,,,,,,,,,7001.860000000015,,timeout,,,,,,,,,,,,,,,,194868.70000004768,194867.745,187865.611,187876.40000003576,187882.281,194884.141,,,
screen,html.Screen,0_4_1_1_1_0,2021-11-12T15:30:34.832Z,,,,,,,,,,,,,,,,51,,,,,,,,,,,,,,1090.9590000238386,,response,,,13,A,,,,,Space,keypress(Space),,,,silence,American -------- --- --- ---- --- --- ------ -- --------<br>---- --------- --- ------- ------------ ---------- ---------<br>--- ---------- ------- ---------- ------- -- -------- ----<br>---- --- ------ ----- ------ -- ---- --- ----- -- - -------<br>-------- -- --- --- -- ----- ----------- ----- -----------<br>---- --- ---------- --- ---- --- -- ----------,195975.90000003576,195975.10000002384,194867.745,194869.10000002384,194884.141,195983.073,,0,American
screen,html.Screen,0_4_1_1_1_1,2021-11-12T15:30:35.199Z,,,,,,,,,,,,,,,,51,,,,,,,,,,,,,,359.42699999999604,,response,,,13,A,,,,,Space,keypress(Space),,,,silence,-------- industry --- --- ---- --- --- ------ -- --------<br>---- --------- --- ------- ------------ ---------- ---------<br>--- ---------- ------- ---------- ------- -- -------- ----<br>---- --- ------ ----- ------ -- ---- --- ----- -- - -------<br>-------- -- --- --- -- ----- ----------- ----- -----------<br>---- --- ---------- --- ---- --- -- ----------,196343.20000004768,196342.5,195966.675,195976.30000001192,195983.073,196344.88,,1,industry
screen,html.Screen,0_4_1_1_1_2,2021-11-12T15:30:35.615Z,,,,,,,,,,,,,,,,51,,,,,,,,,,,,,,413.61999999999534,,response,,,13,A,,,,,Space,keypress(Space),,,,silence,-------- -------- may --- ---- --- --- ------ -- --------<br>---- --------- --- ------- ------------ ---------- ---------<br>--- ---------- ------- ---------- ------- -- -------- ----<br>---- --- ------ ----- ------ -- ---- --- ----- -- - -------<br>-------- -- --- --- -- ----- ----------- ----- -----------<br>---- --- ---------- --- ---- --- -- ----------,196759.40000003576,196758.5,196328.475,196343.5,196344.88,196773.004,,2,may
screen,html.Screen,0_4_1_1_1_3,2021-11-12T15:30:35.975Z,,,,,,,,,,,,,,,,51,,,,,,,,,,,,,,345.49600000001374,,response,,,13,A,,,,,Space,keypress(Space),,,,silence,-------- -------- --- not ---- --- --- ------ -- --------<br>---- --------- --- ------- ------------ ---------- ---------<br>--- ---------- ------- ---------- ------- -- -------- ----<br>---- --- ------ ----- ------ -- ---- --- ----- -- - -------<br>-------- -- --- --- -- ----- ----------- ----- -----------<br>---- --- ---------- --- ---- --- -- ----------,197119.30000001192,197118.5,196756.585,196759.70000004768,196773.004,197134.641,,3,not
