sender,sender_type,sender_id,timestamp,meta,,Blues,Classical,Country,Dance,Electronic,Folk,Gospel,Hip-Hop,Jazz,Latin,Musical/Film,New-age,Pop,Provo_ID,R&B,Rap,Reggae,Religious,Rock,Soul,Swing,Traditional,age,artist_name,correct,correctResponse,distraction,duration,education,ended_on,familiarity,gender,item,list,music_frequency,offensiveness,pleasantness,preference,response,response_action,snippet_file,song_name,song_rating,sound,text,time_commit,time_end,time_render,time_run,time_show,time_switch,url,word,word_ID
Instructions,html.Page,0_0,2021-11-05T11:40:51.771Z,"{""labjs_version"":""20.2.3"",""labjs_build"":{""flavor"":""production"",""commit"":""7ea907d66ca8aeef8054924ca5d82ffbe11e34e5""},""location"":""https://run.pavlovia.org/mvasilev/lab_music_d/"",""userAgent"":""Mozilla/5.0 (Windows NT 6.1; Win64; x64) AppleWebKit/537.36 (KHTML, like Gecko) Chrome/95.0.4638.69 Safari/537.36"",""platform"":""Win32"",""language"":""en-US"",""locale"":""en-US"",""timeZone"":""Europe/London"",""timezoneOffset"":0,""screen_width"":1920,""screen_height"":1080,""scroll_width"":1920,""scroll_height"":959,""window_innerWidth"":1920,""window_innerHeight"":1007,""devicePixelRatio"":1}",,,,,,,,,,,,,,,,,,,,,,,,,,,,,15590.48200000596,,form submission,,,,,,,,,,,,,,,,28703.20000000298,28701.90000000596,13078.078,13095.90000000596,13111.418,28699.564,{},,
Headphones,html.Page,0_1,2021-11-05T11:40:54.101Z,,,,,,,,,,,,,,,,,,,,,,,,,,,,,,2332.7360000119224,,form submission,,,,,,,,,,,,,,,,31032.80000001192,31032.30000001192,28682.908,28703.90000000596,28699.564,31033.441,,,
Holding screen,html.Screen,0_2_0_0,2021-11-05T11:41:04.093Z,,,,,,,,,,,,,,,,,,,,,,,,,,,,,,10002.633999999998,,timeout,,,,,,,,,,,,,,,,41025.10000000894,41019.405,31016.771,31033.20000000298,31033.441,41036.075,,,
screen,html.Screen,0_2_0_1_0,2021-11-05T11:41:05.349Z,,,,,,,,,,,,,,,,53,,,,,,,,,,,,,,1243.0250000089436,,response,,,99,,,,,,Space,keypress(Space),,,,,When -- ----- -- ------ - ------- --- ----------<br>------------- ------ ------ ---- ---- ------- ----- -- ----<br>-------- ------- -- ---------- --- - --- ----- ----- ----<br>---- --- --- ----- --- ---- ---- ------- ----- ---- -------<br>--- --- -- ----- -- --- ---- -- --- ---- -- ------ ------<br>--- ----- -- ----,42280.5,42279.10000000894,41019.405,41025.60000000894,41036.075,42286.595,,0,When
screen,html.Screen,0_2_0_1_1,2021-11-05T11:41:06.348Z,,,,,,,,,,,,,,,,53,,,,,,,,,,,,,,992.0050000089395,,response,,,99,,,,,,Space,keypress(Space),,,,,---- it ----- -- ------ - ------- --- ----------<br>------------- ------ ------ ---- ---- ------- ----- -- ----<br>-------- ------- -- ---------- --- - --- ----- ----- ----<br>---- --- --- ----- --- ---- ---- ------- ----- ---- -------<br>--- --- -- ----- -- --- ---- -- --- ---- -- ------ ------<br>--- ----- -- ----,43279.60000000894,43278.60000000894,42269.924,42280.90000000596,42286.595,43286.77,,1,it
screen,html.Screen,0_2_0_1_2,2021-11-05T11:41:07.428Z,,,,,,,,,,,,,,,,53,,,,,,,,,,,,,,1071.830000008944,,response,,,99,,,,,,Space,keypress(Space),,,,,---- -- comes -- ------ - ------- --- ----------<br>------------- ------ ------ ---- ---- ------- ----- -- ----<br>-------- ------- -- ---------- --- - --- ----- ----- ----<br>---- --- --- ----- --- ---- ---- ------- ----- ---- -------<br>--- --- -- ----- -- --- ---- -- --- ---- -- ------ ------<br>--- ----- -- ----,44359.5,44358.60000000894,43270.1,43279.80000001192,43286.77,44370.372,,2,comes
screen,html.Screen,0_2_0_1_3,2021-11-05T11:41:08.452Z,,,,,,,,,,,,,,,,53,,,,,,,,,,,,,,1012.127999999997,,response,,,99,,,,,,Space,keypress(Space),,,,,---- -- ----- to ------ - ------- --- ----------<br>------------- ------ ------ ---- ---- ------- ----- -- ----<br>-------- ------- -- ---------- --- - --- ----- ----- ----<br>---- --- --- ----- --- ---- ---- ------- ----- ---- -------<br>--- --- -- ----- -- --- ---- -- --- ---- -- ------ ------<br>--- ----- -- ----,45383.5,45382.5,44353.702,44359.70000000298,44370.372,45387.436,,3,to
screen,html.Screen,0_2_0_1_4,2021-11-05T11:41:09.212Z,,,,,,,,,,,,,,,,53,,,,,,,,,,,,,,755.0639999999985,,response,,,99,,,,,,Space,keypress(Space),,,,,---- -- ----- -- having - ------- --- ----------<br>------------- ------ ------ ---- ---- ------- ----- -- ----<br>-------- ------- -- ---------- --- - --- ----- ----- ----<br>---- --- --- ----- --- ---- ---- ------- ----- ---- -------<br>--- --- -- ----- -- --- ---- -- --- ---- -- ------ ------<br>--- ----- -- ----,46143.70000000298,46142.5,45370.765,45384,45387.436,46154.292,,4,having
screen,html.Screen,0_2_0_1_5,2021-11-05T11:41:09.876Z,,,,,,,,,,,,,,,,53,,,,,,,,,,,,,,652.2079999999987,,response,,,99,,,,,,Space,keypress(Space),,,,,---- -- ----- -- ------ a ------- --- ----------<br>------------- ------ ------ ---- ---- ------- ----- -- ----<br>-------- ------- -- ---------- --- - --- ----- ----- ----<br>---- --- --- ----- --- ---- ---- ------- ----- ---- -------<br>--- --- -- ----- -- --- ---- -- --- ---- -- ------ ------<br>--- ----- -- ----,46807.40000000596,46806.5,46137.621,46144,46154.292,46821.169,,5,a
screen,html.Screen,0_2_0_1_6,2021-11-05T11:41:10.476Z,,,,,,,,,,,,,,,,53,,,,,,,,,,,,,,585.3309999999983,,response,,,99,,,,,,Space,keypress(Space),,,,,---- -- ----- -- ------ - lasting --- ----------<br>------------- ------ ------ ---- ---- ------- ----- -- ----<br>-------- ------- -- ---------- --- - --- ----- ----- ----<br>---- --- --- ----- --- ---- ---- ------- ----- ---- -------<br>--- --- -- ----- -- --- ---- -- --- ---- -- ------ ------<br>--- ----- -- ----,47407.5,47406.5,46804.498,46807.90000000596,46821.169,47421.232,,6,lasting
screen,html.Screen,0_2_0_1_7,2021-11-05T11:41:11.052Z,,,,,,,,,,,,,,,,53,,,,,,,,,,,,,,561.1680000059569,,response,,,99,,,,,,Space,keypress(Space),,,,,---- -- ----- -- ------ - ------- and ----------<br>------------- ------ ------ ---- ---- ------- ----- -- ----<br>-------- ------- -- ---------- --- - --- ----- ----- ----<br>---- --- --- ----- --- ---- ---- ------- ----- ---- -------<br>--- --- -- ----- -- --- ---- -- --- ---- -- ------ ------<br>--- ----- -- ----,47983.40000000596,47982.40000000596,47404.562,47407.80000001192,47421.232,47988.158,,7,and
screen,html.Screen,0_2_0_1_8,2021-11-05T11:41:11.604Z,,,,,,,,,,,,,,,,53,,,,,,,,,,,,,,546.3419999999969,,response,,,99,,,,,,Space,keypress(Space),,,,,---- -- ----- -- ------ - ------- --- fulfilling<br>------------- ------ ------ ---- ---- ------- ----- -- ----<br>-------- ------- -- ---------- --- - --- ----- ----- ----<br>---- --- --- ----- --- ---- ---- ------- ----- ---- -------<br>--- --- -- ----- -- --- ---- -- --- ---- -- ------ ------<br>--- ----- -- ----,48535.5,48534.5,47971.487,47983.80000001192,47988.158,48538.198,,8,fulfilling
screen,html.Screen,0_2_0_1_9,2021-11-05T11:41:12.659Z,,,,,,,,,,,,,,,,53,,,,,,,,,,,,,,1052.2020000059638,,response,,,99,,,,,,Space,keypress(Space),,,,,"---- -- ----- -- ------ - ------- --- ----------<br>relationship, ------ ------ ---- ---- ------- ----- -- ----<br>-------- ------- -- ---------- --- - --- ----- ----- ----<br>---- --- --- ----- --- ---- ---- ------- ----- ---- -------<br>--- --- -- ----- -- --- ---- -- --- ---- -- ------ ------<br>--- ----- -- ----",49591.40000000596,49590.40000000596,48521.528,48535.80000001192,48538.198,49605.23,,9,"relationship,"
screen,html.Screen,0_2_0_1_10,2021-11-05T11:41:13.371Z,,,,,,,,,,,,,,,,53,,,,,,,,,,,,,,697.0700000119177,,response,,,99,,,,,,Space,keypress(Space),,,,,---- -- ----- -- ------ - ------- --- ----------<br>------------- common ------ ---- ---- ------- ----- -- ----<br>-------- ------- -- ---------- --- - --- ----- ----- ----<br>---- --- --- ----- --- ---- ---- ------- ----- ---- -------<br>--- --- -- ----- -- --- ---- -- --- ---- -- ------ ------<br>--- ----- -- ----,50303.30000001192,50302.30000001192,49588.559,49591.60000000894,49605.23,50305.413,,10,common
screen,html.Screen,0_2_0_1_11,2021-11-05T11:41:14.019Z,,,,,,,,,,,,,,,,53,,,,,,,,,,,,,,644.98700000596,,response,,,99,,,,,,Space,keypress(Space),,,,,---- -- ----- -- ------ - ------- --- ----------<br>------------- ------ wisdom ---- ---- ------- ----- -- ----<br>-------- ------- -- ---------- --- - --- ----- ----- ----<br>---- --- --- ----- --- ---- ---- ------- ----- ---- -------<br>--- --- -- ----- -- --- ---- -- --- ---- -- ------ ------<br>--- ----- -- ----,50951.30000001192,50950.40000000596,50288.742,50303.60000000894,50305.413,50955.595,,11,wisdom
screen,html.Screen,0_2_0_1_12,2021-11-05T11:41:14.763Z,,,,,,,,,,,,,,,,53,,,,,,,,,,,,,,738.7050000119198,,response,,,99,,,,,,Space,keypress(Space),,,,,---- -- ----- -- ------ - ------- --- ----------<br>------------- ------ ------ says ---- ------- ----- -- ----<br>-------- ------- -- ---------- --- - --- ----- ----- ----<br>---- --- --- ----- --- ---- ---- ------- ----- ---- -------<br>--- --- -- ----- -- --- ---- -- --- ---- -- ------ ------<br>--- ----- -- ----,51695.10000000894,51694.30000001192,50938.924,50951.5,50955.595,51705.795,,12,says
screen,html.Screen,0_2_0_1_13,2021-11-05T11:41:15.388Z,,,,,,,,,,,,,,,,53,,,,,,,,,,,,,,612.905000002982,,response,,,99,,,,,,Space,keypress(Space),,,,,---- -- ----- -- ------ - ------- --- ----------<br>------------- ------ ------ ---- that ------- ----- -- ----<br>-------- ------- -- ---------- --- - --- ----- ----- ----<br>---- --- --- ----- --- ---- ---- ------- ----- ---- -------<br>--- --- -- ----- -- --- ---- -- --- ---- -- ------ ------<br>--- ----- -- ----,52319.5,52318.70000000298,51689.124,51695.40000000596,51705.795,52322.543,,13,that
screen,html.Screen,0_2_0_1_14,2021-11-05T11:41:16.051Z,,,,,,,,,,,,,,,,53,,,,,,,,,,,,,,659.6570000029824,,response,,,99,,,,,,Space,keypress(Space),,,,,---- -- ----- -- ------ - ------- --- ----------<br>------------- ------ ------ ---- ---- feeling ----- -- ----<br>-------- ------- -- ---------- --- - --- ----- ----- ----<br>---- --- --- ----- --- ---- ---- ------- ----- ---- -------<br>--- --- -- ----- -- --- ---- -- --- ---- -- ------ ------<br>--- ----- -- ----,52983,52982.20000000298,52305.873,52319.80000001192,52322.543,52989.495,,14,feeling
screen,html.Screen,0_2_0_1_15,2021-11-05T11:41:16.835Z,,,,,,,,,,,,,,,,53,,,,,,,,,,,,,,776.7050000029776,,response,,,99,,,,,,Space,keypress(Space),,,,,---- -- ----- -- ------ - ------- --- ----------<br>------------- ------ ------ ---- ---- ------- close -- ----<br>-------- ------- -- ---------- --- - --- ----- ----- ----<br>---- --- --- ----- --- ---- ---- ------- ----- ---- -------<br>--- --- -- ----- -- --- ---- -- --- ---- -- ------ ------<br>--- ----- -- ----,53767.10000000894,53766.20000000298,52972.824,52983.30000001192,52989.495,53772.901,,15,close
screen,html.Screen,0_2_0_1_16,2021-11-05T11:41:17.315Z,,,,,,,,,,,,,,,,53,,,,,,,,,,,,,,473.2990000029822,,response,,,99,,,,,,Space,keypress(Space),,,,,---- -- ----- -- ------ - ------- --- ----------<br>------------- ------ ------ ---- ---- ------- ----- to ----<br>-------- ------- -- ---------- --- - --- ----- ----- ----<br>---- --- --- ----- --- ---- ---- ------- ----- ---- -------<br>--- --- -- ----- -- --- ---- -- --- ---- -- ------ ------<br>--- ----- -- ----,54247,54246.20000000298,53756.231,53767.30000001192,53772.901,54256.521,,16,to
screen,html.Screen,0_2_0_1_17,2021-11-05T11:41:17.731Z,,,,,,,,,,,,,,,,53,,,,,,,,,,,,,,405.6790000029796,,response,,,99,,,,,,Space,keypress(Space),,,,,---- -- ----- -- ------ - ------- --- ----------<br>------------- ------ ------ ---- ---- ------- ----- -- your<br>-------- ------- -- ---------- --- - --- ----- ----- ----<br>---- --- --- ----- --- ---- ---- ------- ----- ---- -------<br>--- --- -- ----- -- --- ---- -- --- ---- -- ------ ------<br>--- ----- -- ----,54663,54662.20000000298,54239.85,54247.30000001192,54256.521,54673.222,,17,your
screen,html.Screen,0_2_0_1_18,2021-11-05T11:41:18.395Z,,,,,,,,,,,,,,,,53,,,,,,,,,,,,,,652.7779999999984,,response,,,99,,,,,,Space,keypress(Space),,,,,---- -- ----- -- ------ - ------- --- ----------<br>------------- ------ ------ ---- ---- ------- ----- -- ----<br>romantic ------- -- ---------- --- - --- ----- ----- ----<br>---- --- --- ----- --- ---- ---- ------- ----- ---- -------<br>--- --- -- ----- -- --- ---- -- --- ---- -- ------ ------<br>--- ----- -- ----,55326.90000000596,55326,54656.552,54663.20000000298,54673.222,55340.017,,18,romantic
screen,html.Screen,0_2_0_1_19,2021-11-05T11:41:19.059Z,,,,,,,,,,,,,,,,53,,,,,,,,,,,,,,650.1830000029804,,response,,,99,,,,,,Space,keypress(Space),,,,,---- -- ----- -- ------ - ------- --- ----------<br>------------- ------ ------ ---- ---- ------- ----- -- ----<br>-------- partner -- ---------- --- - --- ----- ----- ----<br>---- --- --- ----- --- ---- ---- ------- ----- ---- -------<br>--- --- -- ----- -- --- ---- -- --- ---- -- ------ ------<br>--- ----- -- ----,55991,55990.20000000298,55323.347,55327.10000000894,55340.017,56007.037,,19,partner
screen,html.Screen,0_2_0_1_20,2021-11-05T11:41:19.539Z,,,,,,,,,,,,,,,,53,,,,,,,,,,,,,,463.0630000089441,,response,,,99,,,,,,Space,keypress(Space),,,,,---- -- ----- -- ------ - ------- --- ----------<br>------------- ------ ------ ---- ---- ------- ----- -- ----<br>-------- ------- is ---------- --- - --- ----- ----- ----<br>---- --- --- ----- --- ---- ---- ------- ----- ---- -------<br>--- --- -- ----- -- --- ---- -- --- ---- -- ------ ------<br>--- ----- -- ----,56470.90000000596,56470.10000000894,55990.365,55991.20000000298,56007.037,56473.743,,20,is
screen,html.Screen,0_2_0_1_21,2021-11-05T11:41:20.563Z,,,,,,,,,,,,,,,,53,,,,,,,,,,,,,,1020.2569999999978,,response,,,99,,,,,,Space,keypress(Space),,,,,---- -- ----- -- ------ - ------- --- ----------<br>------------- ------ ------ ---- ---- ------- ----- -- ----<br>-------- ------- -- paramount. --- - --- ----- ----- ----<br>---- --- --- ----- --- ---- ---- ------- ----- ---- -------<br>--- --- -- ----- -- --- ---- -- --- ---- -- ------ ------<br>--- ----- -- ----,57494.80000001192,57494,56457.072,56471.20000000298,56473.743,57507.276,,21,paramount.
screen,html.Screen,0_2_0_1_22,2021-11-05T11:41:21.147Z,,,,,,,,,,,,,,,,53,,,,,,,,,,,,,,570.724000000002,,response,,,99,,,,,,Space,keypress(Space),,,,,---- -- ----- -- ------ - ------- --- ----------<br>------------- ------ ------ ---- ---- ------- ----- -- ----<br>-------- ------- -- ---------- But - --- ----- ----- ----<br>---- --- --- ----- --- ---- ---- ------- ----- ---- -------<br>--- --- -- ----- -- --- ---- -- --- ---- -- ------ ------<br>--- ----- -- ----,58078.90000000596,58078,57490.606,57495.30000001192,57507.276,58090.72,,22,But
screen,html.Screen,0_2_0_1_23,2021-11-05T11:41:21.611Z,,,,,,,,,,,,,,,,53,,,,,,,,,,,,,,451.27999999999884,,response,,,99,,,,,,Space,keypress(Space),,,,,---- -- ----- -- ------ - ------- --- ----------<br>------------- ------ ------ ---- ---- ------- ----- -- ----<br>-------- ------- -- ---------- --- a --- ----- ----- ----<br>---- --- --- ----- --- ---- ---- ------- ----- ---- -------<br>--- --- -- ----- -- --- ---- -- --- ---- -- ------ ------<br>--- ----- -- ----,58542.80000001192,58542,58074.05,58079.10000000894,58090.72,58557.631,,23,a
screen,html.Screen,0_2_0_1_24,2021-11-05T11:41:22.019Z,,,,,,,,,,,,,,,,53,,,,,,,,,,,,,,392.3689999999988,,response,,,99,,,,,,Space,keypress(Space),,,,,---- -- ----- -- ------ - ------- --- ----------<br>------------- ------ ------ ---- ---- ------- ----- -- ----<br>-------- ------- -- ---------- --- - new ----- ----- ----<br>---- --- --- ----- --- ---- ---- ------- ----- ---- -------<br>--- --- -- ----- -- --- ---- -- --- ---- -- ------ ------<br>--- ----- -- ----,58950.80000001192,58950,58540.96,58543,58557.631,58957.751,,24,new
screen,html.Screen,0_2_0_1_25,2021-11-05T11:41:22.467Z,,,,,,,,,,,,,,,,53,,,,,,,,,,,,,,440.24900000000343,,response,,,99,,,,,,Space,keypress(Space),,,,,---- -- ----- -- ------ - ------- --- ----------<br>------------- ------ ------ ---- ---- ------- ----- -- ----<br>-------- ------- -- ---------- --- - --- study ----- ----<br>---- --- --- ----- --- ---- ---- ------- ----- ---- -------<br>--- --- -- ----- -- --- ---- -- --- ---- -- ------ ------<br>--- ----- -- ----,59398.80000001192,59398,58941.08,58951,58957.751,59407.87,,25,study
screen,html.Screen,0_2_0_1_26,2021-11-05T11:41:22.891Z,,,,,,,,,,,,,,,,53,,,,,,,,,,,,,,414.1299999999974,,response,,,99,,,,,,Space,keypress(Space),,,,,---- -- ----- -- ------ - ------- --- ----------<br>------------- ------ ------ ---- ---- ------- ----- -- ----<br>-------- ------- -- ---------- --- - --- ----- finds ----<br>---- --- --- ----- --- ---- ---- ------- ----- ---- -------<br>--- --- -- ----- -- --- ---- -- --- ---- -- ------ ------<br>--- ----- -- ----,59822.70000000298,59822,59391.199,59399,59407.87,59824.514,,26,finds
screen,html.Screen,0_2_0_1_27,2021-11-05T11:41:23.309Z,,,,,,,,,,,,,,,,53,,,,,,,,,,,,,,413.3860000059576,,response,,,99,,,,,,Space,keypress(Space),,,,,---- -- ----- -- ------ - ------- --- ----------<br>------------- ------ ------ ---- ---- ------- ----- -- ----<br>-------- ------- -- ---------- --- - --- ----- ----- that<br>---- --- --- ----- --- ---- ---- ------- ----- ---- -------<br>--- --- -- ----- -- --- ---- -- --- ---- -- ------ ------<br>--- ----- -- ----,60238.80000001192,60237.90000000596,59807.845,59823,59824.514,60241.502,,27,that
screen,html.Screen,0_2_0_1_28,2021-11-05T11:41:23.845Z,,,,,,,,,,,,,,,,53,,,,,,,,,,,,,,532.2980000119205,,response,,,99,,,,,,Space,keypress(Space),,,,,---- -- ----- -- ------ - ------- --- ----------<br>------------- ------ ------ ---- ---- ------- ----- -- ----<br>-------- ------- -- ---------- --- - --- ----- ----- ----<br>it's --- --- ----- --- ---- ---- ------- ----- ---- -------<br>--- --- -- ----- -- --- ---- -- --- ---- -- ------ ------<br>--- ----- -- ----,60774.60000000894,60773.80000001192,60224.83,60238.90000000596,60241.502,60791.595,,28,it's
screen,html.Screen,0_2_0_1_29,2021-11-05T11:41:24.301Z,,,,,,,,,,,,,,,,53,,,,,,,,,,,,,,438.20500001191976,,response,,,99,,,,,,Space,keypress(Space),,,,,---- -- ----- -- ------ - ------- --- ----------<br>------------- ------ ------ ---- ---- ------- ----- -- ----<br>-------- ------- -- ---------- --- - --- ----- ----- ----<br>---- not --- ----- --- ---- ---- ------- ----- ---- -------<br>--- --- -- ----- -- --- ---- -- --- ---- -- ------ ------<br>--- ----- -- ----,61230.70000000298,61229.80000001192,60774.924,60774.80000001192,60791.595,61241.647,,29,not
screen,html.Screen,0_2_0_1_30,2021-11-05T11:41:24.733Z,,,,,,,,,,,,,,,,53,,,,,,,,,,,,,,420.1530000119237,,response,,,99,,,,,,Space,keypress(Space),,,,,---- -- ----- -- ------ - ------- --- ----------<br>------------- ------ ------ ---- ---- ------- ----- -- ----<br>-------- ------- -- ---------- --- - --- ----- ----- ----<br>---- --- how ----- --- ---- ---- ------- ----- ---- -------<br>--- --- -- ----- -- --- ---- -- --- ---- -- ------ ------<br>--- ----- -- ----,61662.60000000894,61661.80000001192,61224.977,61230.90000000596,61241.647,61675.142,,30,how
screen,html.Screen,0_2_0_1_31,2021-11-05T11:41:25.157Z,,,,,,,,,,,,,,,,53,,,,,,,,,,,,,,410.6580000119211,,response,,,99,,,,,,Space,keypress(Space),,,,,---- -- ----- -- ------ - ------- --- ----------<br>------------- ------ ------ ---- ---- ------- ----- -- ----<br>-------- ------- -- ---------- --- - --- ----- ----- ----<br>---- --- --- close --- ---- ---- ------- ----- ---- -------<br>--- --- -- ----- -- --- ---- -- --- ---- -- ------ ------<br>--- ----- -- ----,62086.60000000894,62085.80000001192,61658.471,61662.90000000596,61675.142,62091.923,,31,close
screen,html.Screen,0_2_0_1_32,2021-11-05T11:41:25.558Z,,,,,,,,,,,,,,,,53,,,,,,,,,,,,,,394.27700000297773,,response,,,99,,,,,,Space,keypress(Space),,,,,---- -- ----- -- ------ - ------- --- ----------<br>------------- ------ ------ ---- ---- ------- ----- -- ----<br>-------- ------- -- ---------- --- - --- ----- ----- ----<br>---- --- --- ----- you ---- ---- ------- ----- ---- -------<br>--- --- -- ----- -- --- ---- -- --- ---- -- ------ ------<br>--- ----- -- ----,62486.90000000596,62486.20000000298,62075.252,62086.80000001192,62091.923,62492.033,,32,you
screen,html.Screen,0_2_0_1_33,2021-11-05T11:41:25.965Z,,,,,,,,,,,,,,,,53,,,,,,,,,,,,,,401.66700000297715,,response,,,99,,,,,,Space,keypress(Space),,,,,---- -- ----- -- ------ - ------- --- ----------<br>------------- ------ ------ ---- ---- ------- ----- -- ----<br>-------- ------- -- ---------- --- - --- ----- ----- ----<br>---- --- --- ----- --- feel ---- ------- ----- ---- -------<br>--- --- -- ----- -- --- ---- -- --- ---- -- ------ ------<br>--- ----- -- ----,62894.70000000298,62893.70000000298,62475.362,62487.20000000298,62492.033,62908.762,,33,feel
screen,html.Screen,0_2_0_1_34,2021-11-05T11:41:26.325Z,,,,,,,,,,,,,,,,53,,,,,,,,,,,,,,344.83800000893825,,response,,,99,,,,,,Space,keypress(Space),,,,,---- -- ----- -- ------ - ------- --- ----------<br>------------- ------ ------ ---- ---- ------- ----- -- ----<br>-------- ------- -- ---------- --- - --- ----- ----- ----<br>---- --- --- ----- --- ---- that ------- ----- ---- -------<br>--- --- -- ----- -- --- ---- -- --- ---- -- ------ ------<br>--- ----- -- ----,63254.5,63253.60000000894,62892.092,62894.90000000596,62908.762,63258.897,,34,that
screen,html.Screen,0_2_0_1_35,2021-11-05T11:41:26.709Z,,,,,,,,,,,,,,,,53,,,,,,,,,,,,,,378.803000002983,,response,,,99,,,,,,Space,keypress(Space),,,,,---- -- ----- -- ------ - ------- --- ----------<br>------------- ------ ------ ---- ---- ------- ----- -- ----<br>-------- ------- -- ---------- --- - --- ----- ----- ----<br>---- --- --- ----- --- ---- ---- matters ----- ---- -------<br>--- --- -- ----- -- --- ---- -- --- ---- -- ------ ------<br>--- ----- -- ----,63638.5,63637.70000000298,63242.226,63254.70000000298,63258.897,63642.345,,35,matters
screen,html.Screen,0_2_0_1_36,2021-11-05T11:41:27.125Z,,,,,,,,,,,,,,,,53,,,,,,,,,,,,,,411.35500000297907,,response,,,99,,,,,,Space,keypress(Space),,,,,"---- -- ----- -- ------ - ------- --- ----------<br>------------- ------ ------ ---- ---- ------- ----- -- ----<br>-------- ------- -- ---------- --- - --- ----- ----- ----<br>---- --- --- ----- --- ---- ---- ------- most, ---- -------<br>--- --- -- ----- -- --- ---- -- --- ---- -- ------ ------<br>--- ----- -- ----",64054.5,64053.70000000298,63625.674,63638.70000000298,63642.345,64059.06,,36,"most,"
screen,html.Screen,0_2_0_1_37,2021-11-05T11:41:27.589Z,,,,,,,,,,,,,,,,53,,,,,,,,,,,,,,458.74000001192326,,response,,,99,,,,,,Space,keypress(Space),,,,,---- -- ----- -- ------ - ------- --- ----------<br>------------- ------ ------ ---- ---- ------- ----- -- ----<br>-------- ------- -- ---------- --- - --- ----- ----- ----<br>---- --- --- ----- --- ---- ---- ------- ----- it's -------<br>--- --- -- ----- -- --- ---- -- --- ---- -- ------ ------<br>--- ----- -- ----,64518.5,64517.80000001192,64042.39,64054.80000001192,64059.06,64525.916,,37,it's
screen,html.Screen,0_2_0_1_38,2021-11-05T11:41:28.205Z,,,,,,,,,,,,,,,,53,,,,,,,,,,,,,,607.7840000029828,,response,,,99,,,,,,Space,keypress(Space),,,,,---- -- ----- -- ------ - ------- --- ----------<br>------------- ------ ------ ---- ---- ------- ----- -- ----<br>-------- ------- -- ---------- --- - --- ----- ----- ----<br>---- --- --- ----- --- ---- ---- ------- ----- ---- whether<br>--- --- -- ----- -- --- ---- -- --- ---- -- ------ ------<br>--- ----- -- ----,65134.40000000596,65133.70000000298,64509.245,64518.80000001192,64525.916,65142.69,,38,whether
screen,html.Screen,0_2_0_1_39,2021-11-05T11:41:28.717Z,,,,,,,,,,,,,,,,53,,,,,,,,,,,,,,503.0100000029779,,response,,,99,,,,,,Space,keypress(Space),,,,,---- -- ----- -- ------ - ------- --- ----------<br>------------- ------ ------ ---- ---- ------- ----- -- ----<br>-------- ------- -- ---------- --- - --- ----- ----- ----<br>---- --- --- ----- --- ---- ---- ------- ----- ---- -------<br>you --- -- ----- -- --- ---- -- --- ---- -- ------ ------<br>--- ----- -- ----,65646.40000000596,65645.70000000298,65126.02,65134.70000000298,65142.69,65659.365,,39,you
screen,html.Screen,0_2_0_1_40,2021-11-05T11:41:29.285Z,,,,,,,,,,,,,,,,53,,,,,,,,,,,,,,554.335000002975,,response,,,99,,,,,,Space,keypress(Space),,,,,---- -- ----- -- ------ - ------- --- ----------<br>------------- ------ ------ ---- ---- ------- ----- -- ----<br>-------- ------- -- ---------- --- - --- ----- ----- ----<br>---- --- --- ----- --- ---- ---- ------- ----- ---- -------<br>--- are -- ----- -- --- ---- -- --- ---- -- ------ ------<br>--- ----- -- ----,66214.5,66213.70000000298,65642.696,65646.80000001192,65659.365,66226.45,,40,are
screen,html.Screen,0_2_0_1_41,2021-11-05T11:41:29.653Z,,,,,,,,,,,,,,,,53,,,,,,,,,,,,,,355.1500000089436,,response,,,99,,,,,,Space,keypress(Space),,,,,---- -- ----- -- ------ - ------- --- ----------<br>------------- ------ ------ ---- ---- ------- ----- -- ----<br>-------- ------- -- ---------- --- - --- ----- ----- ----<br>---- --- --- ----- --- ---- ---- ------- ----- ---- -------<br>--- --- as ----- -- --- ---- -- --- ---- -- ------ ------<br>--- ----- -- ----,66582.5,66581.60000000894,66209.778,66214.70000000298,66226.45,66592.983,,41,as
screen,html.Screen,0_2_0_1_42,2021-11-05T11:41:30.061Z,,,,,,,,,,,,,,,,53,,,,,,,,,,,,,,396.6170000089478,,response,,,99,,,,,,Space,keypress(Space),,,,,---- -- ----- -- ------ - ------- --- ----------<br>------------- ------ ------ ---- ---- ------- ----- -- ----<br>-------- ------- -- ---------- --- - --- ----- ----- ----<br>---- --- --- ----- --- ---- ---- ------- ----- ---- -------<br>--- --- -- close -- --- ---- -- --- ---- -- ------ ------<br>--- ----- -- ----,66990.40000000596,66989.60000000894,66576.314,66582.70000000298,66592.983,66993.303,,42,close
screen,html.Screen,0_2_0_1_43,2021-11-05T11:41:30.437Z,,,,,,,,,,,,,,,,53,,,,,,,,,,,,,,372.2970000089408,,response,,,99,,,,,,Space,keypress(Space),,,,,---- -- ----- -- ------ - ------- --- ----------<br>------------- ------ ------ ---- ---- ------- ----- -- ----<br>-------- ------- -- ---------- --- - --- ----- ----- ----<br>---- --- --- ----- --- ---- ---- ------- ----- ---- -------<br>--- --- -- ----- as --- ---- -- --- ---- -- ------ ------<br>--- ----- -- ----,67366.40000000596,67365.60000000894,66976.631,66990.60000000894,66993.303,67376.637,,43,as
screen,html.Screen,0_2_0_1_44,2021-11-05T11:41:30.797Z,,,,,,,,,,,,,,,,53,,,,,,,,,,,,,,348.96300000893825,,response,,,99,,,,,,Space,keypress(Space),,,,,---- -- ----- -- ------ - ------- --- ----------<br>------------- ------ ------ ---- ---- ------- ----- -- ----<br>-------- ------- -- ---------- --- - --- ----- ----- ----<br>---- --- --- ----- --- ---- ---- ------- ----- ---- -------<br>--- --- -- ----- -- you ---- -- --- ---- -- ------ ------<br>--- ----- -- ----,67726.40000000596,67725.60000000894,67359.967,67366.70000000298,67376.637,67743.451,,44,you
screen,html.Screen,0_2_0_1_45,2021-11-05T11:41:31.133Z,,,,,,,,,,,,,,,,53,,,,,,,,,,,,,,318.14900000893977,,response,,,99,,,,,,Space,keypress(Space),,,,,---- -- ----- -- ------ - ------- --- ----------<br>------------- ------ ------ ---- ---- ------- ----- -- ----<br>-------- ------- -- ---------- --- - --- ----- ----- ----<br>---- --- --- ----- --- ---- ---- ------- ----- ---- -------<br>--- --- -- ----- -- --- want -- --- ---- -- ------ ------<br>--- ----- -- ----,68062.30000001192,68061.60000000894,67726.78,67726.60000000894,67743.451,68076.825,,45,want
screen,html.Screen,0_2_0_1_46,2021-11-05T11:41:31.445Z,,,,,,,,,,,,,,,,53,,,,,,,,,,,,,,296.7750000089436,,response,,,99,,,,,,Space,keypress(Space),,,,,---- -- ----- -- ------ - ------- --- ----------<br>------------- ------ ------ ---- ---- ------- ----- -- ----<br>-------- ------- -- ---------- --- - --- ----- ----- ----<br>---- --- --- ----- --- ---- ---- ------- ----- ---- -------<br>--- --- -- ----- -- --- ---- to --- ---- -- ------ ------<br>--- ----- -- ----,68374.40000000596,68373.60000000894,68060.155,68062.60000000894,68076.825,68376.953,,46,to
screen,html.Screen,0_2_0_1_47,2021-11-05T11:41:31.773Z,,,,,,,,,,,,,,,,53,,,,,,,,,,,,,,324.64700000894663,,response,,,99,,,,,,Space,keypress(Space),,,,,"---- -- ----- -- ------ - ------- --- ----------<br>------------- ------ ------ ---- ---- ------- ----- -- ----<br>-------- ------- -- ---------- --- - --- ----- ----- ----<br>---- --- --- ----- --- ---- ---- ------- ----- ---- -------<br>--- --- -- ----- -- --- ---- -- be, ---- -- ------ ------<br>--- ----- -- ----",68702.40000000596,68701.60000000894,68360.282,68374.60000000894,68376.953,68710.37,,47,"be,"
screen,html.Screen,0_2_0_1_48,2021-11-05T11:41:32.205Z,,,,,,,,,,,,,,,,53,,,,,,,,,,,,,,423.23000000894535,,response,,,99,,,,,,Space,keypress(Space),,,,,---- -- ----- -- ------ - ------- --- ----------<br>------------- ------ ------ ---- ---- ------- ----- -- ----<br>-------- ------- -- ---------- --- - --- ----- ----- ----<br>---- --- --- ----- --- ---- ---- ------- ----- ---- -------<br>--- --- -- ----- -- --- ---- -- --- even -- ------ ------<br>--- ----- -- ----,69134.30000001192,69133.60000000894,68693.699,68702.60000000894,68710.37,69143.756,,48,even
screen,html.Screen,0_2_0_1_49,2021-11-05T11:41:32.597Z,,,,,,,,,,,,,,,,53,,,,,,,,,,,,,,381.74400000000605,,response,,,99,,,,,,Space,keypress(Space),,,,,---- -- ----- -- ------ - ------- --- ----------<br>------------- ------ ------ ---- ---- ------- ----- -- ----<br>-------- ------- -- ---------- --- - --- ----- ----- ----<br>---- --- --- ----- --- ---- ---- ------- ----- ---- -------<br>--- --- -- ----- -- --- ---- -- --- ---- if ------ ------<br>--- ----- -- ----,69526.40000000596,69525.5,69127.086,69134.60000000894,69143.756,69527.264,,49,if
screen,html.Screen,0_2_0_1_50,2021-11-05T11:41:32.965Z,,,,,,,,,,,,,,,,53,,,,,,,,,,,,,,366.2360000000044,,response,,,99,,,,,,Space,keypress(Space),,,,,---- -- ----- -- ------ - ------- --- ----------<br>------------- ------ ------ ---- ---- ------- ----- -- ----<br>-------- ------- -- ---------- --- - --- ----- ----- ----<br>---- --- --- ----- --- ---- ---- ------- ----- ---- -------<br>--- --- -- ----- -- --- ---- -- --- ---- -- that's ------<br>--- ----- -- ----,69894.60000000894,69893.5,69510.593,69526.60000000894,69527.264,69910.686,,50,that's
screen,html.Screen,0_2_0_1_51,2021-11-05T11:41:33.325Z,,,,,,,,,,,,,,,,53,,,,,,,,,,,,,,342.8139999999985,,response,,,99,,,,,,Space,keypress(Space),,,,,---- -- ----- -- ------ - ------- --- ----------<br>------------- ------ ------ ---- ---- ------- ----- -- ----<br>-------- ------- -- ---------- --- - --- ----- ----- ----<br>---- --- --- ----- --- ---- ---- ------- ----- ---- -------<br>--- --- -- ----- -- --- ---- -- --- ---- -- ------ really<br>--- ----- -- ----,70254.30000001192,70253.5,69894.015,69894.80000001192,69910.686,70260.791,,51,really
screen,html.Screen,0_2_0_1_52,2021-11-05T11:41:33.749Z,,,,,,,,,,,,,,,,53,,,,,,,,,,,,,,416.70900000000256,,response,,,99,,,,,,Space,keypress(Space),,,,,---- -- ----- -- ------ - ------- --- ----------<br>------------- ------ ------ ---- ---- ------- ----- -- ----<br>-------- ------- -- ---------- --- - --- ----- ----- ----<br>---- --- --- ----- --- ---- ---- ------- ----- ---- -------<br>--- --- -- ----- -- --- ---- -- --- ---- -- ------ ------<br>not ----- -- ----,70678.30000001192,70677.5,70244.12,70254.5,70260.791,70694.196,,52,not
screen,html.Screen,0_2_0_1_53,2021-11-05T11:41:34.133Z,,,,,,,,,,,,,,,,53,,,,,,,,,,,,,,367.2040000059642,,response,,,99,,,,,,Space,keypress(Space),,,,,---- -- ----- -- ------ - ------- --- ----------<br>------------- ------ ------ ---- ---- ------- ----- -- ----<br>-------- ------- -- ---------- --- - --- ----- ----- ----<br>---- --- --- ----- --- ---- ---- ------- ----- ---- -------<br>--- --- -- ----- -- --- ---- -- --- ---- -- ------ ------<br>--- close -- ----,71062.20000000298,71061.40000000596,70677.526,70678.5,70694.196,71077.704,,53,close
screen,html.Screen,0_2_0_1_54,2021-11-05T11:41:34.501Z,,,,,,,,,,,,,,,,53,,,,,,,,,,,,,,351.7960000000021,,response,,,99,,,,,,Space,keypress(Space),,,,,---- -- ----- -- ------ - ------- --- ----------<br>------------- ------ ------ ---- ---- ------- ----- -- ----<br>-------- ------- -- ---------- --- - --- ----- ----- ----<br>---- --- --- ----- --- ---- ---- ------- ----- ---- -------<br>--- --- -- ----- -- --- ---- -- --- ---- -- ------ ------<br>--- ----- at ----,71430.20000000298,71429.5,71061.033,71062.40000000596,71077.704,71444.403,,54,at
screen,html.Screen,0_2_0_1_55,2021-11-05T11:41:34.845Z,,,,,,,,,,,,,,,,53,,,,,,,,,,,,,,328.99700000595476,,response,,,99,,,,,,Space,keypress(Space),,,,,---- -- ----- -- ------ - ------- --- ----------<br>------------- ------ ------ ---- ---- ------- ----- -- ----<br>-------- ------- -- ---------- --- - --- ----- ----- ----<br>---- --- --- ----- --- ---- ---- ------- ----- ---- -------<br>--- --- -- ----- -- --- ---- -- --- ---- -- ------ ------<br>--- ----- -- all.,71774.20000000298,71773.40000000596,71427.733,71430.5,71444.403,71794.496,,55,all.
Item 99,flow.Loop,0_2_0_1,2021-11-05T11:41:34.849Z,,,,,,,,,,,,,,,,,,,,,,,,,,,,,,30737.325000005963,,completion,,,,D,,,,,,,,,,silence,,71778.60000000894,71773.40000000596,41019.405,41025.40000000596,41036.075,71794.496,,,
Question 1,html.Screen,0_2_0_2,2021-11-05T11:41:41.749Z,,,,,,,,,,,,,,,,,,,,,,,,,,,true,FALSE,,6882.304000011922,,response,,,99,D,,,,,FALSE,click #choice-2,,,,silence,,78678.30000001192,78676.80000001192,71777.826,71778.80000001192,71794.496,78679.705,,,
Question 2,html.Screen,0_2_0_3,2021-11-05T11:41:41.885Z,,,,,,,,,,,,,,,,,,,,,,,,,,,false,TRUE,,132.9950000029785,,response,,,99,D,,,,,FALSE,click #choice-2,,,,silence,,78814.10000000894,78812.70000000298,78663.034,78678.60000000894,78679.705,78829.627,,,
Item 99,flow.Sequence,0_2_0,2021-11-05T11:41:41.885Z,,,,,,,,,,,,,,,,,,,,,,,,,,,,,,47779.25900000298,,completion,,,,,,,,,,,,,,,,78814.60000000894,78812.70000000298,31016.771,31033.20000000298,31033.441,78829.627,,,
Holding screen,html.Screen,0_2_1_0,2021-11-05T11:41:51.887Z,,,,,,,,,,,,,,,,,,,,,,,,,,,,,,10002.616000000009,,timeout,,,,,,,,,,,,,,,,88816.80000001192,88815.573,78812.959,78815.10000000894,78829.627,88832.243,,,
screen,html.Screen,0_2_1_1_0,2021-11-05T11:41:52.765Z,,,,,,,,,,,,,,,,54,,,,,,,,,,,,,,860.8570000089385,,response,,,100,,,,,,Space,keypress(Space),,,,,At --- ---- --- ------ ----- ------- ---- -- --- ------- --<br>------- ---------- ------ -- ----- -- ----- -- ---- ------<br>--- ----- --- --- ------ -------- ----- --- ------ ----- --<br>----- ----- ---------- --- --- ------ ------ ---- -- ------<br>------- --- ------ ----- --- ---- ------- -- ---- --- --<br>------- ------,89693.90000000596,89693.10000000894,88815.573,88817.30000001192,88832.243,89699.439,,0,At
screen,html.Screen,0_2_1_1_1,2021-11-05T11:41:53.124Z,,,,,,,,,,,,,,,,54,,,,,,,,,,,,,,353.0610000000015,,response,,,100,,,,,,Space,keypress(Space),,,,,-- the ---- --- ------ ----- ------- ---- -- --- ------- --<br>------- ---------- ------ -- ----- -- ----- -- ---- ------<br>--- ----- --- --- ------ -------- ----- --- ------ ----- --<br>----- ----- ---------- --- --- ------ ------ ---- -- ------<br>------- --- ------ ----- --- ---- ------- -- ---- --- --<br>------- ------,90053.30000001192,90052.5,89682.767,89694.10000000894,89699.439,90066.097,,1,the
screen,html.Screen,0_2_1_1_2,2021-11-05T11:41:53.500Z,,,,,,,,,,,,,,,,54,,,,,,,,,,,,,,363.0030000089464,,response,,,100,,,,,,Space,keypress(Space),,,,,-- --- time --- ------ ----- ------- ---- -- --- ------- --<br>------- ---------- ------ -- ----- -- ----- -- ---- ------<br>--- ----- --- --- ------ -------- ----- --- ------ ----- --<br>----- ----- ---------- --- --- ------ ------ ---- -- ------<br>------- --- ------ ----- --- ---- ------- -- ---- --- --<br>------- ------,90429.90000000596,90429.10000000894,90049.426,90053.5,90066.097,90432.885,,2,time
screen,html.Screen,0_2_1_1_3,2021-11-05T11:41:53.965Z,,,,,,,,,,,,,,,,54,,,,,,,,,,,,,,459.71500000894594,,response,,,100,,,,,,Space,keypress(Space),,,,,-- --- ---- the ------ ----- ------- ---- -- --- ------- --<br>------- ---------- ------ -- ----- -- ----- -- ---- ------<br>--- ----- --- --- ------ -------- ----- --- ------ ----- --<br>----- ----- ---------- --- --- ------ ------ ---- -- ------<br>------- --- ------ ----- --- ---- ------- -- ---- --- --<br>------- ------,90894.60000000894,90892.60000000894,90416.214,90430.20000000298,90432.885,90899.634,,3,the
screen,html.Screen,0_2_1_1_4,2021-11-05T11:41:54.484Z,,,,,,,,,,,,,,,,54,,,,,,,,,,,,,,512.9660000089352,,response,,,100,,,,,,Space,keypress(Space),,,,,-- --- ---- --- French ----- ------- ---- -- --- ------- --<br>------- ---------- ------ -- ----- -- ----- -- ---- ------<br>--- ----- --- --- ------ -------- ----- --- ------ ----- --<br>----- ----- ---------- --- --- ------ ------ ---- -- ------<br>------- --- ------ ----- --- ---- ------- -- ---- --- --<br>------- ------,91413.40000000596,91412.60000000894,90882.964,90894.90000000596,90899.634,91416.414,,4,French
screen,html.Screen,0_2_1_1_5,2021-11-05T11:41:54.860Z,,,,,,,,,,,,,,,,54,,,,,,,,,,,,,,372.0859999999957,,response,,,100,,,,,,Space,keypress(Space),,,,,-- --- ---- --- ------ crown ------- ---- -- --- ------- --<br>------- ---------- ------ -- ----- -- ----- -- ---- ------<br>--- ----- --- --- ------ -------- ----- --- ------ ----- --<br>----- ----- ---------- --- --- ------ ------ ---- -- ------<br>------- --- ------ ----- --- ---- ------- -- ---- --- --<br>------- ------,91789.30000001192,91788.5,91399.744,91413.60000000894,91416.414,91799.935,,5,crown
screen,html.Screen,0_2_1_1_6,2021-11-05T11:41:55.268Z,,,,,,,,,,,,,,,,54,,,,,,,,,,,,,,396.665000008943,,response,,,100,,,,,,Space,keypress(Space),,,,,-- --- ---- --- ------ ----- secured ---- -- --- ------- --<br>------- ---------- ------ -- ----- -- ----- -- ---- ------<br>--- ----- --- --- ------ -------- ----- --- ------ ----- --<br>----- ----- ---------- --- --- ------ ------ ---- -- ------<br>------- --- ------ ----- --- ---- ------- -- ---- --- --<br>------- ------,92197.30000001192,92196.60000000894,91783.264,91789.5,91799.935,92199.985,,6,secured
screen,html.Screen,0_2_1_1_7,2021-11-05T11:41:55.868Z,,,,,,,,,,,,,,,,54,,,,,,,,,,,,,,596.5149999999994,,response,,,100,,,,,,Space,keypress(Space),,,,,-- --- ---- --- ------ ----- ------- much -- --- ------- --<br>------- ---------- ------ -- ----- -- ----- -- ---- ------<br>--- ----- --- --- ------ -------- ----- --- ------ ----- --<br>----- ----- ---------- --- --- ------ ------ ---- -- ------<br>------- --- ------ ----- --- ---- ------- -- ---- --- --<br>------- ------,92797.30000001192,92796.5,92183.315,92197.60000000894,92199.985,92800.129,,7,much
screen,html.Screen,0_2_1_1_8,2021-11-05T11:41:56.284Z,,,,,,,,,,,,,,,,54,,,,,,,,,,,,,,412.3709999999992,,response,,,100,,,,,,Space,keypress(Space),,,,,-- --- ---- --- ------ ----- ------- ---- of --- ------- --<br>------- ---------- ------ -- ----- -- ----- -- ---- ------<br>--- ----- --- --- ------ -------- ----- --- ------ ----- --<br>----- ----- ---------- --- --- ------ ------ ---- -- ------<br>------- --- ------ ----- --- ---- ------- -- ---- --- --<br>------- ------,93213.30000001192,93212.5,92783.459,92797.60000000894,92800.129,93216.909,,8,of
screen,html.Screen,0_2_1_1_9,2021-11-05T11:41:56.644Z,,,,,,,,,,,,,,,,54,,,,,,,,,,,,,,355.59100000000035,,response,,,100,,,,,,Space,keypress(Space),,,,,-- --- ---- --- ------ ----- ------- ---- -- its ------- --<br>------- ---------- ------ -- ----- -- ----- -- ---- ------<br>--- ----- --- --- ------ -------- ----- --- ------ ----- --<br>----- ----- ---------- --- --- ------ ------ ---- -- ------<br>------- --- ------ ----- --- ---- ------- -- ---- --- --<br>------- ------,93573.30000001192,93572.5,93200.239,93213.5,93216.909,93583.713,,9,its
screen,html.Screen,0_2_1_1_10,2021-11-05T11:41:57.148Z,,,,,,,,,,,,,,,,54,,,,,,,,,,,,,,492.6870000059571,,response,,,100,,,,,,Space,keypress(Space),,,,,-- --- ---- --- ------ ----- ------- ---- -- --- revenue --<br>------- ---------- ------ -- ----- -- ----- -- ---- ------<br>--- ----- --- --- ------ -------- ----- --- ------ ----- --<br>----- ----- ---------- --- --- ------ ------ ---- -- ------<br>------- --- ------ ----- --- ---- ------- -- ---- --- --<br>------- ------,94077.20000000298,94076.40000000596,93567.042,93573.5,93583.713,94083.848,,10,revenue
screen,html.Screen,0_2_1_1_11,2021-11-05T11:41:57.732Z,,,,,,,,,,,,,,,,54,,,,,,,,,,,,,,576.5520000059623,,response,,,100,,,,,,Space,keypress(Space),,,,,-- --- ---- --- ------ ----- ------- ---- -- --- ------- by<br>------- ---------- ------ -- ----- -- ----- -- ---- ------<br>--- ----- --- --- ------ -------- ----- --- ------ ----- --<br>----- ----- ---------- --- --- ------ ------ ---- -- ------<br>------- --- ------ ----- --- ---- ------- -- ---- --- --<br>------- ------,94661.20000000298,94660.40000000596,94067.177,94077.5,94083.848,94667.34,,11,by
screen,html.Screen,0_2_1_1_12,2021-11-05T11:41:58.220Z,,,,,,,,,,,,,,,,54,,,,,,,,,,,,,,481.06000000596396,,response,,,100,,,,,,Space,keypress(Space),,,,,-- --- ---- --- ------ ----- ------- ---- -- --- ------- --<br>issuing ---------- ------ -- ----- -- ----- -- ---- ------<br>--- ----- --- --- ------ -------- ----- --- ------ ----- --<br>----- ----- ---------- --- --- ------ ------ ---- -- ------<br>------- --- ------ ----- --- ---- ------- -- ---- --- --<br>------- ------,95149.20000000298,95148.40000000596,94650.669,94661.40000000596,94667.34,95150.712,,12,issuing
screen,html.Screen,0_2_1_1_13,2021-11-05T11:41:58.932Z,,,,,,,,,,,,,,,,54,,,,,,,,,,,,,,709.5880000119214,,response,,,100,,,,,,Space,keypress(Space),,,,,-- --- ---- --- ------ ----- ------- ---- -- --- ------- --<br>------- government ------ -- ----- -- ----- -- ---- ------<br>--- ----- --- --- ------ -------- ----- --- ------ ----- --<br>----- ----- ---------- --- --- ------ ------ ---- -- ------<br>------- --- ------ ----- --- ---- ------- -- ---- --- --<br>------- ------,95861.10000000894,95860.30000001192,95134.042,95149.40000000596,95150.712,95867.693,,13,government
screen,html.Screen,0_2_1_1_14,2021-11-05T11:41:59.524Z,,,,,,,,,,,,,,,,54,,,,,,,,,,,,,,584.6070000119216,,response,,,100,,,,,,Space,keypress(Space),,,,,-- --- ---- --- ------ ----- ------- ---- -- --- ------- --<br>------- ---------- bonds. -- ----- -- ----- -- ---- ------<br>--- ----- --- --- ------ -------- ----- --- ------ ----- --<br>----- ----- ---------- --- --- ------ ------ ---- -- ------<br>------- --- ------ ----- --- ---- ------- -- ---- --- --<br>------- ------,96453.10000000894,96452.30000001192,95851.022,95861.40000000596,95867.693,96467.634,,14,bonds.
screen,html.Screen,0_2_1_1_15,2021-11-05T11:42:00.020Z,,,,,,,,,,,,,,,,54,,,,,,,,,,,,,,480.766000005955,,response,,,100,,,,,,Space,keypress(Space),,,,,-- --- ---- --- ------ ----- ------- ---- -- --- ------- --<br>------- ---------- ------ In ----- -- ----- -- ---- ------<br>--- ----- --- --- ------ -------- ----- --- ------ ----- --<br>----- ----- ---------- --- --- ------ ------ ---- -- ------<br>------- --- ------ ----- --- ---- ------- -- ---- --- --<br>------- ------,96949.30000001192,96948.40000000596,96450.965,96453.40000000596,96467.634,96951.38,,15,In
screen,html.Screen,0_2_1_1_16,2021-11-05T11:42:00.500Z,,,,,,,,,,,,,,,,54,,,,,,,,,,,,,,476.8200000029756,,response,,,100,,,,,,Space,keypress(Space),,,,,"-- --- ---- --- ------ ----- ------- ---- -- --- ------- --<br>------- ---------- ------ -- 1727, -- ----- -- ---- ------<br>--- ----- --- --- ------ -------- ----- --- ------ ----- --<br>----- ----- ---------- --- --- ------ ------ ---- -- ------<br>------- --- ------ ----- --- ---- ------- -- ---- --- --<br>------- ------",97429,97428.20000000298,96934.708,96949.60000000894,96951.38,97434.7,,16,"1727,"
screen,html.Screen,0_2_1_1_17,2021-11-05T11:42:02.196Z,,,,,,,,,,,,,,,,54,,,,,,,,,,,,,,1689.5000000029831,,response,,,100,,,,,,Space,keypress(Space),,,,,-- --- ---- --- ------ ----- ------- ---- -- --- ------- --<br>------- ---------- ------ -- ----- in ----- -- ---- ------<br>--- ----- --- --- ------ -------- ----- --- ------ ----- --<br>----- ----- ---------- --- --- ------ ------ ---- -- ------<br>------- --- ------ ----- --- ---- ------- -- ---- --- --<br>------- ------,99125,99124.20000000298,97418.03,97429.30000001192,97434.7,99135.212,,17,in
screen,html.Screen,0_2_1_1_18,2021-11-05T11:42:02.836Z,,,,,,,,,,,,,,,,54,,,,,,,,,,,,,,629.4880000029807,,response,,,100,,,,,,Space,keypress(Space),,,,,-- --- ---- --- ------ ----- ------- ---- -- --- ------- --<br>------- ---------- ------ -- ----- -- order -- ---- ------<br>--- ----- --- --- ------ -------- ----- --- ------ ----- --<br>----- ----- ---------- --- --- ------ ------ ---- -- ------<br>------- --- ------ ----- --- ---- ------- -- ---- --- --<br>------- ------,99765.40000000596,99764.70000000298,99118.541,99125.20000000298,99135.212,99768.707,,18,order
screen,html.Screen,0_2_1_1_19,2021-11-05T11:42:03.220Z,,,,,,,,,,,,,,,,54,,,,,,,,,,,,,,379.49300000298535,,response,,,100,,,,,,Space,keypress(Space),,,,,-- --- ---- --- ------ ----- ------- ---- -- --- ------- --<br>------- ---------- ------ -- ----- -- ----- to ---- ------<br>--- ----- --- --- ------ -------- ----- --- ------ ----- --<br>----- ----- ---------- --- --- ------ ------ ---- -- ------<br>------- --- ------ ----- --- ---- ------- -- ---- --- --<br>------- ------,100149,100148.20000000298,99752.036,99765.70000000298,99768.707,100152.147,,19,to
screen,html.Screen,0_2_1_1_20,2021-11-05T11:42:03.619Z,,,,,,,,,,,,,,,,54,,,,,,,,,,,,,,395.9530000089435,,response,,,100,,,,,,Space,keypress(Space),,,,,-- --- ---- --- ------ ----- ------- ---- -- --- ------- --<br>------- ---------- ------ -- ----- -- ----- -- save ------<br>--- ----- --- --- ------ -------- ----- --- ------ ----- --<br>----- ----- ---------- --- --- ------ ------ ---- -- ------<br>------- --- ------ ----- --- ---- ------- -- ---- --- --<br>------- ------,100548.90000000596,100548.10000000894,100135.476,100149.20000000298,100152.147,100552.288,,20,save
screen,html.Screen,0_2_1_1_21,2021-11-05T11:42:04.036Z,,,,,,,,,,,,,,,,54,,,,,,,,,,,,,,411.91200000297977,,response,,,100,,,,,,Space,keypress(Space),,,,,"-- --- ---- --- ------ ----- ------- ---- -- --- ------- --<br>------- ---------- ------ -- ----- -- ----- -- ---- money,<br>--- ----- --- --- ------ -------- ----- --- ------ ----- --<br>----- ----- ---------- --- --- ------ ------ ---- -- ------<br>------- --- ------ ----- --- ---- ------- -- ---- --- --<br>------- ------",100965,100964.20000000298,100535.617,100549.10000000894,100552.288,100968.986,,21,"money,"
screen,html.Screen,0_2_1_1_22,2021-11-05T11:42:04.484Z,,,,,,,,,,,,,,,,54,,,,,,,,,,,,,,443.1140000089363,,response,,,100,,,,,,Space,keypress(Space),,,,,-- --- ---- --- ------ ----- ------- ---- -- --- ------- --<br>------- ---------- ------ -- ----- -- ----- -- ---- ------<br>the ----- --- --- ------ -------- ----- --- ------ ----- --<br>----- ----- ---------- --- --- ------ ------ ---- -- ------<br>------- --- ------ ----- --- ---- ------- -- ---- --- --<br>------- ------,101413,101412.10000000894,100952.316,100965.20000000298,100968.986,101419.152,,22,the
screen,html.Screen,0_2_1_1_23,2021-11-05T11:42:04.899Z,,,,,,,,,,,,,,,,54,,,,,,,,,,,,,,408.94800000893883,,response,,,100,,,,,,Space,keypress(Space),,,,,-- --- ---- --- ------ ----- ------- ---- -- --- ------- --<br>------- ---------- ------ -- ----- -- ----- -- ---- ------<br>--- state --- --- ------ -------- ----- --- ------ ----- --<br>----- ----- ---------- --- --- ------ ------ ---- -- ------<br>------- --- ------ ----- --- ---- ------- -- ---- --- --<br>------- ------,101828.90000000596,101828.10000000894,101402.481,101413.10000000894,101419.152,101835.86,,23,state
screen,html.Screen,0_2_1_1_24,2021-11-05T11:42:05.323Z,,,,,,,,,,,,,,,,54,,,,,,,,,,,,,,416.2400000089401,,response,,,100,,,,,,Space,keypress(Space),,,,,-- --- ---- --- ------ ----- ------- ---- -- --- ------- --<br>------- ---------- ------ -- ----- -- ----- -- ---- ------<br>--- ----- cut --- ------ -------- ----- --- ------ ----- --<br>----- ----- ---------- --- --- ------ ------ ---- -- ------<br>------- --- ------ ----- --- ---- ------- -- ---- --- --<br>------- ------,102252.90000000596,102252.10000000894,101819.19,101829.20000000298,101835.86,102269.4,,24,cut
screen,html.Screen,0_2_1_1_25,2021-11-05T11:42:05.691Z,,,,,,,,,,,,,,,,54,,,,,,,,,,,,,,350.7000000089465,,response,,,100,,,,,,Space,keypress(Space),,,,,-- --- ---- --- ------ ----- ------- ---- -- --- ------- --<br>------- ---------- ------ -- ----- -- ----- -- ---- ------<br>--- ----- --- the ------ -------- ----- --- ------ ----- --<br>----- ----- ---------- --- --- ------ ------ ---- -- ------<br>------- --- ------ ----- --- ---- ------- -- ---- --- --<br>------- ------,102620.90000000596,102620.10000000894,102252.729,102253.10000000894,102269.4,102636.018,,25,the
screen,html.Screen,0_2_1_1_26,2021-11-05T11:42:06.051Z,,,,,,,,,,,,,,,,54,,,,,,,,,,,,,,343.9820000000036,,response,,,100,,,,,,Space,keypress(Space),,,,,-- --- ---- --- ------ ----- ------- ---- -- --- ------- --<br>------- ---------- ------ -- ----- -- ----- -- ---- ------<br>--- ----- --- --- bonds' -------- ----- --- ------ ----- --<br>----- ----- ---------- --- --- ------ ------ ---- -- ------<br>------- --- ------ ----- --- ---- ------- -- ---- --- --<br>------- ------,102980.80000001192,102980,102619.349,102621.10000000894,102636.018,102986.337,,26,bonds'
screen,html.Screen,0_2_1_1_27,2021-11-05T11:42:06.443Z,,,,,,,,,,,,,,,,54,,,,,,,,,,,,,,385.76300000894116,,response,,,100,,,,,,Space,keypress(Space),,,,,-- --- ---- --- ------ ----- ------- ---- -- --- ------- --<br>------- ---------- ------ -- ----- -- ----- -- ---- ------<br>--- ----- --- --- ------ interest ----- --- ------ ----- --<br>----- ----- ---------- --- --- ------ ------ ---- -- ------<br>------- --- ------ ----- --- ---- ------- -- ---- --- --<br>------- ------,103372.90000000596,103372.10000000894,102969.664,102981,102986.337,103386.328,,27,interest
screen,html.Screen,0_2_1_1_28,2021-11-05T11:42:06.819Z,,,,,,,,,,,,,,,,54,,,,,,,,,,,,,,361.67200000000594,,response,,,100,,,,,,Space,keypress(Space),,,,,-- --- ---- --- ------ ----- ------- ---- -- --- ------- --<br>------- ---------- ------ -- ----- -- ----- -- ---- ------<br>--- ----- --- --- ------ -------- rate. --- ------ ----- --<br>----- ----- ---------- --- --- ------ ------ ---- -- ------<br>------- --- ------ ----- --- ---- ------- -- ---- --- --<br>------- ------,103748.70000000298,103748,103369.658,103373.10000000894,103386.328,103753.089,,28,rate.
screen,html.Screen,0_2_1_1_29,2021-11-05T11:42:07.491Z,,,,,,,,,,,,,,,,54,,,,,,,,,,,,,,666.8110000059532,,response,,,100,,,,,,Space,keypress(Space),,,,,-- --- ---- --- ------ ----- ------- ---- -- --- ------- --<br>------- ---------- ------ -- ----- -- ----- -- ---- ------<br>--- ----- --- --- ------ -------- ----- The ------ ----- --<br>----- ----- ---------- --- --- ------ ------ ---- -- ------<br>------- --- ------ ----- --- ---- ------- -- ---- --- --<br>------- ------,104420.80000001192,104419.90000000596,103736.419,103749,103753.089,104436.634,,29,The
screen,html.Screen,0_2_1_1_30,2021-11-05T11:42:07.955Z,,,,,,,,,,,,,,,,54,,,,,,,,,,,,,,447.266000005955,,response,,,100,,,,,,Space,keypress(Space),,,,,-- --- ---- --- ------ ----- ------- ---- -- --- ------- --<br>------- ---------- ------ -- ----- -- ----- -- ---- ------<br>--- ----- --- --- ------ -------- ----- --- market ----- --<br>----- ----- ---------- --- --- ------ ------ ---- -- ------<br>------- --- ------ ----- --- ---- ------- -- ---- --- --<br>------- ------,104884.70000000298,104883.90000000596,104419.963,104421,104436.634,104886.709,,30,market
screen,html.Screen,0_2_1_1_31,2021-11-05T11:42:08.403Z,,,,,,,,,,,,,,,,54,,,,,,,,,,,,,,445.1910000059579,,response,,,100,,,,,,Space,keypress(Space),,,,,-- --- ---- --- ------ ----- ------- ---- -- --- ------- --<br>------- ---------- ------ -- ----- -- ----- -- ---- ------<br>--- ----- --- --- ------ -------- ----- --- ------ value --<br>----- ----- ---------- --- --- ------ ------ ---- -- ------<br>------- --- ------ ----- --- ---- ------- -- ---- --- --<br>------- ------,105332.70000000298,105331.90000000596,104870.039,104885,104886.709,105336.781,,31,value
screen,html.Screen,0_2_1_1_32,2021-11-05T11:42:08.755Z,,,,,,,,,,,,,,,,54,,,,,,,,,,,,,,347.1190000059578,,response,,,100,,,,,,Space,keypress(Space),,,,,-- --- ---- --- ------ ----- ------- ---- -- --- ------- --<br>------- ---------- ------ -- ----- -- ----- -- ---- ------<br>--- ----- --- --- ------ -------- ----- --- ------ ----- of<br>----- ----- ---------- --- --- ------ ------ ---- -- ------<br>------- --- ------ ----- --- ---- ------- -- ---- --- --<br>------- ------,105684.70000000298,105683.90000000596,105320.111,105332.90000000596,105336.781,105687.042,,32,of
screen,html.Screen,0_2_1_1_33,2021-11-05T11:42:09.147Z,,,,,,,,,,,,,,,,54,,,,,,,,,,,,,,388.75800001191965,,response,,,100,,,,,,Space,keypress(Space),,,,,-- --- ---- --- ------ ----- ------- ---- -- --- ------- --<br>------- ---------- ------ -- ----- -- ----- -- ---- ------<br>--- ----- --- --- ------ -------- ----- --- ------ ----- --<br>these ----- ---------- --- --- ------ ------ ---- -- ------<br>------- --- ------ ----- --- ---- ------- -- ---- --- --<br>------- ------,106076.60000000894,106075.80000001192,105670.37,105684.90000000596,105687.042,106087.051,,33,these
screen,html.Screen,0_2_1_1_34,2021-11-05T11:42:09.515Z,,,,,,,,,,,,,,,,54,,,,,,,,,,,,,,356.8490000059537,,response,,,100,,,,,,Space,keypress(Space),,,,,-- --- ---- --- ------ ----- ------- ---- -- --- ------- --<br>------- ---------- ------ -- ----- -- ----- -- ---- ------<br>--- ----- --- --- ------ -------- ----- --- ------ ----- --<br>----- bonds ---------- --- --- ------ ------ ---- -- ------<br>------- --- ------ ----- --- ---- ------- -- ---- --- --<br>------- ------,106444.70000000298,106443.90000000596,106070.381,106076.90000000596,106087.051,106453.738,,34,bonds
screen,html.Screen,0_2_1_1_35,2021-11-05T11:42:10.059Z,,,,,,,,,,,,,,,,54,,,,,,,,,,,,,,534.0620000119234,,response,,,100,,,,,,Space,keypress(Space),,,,,"-- --- ---- --- ------ ----- ------- ---- -- --- ------- --<br>------- ---------- ------ -- ----- -- ----- -- ---- ------<br>--- ----- --- --- ------ -------- ----- --- ------ ----- --<br>----- ----- plummeted, --- --- ------ ------ ---- -- ------<br>------- --- ------ ----- --- ---- ------- -- ---- --- --<br>------- ------",106988.70000000298,106987.80000001192,106437.069,106444.90000000596,106453.738,107004.059,,35,"plummeted,"
screen,html.Screen,0_2_1_1_36,2021-11-05T11:42:10.563Z,,,,,,,,,,,,,,,,54,,,,,,,,,,,,,,487.7410000119271,,response,,,100,,,,,,Space,keypress(Space),,,,,-- --- ---- --- ------ ----- ------- ---- -- --- ------- --<br>------- ---------- ------ -- ----- -- ----- -- ---- ------<br>--- ----- --- --- ------ -------- ----- --- ------ ----- --<br>----- ----- ---------- and --- ------ ------ ---- -- ------<br>------- --- ------ ----- --- ---- ------- -- ---- --- --<br>------- ------,107492.60000000894,107491.80000001192,106987.387,106989,107004.059,107504.128,,36,and
screen,html.Screen,0_2_1_1_37,2021-11-05T11:42:10.915Z,,,,,,,,,,,,,,,,54,,,,,,,,,,,,,,339.67200001192396,,response,,,100,,,,,,Space,keypress(Space),,,,,-- --- ---- --- ------ ----- ------- ---- -- --- ------- --<br>------- ---------- ------ -- ----- -- ----- -- ---- ------<br>--- ----- --- --- ------ -------- ----- --- ------ ----- --<br>----- ----- ---------- --- the ------ ------ ---- -- ------<br>------- --- ------ ----- --- ---- ------- -- ---- --- --<br>------- ------,107844.60000000894,107843.80000001192,107487.457,107493,107504.128,107854.223,,37,the
screen,html.Screen,0_2_1_1_38,2021-11-05T11:42:11.315Z,,,,,,,,,,,,,,,,54,,,,,,,,,,,,,,389.6770000059623,,response,,,100,,,,,,Space,keypress(Space),,,,,-- --- ---- --- ------ ----- ------- ---- -- --- ------- --<br>------- ---------- ------ -- ----- -- ----- -- ---- ------<br>--- ----- --- --- ------ -------- ----- --- ------ ----- --<br>----- ----- ---------- --- --- market ------ ---- -- ------<br>------- --- ------ ----- --- ---- ------- -- ---- --- --<br>------- ------,108244.60000000894,108243.90000000596,107837.552,107844.90000000596,107854.223,108254.282,,38,market
screen,html.Screen,0_2_1_1_39,2021-11-05T11:42:11.747Z,,,,,,,,,,,,,,,,54,,,,,,,,,,,,,,421.61800000595395,,response,,,100,,,,,,Space,keypress(Space),,,,,-- --- ---- --- ------ ----- ------- ---- -- --- ------- --<br>------- ---------- ------ -- ----- -- ----- -- ---- ------<br>--- ----- --- --- ------ -------- ----- --- ------ ----- --<br>----- ----- ---------- --- --- ------ became ---- -- ------<br>------- --- ------ ----- --- ---- ------- -- ---- --- --<br>------- ------,108676.60000000894,108675.90000000596,108237.612,108244.90000000596,108254.282,108687.79,,39,became
screen,html.Screen,0_2_1_1_40,2021-11-05T11:42:12.155Z,,,,,,,,,,,,,,,,54,,,,,,,,,,,,,,396.01000001192733,,response,,,100,,,,,,Space,keypress(Space),,,,,-- --- ---- --- ------ ----- ------- ---- -- --- ------- --<br>------- ---------- ------ -- ----- -- ----- -- ---- ------<br>--- ----- --- --- ------ -------- ----- --- ------ ----- --<br>----- ----- ---------- --- --- ------ ------ wary -- ------<br>------- --- ------ ----- --- ---- ------- -- ---- --- --<br>------- ------,109084.60000000894,109083.80000001192,108671.119,108676.90000000596,108687.79,109087.851,,40,wary
screen,html.Screen,0_2_1_1_41,2021-11-05T11:42:12.611Z,,,,,,,,,,,,,,,,54,,,,,,,,,,,,,,451.9490000119258,,response,,,100,,,,,,Space,keypress(Space),,,,,-- --- ---- --- ------ ----- ------- ---- -- --- ------- --<br>------- ---------- ------ -- ----- -- ----- -- ---- ------<br>--- ----- --- --- ------ -------- ----- --- ------ ----- --<br>----- ----- ---------- --- --- ------ ------ ---- of ------<br>------- --- ------ ----- --- ---- ------- -- ---- --- --<br>------- ------,109540.60000000894,109539.80000001192,109071.181,109084.80000001192,109087.851,109554.634,,41,of
screen,html.Screen,0_2_1_1_42,2021-11-05T11:42:12.972Z,,,,,,,,,,,,,,,,54,,,,,,,,,,,,,,345.56600000297476,,response,,,100,,,,,,Space,keypress(Space),,,,,-- --- ---- --- ------ ----- ------- ---- -- --- ------- --<br>------- ---------- ------ -- ----- -- ----- -- ---- ------<br>--- ----- --- --- ------ -------- ----- --- ------ ----- --<br>----- ----- ---------- --- --- ------ ------ ---- -- French<br>------- --- ------ ----- --- ---- ------- -- ---- --- --<br>------- ------,109901,109900.20000000298,109537.964,109540.80000001192,109554.634,109904.805,,42,French
screen,html.Screen,0_2_1_1_43,2021-11-05T11:42:13.427Z,,,,,,,,,,,,,,,,54,,,,,,,,,,,,,,450.8950000029872,,response,,,100,,,,,,Space,keypress(Space),,,,,-- --- ---- --- ------ ----- ------- ---- -- --- ------- --<br>------- ---------- ------ -- ----- -- ----- -- ---- ------<br>--- ----- --- --- ------ -------- ----- --- ------ ----- --<br>----- ----- ---------- --- --- ------ ------ ---- -- ------<br>credit. --- ------ ----- --- ---- ------- -- ---- --- --<br>------- ------,110356.5,110355.70000000298,109888.134,109901.20000000298,109904.805,110371.447,,43,credit.
screen,html.Screen,0_2_1_1_44,2021-11-05T11:42:13.899Z,,,,,,,,,,,,,,,,54,,,,,,,,,,,,,,456.1530000089406,,response,,,100,,,,,,Space,keypress(Space),,,,,-- --- ---- --- ------ ----- ------- ---- -- --- ------- --<br>------- ---------- ------ -- ----- -- ----- -- ---- ------<br>--- ----- --- --- ------ -------- ----- --- ------ ----- --<br>----- ----- ---------- --- --- ------ ------ ---- -- ------<br>------- The ------ ----- --- ---- ------- -- ---- --- --<br>------- ------,110828.40000000596,110827.60000000894,110354.778,110356.70000000298,110371.447,110838.437,,44,The
screen,html.Screen,0_2_1_1_45,2021-11-05T11:42:14.299Z,,,,,,,,,,,,,,,,54,,,,,,,,,,,,,,389.2630000029749,,response,,,100,,,,,,Space,keypress(Space),,,,,-- --- ---- --- ------ ----- ------- ---- -- --- ------- --<br>------- ---------- ------ -- ----- -- ----- -- ---- ------<br>--- ----- --- --- ------ -------- ----- --- ------ ----- --<br>----- ----- ---------- --- --- ------ ------ ---- -- ------<br>------- --- French ----- --- ---- ------- -- ---- --- --<br>------- ------,111228.5,111227.70000000298,110821.765,110828.70000000298,110838.437,111238.469,,45,French
screen,html.Screen,0_2_1_1_46,2021-11-05T11:42:14.707Z,,,,,,,,,,,,,,,,54,,,,,,,,,,,,,,397.2310000029829,,response,,,100,,,,,,Space,keypress(Space),,,,,-- --- ---- --- ------ ----- ------- ---- -- --- ------- --<br>------- ---------- ------ -- ----- -- ----- -- ---- ------<br>--- ----- --- --- ------ -------- ----- --- ------ ----- --<br>----- ----- ---------- --- --- ------ ------ ---- -- ------<br>------- --- ------ state --- ---- ------- -- ---- --- --<br>------- ------,111636.40000000596,111635.70000000298,111221.798,111228.70000000298,111238.469,111638.527,,46,state
screen,html.Screen,0_2_1_1_47,2021-11-05T11:42:15.123Z,,,,,,,,,,,,,,,,54,,,,,,,,,,,,,,413.07300000893883,,response,,,100,,,,,,Space,keypress(Space),,,,,-- --- ---- --- ------ ----- ------- ---- -- --- ------- --<br>------- ---------- ------ -- ----- -- ----- -- ---- ------<br>--- ----- --- --- ------ -------- ----- --- ------ ----- --<br>----- ----- ---------- --- --- ------ ------ ---- -- ------<br>------- --- ------ ----- was ---- ------- -- ---- --- --<br>------- ------,112052.40000000596,112051.60000000894,111621.857,111636.70000000298,111638.527,112055.355,,47,was
screen,html.Screen,0_2_1_1_48,2021-11-05T11:42:15.539Z,,,,,,,,,,,,,,,,54,,,,,,,,,,,,,,412.1450000000041,,response,,,100,,,,,,Space,keypress(Space),,,,,-- --- ---- --- ------ ----- ------- ---- -- --- ------- --<br>------- ---------- ------ -- ----- -- ----- -- ---- ------<br>--- ----- --- --- ------ -------- ----- --- ------ ----- --<br>----- ----- ---------- --- --- ------ ------ ---- -- ------<br>------- --- ------ ----- --- left ------- -- ---- --- --<br>------- ------,112468.30000001192,112467.5,112038.684,112052.70000000298,112055.355,112472.073,,48,left
screen,html.Screen,0_2_1_1_49,2021-11-05T11:42:15.947Z,,,,,,,,,,,,,,,,54,,,,,,,,,,,,,,403.42699999999604,,response,,,100,,,,,,Space,keypress(Space),,,,,-- --- ---- --- ------ ----- ------- ---- -- --- ------- --<br>------- ---------- ------ -- ----- -- ----- -- ---- ------<br>--- ----- --- --- ------ -------- ----- --- ------ ----- --<br>----- ----- ---------- --- --- ------ ------ ---- -- ------<br>------- --- ------ ----- --- ---- without -- ---- --- --<br>------- ------,112876.30000001192,112875.5,112455.403,112468.60000000894,112472.073,112888.921,,49,without
screen,html.Screen,0_2_1_1_50,2021-11-05T11:42:16.411Z,,,,,,,,,,,,,,,,54,,,,,,,,,,,,,,450.6790000089386,,response,,,100,,,,,,Space,keypress(Space),,,,,-- --- ---- --- ------ ----- ------- ---- -- --- ------- --<br>------- ---------- ------ -- ----- -- ----- -- ---- ------<br>--- ----- --- --- ------ -------- ----- --- ------ ----- --<br>----- ----- ---------- --- --- ------ ------ ---- -- ------<br>------- --- ------ ----- --- ---- ------- an ---- --- --<br>------- ------,113340.40000000596,113339.60000000894,112872.25,112876.60000000894,112888.921,113355.7,,50,an
screen,html.Screen,0_2_1_1_51,2021-11-05T11:42:16.955Z,,,,,,,,,,,,,,,,54,,,,,,,,,,,,,,527.8000000000029,,response,,,100,,,,,,Space,keypress(Space),,,,,-- --- ---- --- ------ ----- ------- ---- -- --- ------- --<br>------- ---------- ------ -- ----- -- ----- -- ---- ------<br>--- ----- --- --- ------ -------- ----- --- ------ ----- --<br>----- ----- ---------- --- --- ------ ------ ---- -- ------<br>------- --- ------ ----- --- ---- ------- -- easy --- --<br>------- ------,113884.20000000298,113883.5,113339.029,113340.60000000894,113355.7,113889.175,,51,easy
screen,html.Screen,0_2_1_1_52,2021-11-05T11:42:17.347Z,,,,,,,,,,,,,,,,54,,,,,,,,,,,,,,386.3249999999971,,response,,,100,,,,,,Space,keypress(Space),,,,,-- --- ---- --- ------ ----- ------- ---- -- --- ------- --<br>------- ---------- ------ -- ----- -- ----- -- ---- ------<br>--- ----- --- --- ------ -------- ----- --- ------ ----- --<br>----- ----- ---------- --- --- ------ ------ ---- -- ------<br>------- --- ------ ----- --- ---- ------- -- ---- way --<br>------- ------,114276.30000001192,114275.5,113872.504,113884.5,113889.175,114289.284,,52,way
screen,html.Screen,0_2_1_1_53,2021-11-05T11:42:17.699Z,,,,,,,,,,,,,,,,54,,,,,,,,,,,,,,338.21600000000035,,response,,,100,,,,,,Space,keypress(Space),,,,,-- --- ---- --- ------ ----- ------- ---- -- --- ------- --<br>------- ---------- ------ -- ----- -- ----- -- ---- ------<br>--- ----- --- --- ------ -------- ----- --- ------ ----- --<br>----- ----- ---------- --- --- ------ ------ ---- -- ------<br>------- --- ------ ----- --- ---- ------- -- ---- --- of<br>------- ------,114628.30000001192,114627.5,114272.613,114276.60000000894,114289.284,114639.38,,53,of
screen,html.Screen,0_2_1_1_54,2021-11-05T11:42:18.099Z,,,,,,,,,,,,,,,,54,,,,,,,,,,,,,,388.11999999999534,,response,,,100,,,,,,Space,keypress(Space),,,,,-- --- ---- --- ------ ----- ------- ---- -- --- ------- --<br>------- ---------- ------ -- ----- -- ----- -- ---- ------<br>--- ----- --- --- ------ -------- ----- --- ------ ----- --<br>----- ----- ---------- --- --- ------ ------ ---- -- ------<br>------- --- ------ ----- --- ---- ------- -- ---- --- --<br>raising ------,115028.30000001192,115027.5,114622.709,114628.60000000894,114639.38,115039.381,,54,raising
screen,html.Screen,0_2_1_1_55,2021-11-05T11:42:18.539Z,,,,,,,,,,,,,,,,54,,,,,,,,,,,,,,428.11900000000605,,response,,,100,,,,,,Space,keypress(Space),,,,,-- --- ---- --- ------ ----- ------- ---- -- --- ------- --<br>------- ---------- ------ -- ----- -- ----- -- ---- ------<br>--- ----- --- --- ------ -------- ----- --- ------ ----- --<br>----- ----- ---------- --- --- ------ ------ ---- -- ------<br>------- --- ------ ----- --- ---- ------- -- ---- --- --<br>------- money.,115468.20000000298,115467.5,115022.712,115028.60000000894,115039.381,115472.935,,55,money.
Item 100,flow.Loop,0_2_1_1,2021-11-05T11:42:18.539Z,,,,,,,,,,,,,,,,,,,,,,,,,,,,,,26635.256999999998,,completion,,,,D,,,,,,,,,,silence,,115468.80000001192,115467.5,88815.573,88817.20000000298,88832.243,115472.935,,,
Question 1,html.Screen,0_2_1_2,2021-11-05T11:42:22.523Z,,,,,,,,,,,,,,,,,,,,,,,,,,,true,TRUE,,3978.165000008943,,response,,,100,D,,,,,TRUE,click #choice-1,,,,silence,,119452.40000000596,119451.10000000894,115456.264,115468.90000000596,115472.935,119457.233,,,
Question 2,html.Screen,0_2_1_3,2021-11-05T11:42:25.710Z,,,,,,,,,,,,,,,,,,,,,,,,,,,true,FALSE,,3177.767000000007,,response,,,100,D,,,,,FALSE,click #choice-2,,,,silence,,122636.20000000298,122635,119440.563,119452.60000000894,119457.233,122641.443,,,
Item 100,flow.Sequence,0_2_1,2021-11-05T11:42:25.710Z,,,,,,,,,,,,,,,,,,,,,,,,,,,,,,43805.37300000001,,completion,,,,,,,,,,,,,,,,122636.60000000894,122635,78812.959,78814.90000000596,78829.627,122641.443,,,
End of Practice,html.Page,0_2_2,2021-11-05T11:42:29.150Z,,,,,,,,,,,,,,,,,,,,,,,,,,,,,,3434.8570000119216,,form submission,,,,,,,,,,,,,,,,126076.80000001192,126076.30000001192,122624.773,122636.80000001192,122641.443,126075.696,,,
Practice,flow.Sequence,0_2,2021-11-05T11:42:29.151Z,,,,,,,,,,,,,,,,,,,,,,,,,,,,,,95042.85900001193,,completion,,,,,,,,,,,,,,,,126077.20000000298,126076.30000001192,31016.771,31033.10000000894,31033.441,126075.696,,,
Trap_instruction,html.Page,0_3_0,2021-11-05T11:42:33.005Z,,,,,,,,,,,,,,,,,,,,,,,,,,,,,,3855.3040000000037,,form submission,,,,,,,,,,,,,,,,129931.20000000298,129931,126059.026,126077.40000000596,126075.696,129943.015,,,
trap_trial,html.Screen,0_3_1,2021-11-05T11:42:35.365Z,,,,,,,,,,,,,,,,,,,,,,,,,,,true,1,,2347.5850000089413,,response,,,,,,,,,1,click #choice-1,,,,,,132291.90000000596,132290.60000000894,129926.346,129931.30000001192,129943.015,132310.048,,,
end of trap trial,html.Page,0_3_2,2021-11-05T11:42:37.046Z,,,,,,,,,,,,,,,,,,,,,,,,,,,,,,1661.9519999999902,,form submission,,,,,,,,,,,,,,,,133972.5,133972,132293.382,132292.10000000894,132310.048,133977.901,,,
Trap 1,flow.Sequence,0_3,2021-11-05T11:42:37.046Z,,,,,,,,,,,,,,,,,,,,,,,,,,,,,,7896.304000000004,,completion,,,,,,,,,,,,,,,,133972.90000000596,133972,126059.026,126077.40000000596,126075.696,133977.901,,,
Standby,html.Page,0_4_0,2021-11-05T11:42:45.039Z,,,,,,,,,,,,,,,,,,,,,,,,,,,,,,8002.098999999987,,timeout,,,,,,,,,,,,,,,,141965.40000000596,141963.329,133961.23,133973.10000000894,133977.901,141980,,,
Holding screen,html.Screen,0_4_1_0_0,2021-11-05T11:42:52.040Z,,,,,,,,,,,,,,,,,,,,,,,,,,,,,,7001.932000000001,,timeout,,,,,,,,,,,,,,,,148966.30000001192,148965.261,141963.329,141965.80000001192,141980,148981.932,,,
screen,html.Screen,0_4_1_0_1_0,2021-11-05T11:42:52.957Z,,,,,,,,,,,,,,,,48,,,,,,,,,,,,,,900.66800000894,,response,,,10,D,,,,,Space,keypress(Space),,,,silence,As -- --- ------ ------- --------- ----------- --------<br>--------- -------- --- ------- -- ------- ---- -- ------<br>-- --- -------- -------- ---------- ---- ---- ---- ------<br>-- --------- -- ---- -- --- -- --- ------- -- - -----<br>---------- -- -- -- ---- ----- -- ------ -- --- ------<br>-------,149883.60000000894,149882.60000000894,148965.261,148966.80000001192,148981.932,149898.824,,0,As
screen,html.Screen,0_4_1_0_1_1,2021-11-05T11:42:53.452Z,,,,,,,,,,,,,,,,48,,,,,,,,,,,,,,479.17600000000675,,response,,,10,D,,,,,Space,keypress(Space),,,,silence,-- in --- ------ ------- --------- ----------- --------<br>--------- -------- --- ------- -- ------- ---- -- ------<br>-- --- -------- -------- ---------- ---- ---- ---- ------<br>-- --------- -- ---- -- --- -- --- ------- -- - -----<br>---------- -- -- -- ---- ----- -- ------ -- --- ------<br>-------,150378.80000001192,150378,149882.153,149884,149898.824,150382.237,,1,in
screen,html.Screen,0_4_1_0_1_2,2021-11-05T11:42:53.908Z,,,,,,,,,,,,,,,,48,,,,,,,,,,,,,,451.7630000000063,,response,,,10,D,,,,,Space,keypress(Space),,,,silence,-- -- the ------ ------- --------- ----------- --------<br>--------- -------- --- ------- -- ------- ---- -- ------<br>-- --- -------- -------- ---------- ---- ---- ---- ------<br>-- --------- -- ---- -- --- -- --- ------- -- - -----<br>---------- -- -- -- ---- ----- -- ------ -- --- ------<br>-------,150834.80000001192,150834,150365.567,150379.10000000894,150382.237,150849.097,,2,the
screen,html.Screen,0_4_1_0_1_3,2021-11-05T11:42:54.372Z,,,,,,,,,,,,,,,,48,,,,,,,,,,,,,,448.90299999999115,,response,,,10,D,,,,,Space,keypress(Space),,,,silence,-- -- --- United ------- --------- ----------- --------<br>--------- -------- --- ------- -- ------- ---- -- ------<br>-- --- -------- -------- ---------- ---- ---- ---- ------<br>-- --------- -- ---- -- --- -- --- ------- -- - -----<br>---------- -- -- -- ---- ----- -- ------ -- --- ------<br>-------,151298.80000001192,151298,150832.426,150835,150849.097,151315.907,,3,United
screen,html.Screen,0_4_1_0_1_4,2021-11-05T11:42:54.804Z,,,,,,,,,,,,,,,,48,,,,,,,,,,,,,,413.99300000595395,,response,,,10,D,,,,,Space,keypress(Space),,,,silence,"-- -- --- ------ States, --------- ----------- --------<br>--------- -------- --- ------- -- ------- ---- -- ------<br>-- --- -------- -------- ---------- ---- ---- ---- ------<br>-- --------- -- ---- -- --- -- --- ------- -- - -----<br>---------- -- -- -- ---- ----- -- ------ -- --- ------<br>-------",151730.70000000298,151729.90000000596,151299.236,151299.20000000298,151315.907,151732.642,,4,"States,"
screen,html.Screen,0_4_1_0_1_5,2021-11-05T11:42:55.332Z,,,,,,,,,,,,,,,,48,,,,,,,,,,,,,,525.2580000059679,,response,,,10,D,,,,,Space,keypress(Space),,,,silence,-- -- --- ------ ------- Colombian ----------- --------<br>--------- -------- --- ------- -- ------- ---- -- ------<br>-- --- -------- -------- ---------- ---- ---- ---- ------<br>-- --------- -- ---- -- --- -- --- ------- -- - -----<br>---------- -- -- -- ---- ----- -- ------ -- --- ------<br>-------,152258.80000001192,152257.90000000596,151715.972,151731.10000000894,151732.642,152265.994,,5,Colombian
screen,html.Screen,0_4_1_0_1_6,2021-11-05T11:42:55.852Z,,,,,,,,,,,,,,,,48,,,,,,,,,,,,,,511.9060000059544,,response,,,10,D,,,,,Space,keypress(Space),,,,silence,-- -- --- ------ ------- --------- legislation --------<br>--------- -------- --- ------- -- ------- ---- -- ------<br>-- --- -------- -------- ---------- ---- ---- ---- ------<br>-- --------- -- ---- -- --- -- --- ------- -- - -----<br>---------- -- -- -- ---- ----- -- ------ -- --- ------<br>-------,152778.80000001192,152777.90000000596,152249.325,152259.10000000894,152265.994,152783.018,,6,legislation
screen,html.Screen,0_4_1_0_1_7,2021-11-05T11:42:56.380Z,,,,,,,,,,,,,,,,48,,,,,,,,,,,,,,522.78200001191,,response,,,10,D,,,,,Space,keypress(Space),,,,silence,-- -- --- ------ ------- --------- ----------- requires<br>--------- -------- --- ------- -- ------- ---- -- ------<br>-- --- -------- -------- ---------- ---- ---- ---- ------<br>-- --------- -- ---- -- --- -- --- ------- -- - -----<br>---------- -- -- -- ---- ----- -- ------ -- --- ------<br>-------,153306.70000000298,153305.80000001192,152766.346,152779.10000000894,152783.018,153316.303,,7,requires
screen,html.Screen,0_4_1_0_1_8,2021-11-05T11:42:56.820Z,,,,,,,,,,,,,,,,48,,,,,,,,,,,,,,429.59700000594603,,response,,,10,D,,,,,Space,keypress(Space),,,,silence,-- -- --- ------ ------- --------- ----------- --------<br>travelers -------- --- ------- -- ------- ---- -- ------<br>-- --- -------- -------- ---------- ---- ---- ---- ------<br>-- --------- -- ---- -- --- -- --- ------- -- - -----<br>---------- -- -- -- ---- ----- -- ------ -- --- ------<br>-------,153746.60000000894,153745.90000000596,153299.634,153307,153316.303,153749.949,,8,travelers
screen,html.Screen,0_4_1_0_1_9,2021-11-05T11:42:57.252Z,,,,,,,,,,,,,,,,48,,,,,,,,,,,,,,427.8510000119277,,response,,,10,D,,,,,Space,keypress(Space),,,,silence,-- -- --- ------ ------- --------- ----------- --------<br>--------- entering --- ------- -- ------- ---- -- ------<br>-- --- -------- -------- ---------- ---- ---- ---- ------<br>-- --------- -- ---- -- --- -- --- ------- -- - -----<br>---------- -- -- -- ---- ----- -- ------ -- --- ------<br>-------,154178.60000000894,154177.80000001192,153733.277,153746.90000000596,153749.949,154183.338,,9,entering
screen,html.Screen,0_4_1_0_1_10,2021-11-05T11:42:57.620Z,,,,,,,,,,,,,,,,48,,,,,,,,,,,,,,362.4620000119321,,response,,,10,D,,,,,Space,keypress(Space),,,,silence,-- -- --- ------ ------- --------- ----------- --------<br>--------- -------- the ------- -- ------- ---- -- ------<br>-- --- -------- -------- ---------- ---- ---- ---- ------<br>-- --------- -- ---- -- --- -- --- ------- -- - -----<br>---------- -- -- -- ---- ----- -- ------ -- --- ------<br>-------,154546.70000000298,154545.80000001192,154166.667,154178.80000001192,154183.338,154550.07,,10,the
screen,html.Screen,0_4_1_0_1_11,2021-11-05T11:42:58.044Z,,,,,,,,,,,,,,,,48,,,,,,,,,,,,,,419.73000001191394,,response,,,10,D,,,,,Space,keypress(Space),,,,silence,-- -- --- ------ ------- --------- ----------- --------<br>--------- -------- --- country -- ------- ---- -- ------<br>-- --- -------- -------- ---------- ---- ---- ---- ------<br>-- --------- -- ---- -- --- -- --- ------- -- - -----<br>---------- -- -- -- ---- ----- -- ------ -- --- ------<br>-------,154970.70000000298,154969.80000001192,154533.4,154546.80000001192,154550.07,154983.547,,11,country
screen,html.Screen,0_4_1_0_1_12,2021-11-05T11:42:58.404Z,,,,,,,,,,,,,,,,48,,,,,,,,,,,,,,346.15300000298885,,response,,,10,D,,,,,Space,keypress(Space),,,,silence,-- -- --- ------ ------- --------- ----------- --------<br>--------- -------- --- ------- to ------- ---- -- ------<br>-- --- -------- -------- ---------- ---- ---- ---- ------<br>-- --------- -- ---- -- --- -- --- ------- -- - -----<br>---------- -- -- -- ---- ----- -- ------ -- --- ------<br>-------,155330.5,155329.70000000298,154966.876,154971,154983.547,155333.654,,12,to
screen,html.Screen,0_4_1_0_1_13,2021-11-05T11:42:58.820Z,,,,,,,,,,,,,,,,48,,,,,,,,,,,,,,412.0460000029707,,response,,,10,D,,,,,Space,keypress(Space),,,,silence,-- -- --- ------ ------- --------- ----------- --------<br>--------- -------- --- ------- -- declare ---- -- ------<br>-- --- -------- -------- ---------- ---- ---- ---- ------<br>-- --------- -- ---- -- --- -- --- ------- -- - -----<br>---------- -- -- -- ---- ----- -- ------ -- --- ------<br>-------,155746.60000000894,155745.70000000298,155316.983,155330.80000001192,155333.654,155750.389,,13,declare
screen,html.Screen,0_4_1_0_1_14,2021-11-05T11:42:59.204Z,,,,,,,,,,,,,,,,48,,,,,,,,,,,,,,379.31100000298466,,response,,,10,D,,,,,Space,keypress(Space),,,,silence,-- -- --- ------ ------- --------- ----------- --------<br>--------- -------- --- ------- -- ------- cash -- ------<br>-- --- -------- -------- ---------- ---- ---- ---- ------<br>-- --------- -- ---- -- --- -- --- ------- -- - -----<br>---------- -- -- -- ---- ----- -- ------ -- --- ------<br>-------,156130.5,156129.70000000298,155733.719,155746.80000001192,155750.389,156133.882,,14,cash
screen,html.Screen,0_4_1_0_1_15,2021-11-05T11:42:59.564Z,,,,,,,,,,,,,,,,48,,,,,,,,,,,,,,355.9180000119086,,response,,,10,D,,,,,Space,keypress(Space),,,,silence,-- -- --- ------ ------- --------- ----------- --------<br>--------- -------- --- ------- -- ------- ---- in ------<br>-- --- -------- -------- ---------- ---- ---- ---- ------<br>-- --------- -- ---- -- --- -- --- ------- -- - -----<br>---------- -- -- -- ---- ----- -- ------ -- --- ------<br>-------,156490.5,156489.80000001192,156117.211,156130.80000001192,156133.882,156500.598,,15,in
screen,html.Screen,0_4_1_0_1_16,2021-11-05T11:43:00.044Z,,,,,,,,,,,,,,,,48,,,,,,,,,,,,,,469.1020000029821,,response,,,10,D,,,,,Space,keypress(Space),,,,silence,-- -- --- ------ ------- --------- ----------- --------<br>--------- -------- --- ------- -- ------- ---- -- excess<br>-- --- -------- -------- ---------- ---- ---- ---- ------<br>-- --------- -- ---- -- --- -- --- ------- -- - -----<br>---------- -- -- -- ---- ----- -- ------ -- --- ------<br>-------,156970.60000000894,156969.70000000298,156483.928,156490.70000000298,156500.598,156984.087,,16,excess
screen,html.Screen,0_4_1_0_1_17,2021-11-05T11:43:00.460Z,,,,,,,,,,,,,,,,48,,,,,,,,,,,,,,401.6130000029807,,response,,,10,D,,,,,Space,keypress(Space),,,,silence,-- -- --- ------ ------- --------- ----------- --------<br>--------- -------- --- ------- -- ------- ---- -- ------<br>of --- -------- -------- ---------- ---- ---- ---- ------<br>-- --------- -- ---- -- --- -- --- ------- -- - -----<br>---------- -- -- -- ---- ----- -- ------ -- --- ------<br>-------,157386.5,157385.70000000298,156967.416,156970.90000000596,156984.087,157400.879,,17,of
screen,html.Screen,0_4_1_0_1_18,2021-11-05T11:43:01.003Z,,,,,,,,,,,,,,,,48,,,,,,,,,,,,,,528.4210000119347,,response,,,10,D,,,,,Space,keypress(Space),,,,silence,-- -- --- ------ ------- --------- ----------- --------<br>--------- -------- --- ------- -- ------- ---- -- ------<br>-- ten -------- -------- ---------- ---- ---- ---- ------<br>-- --------- -- ---- -- --- -- --- ------- -- - -----<br>---------- -- -- -- ---- ----- -- ------ -- --- ------<br>-------,157929.60000000894,157929.30000001192,157384.208,157386.70000000298,157400.879,157934.303,,18,ten
screen,html.Screen,0_4_1_0_1_19,2021-11-05T11:43:01.523Z,,,,,,,,,,,,,,,,48,,,,,,,,,,,,,,514.8970000029658,,response,,,10,D,,,,,Space,keypress(Space),,,,silence,-- -- --- ------ ------- --------- ----------- --------<br>--------- -------- --- ------- -- ------- ---- -- ------<br>-- --- thousand -------- ---------- ---- ---- ---- ------<br>-- --------- -- ---- -- --- -- --- ------- -- - -----<br>---------- -- -- -- ---- ----- -- ------ -- --- ------<br>-------,158449.5,158449.20000000298,157917.633,157929.60000000894,157934.303,158450.99,,19,thousand
screen,html.Screen,0_4_1_0_1_20,2021-11-05T11:43:02.036Z,,,,,,,,,,,,,,,,48,,,,,,,,,,,,,,510.61000000895,,response,,,10,D,,,,,Space,keypress(Space),,,,silence,-- -- --- ------ ------- --------- ----------- --------<br>--------- -------- --- ------- -- ------- ---- -- ------<br>-- --- -------- dollars. ---------- ---- ---- ---- ------<br>-- --------- -- ---- -- --- -- --- ------- -- - -----<br>---------- -- -- -- ---- ----- -- ------ -- --- ------<br>-------,158962.40000000596,158961.60000000894,158434.321,158449.5,158450.99,158967.79,,20,dollars.
screen,html.Screen,0_4_1_0_1_21,2021-11-05T11:43:02.868Z,,,,,,,,,,,,,,,,48,,,,,,,,,,,,,,825.8100000089325,,response,,,10,D,,,,,Space,keypress(Space),,,,silence,-- -- --- ------ ------- --------- ----------- --------<br>--------- -------- --- ------- -- ------- ---- -- ------<br>-- --- -------- -------- Concealing ---- ---- ---- ------<br>-- --------- -- ---- -- --- -- --- ------- -- - -----<br>---------- -- -- -- ---- ----- -- ------ -- --- ------<br>-------,159794.40000000596,159793.60000000894,158951.121,158962.60000000894,158967.79,159801.473,,21,Concealing
screen,html.Screen,0_4_1_0_1_22,2021-11-05T11:43:03.323Z,,,,,,,,,,,,,,,,48,,,,,,,,,,,,,,447.8270000119228,,response,,,10,D,,,,,Space,keypress(Space),,,,silence,-- -- --- ------ ------- --------- ----------- --------<br>--------- -------- --- ------- -- ------- ---- -- ------<br>-- --- -------- -------- ---------- more ---- ---- ------<br>-- --------- -- ---- -- --- -- --- ------- -- - -----<br>---------- -- -- -- ---- ----- -- ------ -- --- ------<br>-------,160249.5,160249.30000001192,159784.802,159794.60000000894,159801.473,160251.707,,22,more
screen,html.Screen,0_4_1_0_1_23,2021-11-05T11:43:03.700Z,,,,,,,,,,,,,,,,48,,,,,,,,,,,,,,373.7930000000051,,response,,,10,D,,,,,Space,keypress(Space),,,,silence,-- -- --- ------ ------- --------- ----------- --------<br>--------- -------- --- ------- -- ------- ---- -- ------<br>-- --- -------- -------- ---------- ---- than ---- ------<br>-- --------- -- ---- -- --- -- --- ------- -- - -----<br>---------- -- -- -- ---- ----- -- ------ -- --- ------<br>-------,160626.20000000298,160625.5,160235.035,160249.60000000894,160251.707,160635.072,,23,than
screen,html.Screen,0_4_1_0_1_24,2021-11-05T11:43:04.076Z,,,,,,,,,,,,,,,,48,,,,,,,,,,,,,,366.42800000001444,,response,,,10,D,,,,,Space,keypress(Space),,,,silence,-- -- --- ------ ------- --------- ----------- --------<br>--------- -------- --- ------- -- ------- ---- -- ------<br>-- --- -------- -------- ---------- ---- ---- that ------<br>-- --------- -- ---- -- --- -- --- ------- -- - -----<br>---------- -- -- -- ---- ----- -- ------ -- --- ------<br>-------,161002.30000001192,161001.5,160618.401,160626.60000000894,160635.072,161018.507,,24,that
screen,html.Screen,0_4_1_0_1_25,2021-11-05T11:43:04.451Z,,,,,,,,,,,,,,,,48,,,,,,,,,,,,,,358.6930000029679,,response,,,10,D,,,,,Space,keypress(Space),,,,silence,-- -- --- ------ ------- --------- ----------- --------<br>--------- -------- --- ------- -- ------- ---- -- ------<br>-- --- -------- -------- ---------- ---- ---- ---- amount<br>-- --------- -- ---- -- --- -- --- ------- -- - -----<br>---------- -- -- -- ---- ----- -- ------ -- --- ------<br>-------,161377.90000000596,161377.20000000298,161001.836,161002.60000000894,161018.507,161385.236,,25,amount
screen,html.Screen,0_4_1_0_1_26,2021-11-05T11:43:04.867Z,,,,,,,,,,,,,,,,48,,,,,,,,,,,,,,408.0640000119165,,response,,,10,D,,,,,Space,keypress(Space),,,,silence,-- -- --- ------ ------- --------- ----------- --------<br>--------- -------- --- ------- -- ------- ---- -- ------<br>-- --- -------- -------- ---------- ---- ---- ---- ------<br>to --------- -- ---- -- --- -- --- ------- -- - -----<br>---------- -- -- -- ---- ----- -- ------ -- --- ------<br>-------,161793.70000000298,161793.30000001192,161368.566,161378.20000000298,161385.236,161802.047,,26,to
screen,html.Screen,0_4_1_0_1_27,2021-11-05T11:43:05.459Z,,,,,,,,,,,,,,,,48,,,,,,,,,,,,,,582.9530000000086,,response,,,10,D,,,,,Space,keypress(Space),,,,silence,-- -- --- ------ ------- --------- ----------- --------<br>--------- -------- --- ------- -- ------- ---- -- ------<br>-- --- -------- -------- ---------- ---- ---- ---- ------<br>-- transport -- ---- -- --- -- --- ------- -- - -----<br>---------- -- -- -- ---- ----- -- ------ -- --- ------<br>-------,162385.40000000596,162385,161785.376,161793.80000001192,161802.047,162402.068,,27,transport
screen,html.Screen,0_4_1_0_1_28,2021-11-05T11:43:05.964Z,,,,,,,,,,,,,,,,48,,,,,,,,,,,,,,487.4320000000007,,response,,,10,D,,,,,Space,keypress(Space),,,,silence,-- -- --- ------ ------- --------- ----------- --------<br>--------- -------- --- ------- -- ------- ---- -- ------<br>-- --- -------- -------- ---------- ---- ---- ---- ------<br>-- --------- it ---- -- --- -- --- ------- -- - -----<br>---------- -- -- -- ---- ----- -- ------ -- --- ------<br>-------,162890.20000000298,162889.5,162385.399,162385.5,162402.068,162902.342,,28,it
screen,html.Screen,0_4_1_0_1_29,2021-11-05T11:43:06.460Z,,,,,,,,,,,,,,,,48,,,,,,,,,,,,,,483.0580000059563,,response,,,10,D,,,,,Space,keypress(Space),,,,silence,-- -- --- ------ ------- --------- ----------- --------<br>--------- -------- --- ------- -- ------- ---- -- ------<br>-- --- -------- -------- ---------- ---- ---- ---- ------<br>-- --------- -- into -- --- -- --- ------- -- - -----<br>---------- -- -- -- ---- ----- -- ------ -- --- ------<br>-------,163386.20000000298,163385.40000000596,162885.67,162890.5,162902.342,163402.3,,29,into
screen,html.Screen,0_4_1_0_1_30,2021-11-05T11:43:06.828Z,,,,,,,,,,,,,,,,48,,,,,,,,,,,,,,351.00000001193257,,response,,,10,D,,,,,Space,keypress(Space),,,,silence,-- -- --- ------ ------- --------- ----------- --------<br>--------- -------- --- ------- -- ------- ---- -- ------<br>-- --- -------- -------- ---------- ---- ---- ---- ------<br>-- --------- -- ---- or --- -- --- ------- -- - -----<br>---------- -- -- -- ---- ----- -- ------ -- --- ------<br>-------,163754.10000000894,163753.30000001192,163385.631,163386.5,163402.3,163769.344,,30,or
screen,html.Screen,0_4_1_0_1_31,2021-11-05T11:43:07.284Z,,,,,,,,,,,,,,,,48,,,,,,,,,,,,,,439.85600000296836,,response,,,10,D,,,,,Space,keypress(Space),,,,silence,-- -- --- ------ ------- --------- ----------- --------<br>--------- -------- --- ------- -- ------- ---- -- ------<br>-- --- -------- -------- ---------- ---- ---- ---- ------<br>-- --------- -- ---- -- out -- --- ------- -- - -----<br>---------- -- -- -- ---- ----- -- ------ -- --- ------<br>-------,164210,164209.20000000298,163752.671,163754.30000001192,163769.344,164219.378,,31,out
screen,html.Screen,0_4_1_0_1_32,2021-11-05T11:43:07.611Z,,,,,,,,,,,,,,,,48,,,,,,,,,,,,,,317.5220000059635,,response,,,10,D,,,,,Space,keypress(Space),,,,silence,-- -- --- ------ ------- --------- ----------- --------<br>--------- -------- --- ------- -- ------- ---- -- ------<br>-- --- -------- -------- ---------- ---- ---- ---- ------<br>-- --------- -- ---- -- --- of --- ------- -- - -----<br>---------- -- -- -- ---- ----- -- ------ -- --- ------<br>-------,164537.20000000298,164536.90000000596,164202.707,164210.20000000298,164219.378,164552.765,,32,of
screen,html.Screen,0_4_1_0_1_33,2021-11-05T11:43:07.956Z,,,,,,,,,,,,,,,,48,,,,,,,,,,,,,,328.8350000089267,,response,,,10,D,,,,,Space,keypress(Space),,,,silence,-- -- --- ------ ------- --------- ----------- --------<br>--------- -------- --- ------- -- ------- ---- -- ------<br>-- --- -------- -------- ---------- ---- ---- ---- ------<br>-- --------- -- ---- -- --- -- the ------- -- - -----<br>---------- -- -- -- ---- ----- -- ------ -- --- ------<br>-------,164882.30000001192,164881.60000000894,164536.095,164537.20000000298,164552.765,164886.176,,33,the
screen,html.Screen,0_4_1_0_1_34,2021-11-05T11:43:08.340Z,,,,,,,,,,,,,,,,48,,,,,,,,,,,,,,379.1240000119142,,response,,,10,D,,,,,Space,keypress(Space),,,,silence,-- -- --- ------ ------- --------- ----------- --------<br>--------- -------- --- ------- -- ------- ---- -- ------<br>-- --- -------- -------- ---------- ---- ---- ---- ------<br>-- --------- -- ---- -- --- -- --- country -- - -----<br>---------- -- -- -- ---- ----- -- ------ -- --- ------<br>-------,165266,165265.30000001192,164869.506,164882.5,164886.176,165269.659,,34,country
screen,html.Screen,0_4_1_0_1_35,2021-11-05T11:43:08.723Z,,,,,,,,,,,,,,,,48,,,,,,,,,,,,,,379.24100000594626,,response,,,10,D,,,,,Space,keypress(Space),,,,silence,-- -- --- ------ ------- --------- ----------- --------<br>--------- -------- --- ------- -- ------- ---- -- ------<br>-- --- -------- -------- ---------- ---- ---- ---- ------<br>-- --------- -- ---- -- --- -- --- ------- is - -----<br>---------- -- -- -- ---- ----- -- ------ -- --- ------<br>-------,165649.10000000894,165648.90000000596,165252.988,165266.30000001192,165269.659,165653.091,,35,is
screen,html.Screen,0_4_1_0_1_36,2021-11-05T11:43:09.060Z,,,,,,,,,,,,,,,,48,,,,,,,,,,,,,,332.20900001193513,,response,,,10,D,,,,,Space,keypress(Space),,,,silence,-- -- --- ------ ------- --------- ----------- --------<br>--------- -------- --- ------- -- ------- ---- -- ------<br>-- --- -------- -------- ---------- ---- ---- ---- ------<br>-- --------- -- ---- -- --- -- --- ------- -- a -----<br>---------- -- -- -- ---- ----- -- ------ -- --- ------<br>-------,165986,165985.30000001192,165636.42,165649.30000001192,165653.091,166003.187,,36,a
screen,html.Screen,0_4_1_0_1_37,2021-11-05T11:43:09.484Z,,,,,,,,,,,,,,,,48,,,,,,,,,,,,,,406.1130000119156,,response,,,10,D,,,,,Space,keypress(Space),,,,silence,-- -- --- ------ ------- --------- ----------- --------<br>--------- -------- --- ------- -- ------- ---- -- ------<br>-- --- -------- -------- ---------- ---- ---- ---- ------<br>-- --------- -- ---- -- --- -- --- ------- -- - crime<br>---------- -- -- -- ---- ----- -- ------ -- --- ------<br>-------,166410,166409.30000001192,165986.516,165986.30000001192,166003.187,166419.926,,37,crime
screen,html.Screen,0_4_1_0_1_38,2021-11-05T11:43:09.980Z,,,,,,,,,,,,,,,,48,,,,,,,,,,,,,,485.2740000029735,,response,,,10,D,,,,,Space,keypress(Space),,,,silence,-- -- --- ------ ------- --------- ----------- --------<br>--------- -------- --- ------- -- ------- ---- -- ------<br>-- --- -------- -------- ---------- ---- ---- ---- ------<br>-- --------- -- ---- -- --- -- --- ------- -- - -----<br>punishable -- -- -- ---- ----- -- ------ -- --- ------<br>-------,166906,166905.20000000298,166403.256,166410.30000001192,166419.926,166920.089,,38,punishable
screen,html.Screen,0_4_1_0_1_39,2021-11-05T11:43:10.428Z,,,,,,,,,,,,,,,,48,,,,,,,,,,,,,,433.111000002973,,response,,,10,D,,,,,Space,keypress(Space),,,,silence,-- -- --- ------ ------- --------- ----------- --------<br>--------- -------- --- ------- -- ------- ---- -- ------<br>-- --- -------- -------- ---------- ---- ---- ---- ------<br>-- --------- -- ---- -- --- -- --- ------- -- - -----<br>---------- by -- -- ---- ----- -- ------ -- --- ------<br>-------,167354,167353.20000000298,166903.418,166906.30000001192,166920.089,167370.091,,39,by
screen,html.Screen,0_4_1_0_1_40,2021-11-05T11:43:10.828Z,,,,,,,,,,,,,,,,48,,,,,,,,,,,,,,383.0090000089549,,response,,,10,D,,,,,Space,keypress(Space),,,,silence,-- -- --- ------ ------- --------- ----------- --------<br>--------- -------- --- ------- -- ------- ---- -- ------<br>-- --- -------- -------- ---------- ---- ---- ---- ------<br>-- --------- -- ---- -- --- -- --- ------- -- - -----<br>---------- -- up -- ---- ----- -- ------ -- --- ------<br>-------,167753.90000000596,167753.10000000894,167353.422,167354.20000000298,167370.091,167770.324,,40,up
screen,html.Screen,0_4_1_0_1_41,2021-11-05T11:43:11.244Z,,,,,,,,,,,,,,,,48,,,,,,,,,,,,,,398.876000002987,,response,,,10,D,,,,,Space,keypress(Space),,,,silence,-- -- --- ------ ------- --------- ----------- --------<br>--------- -------- --- ------- -- ------- ---- -- ------<br>-- --- -------- -------- ---------- ---- ---- ---- ------<br>-- --------- -- ---- -- --- -- --- ------- -- - -----<br>---------- -- -- to ---- ----- -- ------ -- --- ------<br>-------,168170,168169.20000000298,167753.653,167754.20000000298,167770.324,168187.102,,41,to
screen,html.Screen,0_4_1_0_1_42,2021-11-05T11:43:11.644Z,,,,,,,,,,,,,,,,48,,,,,,,,,,,,,,382.0980000029667,,response,,,10,D,,,,,Space,keypress(Space),,,,silence,-- -- --- ------ ------- --------- ----------- --------<br>--------- -------- --- ------- -- ------- ---- -- ------<br>-- --- -------- -------- ---------- ---- ---- ---- ------<br>-- --------- -- ---- -- --- -- --- ------- -- - -----<br>---------- -- -- -- five ----- -- ------ -- --- ------<br>-------,168570,168569.20000000298,168170.431,168170.20000000298,168187.102,168587.206,,42,five
screen,html.Screen,0_4_1_0_1_43,2021-11-05T11:43:12.036Z,,,,,,,,,,,,,,,,48,,,,,,,,,,,,,,373.99400000297464,,response,,,10,D,,,,,Space,keypress(Space),,,,silence,-- -- --- ------ ------- --------- ----------- --------<br>--------- -------- --- ------- -- ------- ---- -- ------<br>-- --- -------- -------- ---------- ---- ---- ---- ------<br>-- --------- -- ---- -- --- -- --- ------- -- - -----<br>---------- -- -- -- ---- years -- ------ -- --- ------<br>-------,168962,168961.20000000298,168570.535,168570.30000001192,168587.206,168970.464,,43,years
screen,html.Screen,0_4_1_0_1_44,2021-11-05T11:43:12.396Z,,,,,,,,,,,,,,,,48,,,,,,,,,,,,,,350.736000002973,,response,,,10,D,,,,,Space,keypress(Space),,,,silence,-- -- --- ------ ------- --------- ----------- --------<br>--------- -------- --- ------- -- ------- ---- -- ------<br>-- --- -------- -------- ---------- ---- ---- ---- ------<br>-- --------- -- ---- -- --- -- --- ------- -- - -----<br>---------- -- -- -- ---- ----- in ------ -- --- ------<br>-------,169322,169321.20000000298,168953.796,168962.30000001192,168970.464,169337.487,,44,in
screen,html.Screen,0_4_1_0_1_45,2021-11-05T11:43:12.795Z,,,,,,,,,,,,,,,,48,,,,,,,,,,,,,,383.613000008947,,response,,,10,D,,,,,Space,keypress(Space),,,,silence,-- -- --- ------ ------- --------- ----------- --------<br>--------- -------- --- ------- -- ------- ---- -- ------<br>-- --- -------- -------- ---------- ---- ---- ---- ------<br>-- --------- -- ---- -- --- -- --- ------- -- - -----<br>---------- -- -- -- ---- ----- -- prison -- --- ------<br>-------,169721.90000000596,169721.10000000894,169320.814,169322.20000000298,169337.487,169737.513,,45,prison
screen,html.Screen,0_4_1_0_1_46,2021-11-05T11:43:13.179Z,,,,,,,,,,,,,,,,48,,,,,,,,,,,,,,367.5870000089344,,response,,,10,D,,,,,Space,keypress(Space),,,,silence,-- -- --- ------ ------- --------- ----------- --------<br>--------- -------- --- ------- -- ------- ---- -- ------<br>-- --- -------- -------- ---------- ---- ---- ---- ------<br>-- --------- -- ---- -- --- -- --- ------- -- - -----<br>---------- -- -- -- ---- ----- -- ------ in --- ------<br>-------,170105.90000000596,170105.10000000894,169720.842,169722.10000000894,169737.513,170120.966,,46,in
screen,html.Screen,0_4_1_0_1_47,2021-11-05T11:43:13.548Z,,,,,,,,,,,,,,,,48,,,,,,,,,,,,,,352.5340000000142,,response,,,10,D,,,,,Space,keypress(Space),,,,silence,-- -- --- ------ ------- --------- ----------- --------<br>--------- -------- --- ------- -- ------- ---- -- ------<br>-- --- -------- -------- ---------- ---- ---- ---- ------<br>-- --------- -- ---- -- --- -- --- ------- -- - -----<br>---------- -- -- -- ---- ----- -- ------ -- the ------<br>-------,170474.40000000596,170473.5,170104.295,170106.20000000298,170120.966,170487.687,,47,the
screen,html.Screen,0_4_1_0_1_48,2021-11-05T11:43:13.955Z,,,,,,,,,,,,,,,,48,,,,,,,,,,,,,,393.1130000119156,,response,,,10,D,,,,,Space,keypress(Space),,,,silence,-- -- --- ------ ------- --------- ----------- --------<br>--------- -------- --- ------- -- ------- ---- -- ------<br>-- --- -------- -------- ---------- ---- ---- ---- ------<br>-- --------- -- ---- -- --- -- --- ------- -- - -----<br>---------- -- -- -- ---- ----- -- ------ -- --- United<br>-------,170881.30000001192,170880.80000001192,170471.017,170474.60000000894,170487.687,170887.847,,48,United
screen,html.Screen,0_4_1_0_1_49,2021-11-05T11:43:14.355Z,,,,,,,,,,,,,,,,48,,,,,,,,,,,,,,393.15299999999115,,response,,,10,D,,,,,Space,keypress(Space),,,,silence,-- -- --- ------ ------- --------- ----------- --------<br>--------- -------- --- ------- -- ------- ---- -- ------<br>-- --- -------- -------- ---------- ---- ---- ---- ------<br>-- --------- -- ---- -- --- -- --- ------- -- - -----<br>---------- -- -- -- ---- ----- -- ------ -- --- ------<br>States.,171281.90000000596,171281,170871.176,170881.40000000596,170887.847,171287.908,,49,States.
Item 10,flow.Loop,0_4_1_0_1,2021-11-05T11:43:14.356Z,,,,,,,,,,,,,,,,,,,,,,,,,,,,,,22299.068,,completion,,,,,,,,,,,,,,,,171282.30000001192,171281,148965.261,148966.70000000298,148981.932,171287.908,,,
Question 1,html.Screen,0_4_1_0_2,2021-11-05T11:43:20.163Z,,,,,,,,,,,,,,,,,,,,,,,,,,,true,TRUE,,5800.692000008945,,response,,,10,D,,,,,TRUE,click #choice-1,,,,silence,,177089.80000001192,177088.60000000894,171271.238,171282.40000000596,171287.908,177106.166,,,
Question 2,html.Screen,0_4_1_0_3,2021-11-05T11:43:25.734Z,,,,,,,,,,,,,,,,,,,,,,,,,,,false,TRUE,,5550.1340000119235,,response,,,10,D,,,,,FALSE,click #choice-2,,,,silence,,182657.5,182656.30000001192,177089.495,177090,177106.166,182674.25,,,
Item 10,flow.Sequence,0_4_1_0,2021-11-05T11:43:25.734Z,,,,,,,,,,,,,,,,,,,,,,,,,,,,,,40676.30000001192,,completion,,,,,,,,,,,,,,,,182658,182656.30000001192,141963.329,141965.80000001192,141980,182674.25,,,
Holding screen,html.Screen,0_4_1_1_0,2021-11-05T11:43:32.737Z,,,,,,,,,,,,,,,,,,,,,,,,,,,,,,7001.784000000014,,timeout,,,,,,,,,,,,,,,,189660.80000001192,189659.364,182640.91,182658.40000000596,182674.25,189676.034,,,
screen,html.Screen,0_4_1_1_1_0,2021-11-05T11:43:33.525Z,,,,,,,,,,,,,,,,51,,,,,,,,,,,,,,772.2660000119067,,response,,,13,D,,,,,Space,keypress(Space),,,,silence,American -------- --- --- ---- --- --- ------ -- --------<br>---- --------- --- ------- ------------ ---------- ---------<br>--- ---------- ------- ---------- ------- -- -------- ----<br>---- --- ------ ----- ------ -- ---- --- ----- -- - -------<br>-------- -- --- --- -- ----- ----------- ----- -----------<br>---- --- ---------- --- ---- --- -- ----------,190449.10000000894,190448.30000001192,189659.364,189661.40000000596,189676.034,190459.625,,0,American
screen,html.Screen,0_4_1_1_1_1,2021-11-05T11:43:33.989Z,,,,,,,,,,,,,,,,51,,,,,,,,,,,,,,452.57500000298023,,response,,,13,D,,,,,Space,keypress(Space),,,,silence,-------- industry --- --- ---- --- --- ------ -- --------<br>---- --------- --- ------- ------------ ---------- ---------<br>--- ---------- ------- ---------- ------- -- -------- ----<br>---- --- ------ ----- ------ -- ---- --- ----- -- - -------<br>-------- -- --- --- -- ----- ----------- ----- -----------<br>---- --- ---------- --- ---- --- -- ----------,190913.10000000894,190912.20000000298,190442.955,190449.40000000596,190459.625,190926.575,,1,industry
screen,html.Screen,0_4_1_1_1_2,2021-11-05T11:43:34.509Z,,,,,,,,,,,,,,,,51,,,,,,,,,,,,,,505.6250000029686,,response,,,13,D,,,,,Space,keypress(Space),,,,silence,-------- -------- may --- ---- --- --- ------ -- --------<br>---- --------- --- ------- ------------ ---------- ---------<br>--- ---------- ------- ---------- ------- -- -------- ----<br>---- --- ------ ----- ------ -- ---- --- ----- -- - -------<br>-------- -- --- --- -- ----- ----------- ----- -----------<br>---- --- ---------- --- ---- --- -- ----------,191433.10000000894,191432.20000000298,190909.904,190913.30000001192,190926.575,191443.364,,2,may
screen,html.Screen,0_4_1_1_1_3,2021-11-05T11:43:35.325Z,,,,,,,,,,,,,,,,51,,,,,,,,,,,,,,804.8360000029788,,response,,,13,D,,,,,Space,keypress(Space),,,,silence,-------- -------- --- not ---- --- --- ------ -- --------<br>---- --------- --- ------- ------------ ---------- ---------<br>--- ---------- ------- ---------- ------- -- -------- ----<br>---- --- ------ ----- ------ -- ---- --- ----- -- - -------<br>-------- -- --- --- -- ----- ----------- ----- -----------<br>---- --- ---------- --- ---- --- -- ----------,192249.10000000894,192248.20000000298,191426.693,191433.30000001192,191443.364,192260.158,,3,not
