sender,sender_type,sender_id,timestamp,meta,,Blues,Classical,Country,Dance,Electronic,Folk,Gospel,Hip-Hop,Jazz,Latin,Musical/Film,New-age,Pop,Provo_ID,R&B,Rap,Reggae,Religious,Rock,Soul,Swing,Traditional,age,artist_name,correct,correctResponse,distraction,duration,education,ended_on,familiarity,gender,item,list,music_frequency,offensiveness,pleasantness,preference,response,response_action,snippet_file,song_name,song_rating,sound,text,time_commit,time_end,time_render,time_run,time_show,time_switch,url,word,word_ID
Instructions,html.Page,0_0,2021-11-19T12:33:10.960Z,"{""labjs_version"":""20.2.3"",""labjs_build"":{""flavor"":""production"",""commit"":""7ea907d66ca8aeef8054924ca5d82ffbe11e34e5""},""location"":""https://run.pavlovia.org/mvasilev/lab_music_a/"",""userAgent"":""Mozilla/5.0 (Windows NT 6.1; Win64; x64) AppleWebKit/537.36 (KHTML, like Gecko) Chrome/96.0.4664.45 Safari/537.36"",""platform"":""Win32"",""language"":""en-US"",""locale"":""en-US"",""timeZone"":""Europe/London"",""timezoneOffset"":0,""screen_width"":1920,""screen_height"":1080,""scroll_width"":1920,""scroll_height"":959,""window_innerWidth"":1920,""window_innerHeight"":1007,""devicePixelRatio"":1}",,,,,,,,,,,,,,,,,,,,,,,,,,,,,16630.298000071525,,form submission,,,,,,,,,,,,,,,,25218,25217.300000071526,8570.336,8578,8587.002,25219.429,{},,
Headphones,html.Page,0_1,2021-11-19T12:33:16.606Z,,,,,,,,,,,,,,,,,,,,,,,,,,,,,,5643.771000047684,,form submission,,,,,,,,,,,,,,,,30863.700000047684,30863.200000047684,25202.754,25218.5,25219.429,30885.498,,,
Holding screen,html.Screen,0_2_0_0,2021-11-19T12:33:26.620Z,,,,,,,,,,,,,,,,,,,,,,,,,,,,,,9999.438999999998,,timeout,,,,,,,,,,,,,,,,40877.89999997616,40868.272,30868.833,30864.100000023842,30885.498,40884.937,,,
screen,html.Screen,0_2_0_1_0,2021-11-19T12:33:27.748Z,,,,,,,,,,,,,,,,53,,,,,,,,,,,,,,1119.2630000476856,,response,,,99,,,,,,Space,keypress(Space),,,,,When -- ----- -- ------ - ------- --- ----------<br>------------- ------ ------ ---- ---- ------- ----- -- ----<br>-------- ------- -- ---------- --- - --- ----- ----- ----<br>---- --- --- ----- --- ---- ---- ------- ----- ---- -------<br>--- --- -- ----- -- --- ---- -- --- ---- -- ------ ------<br>--- ----- -- ----,42005.300000071526,42004.200000047684,40868.272,40878.300000071526,40884.937,42018.053,,0,When
screen,html.Screen,0_2_0_1_1,2021-11-19T12:33:28.363Z,,,,,,,,,,,,,,,,53,,,,,,,,,,,,,,601.7470000715257,,response,,,99,,,,,,Space,keypress(Space),,,,,---- it ----- -- ------ - ------- --- ----------<br>------------- ------ ------ ---- ---- ------- ----- -- ----<br>-------- ------- -- ---------- --- - --- ----- ----- ----<br>---- --- --- ----- --- ---- ---- ------- ----- ---- -------<br>--- --- -- ----- -- --- ---- -- --- ---- -- ------ ------<br>--- ----- -- ----,42620.5,42619.800000071526,42001.389,42005.5,42018.053,42634.799,,1,it
screen,html.Screen,0_2_0_1_2,2021-11-19T12:33:28.819Z,,,,,,,,,,,,,,,,53,,,,,,,,,,,,,,441.0010000715265,,response,,,99,,,,,,Space,keypress(Space),,,,,---- -- comes -- ------ - ------- --- ----------<br>------------- ------ ------ ---- ---- ------- ----- -- ----<br>-------- ------- -- ---------- --- - --- ----- ----- ----<br>---- --- --- ----- --- ---- ---- ------- ----- ---- -------<br>--- --- -- ----- -- --- ---- -- --- ---- -- ------ ------<br>--- ----- -- ----,43076.39999997616,43075.800000071526,42618.134,42620.700000047684,42634.799,43084.803,,2,comes
screen,html.Screen,0_2_0_1_3,2021-11-19T12:33:29.259Z,,,,,,,,,,,,,,,,53,,,,,,,,,,,,,,430.9970000715257,,response,,,99,,,,,,Space,keypress(Space),,,,,---- -- ----- to ------ - ------- --- ----------<br>------------- ------ ------ ---- ---- ------- ----- -- ----<br>-------- ------- -- ---------- --- - --- ----- ----- ----<br>---- --- --- ----- --- ---- ---- ------- ----- ---- -------<br>--- --- -- ----- -- --- ---- -- --- ---- -- ------ ------<br>--- ----- -- ----,43516.5,43515.800000071526,43068.138,43076.60000002384,43084.803,43518.177,,3,to
screen,html.Screen,0_2_0_1_4,2021-11-19T12:33:29.715Z,,,,,,,,,,,,,,,,53,,,,,,,,,,,,,,453.5230000476804,,response,,,99,,,,,,Space,keypress(Space),,,,,---- -- ----- -- having - ------- --- ----------<br>------------- ------ ------ ---- ---- ------- ----- -- ----<br>-------- ------- -- ---------- --- - --- ----- ----- ----<br>---- --- --- ----- --- ---- ---- ------- ----- ---- -------<br>--- --- -- ----- -- --- ---- -- --- ---- -- ------ ------<br>--- ----- -- ----,43972.60000002384,43971.700000047684,43501.511,43516.800000071526,43518.177,43984.776,,4,having
screen,html.Screen,0_2_0_1_5,2021-11-19T12:33:30.171Z,,,,,,,,,,,,,,,,53,,,,,,,,,,,,,,442.9240000476857,,response,,,99,,,,,,Space,keypress(Space),,,,,---- -- ----- -- ------ a ------- --- ----------<br>------------- ------ ------ ---- ---- ------- ----- -- ----<br>-------- ------- -- ---------- --- - --- ----- ----- ----<br>---- --- --- ----- --- ---- ---- ------- ----- ---- -------<br>--- --- -- ----- -- --- ---- -- --- ---- -- ------ ------<br>--- ----- -- ----,44428.39999997616,44427.700000047684,43968.111,43972.800000071526,43984.776,44434.665,,5,a
screen,html.Screen,0_2_0_1_6,2021-11-19T12:33:30.603Z,,,,,,,,,,,,,,,,53,,,,,,,,,,,,,,425.03500004768284,,response,,,99,,,,,,Space,keypress(Space),,,,,---- -- ----- -- ------ - lasting --- ----------<br>------------- ------ ------ ---- ---- ------- ----- -- ----<br>-------- ------- -- ---------- --- - --- ----- ----- ----<br>---- --- --- ----- --- ---- ---- ------- ----- ---- -------<br>--- --- -- ----- -- --- ---- -- --- ---- -- ------ ------<br>--- ----- -- ----,44860.39999997616,44859.700000047684,44418.001,44428.700000047684,44434.665,44868.092,,6,lasting
screen,html.Screen,0_2_0_1_7,2021-11-19T12:33:31.107Z,,,,,,,,,,,,,,,,53,,,,,,,,,,,,,,495.50800002384494,,response,,,99,,,,,,Space,keypress(Space),,,,,---- -- ----- -- ------ - ------- and ----------<br>------------- ------ ------ ---- ---- ------- ----- -- ----<br>-------- ------- -- ---------- --- - --- ----- ----- ----<br>---- --- --- ----- --- ---- ---- ------- ----- ---- -------<br>--- --- -- ----- -- --- ---- -- --- ---- -- ------ ------<br>--- ----- -- ----,45364.300000071526,45363.60000002384,44851.426,44860.60000002384,44868.092,45367.867,,7,and
screen,html.Screen,0_2_0_1_8,2021-11-19T12:33:31.579Z,,,,,,,,,,,,,,,,53,,,,,,,,,,,,,,467.7330000238435,,response,,,99,,,,,,Space,keypress(Space),,,,,---- -- ----- -- ------ - ------- --- fulfilling<br>------------- ------ ------ ---- ---- ------- ----- -- ----<br>-------- ------- -- ---------- --- - --- ----- ----- ----<br>---- --- --- ----- --- ---- ---- ------- ----- ---- -------<br>--- --- -- ----- -- --- ---- -- --- ---- -- ------ ------<br>--- ----- -- ----,45836.39999997616,45835.60000002384,45351.204,45364.5,45367.867,45851.342,,8,fulfilling
screen,html.Screen,0_2_0_1_9,2021-11-19T12:33:32.123Z,,,,,,,,,,,,,,,,53,,,,,,,,,,,,,,528.1580000000031,,response,,,99,,,,,,Space,keypress(Space),,,,,"---- -- ----- -- ------ - ------- --- ----------<br>relationship, ------ ------ ---- ---- ------- ----- -- ----<br>-------- ------- -- ---------- --- - --- ----- ----- ----<br>---- --- --- ----- --- ---- ---- ------- ----- ---- -------<br>--- --- -- ----- -- --- ---- -- --- ---- -- ------ ------<br>--- ----- -- ----",46380.200000047684,46379.5,45834.676,45836.60000002384,45851.342,46384.586,,9,"relationship,"
screen,html.Screen,0_2_0_1_10,2021-11-19T12:33:32.675Z,,,,,,,,,,,,,,,,53,,,,,,,,,,,,,,546.913999999997,,response,,,99,,,,,,Space,keypress(Space),,,,,---- -- ----- -- ------ - ------- --- ----------<br>------------- common ------ ---- ---- ------- ----- -- ----<br>-------- ------- -- ---------- --- - --- ----- ----- ----<br>---- --- --- ----- --- ---- ---- ------- ----- ---- -------<br>--- --- -- ----- -- --- ---- -- --- ---- -- ------ ------<br>--- ----- -- ----,46932.200000047684,46931.5,46367.921,46380.39999997616,46384.586,46934.549,,10,common
screen,html.Screen,0_2_0_1_11,2021-11-19T12:33:33.162Z,,,,,,,,,,,,,,,,53,,,,,,,,,,,,,,484.95100000000093,,response,,,99,,,,,,Space,keypress(Space),,,,,---- -- ----- -- ------ - ------- --- ----------<br>------------- ------ wisdom ---- ---- ------- ----- -- ----<br>-------- ------- -- ---------- --- - --- ----- ----- ----<br>---- --- --- ----- --- ---- ---- ------- ----- ---- -------<br>--- --- -- ----- -- --- ---- -- --- ---- -- ------ ------<br>--- ----- -- ----,47420.200000047684,47419.5,46917.884,46932.39999997616,46934.549,47434.603,,11,wisdom
screen,html.Screen,0_2_0_1_12,2021-11-19T12:33:33.674Z,,,,,,,,,,,,,,,,53,,,,,,,,,,,,,,496.79699997615535,,response,,,99,,,,,,Space,keypress(Space),,,,,---- -- ----- -- ------ - ------- --- ----------<br>------------- ------ ------ says ---- ------- ----- -- ----<br>-------- ------- -- ---------- --- - --- ----- ----- ----<br>---- --- --- ----- --- ---- ---- ------- ----- ---- -------<br>--- --- -- ----- -- --- ---- -- --- ---- -- ------ ------<br>--- ----- -- ----,47932,47931.39999997616,47417.937,47420.300000071526,47434.603,47934.577,,12,says
screen,html.Screen,0_2_0_1_13,2021-11-19T12:33:34.130Z,,,,,,,,,,,,,,,,53,,,,,,,,,,,,,,452.82299997616065,,response,,,99,,,,,,Space,keypress(Space),,,,,---- -- ----- -- ------ - ------- --- ----------<br>------------- ------ ------ ---- that ------- ----- -- ----<br>-------- ------- -- ---------- --- - --- ----- ----- ----<br>---- --- --- ----- --- ---- ---- ------- ----- ---- -------<br>--- --- -- ----- -- --- ---- -- --- ---- -- ------ ------<br>--- ----- -- ----,48388,48387.39999997616,47917.911,47932.200000047684,47934.577,48401.164,,13,that
screen,html.Screen,0_2_0_1_14,2021-11-19T12:33:34.738Z,,,,,,,,,,,,,,,,53,,,,,,,,,,,,,,594.2359999761611,,response,,,99,,,,,,Space,keypress(Space),,,,,---- -- ----- -- ------ - ------- --- ----------<br>------------- ------ ------ ---- ---- feeling ----- -- ----<br>-------- ------- -- ---------- --- - --- ----- ----- ----<br>---- --- --- ----- --- ---- ---- ------- ----- ---- -------<br>--- --- -- ----- -- --- ---- -- --- ---- -- ------ ------<br>--- ----- -- ----,48996.10000002384,48995.39999997616,48384.499,48388.200000047684,48401.164,49001.053,,14,feeling
screen,html.Screen,0_2_0_1_15,2021-11-19T12:33:35.194Z,,,,,,,,,,,,,,,,53,,,,,,,,,,,,,,450.34699997615826,,response,,,99,,,,,,Space,keypress(Space),,,,,---- -- ----- -- ------ - ------- --- ----------<br>------------- ------ ------ ---- ---- ------- close -- ----<br>-------- ------- -- ---------- --- - --- ----- ----- ----<br>---- --- --- ----- --- ---- ---- ------- ----- ---- -------<br>--- --- -- ----- -- --- ---- -- --- ---- -- ------ ------<br>--- ----- -- ----,49452,49451.39999997616,48984.389,48996.300000071526,49001.053,49467.742,,15,close
screen,html.Screen,0_2_0_1_16,2021-11-19T12:33:35.682Z,,,,,,,,,,,,,,,,53,,,,,,,,,,,,,,471.6579999761598,,response,,,99,,,,,,Space,keypress(Space),,,,,---- -- ----- -- ------ - ------- --- ----------<br>------------- ------ ------ ---- ---- ------- ----- to ----<br>-------- ------- -- ---------- --- - --- ----- ----- ----<br>---- --- --- ----- --- ---- ---- ------- ----- ---- -------<br>--- --- -- ----- -- --- ---- -- --- ---- -- ------ ------<br>--- ----- -- ----,49939.89999997616,49939.39999997616,49451.077,49452.200000047684,49467.742,49951.023,,16,to
screen,html.Screen,0_2_0_1_17,2021-11-19T12:33:36.066Z,,,,,,,,,,,,,,,,53,,,,,,,,,,,,,,372.2770000715245,,response,,,99,,,,,,Space,keypress(Space),,,,,---- -- ----- -- ------ - ------- --- ----------<br>------------- ------ ------ ---- ---- ------- ----- -- your<br>-------- ------- -- ---------- --- - --- ----- ----- ----<br>---- --- --- ----- --- ---- ---- ------- ----- ---- -------<br>--- --- -- ----- -- --- ---- -- --- ---- -- ------ ------<br>--- ----- -- ----,50323.89999997616,50323.300000071526,49934.358,49940.10000002384,49951.023,50334.398,,17,your
screen,html.Screen,0_2_0_1_18,2021-11-19T12:33:36.594Z,,,,,,,,,,,,,,,,53,,,,,,,,,,,,,,516.9020000715245,,response,,,99,,,,,,Space,keypress(Space),,,,,---- -- ----- -- ------ - ------- --- ----------<br>------------- ------ ------ ---- ---- ------- ----- -- ----<br>romantic ------- -- ---------- --- - --- ----- ----- ----<br>---- --- --- ----- --- ---- ---- ------- ----- ---- -------<br>--- --- -- ----- -- --- ---- -- --- ---- -- ------ ------<br>--- ----- -- ----,50851.89999997616,50851.300000071526,50317.732,50324,50334.398,50867.655,,18,romantic
screen,html.Screen,0_2_0_1_19,2021-11-19T12:33:37.106Z,,,,,,,,,,,,,,,,53,,,,,,,,,,,,,,495.64500007152674,,response,,,99,,,,,,Space,keypress(Space),,,,,---- -- ----- -- ------ - ------- --- ----------<br>------------- ------ ------ ---- ---- ------- ----- -- ----<br>-------- partner -- ---------- --- - --- ----- ----- ----<br>---- --- --- ----- --- ---- ---- ------- ----- ---- -------<br>--- --- -- ----- -- --- ---- -- --- ---- -- ------ ------<br>--- ----- -- ----,51363.89999997616,51363.300000071526,50850.99,50852.10000002384,50867.655,51367.691,,19,partner
screen,html.Screen,0_2_0_1_20,2021-11-19T12:33:37.554Z,,,,,,,,,,,,,,,,53,,,,,,,,,,,,,,443.6090000715267,,response,,,99,,,,,,Space,keypress(Space),,,,,---- -- ----- -- ------ - ------- --- ----------<br>------------- ------ ------ ---- ---- ------- ----- -- ----<br>-------- ------- is ---------- --- - --- ----- ----- ----<br>---- --- --- ----- --- ---- ---- ------- ----- ---- -------<br>--- --- -- ----- -- --- ---- -- --- ---- -- ------ ------<br>--- ----- -- ----,51811.800000071526,51811.300000071526,51351.025,51364,51367.691,51817.515,,20,is
screen,html.Screen,0_2_0_1_21,2021-11-19T12:33:38.090Z,,,,,,,,,,,,,,,,53,,,,,,,,,,,,,,529.9850000000006,,response,,,99,,,,,,Space,keypress(Space),,,,,---- -- ----- -- ------ - ------- --- ----------<br>------------- ------ ------ ---- ---- ------- ----- -- ----<br>-------- ------- -- paramount. --- - --- ----- ----- ----<br>---- --- --- ----- --- ---- ---- ------- ----- ---- -------<br>--- --- -- ----- -- --- ---- -- --- ---- -- ------ ------<br>--- ----- -- ----,52348.10000002384,52347.5,51800.851,51812,51817.515,52350.874,,21,paramount.
screen,html.Screen,0_2_0_1_22,2021-11-19T12:33:38.898Z,,,,,,,,,,,,,,,,53,,,,,,,,,,,,,,804.3260000476803,,response,,,99,,,,,,Space,keypress(Space),,,,,---- -- ----- -- ------ - ------- --- ----------<br>------------- ------ ------ ---- ---- ------- ----- -- ----<br>-------- ------- -- ---------- But - --- ----- ----- ----<br>---- --- --- ----- --- ---- ---- ------- ----- ---- -------<br>--- --- -- ----- -- --- ---- -- --- ---- -- ------ ------<br>--- ----- -- ----,53155.800000071526,53155.200000047684,52334.209,52348.39999997616,52350.874,53167.596,,22,But
screen,html.Screen,0_2_0_1_23,2021-11-19T12:33:39.442Z,,,,,,,,,,,,,,,,53,,,,,,,,,,,,,,531.5040000238441,,response,,,99,,,,,,Space,keypress(Space),,,,,---- -- ----- -- ------ - ------- --- ----------<br>------------- ------ ------ ---- ---- ------- ----- -- ----<br>-------- ------- -- ---------- --- a --- ----- ----- ----<br>---- --- --- ----- --- ---- ---- ------- ----- ---- -------<br>--- --- -- ----- -- --- ---- -- --- ---- -- ------ ------<br>--- ----- -- ----,53699.700000047684,53699.10000002384,53150.93,53155.89999997616,53167.596,53700.812,,23,a
screen,html.Screen,0_2_0_1_24,2021-11-19T12:33:39.954Z,,,,,,,,,,,,,,,,53,,,,,,,,,,,,,,510.2880000238438,,response,,,99,,,,,,Space,keypress(Space),,,,,---- -- ----- -- ------ - ------- --- ----------<br>------------- ------ ------ ---- ---- ------- ----- -- ----<br>-------- ------- -- ---------- --- - new ----- ----- ----<br>---- --- --- ----- --- ---- ---- ------- ----- ---- -------<br>--- --- -- ----- -- --- ---- -- --- ---- -- ------ ------<br>--- ----- -- ----,54211.700000047684,54211.10000002384,53684.147,53699.89999997616,53700.812,54217.529,,24,new
screen,html.Screen,0_2_0_1_25,2021-11-19T12:33:40.474Z,,,,,,,,,,,,,,,,53,,,,,,,,,,,,,,513.4709999999977,,response,,,99,,,,,,Space,keypress(Space),,,,,---- -- ----- -- ------ - ------- --- ----------<br>------------- ------ ------ ---- ---- ------- ----- -- ----<br>-------- ------- -- ---------- --- - --- study ----- ----<br>---- --- --- ----- --- ---- ---- ------- ----- ---- -------<br>--- --- -- ----- -- --- ---- -- --- ---- -- ------ ------<br>--- ----- -- ----,54731.60000002384,54731,54200.863,54211.800000071526,54217.529,54734.003,,25,study
screen,html.Screen,0_2_0_1_26,2021-11-19T12:33:40.922Z,,,,,,,,,,,,,,,,53,,,,,,,,,,,,,,444.997000000003,,response,,,99,,,,,,Space,keypress(Space),,,,,---- -- ----- -- ------ - ------- --- ----------<br>------------- ------ ------ ---- ---- ------- ----- -- ----<br>-------- ------- -- ---------- --- - --- ----- finds ----<br>---- --- --- ----- --- ---- ---- ------- ----- ---- -------<br>--- --- -- ----- -- --- ---- -- --- ---- -- ------ ------<br>--- ----- -- ----,55179.5,55179,54717.339,54731.800000071526,54734.003,55184.143,,26,finds
screen,html.Screen,0_2_0_1_27,2021-11-19T12:33:41.490Z,,,,,,,,,,,,,,,,53,,,,,,,,,,,,,,562.9570000238455,,response,,,99,,,,,,Space,keypress(Space),,,,,---- -- ----- -- ------ - ------- --- ----------<br>------------- ------ ------ ---- ---- ------- ----- -- ----<br>-------- ------- -- ---------- --- - --- ----- ----- that<br>---- --- --- ----- --- ---- ---- ------- ----- ---- -------<br>--- --- -- ----- -- --- ---- -- --- ---- -- ------ ------<br>--- ----- -- ----,55747.700000047684,55747.10000002384,55167.477,55179.700000047684,55184.143,55750.639,,27,that
screen,html.Screen,0_2_0_1_28,2021-11-19T12:33:42.010Z,,,,,,,,,,,,,,,,53,,,,,,,,,,,,,,516.3609999999971,,response,,,99,,,,,,Space,keypress(Space),,,,,---- -- ----- -- ------ - ------- --- ----------<br>------------- ------ ------ ---- ---- ------- ----- -- ----<br>-------- ------- -- ---------- --- - --- ----- ----- ----<br>it's --- --- ----- --- ---- ---- ------- ----- ---- -------<br>--- --- -- ----- -- --- ---- -- --- ---- -- ------ ------<br>--- ----- -- ----,56267.60000002384,56267,55733.975,55747.800000071526,55750.639,56283.987,,28,it's
screen,html.Screen,0_2_0_1_29,2021-11-19T12:33:42.434Z,,,,,,,,,,,,,,,,53,,,,,,,,,,,,,,407.012999999999,,response,,,99,,,,,,Space,keypress(Space),,,,,---- -- ----- -- ------ - ------- --- ----------<br>------------- ------ ------ ---- ---- ------- ----- -- ----<br>-------- ------- -- ---------- --- - --- ----- ----- ----<br>---- not --- ----- --- ---- ---- ------- ----- ---- -------<br>--- --- -- ----- -- --- ---- -- --- ---- -- ------ ------<br>--- ----- -- ----,56691.5,56691,56267.322,56267.800000071526,56283.987,56700.547,,29,not
screen,html.Screen,0_2_0_1_30,2021-11-19T12:33:42.818Z,,,,,,,,,,,,,,,,53,,,,,,,,,,,,,,374.3529999761595,,response,,,99,,,,,,Space,keypress(Space),,,,,---- -- ----- -- ------ - ------- --- ----------<br>------------- ------ ------ ---- ---- ------- ----- -- ----<br>-------- ------- -- ---------- --- - --- ----- ----- ----<br>---- --- how ----- --- ---- ---- ------- ----- ---- -------<br>--- --- -- ----- -- --- ---- -- --- ---- -- ------ ------<br>--- ----- -- ----,57075.5,57074.89999997616,56683.883,56691.700000047684,56700.547,57083.985,,30,how
screen,html.Screen,0_2_0_1_31,2021-11-19T12:33:43.266Z,,,,,,,,,,,,,,,,53,,,,,,,,,,,,,,438.91499997615756,,response,,,99,,,,,,Space,keypress(Space),,,,,---- -- ----- -- ------ - ------- --- ----------<br>------------- ------ ------ ---- ---- ------- ----- -- ----<br>-------- ------- -- ---------- --- - --- ----- ----- ----<br>---- --- --- close --- ---- ---- ------- ----- ---- -------<br>--- --- -- ----- -- --- ---- -- --- ---- -- ------ ------<br>--- ----- -- ----,57523.5,57522.89999997616,57067.319,57075.700000047684,57083.985,57533.91,,31,close
screen,html.Screen,0_2_0_1_32,2021-11-19T12:33:43.746Z,,,,,,,,,,,,,,,,53,,,,,,,,,,,,,,468.98999997615465,,response,,,99,,,,,,Space,keypress(Space),,,,,---- -- ----- -- ------ - ------- --- ----------<br>------------- ------ ------ ---- ---- ------- ----- -- ----<br>-------- ------- -- ---------- --- - --- ----- ----- ----<br>---- --- --- ----- you ---- ---- ------- ----- ---- -------<br>--- --- -- ----- -- --- ---- -- --- ---- -- ------ ------<br>--- ----- -- ----,58003.5,58002.89999997616,57517.245,57523.700000047684,57533.91,58017.227,,32,you
screen,html.Screen,0_2_0_1_33,2021-11-19T12:33:44.242Z,,,,,,,,,,,,,,,,53,,,,,,,,,,,,,,481.6729999761592,,response,,,99,,,,,,Space,keypress(Space),,,,,---- -- ----- -- ------ - ------- --- ----------<br>------------- ------ ------ ---- ---- ------- ----- -- ----<br>-------- ------- -- ---------- --- - --- ----- ----- ----<br>---- --- --- ----- --- feel ---- ------- ----- ---- -------<br>--- --- -- ----- -- --- ---- -- --- ---- -- ------ ------<br>--- ----- -- ----,58499.5,58498.89999997616,58000.562,58003.700000047684,58017.227,58500.61,,33,feel
screen,html.Screen,0_2_0_1_34,2021-11-19T12:33:44.834Z,,,,,,,,,,,,,,,,53,,,,,,,,,,,,,,590.2899999761576,,response,,,99,,,,,,Space,keypress(Space),,,,,---- -- ----- -- ------ - ------- --- ----------<br>------------- ------ ------ ---- ---- ------- ----- -- ----<br>-------- ------- -- ---------- --- - --- ----- ----- ----<br>---- --- --- ----- --- ---- that ------- ----- ---- -------<br>--- --- -- ----- -- --- ---- -- --- ---- -- ------ ------<br>--- ----- -- ----,59091.39999997616,59090.89999997616,58483.944,58499.700000047684,58500.61,59100.402,,34,that
screen,html.Screen,0_2_0_1_35,2021-11-19T12:33:45.378Z,,,,,,,,,,,,,,,,53,,,,,,,,,,,,,,534.3980000715237,,response,,,99,,,,,,Space,keypress(Space),,,,,---- -- ----- -- ------ - ------- --- ----------<br>------------- ------ ------ ---- ---- ------- ----- -- ----<br>-------- ------- -- ---------- --- - --- ----- ----- ----<br>---- --- --- ----- --- ---- ---- matters ----- ---- -------<br>--- --- -- ----- -- --- ---- -- --- ---- -- ------ ------<br>--- ----- -- ----,59635.39999997616,59634.800000071526,59083.738,59091.60000002384,59100.402,59650.459,,35,matters
screen,html.Screen,0_2_0_1_36,2021-11-19T12:33:45.997Z,,,,,,,,,,,,,,,,53,,,,,,,,,,,,,,600.341000071523,,response,,,99,,,,,,Space,keypress(Space),,,,,"---- -- ----- -- ------ - ------- --- ----------<br>------------- ------ ------ ---- ---- ------- ----- -- ----<br>-------- ------- -- ---------- --- - --- ----- ----- ----<br>---- --- --- ----- --- ---- ---- ------- most, ---- -------<br>--- --- -- ----- -- --- ---- -- --- ---- -- ------ ------<br>--- ----- -- ----",60251.39999997616,60250.800000071526,59633.794,59635.5,59650.459,60267.073,,36,"most,"
screen,html.Screen,0_2_0_1_37,2021-11-19T12:33:46.533Z,,,,,,,,,,,,,,,,53,,,,,,,,,,,,,,519.7270000715289,,response,,,99,,,,,,Space,keypress(Space),,,,,---- -- ----- -- ------ - ------- --- ----------<br>------------- ------ ------ ---- ---- ------- ----- -- ----<br>-------- ------- -- ---------- --- - --- ----- ----- ----<br>---- --- --- ----- --- ---- ---- ------- ----- it's -------<br>--- --- -- ----- -- --- ---- -- --- ---- -- ------ ------<br>--- ----- -- ----,60787.39999997616,60786.800000071526,60250.408,60251.5,60267.073,60800.376,,37,it's
screen,html.Screen,0_2_0_1_38,2021-11-19T12:33:47.029Z,,,,,,,,,,,,,,,,53,,,,,,,,,,,,,,482.32400004768715,,response,,,99,,,,,,Space,keypress(Space),,,,,---- -- ----- -- ------ - ------- --- ----------<br>------------- ------ ------ ---- ---- ------- ----- -- ----<br>-------- ------- -- ---------- --- - --- ----- ----- ----<br>---- --- --- ----- --- ---- ---- ------- ----- ---- whether<br>--- --- -- ----- -- --- ---- -- --- ---- -- ------ ------<br>--- ----- -- ----,61283.300000071526,61282.700000047684,60783.711,60787.60000002384,60800.376,61300.329,,38,whether
screen,html.Screen,0_2_0_1_39,2021-11-19T12:33:47.541Z,,,,,,,,,,,,,,,,53,,,,,,,,,,,,,,494.27100002384395,,response,,,99,,,,,,Space,keypress(Space),,,,,---- -- ----- -- ------ - ------- --- ----------<br>------------- ------ ------ ---- ---- ------- ----- -- ----<br>-------- ------- -- ---------- --- - --- ----- ----- ----<br>---- --- --- ----- --- ---- ---- ------- ----- ---- -------<br>you --- -- ----- -- --- ---- -- --- ---- -- ------ ------<br>--- ----- -- ----,61795.200000047684,61794.60000002384,61283.664,61283.5,61300.329,61800.326,,39,you
screen,html.Screen,0_2_0_1_40,2021-11-19T12:33:47.981Z,,,,,,,,,,,,,,,,53,,,,,,,,,,,,,,434.2740000238409,,response,,,99,,,,,,Space,keypress(Space),,,,,---- -- ----- -- ------ - ------- --- ----------<br>------------- ------ ------ ---- ---- ------- ----- -- ----<br>-------- ------- -- ---------- --- - --- ----- ----- ----<br>---- --- --- ----- --- ---- ---- ------- ----- ---- -------<br>--- are -- ----- -- --- ---- -- --- ---- -- ------ ------<br>--- ----- -- ----,62235.10000002384,62234.60000002384,61783.661,61795.39999997616,61800.326,62250.223,,40,are
screen,html.Screen,0_2_0_1_41,2021-11-19T12:33:48.429Z,,,,,,,,,,,,,,,,53,,,,,,,,,,,,,,432.57700007152744,,response,,,99,,,,,,Space,keypress(Space),,,,,---- -- ----- -- ------ - ------- --- ----------<br>------------- ------ ------ ---- ---- ------- ----- -- ----<br>-------- ------- -- ---------- --- - --- ----- ----- ----<br>---- --- --- ----- --- ---- ---- ------- ----- ---- -------<br>--- --- as ----- -- --- ---- -- --- ---- -- ------ ------<br>--- ----- -- ----,62683.300000071526,62682.800000071526,62233.559,62235.300000071526,62250.223,62700.317,,41,as
screen,html.Screen,0_2_0_1_42,2021-11-19T12:33:48.885Z,,,,,,,,,,,,,,,,53,,,,,,,,,,,,,,438.2830000238391,,response,,,99,,,,,,Space,keypress(Space),,,,,---- -- ----- -- ------ - ------- --- ----------<br>------------- ------ ------ ---- ---- ------- ----- -- ----<br>-------- ------- -- ---------- --- - --- ----- ----- ----<br>---- --- --- ----- --- ---- ---- ------- ----- ---- -------<br>--- --- -- close -- --- ---- -- --- ---- -- ------ ------<br>--- ----- -- ----,63139.10000002384,63138.60000002384,62683.651,62683.5,62700.317,63150.237,,42,close
screen,html.Screen,0_2_0_1_43,2021-11-19T12:33:49.309Z,,,,,,,,,,,,,,,,53,,,,,,,,,,,,,,412.16299997615715,,response,,,99,,,,,,Space,keypress(Space),,,,,---- -- ----- -- ------ - ------- --- ----------<br>------------- ------ ------ ---- ---- ------- ----- -- ----<br>-------- ------- -- ---------- --- - --- ----- ----- ----<br>---- --- --- ----- --- ---- ---- ------- ----- ---- -------<br>--- --- -- ----- as --- ---- -- --- ---- -- ------ ------<br>--- ----- -- ----,63563.10000002384,63562.39999997616,63133.572,63139.39999997616,63150.237,63566.895,,43,as
screen,html.Screen,0_2_0_1_44,2021-11-19T12:33:49.717Z,,,,,,,,,,,,,,,,53,,,,,,,,,,,,,,403.6050000000032,,response,,,99,,,,,,Space,keypress(Space),,,,,---- -- ----- -- ------ - ------- --- ----------<br>------------- ------ ------ ---- ---- ------- ----- -- ----<br>-------- ------- -- ---------- --- - --- ----- ----- ----<br>---- --- --- ----- --- ---- ---- ------- ----- ---- -------<br>--- --- -- ----- -- you ---- -- --- ---- -- ------ ------<br>--- ----- -- ----,63971.10000002384,63970.5,63550.23,63563.200000047684,63566.895,63983.513,,44,you
screen,html.Screen,0_2_0_1_45,2021-11-19T12:33:50.109Z,,,,,,,,,,,,,,,,53,,,,,,,,,,,,,,378.88699997615913,,response,,,99,,,,,,Space,keypress(Space),,,,,---- -- ----- -- ------ - ------- --- ----------<br>------------- ------ ------ ---- ---- ------- ----- -- ----<br>-------- ------- -- ---------- --- - --- ----- ----- ----<br>---- --- --- ----- --- ---- ---- ------- ----- ---- -------<br>--- --- -- ----- -- --- want -- --- ---- -- ------ ------<br>--- ----- -- ----,64363,64362.39999997616,63966.848,63971.300000071526,63983.513,64366.826,,45,want
screen,html.Screen,0_2_0_1_46,2021-11-19T12:33:50.453Z,,,,,,,,,,,,,,,,53,,,,,,,,,,,,,,339.67399999999907,,response,,,99,,,,,,Space,keypress(Space),,,,,---- -- ----- -- ------ - ------- --- ----------<br>------------- ------ ------ ---- ---- ------- ----- -- ----<br>-------- ------- -- ---------- --- - --- ----- ----- ----<br>---- --- --- ----- --- ---- ---- ------- ----- ---- -------<br>--- --- -- ----- -- --- ---- to --- ---- -- ------ ------<br>--- ----- -- ----,64707.10000002384,64706.5,64350.161,64363.200000047684,64366.826,64716.859,,46,to
screen,html.Screen,0_2_0_1_47,2021-11-19T12:33:50.813Z,,,,,,,,,,,,,,,,53,,,,,,,,,,,,,,349.5409999761614,,response,,,99,,,,,,Space,keypress(Space),,,,,"---- -- ----- -- ------ - ------- --- ----------<br>------------- ------ ------ ---- ---- ------- ----- -- ----<br>-------- ------- -- ---------- --- - --- ----- ----- ----<br>---- --- --- ----- --- ---- ---- ------- ----- ---- -------<br>--- --- -- ----- -- --- ---- -- be, ---- -- ------ ------<br>--- ----- -- ----",65067,65066.39999997616,64700.193,64707.200000047684,64716.859,65083.483,,47,"be,"
screen,html.Screen,0_2_0_1_48,2021-11-19T12:33:51.221Z,,,,,,,,,,,,,,,,53,,,,,,,,,,,,,,390.91699997615797,,response,,,99,,,,,,Space,keypress(Space),,,,,---- -- ----- -- ------ - ------- --- ----------<br>------------- ------ ------ ---- ---- ------- ----- -- ----<br>-------- ------- -- ---------- --- - --- ----- ----- ----<br>---- --- --- ----- --- ---- ---- ------- ----- ---- -------<br>--- --- -- ----- -- --- ---- -- --- even -- ------ ------<br>--- ----- -- ----,65475,65474.39999997616,65066.818,65067.200000047684,65083.483,65483.394,,48,even
screen,html.Screen,0_2_0_1_49,2021-11-19T12:33:51.629Z,,,,,,,,,,,,,,,,53,,,,,,,,,,,,,,398.90600007152534,,response,,,99,,,,,,Space,keypress(Space),,,,,---- -- ----- -- ------ - ------- --- ----------<br>------------- ------ ------ ---- ---- ------- ----- -- ----<br>-------- ------- -- ---------- --- - --- ----- ----- ----<br>---- --- --- ----- --- ---- ---- ------- ----- ---- -------<br>--- --- -- ----- -- --- ---- -- --- ---- if ------ ------<br>--- ----- -- ----,65883,65882.30000007153,65466.73,65475.200000047684,65483.394,65900.133,,49,if
screen,html.Screen,0_2_0_1_50,2021-11-19T12:33:52.061Z,,,,,,,,,,,,,,,,53,,,,,,,,,,,,,,414.2669999761565,,response,,,99,,,,,,Space,keypress(Space),,,,,---- -- ----- -- ------ - ------- --- ----------<br>------------- ------ ------ ---- ---- ------- ----- -- ----<br>-------- ------- -- ---------- --- - --- ----- ----- ----<br>---- --- --- ----- --- ---- ---- ------- ----- ---- -------<br>--- --- -- ----- -- --- ---- -- --- ---- -- that's ------<br>--- ----- -- ----,66314.89999997616,66314.39999997616,65883.467,65883.20000004768,65900.133,66316.738,,50,that's
screen,html.Screen,0_2_0_1_51,2021-11-19T12:33:52.477Z,,,,,,,,,,,,,,,,53,,,,,,,,,,,,,,413.562000071528,,response,,,99,,,,,,Space,keypress(Space),,,,,---- -- ----- -- ------ - ------- --- ----------<br>------------- ------ ------ ---- ---- ------- ----- -- ----<br>-------- ------- -- ---------- --- - --- ----- ----- ----<br>---- --- --- ----- --- ---- ---- ------- ----- ---- -------<br>--- --- -- ----- -- --- ---- -- --- ---- -- ------ really<br>--- ----- -- ----,66731,66730.30000007153,66300.073,66315.10000002384,66316.738,66733.319,,51,really
screen,html.Screen,0_2_0_1_52,2021-11-19T12:33:52.877Z,,,,,,,,,,,,,,,,53,,,,,,,,,,,,,,396.98100007152243,,response,,,99,,,,,,Space,keypress(Space),,,,,---- -- ----- -- ------ - ------- --- ----------<br>------------- ------ ------ ---- ---- ------- ----- -- ----<br>-------- ------- -- ---------- --- - --- ----- ----- ----<br>---- --- --- ----- --- ---- ---- ------- ----- ---- -------<br>--- --- -- ----- -- --- ---- -- --- ---- -- ------ ------<br>not ----- -- ----,67131,67130.30000007153,66716.655,66731.10000002384,66733.319,67133.264,,52,not
screen,html.Screen,0_2_0_1_53,2021-11-19T12:33:53.245Z,,,,,,,,,,,,,,,,53,,,,,,,,,,,,,,365.03600007153,,response,,,99,,,,,,Space,keypress(Space),,,,,---- -- ----- -- ------ - ------- --- ----------<br>------------- ------ ------ ---- ---- ------- ----- -- ----<br>-------- ------- -- ---------- --- - --- ----- ----- ----<br>---- --- --- ----- --- ---- ---- ------- ----- ---- -------<br>--- --- -- ----- -- --- ---- -- --- ---- -- ------ ------<br>--- close -- ----,67498.89999997616,67498.30000007153,67116.6,67131.20000004768,67133.264,67500.03,,53,close
screen,html.Screen,0_2_0_1_54,2021-11-19T12:33:53.565Z,,,,,,,,,,,,,,,,53,,,,,,,,,,,,,,318.27000007152674,,response,,,99,,,,,,Space,keypress(Space),,,,,---- -- ----- -- ------ - ------- --- ----------<br>------------- ------ ------ ---- ---- ------- ----- -- ----<br>-------- ------- -- ---------- --- - --- ----- ----- ----<br>---- --- --- ----- --- ---- ---- ------- ----- ---- -------<br>--- --- -- ----- -- --- ---- -- --- ---- -- ------ ------<br>--- ----- at ----,67819,67818.30000007153,67483.364,67499,67500.03,67833.354,,54,at
screen,html.Screen,0_2_0_1_55,2021-11-19T12:33:53.845Z,,,,,,,,,,,,,,,,53,,,,,,,,,,,,,,264.8460000476771,,response,,,99,,,,,,Space,keypress(Space),,,,,---- -- ----- -- ------ - ------- --- ----------<br>------------- ------ ------ ---- ---- ------- ----- -- ----<br>-------- ------- -- ---------- --- - --- ----- ----- ----<br>---- --- --- ----- --- ---- ---- ------- ----- ---- -------<br>--- --- -- ----- -- --- ---- -- --- ---- -- ------ ------<br>--- ----- -- all.,68098.80000007153,68098.20000004768,67816.688,67819.10000002384,67833.354,68116.575,,55,all.
Item 99,flow.Loop,0_2_0_1,2021-11-19T12:33:53.847Z,,,,,,,,,,,,,,,,,,,,,,,,,,,,,,27213.263000047686,,completion,,,,A,,,,,,,,,,silence,,68101.60000002384,68098.20000004768,40868.272,40878.200000047684,40884.937,68116.575,,,
Question 1,html.Screen,0_2_0_2,2021-11-19T12:34:00.466Z,,,,,,,,,,,,,,,,,,,,,,,,,,,true,FALSE,,6602.125000047687,,response,,,99,A,,,,,FALSE,click #choice-2,,,,silence,,74719.70000004768,74718.70000004768,68099.911,68101.80000007153,68116.575,74732.838,,,
Question 2,html.Screen,0_2_0_3,2021-11-19T12:34:05.334Z,,,,,,,,,,,,,,,,,,,,,,,,,,,true,TRUE,,4854.2620000238385,,response,,,99,A,,,,,TRUE,click #choice-1,,,,silence,,79587.89999997616,79587.10000002384,74716.173,74719.89999997616,74732.838,79599.235,,,
Item 99,flow.Sequence,0_2_0,2021-11-19T12:34:05.334Z,,,,,,,,,,,,,,,,,,,,,,,,,,,,,,48701.60200002384,,completion,,,,,,,,,,,,,,,,79588.20000004768,79587.10000002384,30868.833,30864,30885.498,79599.235,,,
Holding screen,html.Screen,0_2_1_0,2021-11-19T12:34:15.328Z,,,,,,,,,,,,,,,,,,,,,,,,,,,,,,9999.350999999995,,timeout,,,,,,,,,,,,,,,,89582.60000002384,89581.921,79582.57,79588.39999997616,79599.235,89598.586,,,
screen,html.Screen,0_2_1_1_0,2021-11-19T12:34:16.596Z,,,,,,,,,,,,,,,,54,,,,,,,,,,,,,,1250.5140000238462,,response,,,100,,,,,,Space,keypress(Space),,,,,At --- ---- --- ------ ----- ------- ---- -- --- ------- --<br>------- ---------- ------ -- ----- -- ----- -- ---- ------<br>--- ----- --- --- ------ -------- ----- --- ------ ----- --<br>----- ----- ---------- --- --- ------ ------ ---- -- ------<br>------- --- ------ ----- --- ---- ------- -- ---- --- --<br>------- ------,90849.89999997616,90849.10000002384,89581.921,89582.80000007153,89598.586,90865.15,,0,At
screen,html.Screen,0_2_1_1_1,2021-11-19T12:34:17.411Z,,,,,,,,,,,,,,,,54,,,,,,,,,,,,,,799.6500000715314,,response,,,100,,,,,,Space,keypress(Space),,,,,-- the ---- --- ------ ----- ------- ---- -- --- ------- --<br>------- ---------- ------ -- ----- -- ----- -- ---- ------<br>--- ----- --- --- ------ -------- ----- --- ------ ----- --<br>----- ----- ---------- --- --- ------ ------ ---- -- ------<br>------- --- ------ ----- --- ---- ------- -- ---- --- --<br>------- ------,91665.39999997616,91664.80000007153,90848.485,90850,90865.15,91681.819,,1,the
screen,html.Screen,0_2_1_1_2,2021-11-19T12:34:17.875Z,,,,,,,,,,,,,,,,54,,,,,,,,,,,,,,446.98100007152243,,response,,,100,,,,,,Space,keypress(Space),,,,,-- --- time --- ------ ----- ------- ---- -- --- ------- --<br>------- ---------- ------ -- ----- -- ----- -- ---- ------<br>--- ----- --- --- ------ -------- ----- --- ------ ----- --<br>----- ----- ---------- --- --- ------ ------ ---- -- ------<br>------- --- ------ ----- --- ---- ------- -- ---- --- --<br>------- ------,92129.30000007153,92128.80000007153,91665.154,91665.60000002384,91681.819,92131.776,,2,time
screen,html.Screen,0_2_1_1_3,2021-11-19T12:34:18.499Z,,,,,,,,,,,,,,,,54,,,,,,,,,,,,,,620.9240000476857,,response,,,100,,,,,,Space,keypress(Space),,,,,-- --- ---- the ------ ----- ------- ---- -- --- ------- --<br>------- ---------- ------ -- ----- -- ----- -- ---- ------<br>--- ----- --- --- ------ -------- ----- --- ------ ----- --<br>----- ----- ---------- --- --- ------ ------ ---- -- ------<br>------- --- ------ ----- --- ---- ------- -- ---- --- --<br>------- ------,92753.39999997616,92752.70000004768,92115.111,92129.5,92131.776,92765.041,,3,the
screen,html.Screen,0_2_1_1_4,2021-11-19T12:34:18.979Z,,,,,,,,,,,,,,,,54,,,,,,,,,,,,,,467.5590000238444,,response,,,100,,,,,,Space,keypress(Space),,,,,-- --- ---- --- French ----- ------- ---- -- --- ------- --<br>------- ---------- ------ -- ----- -- ----- -- ---- ------<br>--- ----- --- --- ------ -------- ----- --- ------ ----- --<br>----- ----- ---------- --- --- ------ ------ ---- -- ------<br>------- --- ------ ----- --- ---- ------- -- ---- --- --<br>------- ------,93233.20000004768,93232.60000002384,92748.376,92753.60000002384,92765.041,93248.371,,4,French
screen,html.Screen,0_2_1_1_5,2021-11-19T12:34:19.459Z,,,,,,,,,,,,,,,,54,,,,,,,,,,,,,,464.2290000238427,,response,,,100,,,,,,Space,keypress(Space),,,,,-- --- ---- --- ------ crown ------- ---- -- --- ------- --<br>------- ---------- ------ -- ----- -- ----- -- ---- ------<br>--- ----- --- --- ------ -------- ----- --- ------ ----- --<br>----- ----- ---------- --- --- ------ ------ ---- -- ------<br>------- --- ------ ----- --- ---- ------- -- ---- --- --<br>------- ------,93713.30000007153,93712.60000002384,93231.706,93233.39999997616,93248.371,93715.061,,5,crown
screen,html.Screen,0_2_1_1_6,2021-11-19T12:34:19.939Z,,,,,,,,,,,,,,,,54,,,,,,,,,,,,,,477.6390000476822,,response,,,100,,,,,,Space,keypress(Space),,,,,-- --- ---- --- ------ ----- secured ---- -- --- ------- --<br>------- ---------- ------ -- ----- -- ----- -- ---- ------<br>--- ----- --- --- ------ -------- ----- --- ------ ----- --<br>----- ----- ---------- --- --- ------ ------ ---- -- ------<br>------- --- ------ ----- --- ---- ------- -- ---- --- --<br>------- ------,94193.20000004768,94192.70000004768,93698.395,93713.5,93715.061,94198.376,,6,secured
screen,html.Screen,0_2_1_1_7,2021-11-19T12:34:20.443Z,,,,,,,,,,,,,,,,54,,,,,,,,,,,,,,498.12399999999616,,response,,,100,,,,,,Space,keypress(Space),,,,,-- --- ---- --- ------ ----- ------- much -- --- ------- --<br>------- ---------- ------ -- ----- -- ----- -- ---- ------<br>--- ----- --- --- ------ -------- ----- --- ------ ----- --<br>----- ----- ---------- --- --- ------ ------ ---- -- ------<br>------- --- ------ ----- --- ---- ------- -- ---- --- --<br>------- ------,94697.20000004768,94696.5,94181.71,94193.30000007153,94198.376,94698.219,,7,much
screen,html.Screen,0_2_1_1_8,2021-11-19T12:34:20.899Z,,,,,,,,,,,,,,,,54,,,,,,,,,,,,,,454.2810000000027,,response,,,100,,,,,,Space,keypress(Space),,,,,-- --- ---- --- ------ ----- ------- ---- of --- ------- --<br>------- ---------- ------ -- ----- -- ----- -- ---- ------<br>--- ----- --- --- ------ -------- ----- --- ------ ----- --<br>----- ----- ---------- --- --- ------ ------ ---- -- ------<br>------- --- ------ ----- --- ---- ------- -- ---- --- --<br>------- ------,95153,95152.5,94681.555,94697.30000007153,94698.219,95165.027,,8,of
screen,html.Screen,0_2_1_1_9,2021-11-19T12:34:21.483Z,,,,,,,,,,,,,,,,54,,,,,,,,,,,,,,571.57300002384,,response,,,100,,,,,,Space,keypress(Space),,,,,-- --- ---- --- ------ ----- ------- ---- -- its ------- --<br>------- ---------- ------ -- ----- -- ----- -- ---- ------<br>--- ----- --- --- ------ -------- ----- --- ------ ----- --<br>----- ----- ---------- --- --- ------ ------ ---- -- ------<br>------- --- ------ ----- --- ---- ------- -- ---- --- --<br>------- ------,95737.20000004768,95736.60000002384,95148.361,95153.20000004768,95165.027,95748.225,,9,its
screen,html.Screen,0_2_1_1_10,2021-11-19T12:34:21.851Z,,,,,,,,,,,,,,,,54,,,,,,,,,,,,,,356.1749999761523,,response,,,100,,,,,,Space,keypress(Space),,,,,-- --- ---- --- ------ ----- ------- ---- -- --- revenue --<br>------- ---------- ------ -- ----- -- ----- -- ---- ------<br>--- ----- --- --- ------ -------- ----- --- ------ ----- --<br>----- ----- ---------- --- --- ------ ------ ---- -- ------<br>------- --- ------ ----- --- ---- ------- -- ---- --- --<br>------- ------,96105,96104.39999997616,95731.56,95737.39999997616,95748.225,96114.861,,10,revenue
screen,html.Screen,0_2_1_1_11,2021-11-19T12:34:22.355Z,,,,,,,,,,,,,,,,54,,,,,,,,,,,,,,493.6389999999956,,response,,,100,,,,,,Space,keypress(Space),,,,,-- --- ---- --- ------ ----- ------- ---- -- --- ------- by<br>------- ---------- ------ -- ----- -- ----- -- ---- ------<br>--- ----- --- --- ------ -------- ----- --- ------ ----- --<br>----- ----- ---------- --- --- ------ ------ ---- -- ------<br>------- --- ------ ----- --- ---- ------- -- ---- --- --<br>------- ------,96609,96608.5,96098.196,96105.10000002384,96114.861,96614.855,,11,by
screen,html.Screen,0_2_1_1_12,2021-11-19T12:34:22.819Z,,,,,,,,,,,,,,,,54,,,,,,,,,,,,,,457.5449999761622,,response,,,100,,,,,,Space,keypress(Space),,,,,-- --- ---- --- ------ ----- ------- ---- -- --- ------- --<br>issuing ---------- ------ -- ----- -- ----- -- ---- ------<br>--- ----- --- --- ------ -------- ----- --- ------ ----- --<br>----- ----- ---------- --- --- ------ ------ ---- -- ------<br>------- --- ------ ----- --- ---- ------- -- ---- --- --<br>------- ------,97073,97072.39999997616,96598.19,96609.20000004768,96614.855,97081.482,,12,issuing
screen,html.Screen,0_2_1_1_13,2021-11-19T12:34:23.363Z,,,,,,,,,,,,,,,,54,,,,,,,,,,,,,,535.0179999999964,,response,,,100,,,,,,Space,keypress(Space),,,,,-- --- ---- --- ------ ----- ------- ---- -- --- ------- --<br>------- government ------ -- ----- -- ----- -- ---- ------<br>--- ----- --- --- ------ -------- ----- --- ------ ----- --<br>----- ----- ---------- --- --- ------ ------ ---- -- ------<br>------- --- ------ ----- --- ---- ------- -- ---- --- --<br>------- ------,97617,97616.5,97064.817,97073.20000004768,97081.482,97631.46,,13,government
screen,html.Screen,0_2_1_1_14,2021-11-19T12:34:24.035Z,,,,,,,,,,,,,,,,54,,,,,,,,,,,,,,656.9399999761517,,response,,,100,,,,,,Space,keypress(Space),,,,,-- --- ---- --- ------ ----- ------- ---- -- --- ------- --<br>------- ---------- bonds. -- ----- -- ----- -- ---- ------<br>--- ----- --- --- ------ -------- ----- --- ------ ----- --<br>----- ----- ---------- --- --- ------ ------ ---- -- ------<br>------- --- ------ ----- --- ---- ------- -- ---- --- --<br>------- ------,98289.10000002384,98288.39999997616,97614.795,97617.20000004768,97631.46,98298.086,,14,bonds.
screen,html.Screen,0_2_1_1_15,2021-11-19T12:34:24.523Z,,,,,,,,,,,,,,,,54,,,,,,,,,,,,,,478.31399997616245,,response,,,100,,,,,,Space,keypress(Space),,,,,-- --- ---- --- ------ ----- ------- ---- -- --- ------- --<br>------- ---------- ------ In ----- -- ----- -- ---- ------<br>--- ----- --- --- ------ -------- ----- --- ------ ----- --<br>----- ----- ---------- --- --- ------ ------ ---- -- ------<br>------- --- ------ ----- --- ---- ------- -- ---- --- --<br>------- ------,98777.10000002384,98776.39999997616,98281.421,98289.39999997616,98298.086,98781.456,,15,In
screen,html.Screen,0_2_1_1_16,2021-11-19T12:34:25.011Z,,,,,,,,,,,,,,,,54,,,,,,,,,,,,,,482.84400007152,,response,,,100,,,,,,Space,keypress(Space),,,,,"-- --- ---- --- ------ ----- ------- ---- -- --- ------- --<br>------- ---------- ------ -- 1727, -- ----- -- ---- ------<br>--- ----- --- --- ------ -------- ----- --- ------ ----- --<br>----- ----- ---------- --- --- ------ ------ ---- -- ------<br>------- --- ------ ----- --- ---- ------- -- ---- --- --<br>------- ------",99264.89999997616,99264.30000007153,98764.79,98777.20000004768,98781.456,99281.368,,16,"1727,"
screen,html.Screen,0_2_1_1_17,2021-11-19T12:34:26.443Z,,,,,,,,,,,,,,,,54,,,,,,,,,,,,,,1414.9320000715234,,response,,,100,,,,,,Space,keypress(Space),,,,,-- --- ---- --- ------ ----- ------- ---- -- --- ------- --<br>------- ---------- ------ -- ----- in ----- -- ---- ------<br>--- ----- --- --- ------ -------- ----- --- ------ ----- --<br>----- ----- ---------- --- --- ------ ------ ---- -- ------<br>------- --- ------ ----- --- ---- ------- -- ---- --- --<br>------- ------,100696.89999997616,100696.30000007153,99264.703,99265.20000004768,99281.368,100697.928,,17,in
screen,html.Screen,0_2_1_1_18,2021-11-19T12:34:26.987Z,,,,,,,,,,,,,,,,54,,,,,,,,,,,,,,542.4719999761583,,response,,,100,,,,,,Space,keypress(Space),,,,,-- --- ---- --- ------ ----- ------- ---- -- --- ------- --<br>------- ---------- ------ -- ----- -- order -- ---- ------<br>--- ----- --- --- ------ -------- ----- --- ------ ----- --<br>----- ----- ---------- --- --- ------ ------ ---- -- ------<br>------- --- ------ ----- --- ---- ------- -- ---- --- --<br>------- ------,101241,101240.39999997616,100681.263,100697,100697.928,101247.8,,18,order
screen,html.Screen,0_2_1_1_19,2021-11-19T12:34:27.435Z,,,,,,,,,,,,,,,,54,,,,,,,,,,,,,,440.30000002383895,,response,,,100,,,,,,Space,keypress(Space),,,,,-- --- ---- --- ------ ----- ------- ---- -- --- ------- --<br>------- ---------- ------ -- ----- -- ----- to ---- ------<br>--- ----- --- --- ------ -------- ----- --- ------ ----- --<br>----- ----- ---------- --- --- ------ ------ ---- -- ------<br>------- --- ------ ----- --- ---- ------- -- ---- --- --<br>------- ------,101688.80000007153,101688.10000002384,101231.136,101241.10000002384,101247.8,101697.908,,19,to
screen,html.Screen,0_2_1_1_20,2021-11-19T12:34:27.859Z,,,,,,,,,,,,,,,,54,,,,,,,,,,,,,,414.2920000476879,,response,,,100,,,,,,Space,keypress(Space),,,,,-- --- ---- --- ------ ----- ------- ---- -- --- ------- --<br>------- ---------- ------ -- ----- -- ----- -- save ------<br>--- ----- --- --- ------ -------- ----- --- ------ ----- --<br>----- ----- ---------- --- --- ------ ------ ---- -- ------<br>------- --- ------ ----- --- ---- ------- -- ---- --- --<br>------- ------,102112.70000004768,102112.20000004768,101681.243,101688.89999997616,101697.908,102114.476,,20,save
screen,html.Screen,0_2_1_1_21,2021-11-19T12:34:28.483Z,,,,,,,,,,,,,,,,54,,,,,,,,,,,,,,621.7240000476886,,response,,,100,,,,,,Space,keypress(Space),,,,,"-- --- ---- --- ------ ----- ------- ---- -- --- ------- --<br>------- ---------- ------ -- ----- -- ----- -- ---- money,<br>--- ----- --- --- ------ -------- ----- --- ------ ----- --<br>----- ----- ---------- --- --- ------ ------ ---- -- ------<br>------- --- ------ ----- --- ---- ------- -- ---- --- --<br>------- ------",102736.70000004768,102736.20000004768,102097.812,102112.89999997616,102114.476,102747.703,,21,"money,"
screen,html.Screen,0_2_1_1_22,2021-11-19T12:34:29.323Z,,,,,,,,,,,,,,,,54,,,,,,,,,,,,,,828.3970000238478,,response,,,100,,,,,,Space,keypress(Space),,,,,-- --- ---- --- ------ ----- ------- ---- -- --- ------- --<br>------- ---------- ------ -- ----- -- ----- -- ---- ------<br>the ----- --- --- ------ -------- ----- --- ------ ----- --<br>----- ----- ---------- --- --- ------ ------ ---- -- ------<br>------- --- ------ ----- --- ---- ------- -- ---- --- --<br>------- ------,103576.70000004768,103576.10000002384,102731.039,102736.89999997616,102747.703,103581.166,,22,the
screen,html.Screen,0_2_1_1_23,2021-11-19T12:34:29.819Z,,,,,,,,,,,,,,,,54,,,,,,,,,,,,,,490.83400000000256,,response,,,100,,,,,,Space,keypress(Space),,,,,-- --- ---- --- ------ ----- ------- ---- -- --- ------- --<br>------- ---------- ------ -- ----- -- ----- -- ---- ------<br>--- state --- --- ------ -------- ----- --- ------ ----- --<br>----- ----- ---------- --- --- ------ ------ ---- -- ------<br>------- --- ------ ----- --- ---- ------- -- ---- --- --<br>------- ------,104072.70000004768,104072,103564.5,103576.80000007153,103581.166,104081.049,,23,state
screen,html.Screen,0_2_1_1_24,2021-11-19T12:34:30.618Z,,,,,,,,,,,,,,,,54,,,,,,,,,,,,,,790.9510000000009,,response,,,100,,,,,,Space,keypress(Space),,,,,-- --- ---- --- ------ ----- ------- ---- -- --- ------- --<br>------- ---------- ------ -- ----- -- ----- -- ---- ------<br>--- ----- cut --- ------ -------- ----- --- ------ ----- --<br>----- ----- ---------- --- --- ------ ------ ---- -- ------<br>------- --- ------ ----- --- ---- ------- -- ---- --- --<br>------- ------,104872.60000002384,104872,104064.384,104072.89999997616,104081.049,104881.007,,24,cut
screen,html.Screen,0_2_1_1_25,2021-11-19T12:34:31.474Z,,,,,,,,,,,,,,,,54,,,,,,,,,,,,,,846.9930000000022,,response,,,100,,,,,,Space,keypress(Space),,,,,-- --- ---- --- ------ ----- ------- ---- -- --- ------- --<br>------- ---------- ------ -- ----- -- ----- -- ---- ------<br>--- ----- --- the ------ -------- ----- --- ------ ----- --<br>----- ----- ---------- --- --- ------ ------ ---- -- ------<br>------- --- ------ ----- --- ---- ------- -- ---- --- --<br>------- ------,105728.60000002384,105728,104864.342,104872.80000007153,104881.007,105731.026,,25,the
screen,html.Screen,0_2_1_1_26,2021-11-19T12:34:32.266Z,,,,,,,,,,,,,,,,54,,,,,,,,,,,,,,788.8739999761601,,response,,,100,,,,,,Space,keypress(Space),,,,,-- --- ---- --- ------ ----- ------- ---- -- --- ------- --<br>------- ---------- ------ -- ----- -- ----- -- ---- ------<br>--- ----- --- --- bonds' -------- ----- --- ------ ----- --<br>----- ----- ---------- --- --- ------ ------ ---- -- ------<br>------- --- ------ ----- --- ---- ------- -- ---- --- --<br>------- ------,106520.5,106519.89999997616,105714.36,105728.80000007153,105731.026,106530.873,,26,bonds'
screen,html.Screen,0_2_1_1_27,2021-11-19T12:34:33.138Z,,,,,,,,,,,,,,,,54,,,,,,,,,,,,,,861.0269999761513,,response,,,100,,,,,,Space,keypress(Space),,,,,-- --- ---- --- ------ ----- ------- ---- -- --- ------- --<br>------- ---------- ------ -- ----- -- ----- -- ---- ------<br>--- ----- --- --- ------ interest ----- --- ------ ----- --<br>----- ----- ---------- --- --- ------ ------ ---- -- ------<br>------- --- ------ ----- --- ---- ------- -- ---- --- --<br>------- ------,107392.5,107391.89999997616,106514.208,106520.70000004768,106530.873,107397.519,,27,interest
screen,html.Screen,0_2_1_1_28,2021-11-19T12:34:33.826Z,,,,,,,,,,,,,,,,54,,,,,,,,,,,,,,682.2810000715253,,response,,,100,,,,,,Space,keypress(Space),,,,,-- --- ---- --- ------ ----- ------- ---- -- --- ------- --<br>------- ---------- ------ -- ----- -- ----- -- ---- ------<br>--- ----- --- --- ------ -------- rate. --- ------ ----- --<br>----- ----- ---------- --- --- ------ ------ ---- -- ------<br>------- --- ------ ----- --- ---- ------- -- ---- --- --<br>------- ------,108080.5,108079.80000007153,107380.854,107392.60000002384,107397.519,108097.469,,28,rate.
screen,html.Screen,0_2_1_1_29,2021-11-19T12:34:34.530Z,,,,,,,,,,,,,,,,54,,,,,,,,,,,,,,686.3310000715283,,response,,,100,,,,,,Space,keypress(Space),,,,,-- --- ---- --- ------ ----- ------- ---- -- --- ------- --<br>------- ---------- ------ -- ----- -- ----- -- ---- ------<br>--- ----- --- --- ------ -------- ----- The ------ ----- --<br>----- ----- ---------- --- --- ------ ------ ---- -- ------<br>------- --- ------ ----- --- ---- ------- -- ---- --- --<br>------- ------,108784.39999997616,108783.80000007153,108080.804,108080.60000002384,108097.469,108797.451,,29,The
screen,html.Screen,0_2_1_1_30,2021-11-19T12:34:35.274Z,,,,,,,,,,,,,,,,54,,,,,,,,,,,,,,730.3490000715246,,response,,,100,,,,,,Space,keypress(Space),,,,,-- --- ---- --- ------ ----- ------- ---- -- --- ------- --<br>------- ---------- ------ -- ----- -- ----- -- ---- ------<br>--- ----- --- --- ------ -------- ----- --- market ----- --<br>----- ----- ---------- --- --- ------ ------ ---- -- ------<br>------- --- ------ ----- --- ---- ------- -- ---- --- --<br>------- ------,109528.30000007153,109527.80000007153,108780.786,108784.5,108797.451,109530.581,,30,market
screen,html.Screen,0_2_1_1_31,2021-11-19T12:34:35.930Z,,,,,,,,,,,,,,,,54,,,,,,,,,,,,,,653.1190000476781,,response,,,100,,,,,,Space,keypress(Space),,,,,-- --- ---- --- ------ ----- ------- ---- -- --- ------- --<br>------- ---------- ------ -- ----- -- ----- -- ---- ------<br>--- ----- --- --- ------ -------- ----- --- ------ value --<br>----- ----- ---------- --- --- ------ ------ ---- -- ------<br>------- --- ------ ----- --- ---- ------- -- ---- --- --<br>------- ------,110184.30000007153,110183.70000004768,109513.917,109528.5,109530.581,110197.407,,31,value
screen,html.Screen,0_2_1_1_32,2021-11-19T12:34:36.586Z,,,,,,,,,,,,,,,,54,,,,,,,,,,,,,,642.1930000238353,,response,,,100,,,,,,Space,keypress(Space),,,,,-- --- ---- --- ------ ----- ------- ---- -- --- ------- --<br>------- ---------- ------ -- ----- -- ----- -- ---- ------<br>--- ----- --- --- ------ -------- ----- --- ------ ----- of<br>----- ----- ---------- --- --- ------ ------ ---- -- ------<br>------- --- ------ ----- --- ---- ------- -- ---- --- --<br>------- ------,110840.20000004768,110839.60000002384,110180.741,110184.5,110197.407,110847.389,,32,of
screen,html.Screen,0_2_1_1_33,2021-11-19T12:34:37.250Z,,,,,,,,,,,,,,,,54,,,,,,,,,,,,,,656.41100007153,,response,,,100,,,,,,Space,keypress(Space),,,,,-- --- ---- --- ------ ----- ------- ---- -- --- ------- --<br>------- ---------- ------ -- ----- -- ----- -- ---- ------<br>--- ----- --- --- ------ -------- ----- --- ------ ----- --<br>these ----- ---------- --- --- ------ ------ ---- -- ------<br>------- --- ------ ----- --- ---- ------- -- ---- --- --<br>------- ------,111504.5,111503.80000007153,110830.723,110840.30000007153,110847.389,111513.862,,33,these
screen,html.Screen,0_2_1_1_34,2021-11-19T12:34:38.178Z,,,,,,,,,,,,,,,,54,,,,,,,,,,,,,,917.7380000238481,,response,,,100,,,,,,Space,keypress(Space),,,,,-- --- ---- --- ------ ----- ------- ---- -- --- ------- --<br>------- ---------- ------ -- ----- -- ----- -- ---- ------<br>--- ----- --- --- ------ -------- ----- --- ------ ----- --<br>----- bonds ---------- --- --- ------ ------ ---- -- ------<br>------- --- ------ ----- --- ---- ------- -- ---- --- --<br>------- ------,112432.20000004768,112431.60000002384,111497.198,111504.60000002384,111513.862,112447.182,,34,bonds
screen,html.Screen,0_2_1_1_35,2021-11-19T12:34:38.698Z,,,,,,,,,,,,,,,,54,,,,,,,,,,,,,,504.41800002384116,,response,,,100,,,,,,Space,keypress(Space),,,,,"-- --- ---- --- ------ ----- ------- ---- -- --- ------- --<br>------- ---------- ------ -- ----- -- ----- -- ---- ------<br>--- ----- --- --- ------ -------- ----- --- ------ ----- --<br>----- ----- plummeted, --- --- ------ ------ ---- -- ------<br>------- --- ------ ----- --- ---- ------- -- ---- --- --<br>------- ------",112952.10000002384,112951.60000002384,112430.517,112432.30000007153,112447.182,112963.853,,35,"plummeted,"
screen,html.Screen,0_2_1_1_36,2021-11-19T12:34:39.346Z,,,,,,,,,,,,,,,,54,,,,,,,,,,,,,,635.6469999999972,,response,,,100,,,,,,Space,keypress(Space),,,,,-- --- ---- --- ------ ----- ------- ---- -- --- ------- --<br>------- ---------- ------ -- ----- -- ----- -- ---- ------<br>--- ----- --- --- ------ -------- ----- --- ------ ----- --<br>----- ----- ---------- and --- ------ ------ ---- -- ------<br>------- --- ------ ----- --- ---- ------- -- ---- --- --<br>------- ------,113600.10000002384,113599.5,112947.188,112952.30000007153,112963.853,113613.798,,36,and
screen,html.Screen,0_2_1_1_37,2021-11-19T12:34:40.010Z,,,,,,,,,,,,,,,,54,,,,,,,,,,,,,,649.6019999761629,,response,,,100,,,,,,Space,keypress(Space),,,,,-- --- ---- --- ------ ----- ------- ---- -- --- ------- --<br>------- ---------- ------ -- ----- -- ----- -- ---- ------<br>--- ----- --- --- ------ -------- ----- --- ------ ----- --<br>----- ----- ---------- --- the ------ ------ ---- -- ------<br>------- --- ------ ----- --- ---- ------- -- ---- --- --<br>------- ------,114264.10000002384,114263.39999997616,113597.133,113600.30000007153,113613.798,114280.331,,37,the
screen,html.Screen,0_2_1_1_38,2021-11-19T12:34:40.579Z,,,,,,,,,,,,,,,,54,,,,,,,,,,,,,,551.0689999761526,,response,,,100,,,,,,Space,keypress(Space),,,,,-- --- ---- --- ------ ----- ------- ---- -- --- ------- --<br>------- ---------- ------ -- ----- -- ----- -- ---- ------<br>--- ----- --- --- ------ -------- ----- --- ------ ----- --<br>----- ----- ---------- --- --- market ------ ---- -- ------<br>------- --- ------ ----- --- ---- ------- -- ---- --- --<br>------- ------,114832.70000004768,114831.39999997616,114263.667,114264.20000004768,114280.331,114847.127,,38,market
screen,html.Screen,0_2_1_1_39,2021-11-19T12:34:41.130Z,,,,,,,,,,,,,,,,54,,,,,,,,,,,,,,536.272999976165,,response,,,100,,,,,,Space,keypress(Space),,,,,-- --- ---- --- ------ ----- ------- ---- -- --- ------- --<br>------- ---------- ------ -- ----- -- ----- -- ---- ------<br>--- ----- --- --- ------ -------- ----- --- ------ ----- --<br>----- ----- ---------- --- --- ------ became ---- -- ------<br>------- --- ------ ----- --- ---- ------- -- ---- --- --<br>------- ------,115384,115383.39999997616,114830.461,114832.80000007153,114847.127,115397.102,,39,became
screen,html.Screen,0_2_1_1_40,2021-11-19T12:34:41.682Z,,,,,,,,,,,,,,,,54,,,,,,,,,,,,,,538.2979999761592,,response,,,100,,,,,,Space,keypress(Space),,,,,-- --- ---- --- ------ ----- ------- ---- -- --- ------- --<br>------- ---------- ------ -- ----- -- ----- -- ---- ------<br>--- ----- --- --- ------ -------- ----- --- ------ ----- --<br>----- ----- ---------- --- --- ------ ------ wary -- ------<br>------- --- ------ ----- --- ---- ------- -- ---- --- --<br>------- ------,115935.89999997616,115935.39999997616,115380.436,115384.10000002384,115397.102,115946.937,,40,wary
screen,html.Screen,0_2_1_1_41,2021-11-19T12:34:42.178Z,,,,,,,,,,,,,,,,54,,,,,,,,,,,,,,484.3630000715202,,response,,,100,,,,,,Space,keypress(Space),,,,,-- --- ---- --- ------ ----- ------- ---- -- --- ------- --<br>------- ---------- ------ -- ----- -- ----- -- ---- ------<br>--- ----- --- --- ------ -------- ----- --- ------ ----- --<br>----- ----- ---------- --- --- ------ ------ ---- of ------<br>------- --- ------ ----- --- ---- ------- -- ---- --- --<br>------- ------,116431.89999997616,116431.30000007153,115930.273,115936.10000002384,115946.937,116446.973,,41,of
screen,html.Screen,0_2_1_1_42,2021-11-19T12:34:42.674Z,,,,,,,,,,,,,,,,54,,,,,,,,,,,,,,480.2270000476856,,response,,,100,,,,,,Space,keypress(Space),,,,,-- --- ---- --- ------ ----- ------- ---- -- --- ------- --<br>------- ---------- ------ -- ----- -- ----- -- ---- ------<br>--- ----- --- --- ------ -------- ----- --- ------ ----- --<br>----- ----- ---------- --- --- ------ ------ ---- -- French<br>------- --- ------ ----- --- ---- ------- -- ---- --- --<br>------- ------,116927.89999997616,116927.20000004768,116430.308,116432.10000002384,116446.973,116930.268,,42,French
screen,html.Screen,0_2_1_1_43,2021-11-19T12:34:43.354Z,,,,,,,,,,,,,,,,54,,,,,,,,,,,,,,676.9320000476873,,response,,,100,,,,,,Space,keypress(Space),,,,,-- --- ---- --- ------ ----- ------- ---- -- --- ------- --<br>------- ---------- ------ -- ----- -- ----- -- ---- ------<br>--- ----- --- --- ------ -------- ----- --- ------ ----- --<br>----- ----- ---------- --- --- ------ ------ ---- -- ------<br>credit. --- ------ ----- --- ---- ------- -- ---- --- --<br>------- ------,117607.80000007153,117607.20000004768,116913.603,116928,116930.268,117613.552,,43,credit.
screen,html.Screen,0_2_1_1_44,2021-11-19T12:34:44.154Z,,,,,,,,,,,,,,,,54,,,,,,,,,,,,,,793.6480000476877,,response,,,100,,,,,,Space,keypress(Space),,,,,-- --- ---- --- ------ ----- ------- ---- -- --- ------- --<br>------- ---------- ------ -- ----- -- ----- -- ---- ------<br>--- ----- --- --- ------ -------- ----- --- ------ ----- --<br>----- ----- ---------- --- --- ------ ------ ---- -- ------<br>------- The ------ ----- --- ---- ------- -- ---- --- --<br>------- ------,118407.80000007153,118407.20000004768,117596.887,117608,117613.552,118413.596,,44,The
screen,html.Screen,0_2_1_1_45,2021-11-19T12:34:44.778Z,,,,,,,,,,,,,,,,54,,,,,,,,,,,,,,617.5040000238369,,response,,,100,,,,,,Space,keypress(Space),,,,,-- --- ---- --- ------ ----- ------- ---- -- --- ------- --<br>------- ---------- ------ -- ----- -- ----- -- ---- ------<br>--- ----- --- --- ------ -------- ----- --- ------ ----- --<br>----- ----- ---------- --- --- ------ ------ ---- -- ------<br>------- --- French ----- --- ---- ------- -- ---- --- --<br>------- ------,119031.80000007153,119031.10000002384,118396.93,118407.89999997616,118413.596,119046.719,,45,French
screen,html.Screen,0_2_1_1_46,2021-11-19T12:34:45.410Z,,,,,,,,,,,,,,,,54,,,,,,,,,,,,,,616.3810000238445,,response,,,100,,,,,,Space,keypress(Space),,,,,-- --- ---- --- ------ ----- ------- ---- -- --- ------- --<br>------- ---------- ------ -- ----- -- ----- -- ---- ------<br>--- ----- --- --- ------ -------- ----- --- ------ ----- --<br>----- ----- ---------- --- --- ------ ------ ---- -- ------<br>------- --- ------ state --- ---- ------- -- ---- --- --<br>------- ------,119663.70000004768,119663.10000002384,119030.055,119032,119046.719,119680.187,,46,state
screen,html.Screen,0_2_1_1_47,2021-11-19T12:34:45.978Z,,,,,,,,,,,,,,,,54,,,,,,,,,,,,,,550.9130000238365,,response,,,100,,,,,,Space,keypress(Space),,,,,-- --- ---- --- ------ ----- ------- ---- -- --- ------- --<br>------- ---------- ------ -- ----- -- ----- -- ---- ------<br>--- ----- --- --- ------ -------- ----- --- ------ ----- --<br>----- ----- ---------- --- --- ------ ------ ---- -- ------<br>------- --- ------ ----- was ---- ------- -- ---- --- --<br>------- ------,120231.70000004768,120231.10000002384,119663.521,119663.80000007153,119680.187,120246.669,,47,was
screen,html.Screen,0_2_1_1_48,2021-11-19T12:34:46.533Z,,,,,,,,,,,,,,,,54,,,,,,,,,,,,,,536.3310000000056,,response,,,100,,,,,,Space,keypress(Space),,,,,-- --- ---- --- ------ ----- ------- ---- -- --- ------- --<br>------- ---------- ------ -- ----- -- ----- -- ---- ------<br>--- ----- --- --- ------ -------- ----- --- ------ ----- --<br>----- ----- ---------- --- --- ------ ------ ---- -- ------<br>------- --- ------ ----- --- left ------- -- ---- --- --<br>------- ------,120783.70000004768,120783,120230.005,120231.89999997616,120246.669,120796.615,,48,left
screen,html.Screen,0_2_1_1_49,2021-11-19T12:34:47.053Z,,,,,,,,,,,,,,,,54,,,,,,,,,,,,,,506.38499999999476,,response,,,100,,,,,,Space,keypress(Space),,,,,-- --- ---- --- ------ ----- ------- ---- -- --- ------- --<br>------- ---------- ------ -- ----- -- ----- -- ---- ------<br>--- ----- --- --- ------ -------- ----- --- ------ ----- --<br>----- ----- ---------- --- --- ------ ------ ---- -- ------<br>------- --- ------ ----- --- ---- without -- ---- --- --<br>------- ------,121303.60000002384,121303,120779.951,120783.80000007153,120796.615,121313.394,,49,without
screen,html.Screen,0_2_1_1_50,2021-11-19T12:34:47.549Z,,,,,,,,,,,,,,,,54,,,,,,,,,,,,,,485.8060000476835,,response,,,100,,,,,,Space,keypress(Space),,,,,-- --- ---- --- ------ ----- ------- ---- -- --- ------- --<br>------- ---------- ------ -- ----- -- ----- -- ---- ------<br>--- ----- --- --- ------ -------- ----- --- ------ ----- --<br>----- ----- ---------- --- --- ------ ------ ---- -- ------<br>------- --- ------ ----- --- ---- ------- an ---- --- --<br>------- ------,121799.80000007153,121799.20000004768,121296.728,121303.70000004768,121313.394,121813.3,,50,an
screen,html.Screen,0_2_1_1_51,2021-11-19T12:34:48.005Z,,,,,,,,,,,,,,,,54,,,,,,,,,,,,,,441.6999999999971,,response,,,100,,,,,,Space,keypress(Space),,,,,-- --- ---- --- ------ ----- ------- ---- -- --- ------- --<br>------- ---------- ------ -- ----- -- ----- -- ---- ------<br>--- ----- --- --- ------ -------- ----- --- ------ ----- --<br>----- ----- ---------- --- --- ------ ------ ---- -- ------<br>------- --- ------ ----- --- ---- ------- -- easy --- --<br>------- ------,122255.60000002384,122255,121796.635,121799.89999997616,121813.3,122263.267,,51,easy
screen,html.Screen,0_2_1_1_52,2021-11-19T12:34:48.541Z,,,,,,,,,,,,,,,,54,,,,,,,,,,,,,,527.632999976151,,response,,,100,,,,,,Space,keypress(Space),,,,,-- --- ---- --- ------ ----- ------- ---- -- --- ------- --<br>------- ---------- ------ -- ----- -- ----- -- ---- ------<br>--- ----- --- --- ------ -------- ----- --- ------ ----- --<br>----- ----- ---------- --- --- ------ ------ ---- -- ------<br>------- --- ------ ----- --- ---- ------- -- ---- way --<br>------- ------,122791.5,122790.89999997616,122246.602,122255.70000004768,122263.267,122796.566,,52,way
screen,html.Screen,0_2_1_1_53,2021-11-19T12:34:48.948Z,,,,,,,,,,,,,,,,54,,,,,,,,,,,,,,402.2340000715194,,response,,,100,,,,,,Space,keypress(Space),,,,,-- --- ---- --- ------ ----- ------- ---- -- --- ------- --<br>------- ---------- ------ -- ----- -- ----- -- ---- ------<br>--- ----- --- --- ------ -------- ----- --- ------ ----- --<br>----- ----- ---------- --- --- ------ ------ ---- -- ------<br>------- --- ------ ----- --- ---- ------- -- ---- --- of<br>------- ------,123199.39999997616,123198.80000007153,122779.901,122791.70000004768,122796.566,123213.288,,53,of
screen,html.Screen,0_2_1_1_54,2021-11-19T12:34:49.492Z,,,,,,,,,,,,,,,,54,,,,,,,,,,,,,,529.5120000715251,,response,,,100,,,,,,Space,keypress(Space),,,,,-- --- ---- --- ------ ----- ------- ---- -- --- ------- --<br>------- ---------- ------ -- ----- -- ----- -- ---- ------<br>--- ----- --- --- ------ -------- ----- --- ------ ----- --<br>----- ----- ---------- --- --- ------ ------ ---- -- ------<br>------- --- ------ ----- --- ---- ------- -- ---- --- --<br>raising ------,123743.30000007153,123742.80000007153,123196.622,123199.60000002384,123213.288,123746.47,,54,raising
screen,html.Screen,0_2_1_1_55,2021-11-19T12:34:50.172Z,,,,,,,,,,,,,,,,54,,,,,,,,,,,,,,676.3300000715244,,response,,,100,,,,,,Space,keypress(Space),,,,,-- --- ---- --- ------ ----- ------- ---- -- --- ------- --<br>------- ---------- ------ -- ----- -- ----- -- ---- ------<br>--- ----- --- --- ------ -------- ----- --- ------ ----- --<br>----- ----- ---------- --- --- ------ ------ ---- -- ------<br>------- --- ------ ----- --- ---- ------- -- ---- --- --<br>------- money.,124423.30000007153,124422.80000007153,123729.806,123743.60000002384,123746.47,124429.779,,55,money.
Item 100,flow.Loop,0_2_1_1,2021-11-19T12:34:50.173Z,,,,,,,,,,,,,,,,,,,,,,,,,,,,,,34824.21400007153,,completion,,,,A,,,,,,,,,,silence,,124423.70000004768,124422.80000007153,89581.921,89582.70000004768,89598.586,124429.779,,,
Question 1,html.Screen,0_2_1_2,2021-11-19T12:34:53.484Z,,,,,,,,,,,,,,,,,,,,,,,,,,,true,TRUE,,3303.821000023847,,response,,,100,A,,,,,TRUE,click #choice-1,,,,silence,,127734.5,127733.60000002384,124413.114,124423.80000007153,124429.779,127746.356,,,
Question 2,html.Screen,0_2_1_3,2021-11-19T12:34:55.911Z,,,,,,,,,,,,,,,,,,,,,,,,,,,true,FALSE,,2414.444000071526,,response,,,100,A,,,,,FALSE,click #choice-2,,,,silence,,130161.60000002384,130160.80000007153,127729.69,127734.70000004768,127746.356,130162.961,,,
Item 100,flow.Sequence,0_2_1,2021-11-19T12:34:55.911Z,,,,,,,,,,,,,,,,,,,,,,,,,,,,,,50561.565000071525,,completion,,,,,,,,,,,,,,,,130161.89999997616,130160.80000007153,79582.57,79588.30000007153,79599.235,130162.961,,,
End of Practice,html.Page,0_2_2,2021-11-19T12:35:00.828Z,,,,,,,,,,,,,,,,,,,,,,,,,,,,,,4915.938999976162,,form submission,,,,,,,,,,,,,,,,135079.39999997616,135078.89999997616,130146.292,130162,130162.961,135078.913,,,
Practice,flow.Sequence,0_2,2021-11-19T12:35:00.829Z,,,,,,,,,,,,,,,,,,,,,,,,,,,,,,104193.40199997617,,completion,,,,,,,,,,,,,,,,135079.70000004768,135078.89999997616,30868.833,30863.899999976158,30885.498,135078.913,,,
Trap_instruction,html.Page,0_3_0,2021-11-19T12:35:05.016Z,,,,,,,,,,,,,,,,,,,,,,,,,,,,,,4187.287000047683,,form submission,,,,,,,,,,,,,,,,139266.70000004768,139266.20000004768,135062.249,135079.80000007153,135078.913,139278.733,,,
trap_trial,html.Screen,0_3_1,2021-11-19T12:35:07.884Z,,,,,,,,,,,,,,,,,,,,,,,,,,,true,1,,2855.6669999761507,,response,,,,,,,,,1,click #choice-1,,,,,,142135.30000007153,142134.39999997616,139262.068,139266.80000007153,139278.733,142143.311,,,
end of trap trial,html.Page,0_3_2,2021-11-19T12:35:10.291Z,,,,,,,,,,,,,,,,,,,,,,,,,,,,,,2398.588999976171,,form submission,,,,,,,,,,,,,,,,144542.30000007153,144541.89999997616,142126.658,142135.39999997616,142143.311,144545.247,,,
Trap 1,flow.Sequence,0_3,2021-11-19T12:35:10.292Z,,,,,,,,,,,,,,,,,,,,,,,,,,,,,,9462.986999976158,,completion,,,,,,,,,,,,,,,,144542.60000002384,144541.89999997616,135062.249,135079.80000007153,135078.913,144545.247,,,
Standby,html.Page,0_4_0,2021-11-19T12:35:18.278Z,,,,,,,,,,,,,,,,,,,,,,,,,,,,,,7999.228000000003,,timeout,,,,,,,,,,,,,,,,152528.89999997616,152527.81,144528.582,144542.70000004768,144545.247,152544.475,,,
Holding screen,html.Screen,0_4_1_0_0,2021-11-19T12:35:25.278Z,,,,,,,,,,,,,,,,,,,,,,,,,,,,,,6999.859999999986,,timeout,,,,,,,,,,,,,,,,159528.89999997616,159527.67,152527.81,152529.20000004768,152544.475,159544.335,,,
screen,html.Screen,0_4_1_0_1_0,2021-11-19T12:35:26.427Z,,,,,,,,,,,,,,,,51,,,,,,,,,,,,,,1132.5649999761663,,response,,,13,A,,,,,Space,keypress(Space),,,,silence,American -------- --- --- ---- --- --- ------ -- --------<br>---- --------- --- ------- ------------ ---------- ---------<br>--- ---------- ------- ---------- ------- -- -------- ----<br>---- --- ------ ----- ------ -- ---- --- ----- -- - -------<br>-------- -- --- --- -- ----- ----------- ----- -----------<br>---- --- ---------- --- ---- --- -- ----------,160677.60000002384,160676.89999997616,159527.67,159529.10000002384,159544.335,160677.575,,0,American
screen,html.Screen,0_4_1_0_1_1,2021-11-19T12:35:27.002Z,,,,,,,,,,,,,,,,51,,,,,,,,,,,,,,575.0250000238302,,response,,,13,A,,,,,Space,keypress(Space),,,,silence,-------- industry --- --- ---- --- --- ------ -- --------<br>---- --------- --- ------- ------------ ---------- ---------<br>--- ---------- ------- ---------- ------- -- -------- ----<br>---- --- ------ ----- ------ -- ---- --- ----- -- - -------<br>-------- -- --- --- -- ----- ----------- ----- -----------<br>---- --- ---------- --- ---- --- -- ----------,161253.20000004768,161252.60000002384,160660.91,160677.80000007153,160677.575,161260.847,,1,industry
screen,html.Screen,0_4_1_0_1_2,2021-11-19T12:35:27.666Z,,,,,,,,,,,,,,,,51,,,,,,,,,,,,,,655.6529999999912,,response,,,13,A,,,,,Space,keypress(Space),,,,silence,-------- -------- may --- ---- --- --- ------ -- --------<br>---- --------- --- ------- ------------ ---------- ---------<br>--- ---------- ------- ---------- ------- -- -------- ----<br>---- --- ------ ----- ------ -- ---- --- ----- -- - -------<br>-------- -- --- --- -- ----- ----------- ----- -----------<br>---- --- ---------- --- ---- --- -- ----------,161917.20000004768,161916.5,161244.182,161253.30000007153,161260.847,161927.498,,2,may
screen,html.Screen,0_4_1_0_1_3,2021-11-19T12:35:28.338Z,,,,,,,,,,,,,,,,51,,,,,,,,,,,,,,660.9019999761658,,response,,,13,A,,,,,Space,keypress(Space),,,,silence,-------- -------- --- not ---- --- --- ------ -- --------<br>---- --------- --- ------- ------------ ---------- ---------<br>--- ---------- ------- ---------- ------- -- -------- ----<br>---- --- ------ ----- ------ -- ---- --- ----- -- - -------<br>-------- -- --- --- -- ----- ----------- ----- -----------<br>---- --- ---------- --- ---- --- -- ----------,162589,162588.39999997616,161910.833,161917.30000007153,161927.498,162594.141,,3,not
screen,html.Screen,0_4_1_0_1_4,2021-11-19T12:35:28.978Z,,,,,,,,,,,,,,,,51,,,,,,,,,,,,,,634.2589999761549,,response,,,13,A,,,,,Space,keypress(Space),,,,silence,-------- -------- --- --- know --- --- ------ -- --------<br>---- --------- --- ------- ------------ ---------- ---------<br>--- ---------- ------- ---------- ------- -- -------- ----<br>---- --- ------ ----- ------ -- ---- --- ----- -- - -------<br>-------- -- --- --- -- ----- ----------- ----- -----------<br>---- --- ---------- --- ---- --- -- ----------,163229.10000002384,163228.39999997616,162577.476,162589.20000004768,162594.141,163244.088,,4,know
screen,html.Screen,0_4_1_0_1_5,2021-11-19T12:35:29.610Z,,,,,,,,,,,,,,,,51,,,,,,,,,,,,,,616.3119999761693,,response,,,13,A,,,,,Space,keypress(Space),,,,silence,"-------- -------- --- --- ---- it, --- ------ -- --------<br>---- --------- --- ------- ------------ ---------- ---------<br>--- ---------- ------- ---------- ------- -- -------- ----<br>---- --- ------ ----- ------ -- ---- --- ----- -- - -------<br>-------- -- --- --- -- ----- ----------- ----- -----------<br>---- --- ---------- --- ---- --- -- ----------",163861,163860.39999997616,163227.423,163229.20000004768,163244.088,163877.38,,5,"it,"
screen,html.Screen,0_4_1_0_1_6,2021-11-19T12:35:30.274Z,,,,,,,,,,,,,,,,51,,,,,,,,,,,,,,646.9200000715209,,response,,,13,A,,,,,Space,keypress(Space),,,,silence,-------- -------- --- --- ---- --- but ------ -- --------<br>---- --------- --- ------- ------------ ---------- ---------<br>--- ---------- ------- ---------- ------- -- -------- ----<br>---- --- ------ ----- ------ -- ---- --- ----- -- - -------<br>-------- -- --- --- -- ----- ----------- ----- -----------<br>---- --- ---------- --- ---- --- -- ----------,164525,164524.30000007153,163860.715,163861.10000002384,163877.38,164527.353,,6,but
screen,html.Screen,0_4_1_0_1_7,2021-11-19T12:35:30.994Z,,,,,,,,,,,,,,,,51,,,,,,,,,,,,,,717.0469999761553,,response,,,13,A,,,,,Space,keypress(Space),,,,silence,-------- -------- --- --- ---- --- --- debate -- --------<br>---- --------- --- ------- ------------ ---------- ---------<br>--- ---------- ------- ---------- ------- -- -------- ----<br>---- --- ------ ----- ------ -- ---- --- ----- -- - -------<br>-------- -- --- --- -- ----- ----------- ----- -----------<br>---- --- ---------- --- ---- --- -- ----------,165245,165244.39999997616,164510.688,164525.10000002384,164527.353,165260.625,,7,debate
screen,html.Screen,0_4_1_0_1_8,2021-11-19T12:35:31.562Z,,,,,,,,,,,,,,,,51,,,,,,,,,,,,,,551.6750000715256,,response,,,13,A,,,,,Space,keypress(Space),,,,silence,-------- -------- --- --- ---- --- --- ------ in --------<br>---- --------- --- ------- ------------ ---------- ---------<br>--- ---------- ------- ---------- ------- -- -------- ----<br>---- --- ------ ----- ------ -- ---- --- ----- -- - -------<br>-------- -- --- --- -- ----- ----------- ----- -----------<br>---- --- ---------- --- ---- --- -- ----------,165812.89999997616,165812.30000007153,165243.96,165245.10000002384,165260.625,165827.345,,8,in
screen,html.Screen,0_4_1_0_1_9,2021-11-19T12:35:32.066Z,,,,,,,,,,,,,,,,51,,,,,,,,,,,,,,488.85500004768255,,response,,,13,A,,,,,Space,keypress(Space),,,,silence,-------- -------- --- --- ---- --- --- ------ -- Congress<br>---- --------- --- ------- ------------ ---------- ---------<br>--- ---------- ------- ---------- ------- -- -------- ----<br>---- --- ------ ----- ------ -- ---- --- ----- -- - -------<br>-------- -- --- --- -- ----- ----------- ----- -----------<br>---- --- ---------- --- ---- --- -- ----------,166316.89999997616,166316.20000004768,165810.679,165813,165827.345,166327.178,,9,Congress
screen,html.Screen,0_4_1_0_1_10,2021-11-19T12:35:32.890Z,,,,,,,,,,,,,,,,51,,,,,,,,,,,,,,813.0220000476693,,response,,,13,A,,,,,Space,keypress(Space),,,,silence,-------- -------- --- --- ---- --- --- ------ -- --------<br>over --------- --- ------- ------------ ---------- ---------<br>--- ---------- ------- ---------- ------- -- -------- ----<br>---- --- ------ ----- ------ -- ---- --- ----- -- - -------<br>-------- -- --- --- -- ----- ----------- ----- -----------<br>---- --- ---------- --- ---- --- -- ----------,167140.89999997616,167140.20000004768,166310.514,166317,166327.178,167143.92,,10,over
screen,html.Screen,0_4_1_0_1_11,2021-11-19T12:35:33.626Z,,,,,,,,,,,,,,,,51,,,,,,,,,,,,,,732.180000023829,,response,,,13,A,,,,,Space,keypress(Space),,,,silence,-------- -------- --- --- ---- --- --- ------ -- --------<br>---- reforming --- ------- ------------ ---------- ---------<br>--- ---------- ------- ---------- ------- -- -------- ----<br>---- --- ------ ----- ------ -- ---- --- ----- -- - -------<br>-------- -- --- --- -- ----- ----------- ----- -----------<br>---- --- ---------- --- ---- --- -- ----------,167876.80000007153,167876.10000002384,167127.254,167140.89999997616,167143.92,167893.835,,11,reforming
screen,html.Screen,0_4_1_0_1_12,2021-11-19T12:35:34.362Z,,,,,,,,,,,,,,,,51,,,,,,,,,,,,,,718.3650000476919,,response,,,13,A,,,,,Space,keypress(Space),,,,silence,-------- -------- --- --- ---- --- --- ------ -- --------<br>---- --------- the ------- ------------ ---------- ---------<br>--- ---------- ------- ---------- ------- -- -------- ----<br>---- --- ------ ----- ------ -- ---- --- ----- -- - -------<br>-------- -- --- --- -- ----- ----------- ----- -----------<br>---- --- ---------- --- ---- --- -- ----------,168612.70000004768,168612.20000004768,167877.17,167876.89999997616,167893.835,168627.01,,12,the
screen,html.Screen,0_4_1_0_1_13,2021-11-19T12:35:35.010Z,,,,,,,,,,,,,,,,51,,,,,,,,,,,,,,633.0900000238325,,response,,,13,A,,,,,Space,keypress(Space),,,,silence,-------- -------- --- --- ---- --- --- ------ -- --------<br>---- --------- --- federal ------------ ---------- ---------<br>--- ---------- ------- ---------- ------- -- -------- ----<br>---- --- ------ ----- ------ -- ---- --- ----- -- - -------<br>-------- -- --- --- -- ----- ----------- ----- -----------<br>---- --- ---------- --- ---- --- -- ----------,169260.70000004768,169260.10000002384,168610.346,168612.89999997616,168627.01,169277.131,,13,federal
screen,html.Screen,0_4_1_0_1_14,2021-11-19T12:35:35.666Z,,,,,,,,,,,,,,,,51,,,,,,,,,,,,,,638.869000000006,,response,,,13,A,,,,,Space,keypress(Space),,,,silence,-------- -------- --- --- ---- --- --- ------ -- --------<br>---- --------- --- ------- government's ---------- ---------<br>--- ---------- ------- ---------- ------- -- -------- ----<br>---- --- ------ ----- ------ -- ---- --- ----- -- - -------<br>-------- -- --- --- -- ----- ----------- ----- -----------<br>---- --- ---------- --- ---- --- -- ----------,169916.60000002384,169916,169260.465,169260.89999997616,169277.131,169927.028,,14,government's
screen,html.Screen,0_4_1_0_1_15,2021-11-19T12:35:36.610Z,,,,,,,,,,,,,,,,51,,,,,,,,,,,,,,933.0720000238507,,response,,,13,A,,,,,Space,keypress(Space),,,,silence,-------- -------- --- --- ---- --- --- ------ -- --------<br>---- --------- --- ------- ------------ regulatory ---------<br>--- ---------- ------- ---------- ------- -- -------- ----<br>---- --- ------ ----- ------ -- ---- --- ----- -- - -------<br>-------- -- --- --- -- ----- ----------- ----- -----------<br>---- --- ---------- --- ---- --- -- ----------,170860.80000007153,170860.10000002384,169910.363,169916.80000007153,169927.028,170876.808,,15,regulatory
screen,html.Screen,0_4_1_0_1_16,2021-11-19T12:35:37.674Z,,,,,,,,,,,,,,,,51,,,,,,,,,,,,,,1047.0919999761682,,response,,,13,A,,,,,Space,keypress(Space),,,,silence,-------- -------- --- --- ---- --- --- ------ -- --------<br>---- --------- --- ------- ------------ ---------- apparatus<br>--- ---------- ------- ---------- ------- -- -------- ----<br>---- --- ------ ----- ------ -- ---- --- ----- -- - -------<br>-------- -- --- --- -- ----- ----------- ----- -----------<br>---- --- ---------- --- ---- --- -- ----------,171924.60000002384,171923.89999997616,170860.144,170860.89999997616,170876.808,171926.834,,16,apparatus
screen,html.Screen,0_4_1_0_1_17,2021-11-19T12:35:38.266Z,,,,,,,,,,,,,,,,51,,,,,,,,,,,,,,589.0659999761556,,response,,,13,A,,,,,Space,keypress(Space),,,,silence,-------- -------- --- --- ---- --- --- ------ -- --------<br>---- --------- --- ------- ------------ ---------- ---------<br>may ---------- ------- ---------- ------- -- -------- ----<br>---- --- ------ ----- ------ -- ---- --- ----- -- - -------<br>-------- -- --- --- -- ----- ----------- ----- -----------<br>---- --- ---------- --- ---- --- -- ----------,172516.5,172515.89999997616,171910.169,171924.70000004768,171926.834,172526.928,,17,may
screen,html.Screen,0_4_1_0_1_18,2021-11-19T12:35:38.921Z,,,,,,,,,,,,,,,,51,,,,,,,,,,,,,,644.8720000715111,,response,,,13,A,,,,,Space,keypress(Space),,,,silence,-------- -------- --- --- ---- --- --- ------ -- --------<br>---- --------- --- ------- ------------ ---------- ---------<br>--- profoundly ------- ---------- ------- -- -------- ----<br>---- --- ------ ----- ------ -- ---- --- ----- -- - -------<br>-------- -- --- --- -- ----- ----------- ----- -----------<br>---- --- ---------- --- ---- --- -- ----------,173172.39999997616,173171.80000007153,172510.262,172516.70000004768,172526.928,173176.811,,18,profoundly
screen,html.Screen,0_4_1_0_1_19,2021-11-19T12:35:39.641Z,,,,,,,,,,,,,,,,51,,,,,,,,,,,,,,714.9890000715386,,response,,,13,A,,,,,Space,keypress(Space),,,,silence,-------- -------- --- --- ---- --- --- ------ -- --------<br>---- --------- --- ------- ------------ ---------- ---------<br>--- ---------- improve ---------- ------- -- -------- ----<br>---- --- ------ ----- ------ -- ---- --- ----- -- - -------<br>-------- -- --- --- -- ----- ----------- ----- -----------<br>---- --- ---------- --- ---- --- -- ----------,173892.39999997616,173891.80000007153,173160.146,173172.5,173176.811,173893.519,,19,improve
screen,html.Screen,0_4_1_0_1_20,2021-11-19T12:35:40.201Z,,,,,,,,,,,,,,,,51,,,,,,,,,,,,,,558.1810000476835,,response,,,13,A,,,,,Space,keypress(Space),,,,silence,-------- -------- --- --- ---- --- --- ------ -- --------<br>---- --------- --- ------- ------------ ---------- ---------<br>--- ---------- ------- companies' ------- -- -------- ----<br>---- --- ------ ----- ------ -- ---- --- ----- -- - -------<br>-------- -- --- --- -- ----- ----------- ----- -----------<br>---- --- ---------- --- ---- --- -- ----------,174452.30000007153,174451.70000004768,173876.853,173892.60000002384,173893.519,174460.056,,20,companies'
screen,html.Screen,0_4_1_0_1_21,2021-11-19T12:35:41.097Z,,,,,,,,,,,,,,,,51,,,,,,,,,,,,,,887.6440000476723,,response,,,13,A,,,,,Space,keypress(Space),,,,silence,-------- -------- --- --- ---- --- --- ------ -- --------<br>---- --------- --- ------- ------------ ---------- ---------<br>--- ---------- ------- ---------- ability -- -------- ----<br>---- --- ------ ----- ------ -- ---- --- ----- -- - -------<br>-------- -- --- --- -- ----- ----------- ----- -----------<br>---- --- ---------- --- ---- --- -- ----------,175348.30000007153,175347.70000004768,174443.391,174452.5,174460.056,175360,,21,ability
screen,html.Screen,0_4_1_0_1_22,2021-11-19T12:35:41.529Z,,,,,,,,,,,,,,,,51,,,,,,,,,,,,,,419.60000002384186,,response,,,13,A,,,,,Space,keypress(Space),,,,silence,-------- -------- --- --- ---- --- --- ------ -- --------<br>---- --------- --- ------- ------------ ---------- ---------<br>--- ---------- ------- ---------- ------- to -------- ----<br>---- --- ------ ----- ------ -- ---- --- ----- -- - -------<br>-------- -- --- --- -- ----- ----------- ----- -----------<br>---- --- ---------- --- ---- --- -- ----------,175780.30000007153,175779.60000002384,175343.335,175348.5,175360,175793.294,,22,to
screen,html.Screen,0_4_1_0_1_23,2021-11-19T12:35:42.065Z,,,,,,,,,,,,,,,,51,,,,,,,,,,,,,,522.3060000238474,,response,,,13,A,,,,,Space,keypress(Space),,,,silence,-------- -------- --- --- ---- --- --- ------ -- --------<br>---- --------- --- ------- ------------ ---------- ---------<br>--- ---------- ------- ---------- ------- -- survive. ----<br>---- --- ------ ----- ------ -- ---- --- ----- -- - -------<br>-------- -- --- --- -- ----- ----------- ----- -----------<br>---- --- ---------- --- ---- --- -- ----------,176316.30000007153,176315.60000002384,175776.629,175780.5,175793.294,176326.601,,23,survive.
screen,html.Screen,0_4_1_0_1_24,2021-11-19T12:35:43.073Z,,,,,,,,,,,,,,,,51,,,,,,,,,,,,,,996.8990000000049,,response,,,13,A,,,,,Space,keypress(Space),,,,silence,-------- -------- --- --- ---- --- --- ------ -- --------<br>---- --------- --- ------- ------------ ---------- ---------<br>--- ---------- ------- ---------- ------- -- -------- This<br>---- --- ------ ----- ------ -- ---- --- ----- -- - -------<br>-------- -- --- --- -- ----- ----------- ----- -----------<br>---- --- ---------- --- ---- --- -- ----------,177324.20000004768,177323.5,176309.936,176316.39999997616,176326.601,177326.627,,24,This
screen,html.Screen,0_4_1_0_1_25,2021-11-19T12:35:43.689Z,,,,,,,,,,,,,,,,51,,,,,,,,,,,,,,612.8729999999923,,response,,,13,A,,,,,Space,keypress(Space),,,,silence,-------- -------- --- --- ---- --- --- ------ -- --------<br>---- --------- --- ------- ------------ ---------- ---------<br>--- ---------- ------- ---------- ------- -- -------- ----<br>week --- ------ ----- ------ -- ---- --- ----- -- - -------<br>-------- -- --- --- -- ----- ----------- ----- -----------<br>---- --- ---------- --- ---- --- -- ----------,177940.20000004768,177939.5,177309.961,177324.30000007153,177326.627,177943.202,,25,week
screen,html.Screen,0_4_1_0_1_26,2021-11-19T12:35:44.489Z,,,,,,,,,,,,,,,,51,,,,,,,,,,,,,,796.2980000000098,,response,,,13,A,,,,,Space,keypress(Space),,,,silence,-------- -------- --- --- ---- --- --- ------ -- --------<br>---- --------- --- ------- ------------ ---------- ---------<br>--- ---------- ------- ---------- ------- -- -------- ----<br>---- the ------ ----- ------ -- ---- --- ----- -- - -------<br>-------- -- --- --- -- ----- ----------- ----- -----------<br>---- --- ---------- --- ---- --- -- ----------,178740.10000002384,178739.5,177926.537,177940.30000007153,177943.202,178743.163,,26,the
screen,html.Screen,0_4_1_0_1_27,2021-11-19T12:35:45.113Z,,,,,,,,,,,,,,,,51,,,,,,,,,,,,,,620.3369999999995,,response,,,13,A,,,,,Space,keypress(Space),,,,silence,-------- -------- --- --- ---- --- --- ------ -- --------<br>---- --------- --- ------- ------------ ---------- ---------<br>--- ---------- ------- ---------- ------- -- -------- ----<br>---- --- Senate ----- ------ -- ---- --- ----- -- - -------<br>-------- -- --- --- -- ----- ----------- ----- -----------<br>---- --- ---------- --- ---- --- -- ----------,179364.20000004768,179363.5,178726.498,178740.30000007153,178743.163,179376.452,,27,Senate
screen,html.Screen,0_4_1_0_1_28,2021-11-19T12:35:45.705Z,,,,,,,,,,,,,,,,51,,,,,,,,,,,,,,579.1480000238516,,response,,,13,A,,,,,Space,keypress(Space),,,,silence,-------- -------- --- --- ---- --- --- ------ -- --------<br>---- --------- --- ------- ------------ ---------- ---------<br>--- ---------- ------- ---------- ------- -- -------- ----<br>---- --- ------ seems ------ -- ---- --- ----- -- - -------<br>-------- -- --- --- -- ----- ----------- ----- -----------<br>---- --- ---------- --- ---- --- -- ----------,179956.10000002384,179955.60000002384,179359.787,179364.30000007153,179376.452,179959.657,,28,seems
screen,html.Screen,0_4_1_0_1_29,2021-11-19T12:35:46.345Z,,,,,,,,,,,,,,,,51,,,,,,,,,,,,,,635.7429999761516,,response,,,13,A,,,,,Space,keypress(Space),,,,silence,-------- -------- --- --- ---- --- --- ------ -- --------<br>---- --------- --- ------- ------------ ---------- ---------<br>--- ---------- ------- ---------- ------- -- -------- ----<br>---- --- ------ ----- poised -- ---- --- ----- -- - -------<br>-------- -- --- --- -- ----- ----------- ----- -----------<br>---- --- ---------- --- ---- --- -- ----------,180596,180595.39999997616,179942.993,179956.39999997616,179959.657,180609.776,,29,poised
screen,html.Screen,0_4_1_0_1_30,2021-11-19T12:35:46.948Z,,,,,,,,,,,,,,,,51,,,,,,,,,,,,,,585.8240000238293,,response,,,13,A,,,,,Space,keypress(Space),,,,silence,-------- -------- --- --- ---- --- --- ------ -- --------<br>---- --------- --- ------- ------------ ---------- ---------<br>--- ---------- ------- ---------- ------- -- -------- ----<br>---- --- ------ ----- ------ to ---- --- ----- -- - -------<br>-------- -- --- --- -- ----- ----------- ----- -----------<br>---- --- ---------- --- ---- --- -- ----------,181196.10000002384,181195.60000002384,180593.11,180596.10000002384,180609.776,181209.585,,30,to
screen,html.Screen,0_4_1_0_1_31,2021-11-19T12:35:47.420Z,,,,,,,,,,,,,,,,51,,,,,,,,,,,,,,457.7150000715337,,response,,,13,A,,,,,Space,keypress(Space),,,,silence,-------- -------- --- --- ---- --- --- ------ -- --------<br>---- --------- --- ------- ------------ ---------- ---------<br>--- ---------- ------- ---------- ------- -- -------- ----<br>---- --- ------ ----- ------ -- join --- ----- -- - -------<br>-------- -- --- --- -- ----- ----------- ----- -----------<br>---- --- ---------- --- ---- --- -- ----------,181667.89999997616,181667.30000007153,181192.921,181196.30000007153,181209.585,181676.348,,31,join
screen,html.Screen,0_4_1_0_1_32,2021-11-19T12:35:47.860Z,,,,,,,,,,,,,,,,51,,,,,,,,,,,,,,430.8520000476856,,response,,,13,A,,,,,Space,keypress(Space),,,,silence,-------- -------- --- --- ---- --- --- ------ -- --------<br>---- --------- --- ------- ------------ ---------- ---------<br>--- ---------- ------- ---------- ------- -- -------- ----<br>---- --- ------ ----- ------ -- ---- the ----- -- - -------<br>-------- -- --- --- -- ----- ----------- ----- -----------<br>---- --- ---------- --- ---- --- -- ----------,182107.89999997616,182107.20000004768,181659.682,181668,181676.348,182109.543,,32,the
screen,html.Screen,0_4_1_0_1_33,2021-11-19T12:35:48.340Z,,,,,,,,,,,,,,,,51,,,,,,,,,,,,,,477.6570000476786,,response,,,13,A,,,,,Space,keypress(Space),,,,silence,-------- -------- --- --- ---- --- --- ------ -- --------<br>---- --------- --- ------- ------------ ---------- ---------<br>--- ---------- ------- ---------- ------- -- -------- ----<br>---- --- ------ ----- ------ -- ---- --- House -- - -------<br>-------- -- --- --- -- ----- ----------- ----- -----------<br>---- --- ---------- --- ---- --- -- ----------,182587.80000007153,182587.20000004768,182092.879,182108.10000002384,182109.543,182592.952,,33,House
screen,html.Screen,0_4_1_0_1_34,2021-11-19T12:35:48.852Z,,,,,,,,,,,,,,,,51,,,,,,,,,,,,,,506.0480000000098,,response,,,13,A,,,,,Space,keypress(Space),,,,silence,-------- -------- --- --- ---- --- --- ------ -- --------<br>---- --------- --- ------- ------------ ---------- ---------<br>--- ---------- ------- ---------- ------- -- -------- ----<br>---- --- ------ ----- ------ -- ---- --- ----- in - -------<br>-------- -- --- --- -- ----- ----------- ----- -----------<br>---- --- ---------- --- ---- --- -- ----------,183099.60000002384,183099,182576.286,182587.89999997616,182592.952,183109.52,,34,in
screen,html.Screen,0_4_1_0_1_35,2021-11-19T12:35:49.388Z,,,,,,,,,,,,,,,,51,,,,,,,,,,,,,,525.6800000476942,,response,,,13,A,,,,,Space,keypress(Space),,,,silence,-------- -------- --- --- ---- --- --- ------ -- --------<br>---- --------- --- ------- ------------ ---------- ---------<br>--- ---------- ------- ---------- ------- -- -------- ----<br>---- --- ------ ----- ------ -- ---- --- ----- -- a -------<br>-------- -- --- --- -- ----- ----------- ----- -----------<br>---- --- ---------- --- ---- --- -- ----------,183635.89999997616,183635.20000004768,183092.855,183099.70000004768,183109.52,183642.889,,35,a
screen,html.Screen,0_4_1_0_1_36,2021-11-19T12:35:50.060Z,,,,,,,,,,,,,,,,51,,,,,,,,,,,,,,664.3110000476881,,response,,,13,A,,,,,Space,keypress(Space),,,,silence,-------- -------- --- --- ---- --- --- ------ -- --------<br>---- --------- --- ------- ------------ ---------- ---------<br>--- ---------- ------- ---------- ------- -- -------- ----<br>---- --- ------ ----- ------ -- ---- --- ----- -- - massive<br>-------- -- --- --- -- ----- ----------- ----- -----------<br>---- --- ---------- --- ---- --- -- ----------,184307.80000007153,184307.20000004768,183626.223,183636.10000002384,183642.889,184309.435,,36,massive
screen,html.Screen,0_4_1_0_1_37,2021-11-19T12:35:50.724Z,,,,,,,,,,,,,,,,51,,,,,,,,,,,,,,661.6650000238442,,response,,,13,A,,,,,Space,keypress(Space),,,,silence,-------- -------- --- --- ---- --- --- ------ -- --------<br>---- --------- --- ------- ------------ ---------- ---------<br>--- ---------- ------- ---------- ------- -- -------- ----<br>---- --- ------ ----- ------ -- ---- --- ----- -- - -------<br>overhaul -- --- --- -- ----- ----------- ----- -----------<br>---- --- ---------- --- ---- --- -- ----------,184971.80000007153,184971.10000002384,184292.77,184307.89999997616,184309.435,184976.067,,37,overhaul
screen,html.Screen,0_4_1_0_1_38,2021-11-19T12:35:51.388Z,,,,,,,,,,,,,,,,51,,,,,,,,,,,,,,659.0330000238318,,response,,,13,A,,,,,Space,keypress(Space),,,,silence,-------- -------- --- --- ---- --- --- ------ -- --------<br>---- --------- --- ------- ------------ ---------- ---------<br>--- ---------- ------- ---------- ------- -- -------- ----<br>---- --- ------ ----- ------ -- ---- --- ----- -- - -------<br>-------- of --- --- -- ----- ----------- ----- -----------<br>---- --- ---------- --- ---- --- -- ----------,185635.70000004768,185635.10000002384,184959.402,184971.89999997616,184976.067,185642.685,,38,of
screen,html.Screen,0_4_1_0_1_39,2021-11-19T12:35:52.236Z,,,,,,,,,,,,,,,,51,,,,,,,,,,,,,,840.3150000000023,,response,,,13,A,,,,,Space,keypress(Space),,,,silence,-------- -------- --- --- ---- --- --- ------ -- --------<br>---- --------- --- ------- ------------ ---------- ---------<br>--- ---------- ------- ---------- ------- -- -------- ----<br>---- --- ------ ----- ------ -- ---- --- ----- -- - -------<br>-------- -- the --- -- ----- ----------- ----- -----------<br>---- --- ---------- --- ---- --- -- ----------,186483.70000004768,186483,185626.02,185635.89999997616,185642.685,186492.727,,39,the
screen,html.Screen,0_4_1_0_1_40,2021-11-19T12:35:52.812Z,,,,,,,,,,,,,,,,51,,,,,,,,,,,,,,566.2729999999865,,response,,,13,A,,,,,Space,keypress(Space),,,,silence,-------- -------- --- --- ---- --- --- ------ -- --------<br>---- --------- --- ------- ------------ ---------- ---------<br>--- ---------- ------- ---------- ------- -- -------- ----<br>---- --- ------ ----- ------ -- ---- --- ----- -- - -------<br>-------- -- --- way -- ----- ----------- ----- -----------<br>---- --- ---------- --- ---- --- -- ----------,187059.5,187059,186476.061,186483.80000007153,186492.727,187075.954,,40,way
screen,html.Screen,0_4_1_0_1_41,2021-11-19T12:35:53.468Z,,,,,,,,,,,,,,,,51,,,,,,,,,,,,,,638.9459999761602,,response,,,13,A,,,,,Space,keypress(Space),,,,silence,-------- -------- --- --- ---- --- --- ------ -- --------<br>---- --------- --- ------- ------------ ---------- ---------<br>--- ---------- ------- ---------- ------- -- -------- ----<br>---- --- ------ ----- ------ -- ---- --- ----- -- - -------<br>-------- -- --- --- in ----- ----------- ----- -----------<br>---- --- ---------- --- ---- --- -- ----------,187715.5,187714.89999997616,187059.289,187059.70000004768,187075.954,187725.916,,41,in
screen,html.Screen,0_4_1_0_1_42,2021-11-19T12:35:53.995Z,,,,,,,,,,,,,,,,51,,,,,,,,,,,,,,516.8840000715281,,response,,,13,A,,,,,Space,keypress(Space),,,,silence,-------- -------- --- --- ---- --- --- ------ -- --------<br>---- --------- --- ------- ------------ ---------- ---------<br>--- ---------- ------- ---------- ------- -- -------- ----<br>---- --- ------ ----- ------ -- ---- --- ----- -- - -------<br>-------- -- --- --- -- which ----------- ----- -----------<br>---- --- ---------- --- ---- --- -- ----------,188243.39999997616,188242.80000007153,187709.251,187715.70000004768,187725.916,188259.289,,42,which
screen,html.Screen,0_4_1_0_1_43,2021-11-19T12:35:55.259Z,,,,,,,,,,,,,,,,51,,,,,,,,,,,,,,1247.6109999761684,,response,,,13,A,,,,,Space,keypress(Space),,,,silence,-------- -------- --- --- ---- --- --- ------ -- --------<br>---- --------- --- ------- ------------ ---------- ---------<br>--- ---------- ------- ---------- ------- -- -------- ----<br>---- --- ------ ----- ------ -- ---- --- ----- -- - -------<br>-------- -- --- --- -- ----- bureaucrats ----- -----------<br>---- --- ---------- --- ---- --- -- ----------,189507.39999997616,189506.89999997616,188242.623,188243.5,188259.289,189509.141,,43,bureaucrats
screen,html.Screen,0_4_1_0_1_44,2021-11-19T12:35:56.019Z,,,,,,,,,,,,,,,,51,,,,,,,,,,,,,,757.6590000715223,,response,,,13,A,,,,,Space,keypress(Space),,,,silence,-------- -------- --- --- ---- --- --- ------ -- --------<br>---- --------- --- ------- ------------ ---------- ---------<br>--- ---------- ------- ---------- ------- -- -------- ----<br>---- --- ------ ----- ------ -- ---- --- ----- -- - -------<br>-------- -- --- --- -- ----- ----------- enact -----------<br>---- --- ---------- --- ---- --- -- ----------,190267.5,190266.80000007153,189492.476,189507.60000002384,189509.141,190275.508,,44,enact
screen,html.Screen,0_4_1_0_1_45,2021-11-19T12:35:56.579Z,,,,,,,,,,,,,,,,51,,,,,,,,,,,,,,551.292000071524,,response,,,13,A,,,,,Space,keypress(Space),,,,silence,-------- -------- --- --- ---- --- --- ------ -- --------<br>---- --------- --- ------- ------------ ---------- ---------<br>--- ---------- ------- ---------- ------- -- -------- ----<br>---- --- ------ ----- ------ -- ---- --- ----- -- - -------<br>-------- -- --- --- -- ----- ----------- ----- regulations<br>---- --- ---------- --- ---- --- -- ----------,190827.30000007153,190826.80000007153,190258.845,190267.60000002384,190275.508,190842.462,,45,regulations
screen,html.Screen,0_4_1_0_1_46,2021-11-19T12:35:57.179Z,,,,,,,,,,,,,,,,51,,,,,,,,,,,,,,584.4379999761586,,response,,,13,A,,,,,Space,keypress(Space),,,,silence,-------- -------- --- --- ---- --- --- ------ -- --------<br>---- --------- --- ------- ------------ ---------- ---------<br>--- ---------- ------- ---------- ------- -- -------- ----<br>---- --- ------ ----- ------ -- ---- --- ----- -- - -------<br>-------- -- --- --- -- ----- ----------- ----- -----------<br>that --- ---------- --- ---- --- -- ----------,191427.5,191426.89999997616,190825.796,190827.5,190842.462,191442.382,,46,that
screen,html.Screen,0_4_1_0_1_47,2021-11-19T12:35:57.603Z,,,,,,,,,,,,,,,,51,,,,,,,,,,,,,,408.2180000238295,,response,,,13,A,,,,,Space,keypress(Space),,,,silence,-------- -------- --- --- ---- --- --- ------ -- --------<br>---- --------- --- ------- ------------ ---------- ---------<br>--- ---------- ------- ---------- ------- -- -------- ----<br>---- --- ------ ----- ------ -- ---- --- ----- -- - -------<br>-------- -- --- --- -- ----- ----------- ----- -----------<br>---- are ---------- --- ---- --- -- ----------,191851.20000004768,191850.60000002384,191425.717,191427.60000002384,191442.382,191858.943,,47,are
screen,html.Screen,0_4_1_0_1_48,2021-11-19T12:35:58.107Z,,,,,,,,,,,,,,,,51,,,,,,,,,,,,,,495.65700002384256,,response,,,13,A,,,,,Space,keypress(Space),,,,silence,-------- -------- --- --- ---- --- --- ------ -- --------<br>---- --------- --- ------- ------------ ---------- ---------<br>--- ---------- ------- ---------- ------- -- -------- ----<br>---- --- ------ ----- ------ -- ---- --- ----- -- - -------<br>-------- -- --- --- -- ----- ----------- ----- -----------<br>---- --- strangling --- ---- --- -- ----------,192355.30000007153,192354.60000002384,191842.279,191851.39999997616,191858.943,192359.036,,48,strangling
screen,html.Screen,0_4_1_0_1_49,2021-11-19T12:35:58.731Z,,,,,,,,,,,,,,,,51,,,,,,,,,,,,,,619.5640000238491,,response,,,13,A,,,,,Space,keypress(Space),,,,silence,-------- -------- --- --- ---- --- --- ------ -- --------<br>---- --------- --- ------- ------------ ---------- ---------<br>--- ---------- ------- ---------- ------- -- -------- ----<br>---- --- ------ ----- ------ -- ---- --- ----- -- - -------<br>-------- -- --- --- -- ----- ----------- ----- -----------<br>---- --- ---------- the ---- --- -- ----------,192979.20000004768,192978.60000002384,192342.37,192355.5,192359.036,192992.348,,49,the
screen,html.Screen,0_4_1_0_1_50,2021-11-19T12:35:59.403Z,,,,,,,,,,,,,,,,51,,,,,,,,,,,,,,658.1520000000019,,response,,,13,A,,,,,Space,keypress(Space),,,,silence,-------- -------- --- --- ---- --- --- ------ -- --------<br>---- --------- --- ------- ------------ ---------- ---------<br>--- ---------- ------- ---------- ------- -- -------- ----<br>---- --- ------ ----- ------ -- ---- --- ----- -- - -------<br>-------- -- --- --- -- ----- ----------- ----- -----------<br>---- --- ---------- --- life --- -- ----------,193651.20000004768,193650.5,192975.682,192979.39999997616,192992.348,193658.915,,50,life
