sender,sender_type,sender_id,timestamp,meta,,Blues,Classical,Country,Dance,Electronic,Folk,Gospel,Hip-Hop,Jazz,Latin,Musical/Film,New-age,Pop,Provo_ID,R&B,Rap,Reggae,Religious,Rock,Soul,Swing,Traditional,age,artist_name,correct,correctResponse,distraction,duration,education,ended_on,familiarity,gender,item,list,music_frequency,offensiveness,pleasantness,preference,response,response_action,snippet_file,song_name,song_rating,sound,text,time_commit,time_end,time_render,time_run,time_show,time_switch,url,word,word_ID
Instructions,html.Page,0_0,2021-11-19T11:57:47.381Z,"{""labjs_version"":""20.2.3"",""labjs_build"":{""flavor"":""production"",""commit"":""7ea907d66ca8aeef8054924ca5d82ffbe11e34e5""},""location"":""https://run.pavlovia.org/mvasilev/lab_music_e/"",""userAgent"":""Mozilla/5.0 (Windows NT 6.1; Win64; x64) AppleWebKit/537.36 (KHTML, like Gecko) Chrome/96.0.4664.45 Safari/537.36"",""platform"":""Win32"",""language"":""en-US"",""locale"":""en-US"",""timeZone"":""Europe/London"",""timezoneOffset"":0,""screen_width"":1920,""screen_height"":1080,""scroll_width"":1920,""scroll_height"":959,""window_innerWidth"":1920,""window_innerHeight"":1007,""devicePixelRatio"":1}",,,,,,,,,,,,,,,,,,,,,,,,,,,,,33815.867999952316,,form submission,,,,,,,,,,,,,,,,50547.5,50546.299999952316,16697.09,16710.900000095367,16730.432,50550.487,{},,
Headphones,html.Page,0_1,2021-11-19T11:57:49.543Z,,,,,,,,,,,,,,,,,,,,,,,,,,,,,,2158.512999999999,,form submission,,,,,,,,,,,,,,,,52709.5,52709,50533.82,50548.299999952316,50550.487,52722.104,,,
Holding screen,html.Screen,0_2_0_0,2021-11-19T11:57:59.551Z,,,,,,,,,,,,,,,,,,,,,,,,,,,,,,10003.857000000004,,timeout,,,,,,,,,,,,,,,,62715.5,62709.292,52705.443,52709.90000009537,52722.104,62725.961,,,
screen,html.Screen,0_2_0_1_0,2021-11-19T11:58:00.705Z,,,,,,,,,,,,,,,,53,,,,,,,,,,,,,,1141.9390000953645,,response,,,99,,,,,,Space,keypress(Space),,,,,When -- ----- -- ------ - ------- --- ----------<br>------------- ------ ------ ---- ---- ------- ----- -- ----<br>-------- ------- -- ---------- --- - --- ----- ----- ----<br>---- --- --- ----- --- ---- ---- ------- ----- ---- -------<br>--- --- -- ----- -- --- ---- -- --- ---- -- ------ ------<br>--- ----- -- ----,63869.200000047684,63867.90000009537,62709.292,62715.90000009537,62725.961,63876.645,,0,When
screen,html.Screen,0_2_0_1_1,2021-11-19T11:58:01.112Z,,,,,,,,,,,,,,,,53,,,,,,,,,,,,,,398.75500009537063,,response,,,99,,,,,,Space,keypress(Space),,,,,---- it ----- -- ------ - ------- --- ----------<br>------------- ------ ------ ---- ---- ------- ----- -- ----<br>-------- ------- -- ---------- --- - --- ----- ----- ----<br>---- --- --- ----- --- ---- ---- ------- ----- ---- -------<br>--- --- -- ----- -- --- ---- -- --- ---- -- ------ ------<br>--- ----- -- ----,64276.200000047684,64275.40000009537,63859.973,63869.700000047684,63876.645,64293.359,,1,it
screen,html.Screen,0_2_0_1_2,2021-11-19T11:58:01.520Z,,,,,,,,,,,,,,,,53,,,,,,,,,,,,,,390.0410000953707,,response,,,99,,,,,,Space,keypress(Space),,,,,---- -- comes -- ------ - ------- --- ----------<br>------------- ------ ------ ---- ---- ------- ----- -- ----<br>-------- ------- -- ---------- --- - --- ----- ----- ----<br>---- --- --- ----- --- ---- ---- ------- ----- ---- -------<br>--- --- -- ----- -- --- ---- -- --- ---- -- ------ ------<br>--- ----- -- ----,64684.299999952316,64683.40000009537,64276.688,64276.5,64293.359,64693.479,,2,comes
screen,html.Screen,0_2_0_1_3,2021-11-19T11:58:01.832Z,,,,,,,,,,,,,,,,53,,,,,,,,,,,,,,301.8209999523169,,response,,,99,,,,,,Space,keypress(Space),,,,,---- -- ----- to ------ - ------- --- ----------<br>------------- ------ ------ ---- ---- ------- ----- -- ----<br>-------- ------- -- ---------- --- - --- ----- ----- ----<br>---- --- --- ----- --- ---- ---- ------- ----- ---- -------<br>--- --- -- ----- -- --- ---- -- --- ---- -- ------ ------<br>--- ----- -- ----,64996.40000009537,64995.299999952316,64676.808,64684.5,64693.479,65010.2,,3,to
screen,html.Screen,0_2_0_1_4,2021-11-19T11:58:02.208Z,,,,,,,,,,,,,,,,53,,,,,,,,,,,,,,361.0999999523192,,response,,,99,,,,,,Space,keypress(Space),,,,,---- -- ----- -- having - ------- --- ----------<br>------------- ------ ------ ---- ---- ------- ----- -- ----<br>-------- ------- -- ---------- --- - --- ----- ----- ----<br>---- --- --- ----- --- ---- ---- ------- ----- ---- -------<br>--- --- -- ----- -- --- ---- -- --- ---- -- ------ ------<br>--- ----- -- ----,65372.40000009537,65371.299999952316,64993.53,64996.799999952316,65010.2,65376.991,,4,having
screen,html.Screen,0_2_0_1_5,2021-11-19T11:58:02.576Z,,,,,,,,,,,,,,,,53,,,,,,,,,,,,,,362.3089999523145,,response,,,99,,,,,,Space,keypress(Space),,,,,---- -- ----- -- ------ a ------- --- ----------<br>------------- ------ ------ ---- ---- ------- ----- -- ----<br>-------- ------- -- ---------- --- - --- ----- ----- ----<br>---- --- --- ----- --- ---- ---- ------- ----- ---- -------<br>--- --- -- ----- -- --- ---- -- --- ---- -- ------ ------<br>--- ----- -- ----,65740.20000004768,65739.29999995232,65360.32,65372.799999952316,65376.991,65743.597,,5,a
screen,html.Screen,0_2_0_1_6,2021-11-19T11:58:02.928Z,,,,,,,,,,,,,,,,53,,,,,,,,,,,,,,347.702999952322,,response,,,99,,,,,,Space,keypress(Space),,,,,---- -- ----- -- ------ - lasting --- ----------<br>------------- ------ ------ ---- ---- ------- ----- -- ----<br>-------- ------- -- ---------- --- - --- ----- ----- ----<br>---- --- --- ----- --- ---- ---- ------- ----- ---- -------<br>--- --- -- ----- -- --- ---- -- --- ---- -- ------ ------<br>--- ----- -- ----,66092.29999995232,66091.29999995232,65726.929,65740.70000004768,65743.597,66093.905,,6,lasting
screen,html.Screen,0_2_0_1_7,2021-11-19T11:58:03.288Z,,,,,,,,,,,,,,,,53,,,,,,,,,,,,,,357.39499995231745,,response,,,99,,,,,,Space,keypress(Space),,,,,---- -- ----- -- ------ - ------- and ----------<br>------------- ------ ------ ---- ---- ------- ----- -- ----<br>-------- ------- -- ---------- --- - --- ----- ----- ----<br>---- --- --- ----- --- ---- ---- ------- ----- ---- -------<br>--- --- -- ----- -- --- ---- -- --- ---- -- ------ ------<br>--- ----- -- ----,66452.29999995232,66451.29999995232,66077.233,66092.60000014305,66093.905,66460.584,,7,and
screen,html.Screen,0_2_0_1_8,2021-11-19T11:58:03.648Z,,,,,,,,,,,,,,,,53,,,,,,,,,,,,,,350.7159999523137,,response,,,99,,,,,,Space,keypress(Space),,,,,---- -- ----- -- ------ - ------- --- fulfilling<br>------------- ------ ------ ---- ---- ------- ----- -- ----<br>-------- ------- -- ---------- --- - --- ----- ----- ----<br>---- --- --- ----- --- ---- ---- ------- ----- ---- -------<br>--- --- -- ----- -- --- ---- -- --- ---- -- ------ ------<br>--- ----- -- ----,66812.40000009537,66811.29999995232,66443.914,66452.5,66460.584,66827.379,,8,fulfilling
screen,html.Screen,0_2_0_1_9,2021-11-19T11:58:04.032Z,,,,,,,,,,,,,,,,53,,,,,,,,,,,,,,367.92099995231547,,response,,,99,,,,,,Space,keypress(Space),,,,,"---- -- ----- -- ------ - ------- --- ----------<br>relationship, ------ ------ ---- ---- ------- ----- -- ----<br>-------- ------- -- ---------- --- - --- ----- ----- ----<br>---- --- --- ----- --- ---- ---- ------- ----- ---- -------<br>--- --- -- ----- -- --- ---- -- --- ---- -- ------ ------<br>--- ----- -- ----",67196.20000004768,67195.29999995232,66810.708,66812.60000014305,66827.379,67210.759,,9,"relationship,"
screen,html.Screen,0_2_0_1_10,2021-11-19T11:58:04.440Z,,,,,,,,,,,,,,,,53,,,,,,,,,,,,,,392.44100004767824,,response,,,99,,,,,,Space,keypress(Space),,,,,---- -- ----- -- ------ - ------- --- ----------<br>------------- common ------ ---- ---- ------- ----- -- ----<br>-------- ------- -- ---------- --- - --- ----- ----- ----<br>---- --- --- ----- --- ---- ---- ------- ----- ---- -------<br>--- --- -- ----- -- --- ---- -- --- ---- -- ------ ------<br>--- ----- -- ----,67604.10000014305,67603.20000004768,67194.089,67196.40000009537,67210.759,67610.931,,10,common
screen,html.Screen,0_2_0_1_11,2021-11-19T11:58:04.880Z,,,,,,,,,,,,,,,,53,,,,,,,,,,,,,,432.3689999523194,,response,,,99,,,,,,Space,keypress(Space),,,,,---- -- ----- -- ------ - ------- --- ----------<br>------------- ------ wisdom ---- ---- ------- ----- -- ----<br>-------- ------- -- ---------- --- - --- ----- ----- ----<br>---- --- --- ----- --- ---- ---- ------- ----- ---- -------<br>--- --- -- ----- -- --- ---- -- --- ---- -- ------ ------<br>--- ----- -- ----,68044.20000004768,68043.29999995232,67594.26,67604.40000009537,67610.931,68061.054,,11,wisdom
screen,html.Screen,0_2_0_1_12,2021-11-19T11:58:05.240Z,,,,,,,,,,,,,,,,53,,,,,,,,,,,,,,342.14600004768,,response,,,99,,,,,,Space,keypress(Space),,,,,---- -- ----- -- ------ - ------- --- ----------<br>------------- ------ ------ says ---- ------- ----- -- ----<br>-------- ------- -- ---------- --- - --- ----- ----- ----<br>---- --- --- ----- --- ---- ---- ------- ----- ---- -------<br>--- --- -- ----- -- --- ---- -- --- ---- -- ------ ------<br>--- ----- -- ----,68404.10000014305,68403.20000004768,68044.383,68044.40000009537,68061.054,68411.145,,12,says
screen,html.Screen,0_2_0_1_13,2021-11-19T11:58:05.632Z,,,,,,,,,,,,,,,,53,,,,,,,,,,,,,,384.1549999523122,,response,,,99,,,,,,Space,keypress(Space),,,,,---- -- ----- -- ------ - ------- --- ----------<br>------------- ------ ------ ---- that ------- ----- -- ----<br>-------- ------- -- ---------- --- - --- ----- ----- ----<br>---- --- --- ----- --- ---- ---- ------- ----- ---- -------<br>--- --- -- ----- -- --- ---- -- --- ---- -- ------ ------<br>--- ----- -- ----,68796.10000014305,68795.29999995232,68394.474,68404.29999995232,68411.145,68811.201,,13,that
screen,html.Screen,0_2_0_1_14,2021-11-19T11:58:05.952Z,,,,,,,,,,,,,,,,53,,,,,,,,,,,,,,303.9990000476828,,response,,,99,,,,,,Space,keypress(Space),,,,,---- -- ----- -- ------ - ------- --- ----------<br>------------- ------ ------ ---- ---- feeling ----- -- ----<br>-------- ------- -- ---------- --- - --- ----- ----- ----<br>---- --- --- ----- --- ---- ---- ------- ----- ---- -------<br>--- --- -- ----- -- --- ---- -- --- ---- -- ------ ------<br>--- ----- -- ----,69116,69115.20000004768,68794.531,68796.29999995232,68811.201,69128.012,,14,feeling
screen,html.Screen,0_2_0_1_15,2021-11-19T11:58:06.328Z,,,,,,,,,,,,,,,,53,,,,,,,,,,,,,,363.18800004768127,,response,,,99,,,,,,Space,keypress(Space),,,,,---- -- ----- -- ------ - ------- --- ----------<br>------------- ------ ------ ---- ---- ------- close -- ----<br>-------- ------- -- ---------- --- - --- ----- ----- ----<br>---- --- --- ----- --- ---- ---- ------- ----- ---- -------<br>--- --- -- ----- -- --- ---- -- --- ---- -- ------ ------<br>--- ----- -- ----,69492.20000004768,69491.20000004768,69111.341,69116.29999995232,69128.012,69494.67,,15,close
screen,html.Screen,0_2_0_1_16,2021-11-19T11:58:06.656Z,,,,,,,,,,,,,,,,53,,,,,,,,,,,,,,324.53000004768546,,response,,,99,,,,,,Space,keypress(Space),,,,,---- -- ----- -- ------ - ------- --- ----------<br>------------- ------ ------ ---- ---- ------- ----- to ----<br>-------- ------- -- ---------- --- - --- ----- ----- ----<br>---- --- --- ----- --- ---- ---- ------- ----- ---- -------<br>--- --- -- ----- -- --- ---- -- --- ---- -- ------ ------<br>--- ----- -- ----,69819.90000009537,69819.20000004768,69478.001,69492.5,69494.67,69828.244,,16,to
screen,html.Screen,0_2_0_1_17,2021-11-19T11:58:07.048Z,,,,,,,,,,,,,,,,53,,,,,,,,,,,,,,382.95600004767766,,response,,,99,,,,,,Space,keypress(Space),,,,,---- -- ----- -- ------ - ------- --- ----------<br>------------- ------ ------ ---- ---- ------- ----- -- your<br>-------- ------- -- ---------- --- - --- ----- ----- ----<br>---- --- --- ----- --- ---- ---- ------- ----- ---- -------<br>--- --- -- ----- -- --- ---- -- --- ---- -- ------ ------<br>--- ----- -- ----,70212,70211.20000004768,69811.572,69820.20000004768,69828.244,70228.253,,17,your
screen,html.Screen,0_2_0_1_18,2021-11-19T11:58:07.376Z,,,,,,,,,,,,,,,,53,,,,,,,,,,,,,,310.94700004768674,,response,,,99,,,,,,Space,keypress(Space),,,,,---- -- ----- -- ------ - ------- --- ----------<br>------------- ------ ------ ---- ---- ------- ----- -- ----<br>romantic ------- -- ---------- --- - --- ----- ----- ----<br>---- --- --- ----- --- ---- ---- ------- ----- ---- -------<br>--- --- -- ----- -- --- ---- -- --- ---- -- ------ ------<br>--- ----- -- ----,70540,70539.20000004768,70211.583,70212.20000004768,70228.253,70545.048,,18,romantic
screen,html.Screen,0_2_0_1_19,2021-11-19T11:58:07.703Z,,,,,,,,,,,,,,,,53,,,,,,,,,,,,,,322.0520001430559,,response,,,99,,,,,,Space,keypress(Space),,,,,---- -- ----- -- ------ - ------- --- ----------<br>------------- ------ ------ ---- ---- ------- ----- -- ----<br>-------- partner -- ---------- --- - --- ----- ----- ----<br>---- --- --- ----- --- ---- ---- ------- ----- ---- -------<br>--- --- -- ----- -- --- ---- -- --- ---- -- ------ ------<br>--- ----- -- ----,70867.90000009537,70867.10000014305,70528.377,70540.20000004768,70545.048,70878.372,,19,partner
screen,html.Screen,0_2_0_1_20,2021-11-19T11:58:08.087Z,,,,,,,,,,,,,,,,53,,,,,,,,,,,,,,372.7280001430481,,response,,,99,,,,,,Space,keypress(Space),,,,,---- -- ----- -- ------ - ------- --- ----------<br>------------- ------ ------ ---- ---- ------- ----- -- ----<br>-------- ------- is ---------- --- - --- ----- ----- ----<br>---- --- --- ----- --- ---- ---- ------- ----- ---- -------<br>--- --- -- ----- -- --- ---- -- --- ---- -- ------ ------<br>--- ----- -- ----,71251.79999995232,71251.10000014305,70861.703,70868.20000004768,70878.372,71261.954,,20,is
screen,html.Screen,0_2_0_1_21,2021-11-19T11:58:08.495Z,,,,,,,,,,,,,,,,53,,,,,,,,,,,,,,397.14600014305324,,response,,,99,,,,,,Space,keypress(Space),,,,,---- -- ----- -- ------ - ------- --- ----------<br>------------- ------ ------ ---- ---- ------- ----- -- ----<br>-------- ------- -- paramount. --- - --- ----- ----- ----<br>---- --- --- ----- --- ---- ---- ------- ----- ---- -------<br>--- --- -- ----- -- --- ---- -- --- ---- -- ------ ------<br>--- ----- -- ----,71659.90000009537,71659.10000014305,71245.282,71252.10000014305,71261.954,71661.977,,21,paramount.
screen,html.Screen,0_2_0_1_22,2021-11-19T11:58:08.871Z,,,,,,,,,,,,,,,,53,,,,,,,,,,,,,,373.02300000000105,,response,,,99,,,,,,Space,keypress(Space),,,,,---- -- ----- -- ------ - ------- --- ----------<br>------------- ------ ------ ---- ---- ------- ----- -- ----<br>-------- ------- -- ---------- But - --- ----- ----- ----<br>---- --- --- ----- --- ---- ---- ------- ----- ---- -------<br>--- --- -- ----- -- --- ---- -- --- ---- -- ------ ------<br>--- ----- -- ----,72035.90000009537,72035,71645.307,71660.40000009537,71661.977,72045.458,,22,But
screen,html.Screen,0_2_0_1_23,2021-11-19T11:58:09.207Z,,,,,,,,,,,,,,,,53,,,,,,,,,,,,,,325.6420001430524,,response,,,99,,,,,,Space,keypress(Space),,,,,---- -- ----- -- ------ - ------- --- ----------<br>------------- ------ ------ ---- ---- ------- ----- -- ----<br>-------- ------- -- ---------- --- a --- ----- ----- ----<br>---- --- --- ----- --- ---- ---- ------- ----- ---- -------<br>--- --- -- ----- -- --- ---- -- --- ---- -- ------ ------<br>--- ----- -- ----,72371.79999995232,72371.10000014305,72028.787,72036.20000004768,72045.458,72378.876,,23,a
screen,html.Screen,0_2_0_1_24,2021-11-19T11:58:09.527Z,,,,,,,,,,,,,,,,53,,,,,,,,,,,,,,312.12399999999616,,response,,,99,,,,,,Space,keypress(Space),,,,,---- -- ----- -- ------ - ------- --- ----------<br>------------- ------ ------ ---- ---- ------- ----- -- ----<br>-------- ------- -- ---------- --- - new ----- ----- ----<br>---- --- --- ----- --- ---- ---- ------- ----- ---- -------<br>--- --- -- ----- -- --- ---- -- --- ---- -- ------ ------<br>--- ----- -- ----,72691.90000009537,72691,72362.205,72372.10000014305,72378.876,72695.518,,24,new
screen,html.Screen,0_2_0_1_25,2021-11-19T11:58:09.863Z,,,,,,,,,,,,,,,,53,,,,,,,,,,,,,,331.4820000000036,,response,,,99,,,,,,Space,keypress(Space),,,,,---- -- ----- -- ------ - ------- --- ----------<br>------------- ------ ------ ---- ---- ------- ----- -- ----<br>-------- ------- -- ---------- --- - --- study ----- ----<br>---- --- --- ----- --- ---- ---- ------- ----- ---- -------<br>--- --- -- ----- -- --- ---- -- --- ---- -- ------ ------<br>--- ----- -- ----,73027.79999995232,73027,72678.849,72692.10000014305,72695.518,73029.087,,25,study
screen,html.Screen,0_2_0_1_26,2021-11-19T11:58:10.143Z,,,,,,,,,,,,,,,,53,,,,,,,,,,,,,,278.0130001430516,,response,,,99,,,,,,Space,keypress(Space),,,,,---- -- ----- -- ------ - ------- --- ----------<br>------------- ------ ------ ---- ---- ------- ----- -- ----<br>-------- ------- -- ---------- --- - --- ----- finds ----<br>---- --- --- ----- --- ---- ---- ------- ----- ---- -------<br>--- --- -- ----- -- --- ---- -- --- ---- -- ------ ------<br>--- ----- -- ----,73307.79999995232,73307.10000014305,73012.415,73028,73029.087,73312.365,,26,finds
screen,html.Screen,0_2_0_1_27,2021-11-19T11:58:10.415Z,,,,,,,,,,,,,,,,53,,,,,,,,,,,,,,266.63499999999476,,response,,,99,,,,,,Space,keypress(Space),,,,,---- -- ----- -- ------ - ------- --- ----------<br>------------- ------ ------ ---- ---- ------- ----- -- ----<br>-------- ------- -- ---------- --- - --- ----- ----- that<br>---- --- --- ----- --- ---- ---- ------- ----- ---- -------<br>--- --- -- ----- -- --- ---- -- --- ---- -- ------ ------<br>--- ----- -- ----,73579.70000004768,73579,73295.696,73308,73312.365,73595.913,,27,that
screen,html.Screen,0_2_0_1_28,2021-11-19T11:58:10.720Z,,,,,,,,,,,,,,,,53,,,,,,,,,,,,,,287.48700009536697,,response,,,99,,,,,,Space,keypress(Space),,,,,---- -- ----- -- ------ - ------- --- ----------<br>------------- ------ ------ ---- ---- ------- ----- -- ----<br>-------- ------- -- ---------- --- - --- ----- ----- ----<br>it's --- --- ----- --- ---- ---- ------- ----- ---- -------<br>--- --- -- ----- -- --- ---- -- --- ---- -- ------ ------<br>--- ----- -- ----,73884.20000004768,73883.40000009537,73579.241,73580.10000014305,73595.913,73895.96,,28,it's
screen,html.Screen,0_2_0_1_29,2021-11-19T11:58:10.999Z,,,,,,,,,,,,,,,,53,,,,,,,,,,,,,,267.0399999999936,,response,,,99,,,,,,Space,keypress(Space),,,,,---- -- ----- -- ------ - ------- --- ----------<br>------------- ------ ------ ---- ---- ------- ----- -- ----<br>-------- ------- -- ---------- --- - --- ----- ----- ----<br>---- not --- ----- --- ---- ---- ------- ----- ---- -------<br>--- --- -- ----- -- --- ---- -- --- ---- -- ------ ------<br>--- ----- -- ----,74163.70000004768,74163,73879.289,73884.5,73895.96,74179.364,,29,not
screen,html.Screen,0_2_0_1_30,2021-11-19T11:58:11.279Z,,,,,,,,,,,,,,,,53,,,,,,,,,,,,,,263.6359999999986,,response,,,99,,,,,,Space,keypress(Space),,,,,---- -- ----- -- ------ - ------- --- ----------<br>------------- ------ ------ ---- ---- ------- ----- -- ----<br>-------- ------- -- ---------- --- - --- ----- ----- ----<br>---- --- how ----- --- ---- ---- ------- ----- ---- -------<br>--- --- -- ----- -- --- ---- -- --- ---- -- ------ ------<br>--- ----- -- ----,74443.70000004768,74443,74162.693,74165.29999995232,74179.364,74446.103,,30,how
screen,html.Screen,0_2_0_1_31,2021-11-19T11:58:11.567Z,,,,,,,,,,,,,,,,53,,,,,,,,,,,,,,284.8969999999972,,response,,,99,,,,,,Space,keypress(Space),,,,,---- -- ----- -- ------ - ------- --- ----------<br>------------- ------ ------ ---- ---- ------- ----- -- ----<br>-------- ------- -- ---------- --- - --- ----- ----- ----<br>---- --- --- close --- ---- ---- ------- ----- ---- -------<br>--- --- -- ----- -- --- ---- -- --- ---- -- ------ ------<br>--- ----- -- ----,74731.70000004768,74731,74429.432,74444,74446.103,74746.056,,31,close
screen,html.Screen,0_2_0_1_32,2021-11-19T11:58:11.879Z,,,,,,,,,,,,,,,,53,,,,,,,,,,,,,,296.8440000953706,,response,,,99,,,,,,Space,keypress(Space),,,,,---- -- ----- -- ------ - ------- --- ----------<br>------------- ------ ------ ---- ---- ------- ----- -- ----<br>-------- ------- -- ---------- --- - --- ----- ----- ----<br>---- --- --- ----- you ---- ---- ------- ----- ---- -------<br>--- --- -- ----- -- --- ---- -- --- ---- -- ------ ------<br>--- ----- -- ----,75043.90000009537,75042.90000009537,74729.388,74731.90000009537,74746.056,75046.335,,32,you
screen,html.Screen,0_2_0_1_33,2021-11-19T11:58:12.167Z,,,,,,,,,,,,,,,,53,,,,,,,,,,,,,,284.56500009536103,,response,,,99,,,,,,Space,keypress(Space),,,,,---- -- ----- -- ------ - ------- --- ----------<br>------------- ------ ------ ---- ---- ------- ----- -- ----<br>-------- ------- -- ---------- --- - --- ----- ----- ----<br>---- --- --- ----- --- feel ---- ------- ----- ---- -------<br>--- --- -- ----- -- --- ---- -- --- ---- -- ------ ------<br>--- ----- -- ----,75331.70000004768,75330.90000009537,75029.662,75044.10000014305,75046.335,75346.152,,33,feel
screen,html.Screen,0_2_0_1_34,2021-11-19T11:58:12.447Z,,,,,,,,,,,,,,,,53,,,,,,,,,,,,,,264.74800009536557,,response,,,99,,,,,,Space,keypress(Space),,,,,---- -- ----- -- ------ - ------- --- ----------<br>------------- ------ ------ ---- ---- ------- ----- -- ----<br>-------- ------- -- ---------- --- - --- ----- ----- ----<br>---- --- --- ----- --- ---- that ------- ----- ---- -------<br>--- --- -- ----- -- --- ---- -- --- ---- -- ------ ------<br>--- ----- -- ----,75611.70000004768,75610.90000009537,75329.485,75331.90000009537,75346.152,75613.146,,34,that
screen,html.Screen,0_2_0_1_35,2021-11-19T11:58:12.727Z,,,,,,,,,,,,,,,,53,,,,,,,,,,,,,,277.75400009537407,,response,,,99,,,,,,Space,keypress(Space),,,,,---- -- ----- -- ------ - ------- --- ----------<br>------------- ------ ------ ---- ---- ------- ----- -- ----<br>-------- ------- -- ---------- --- - --- ----- ----- ----<br>---- --- --- ----- --- ---- ---- matters ----- ---- -------<br>--- --- -- ----- -- --- ---- -- --- ---- -- ------ ------<br>--- ----- -- ----,75891.70000004768,75890.90000009537,75596.473,75611.90000009537,75613.146,75896.391,,35,matters
screen,html.Screen,0_2_0_1_36,2021-11-19T11:58:13.015Z,,,,,,,,,,,,,,,,53,,,,,,,,,,,,,,282.408999952313,,response,,,99,,,,,,Space,keypress(Space),,,,,"---- -- ----- -- ------ - ------- --- ----------<br>------------- ------ ------ ---- ---- ------- ----- -- ----<br>-------- ------- -- ---------- --- - --- ----- ----- ----<br>---- --- --- ----- --- ---- ---- ------- most, ---- -------<br>--- --- -- ----- -- --- ---- -- --- ---- -- ------ ------<br>--- ----- -- ----",76179.79999995232,76178.79999995232,75879.722,75891.90000009537,75896.391,76196.624,,36,"most,"
screen,html.Screen,0_2_0_1_37,2021-11-19T11:58:13.319Z,,,,,,,,,,,,,,,,53,,,,,,,,,,,,,,286.2760000953713,,response,,,99,,,,,,Space,keypress(Space),,,,,---- -- ----- -- ------ - ------- --- ----------<br>------------- ------ ------ ---- ---- ------- ----- -- ----<br>-------- ------- -- ---------- --- - --- ----- ----- ----<br>---- --- --- ----- --- ---- ---- ------- ----- it's -------<br>--- --- -- ----- -- --- ---- -- --- ---- -- ------ ------<br>--- ----- -- ----,76483.70000004768,76482.90000009537,76179.951,76180.10000014305,76196.624,76496.623,,37,it's
screen,html.Screen,0_2_0_1_38,2021-11-19T11:58:13.623Z,,,,,,,,,,,,,,,,53,,,,,,,,,,,,,,290.07700004767685,,response,,,99,,,,,,Space,keypress(Space),,,,,---- -- ----- -- ------ - ------- --- ----------<br>------------- ------ ------ ---- ---- ------- ----- -- ----<br>-------- ------- -- ---------- --- - --- ----- ----- ----<br>---- --- --- ----- --- ---- ---- ------- ----- ---- whether<br>--- --- -- ----- -- --- ---- -- --- ---- -- ------ ------<br>--- ----- -- ----,76787.40000009537,76786.70000004768,76479.953,76483.90000009537,76496.623,76796.727,,38,whether
screen,html.Screen,0_2_0_1_39,2021-11-19T11:58:13.927Z,,,,,,,,,,,,,,,,53,,,,,,,,,,,,,,294.1730000953685,,response,,,99,,,,,,Space,keypress(Space),,,,,---- -- ----- -- ------ - ------- --- ----------<br>------------- ------ ------ ---- ---- ------- ----- -- ----<br>-------- ------- -- ---------- --- - --- ----- ----- ----<br>---- --- --- ----- --- ---- ---- ------- ----- ---- -------<br>you --- -- ----- -- --- ---- -- --- ---- -- ------ ------<br>--- ----- -- ----,77091.70000004768,77090.90000009537,76780.056,76787.70000004768,76796.727,77096.78,,39,you
screen,html.Screen,0_2_0_1_40,2021-11-19T11:58:14.223Z,,,,,,,,,,,,,,,,53,,,,,,,,,,,,,,289.9200000476849,,response,,,99,,,,,,Space,keypress(Space),,,,,---- -- ----- -- ------ - ------- --- ----------<br>------------- ------ ------ ---- ---- ------- ----- -- ----<br>-------- ------- -- ---------- --- - --- ----- ----- ----<br>---- --- --- ----- --- ---- ---- ------- ----- ---- -------<br>--- are -- ----- -- --- ---- -- --- ---- -- ------ ------<br>--- ----- -- ----,77387.5,77386.70000004768,77080.11,77091.79999995232,77096.78,77396.905,,40,are
screen,html.Screen,0_2_0_1_41,2021-11-19T11:58:14.503Z,,,,,,,,,,,,,,,,53,,,,,,,,,,,,,,269.7950000476849,,response,,,99,,,,,,Space,keypress(Space),,,,,---- -- ----- -- ------ - ------- --- ----------<br>------------- ------ ------ ---- ---- ------- ----- -- ----<br>-------- ------- -- ---------- --- - --- ----- ----- ----<br>---- --- --- ----- --- ---- ---- ------- ----- ---- -------<br>--- --- as ----- -- --- ---- -- --- ---- -- ------ ------<br>--- ----- -- ----,77667.40000009537,77666.70000004768,77380.234,77387.70000004768,77396.905,77680.265,,41,as
screen,html.Screen,0_2_0_1_42,2021-11-19T11:58:14.759Z,,,,,,,,,,,,,,,,53,,,,,,,,,,,,,,242.53499995231687,,response,,,99,,,,,,Space,keypress(Space),,,,,---- -- ----- -- ------ - ------- --- ----------<br>------------- ------ ------ ---- ---- ------- ----- -- ----<br>-------- ------- -- ---------- --- - --- ----- ----- ----<br>---- --- --- ----- --- ---- ---- ------- ----- ---- -------<br>--- --- -- close -- --- ---- -- --- ---- -- ------ ------<br>--- ----- -- ----,77923.5,77922.79999995232,77663.595,77667.60000014305,77680.265,77930.387,,42,close
screen,html.Screen,0_2_0_1_43,2021-11-19T11:58:15.039Z,,,,,,,,,,,,,,,,53,,,,,,,,,,,,,,272.41299995231384,,response,,,99,,,,,,Space,keypress(Space),,,,,---- -- ----- -- ------ - ------- --- ----------<br>------------- ------ ------ ---- ---- ------- ----- -- ----<br>-------- ------- -- ---------- --- - --- ----- ----- ----<br>---- --- --- ----- --- ---- ---- ------- ----- ---- -------<br>--- --- -- ----- as --- ---- -- --- ---- -- ------ ------<br>--- ----- -- ----,78203.5,78202.79999995232,77913.716,77923.70000004768,77930.387,78213.746,,43,as
screen,html.Screen,0_2_0_1_44,2021-11-19T11:58:15.311Z,,,,,,,,,,,,,,,,53,,,,,,,,,,,,,,260.95400004768453,,response,,,99,,,,,,Space,keypress(Space),,,,,---- -- ----- -- ------ - ------- --- ----------<br>------------- ------ ------ ---- ---- ------- ----- -- ----<br>-------- ------- -- ---------- --- - --- ----- ----- ----<br>---- --- --- ----- --- ---- ---- ------- ----- ---- -------<br>--- --- -- ----- -- you ---- -- --- ---- -- ------ ------<br>--- ----- -- ----,78475.5,78474.70000004768,78197.076,78203.79999995232,78213.746,78480.514,,44,you
screen,html.Screen,0_2_0_1_45,2021-11-19T11:58:15.575Z,,,,,,,,,,,,,,,,53,,,,,,,,,,,,,,258.18600004768814,,response,,,99,,,,,,Space,keypress(Space),,,,,---- -- ----- -- ------ - ------- --- ----------<br>------------- ------ ------ ---- ---- ------- ----- -- ----<br>-------- ------- -- ---------- --- - --- ----- ----- ----<br>---- --- --- ----- --- ---- ---- ------- ----- ---- -------<br>--- --- -- ----- -- --- want -- --- ---- -- ------ ------<br>--- ----- -- ----,78739.5,78738.70000004768,78463.843,78475.70000004768,78480.514,78747.261,,45,want
screen,html.Screen,0_2_0_1_46,2021-11-19T11:58:15.871Z,,,,,,,,,,,,,,,,53,,,,,,,,,,,,,,287.5389999523177,,response,,,99,,,,,,Space,keypress(Space),,,,,---- -- ----- -- ------ - ------- --- ----------<br>------------- ------ ------ ---- ---- ------- ----- -- ----<br>-------- ------- -- ---------- --- - --- ----- ----- ----<br>---- --- --- ----- --- ---- ---- ------- ----- ---- -------<br>--- --- -- ----- -- --- ---- to --- ---- -- ------ ------<br>--- ----- -- ----,79035.5,79034.79999995232,78730.59,78739.79999995232,78747.261,79047.297,,46,to
screen,html.Screen,0_2_0_1_47,2021-11-19T11:58:16.159Z,,,,,,,,,,,,,,,,53,,,,,,,,,,,,,,275.4030000476778,,response,,,99,,,,,,Space,keypress(Space),,,,,"---- -- ----- -- ------ - ------- --- ----------<br>------------- ------ ------ ---- ---- ------- ----- -- ----<br>-------- ------- -- ---------- --- - --- ----- ----- ----<br>---- --- --- ----- --- ---- ---- ------- ----- ---- -------<br>--- --- -- ----- -- --- ---- -- be, ---- -- ------ ------<br>--- ----- -- ----",79323.40000009537,79322.70000004768,79030.627,79035.79999995232,79047.297,79330.746,,47,"be,"
screen,html.Screen,0_2_0_1_48,2021-11-19T11:58:16.455Z,,,,,,,,,,,,,,,,53,,,,,,,,,,,,,,287.85400014305196,,response,,,99,,,,,,Space,keypress(Space),,,,,---- -- ----- -- ------ - ------- --- ----------<br>------------- ------ ------ ---- ---- ------- ----- -- ----<br>-------- ------- -- ---------- --- - --- ----- ----- ----<br>---- --- --- ----- --- ---- ---- ------- ----- ---- -------<br>--- --- -- ----- -- --- ---- -- --- even -- ------ ------<br>--- ----- -- ----,79619.40000009537,79618.60000014305,79314.075,79323.60000014305,79330.746,79630.821,,48,even
screen,html.Screen,0_2_0_1_49,2021-11-19T11:58:16.775Z,,,,,,,,,,,,,,,,53,,,,,,,,,,,,,,307.7790001430549,,response,,,99,,,,,,Space,keypress(Space),,,,,---- -- ----- -- ------ - ------- --- ----------<br>------------- ------ ------ ---- ---- ------- ----- -- ----<br>-------- ------- -- ---------- --- - --- ----- ----- ----<br>---- --- --- ----- --- ---- ---- ------- ----- ---- -------<br>--- --- -- ----- -- --- ---- -- --- ---- if ------ ------<br>--- ----- -- ----,79939.40000009537,79938.60000014305,79614.15,79619.70000004768,79630.821,79947.43,,49,if
screen,html.Screen,0_2_0_1_50,2021-11-19T11:58:17.039Z,,,,,,,,,,,,,,,,53,,,,,,,,,,,,,,255.17000014305813,,response,,,99,,,,,,Space,keypress(Space),,,,,---- -- ----- -- ------ - ------- --- ----------<br>------------- ------ ------ ---- ---- ------- ----- -- ----<br>-------- ------- -- ---------- --- - --- ----- ----- ----<br>---- --- --- ----- --- ---- ---- ------- ----- ---- -------<br>--- --- -- ----- -- --- ---- -- --- ---- -- that's ------<br>--- ----- -- ----,80203.40000009537,80202.60000014305,79930.762,79939.60000014305,79947.43,80214.378,,50,that's
screen,html.Screen,0_2_0_1_51,2021-11-19T11:58:17.367Z,,,,,,,,,,,,,,,,53,,,,,,,,,,,,,,316.2220001430542,,response,,,99,,,,,,Space,keypress(Space),,,,,---- -- ----- -- ------ - ------- --- ----------<br>------------- ------ ------ ---- ---- ------- ----- -- ----<br>-------- ------- -- ---------- --- - --- ----- ----- ----<br>---- --- --- ----- --- ---- ---- ------- ----- ---- -------<br>--- --- -- ----- -- --- ---- -- --- ---- -- ------ really<br>--- ----- -- ----,80531.40000009537,80530.60000014305,80197.705,80203.60000014305,80214.378,80547.75,,51,really
screen,html.Screen,0_2_0_1_52,2021-11-19T11:58:17.679Z,,,,,,,,,,,,,,,,53,,,,,,,,,,,,,,294.85000014305115,,response,,,99,,,,,,Space,keypress(Space),,,,,---- -- ----- -- ------ - ------- --- ----------<br>------------- ------ ------ ---- ---- ------- ----- -- ----<br>-------- ------- -- ---------- --- - --- ----- ----- ----<br>---- --- --- ----- --- ---- ---- ------- ----- ---- -------<br>--- --- -- ----- -- --- ---- -- --- ---- -- ------ ------<br>not ----- -- ----,80843.40000009537,80842.60000014305,80531.079,80531.60000014305,80547.75,80847.785,,52,not
screen,html.Screen,0_2_0_1_53,2021-11-19T11:58:17.943Z,,,,,,,,,,,,,,,,53,,,,,,,,,,,,,,258.9150000476802,,response,,,99,,,,,,Space,keypress(Space),,,,,---- -- ----- -- ------ - ------- --- ----------<br>------------- ------ ------ ---- ---- ------- ----- -- ----<br>-------- ------- -- ---------- --- - --- ----- ----- ----<br>---- --- --- ----- --- ---- ---- ------- ----- ---- -------<br>--- --- -- ----- -- --- ---- -- --- ---- -- ------ ------<br>--- close -- ----,81107.29999995232,81106.70000004768,80831.115,80843.60000014305,80847.785,81114.562,,53,close
screen,html.Screen,0_2_0_1_54,2021-11-19T11:58:18.231Z,,,,,,,,,,,,,,,,53,,,,,,,,,,,,,,280.0380001430458,,response,,,99,,,,,,Space,keypress(Space),,,,,---- -- ----- -- ------ - ------- --- ----------<br>------------- ------ ------ ---- ---- ------- ----- -- ----<br>-------- ------- -- ---------- --- - --- ----- ----- ----<br>---- --- --- ----- --- ---- ---- ------- ----- ---- -------<br>--- --- -- ----- -- --- ---- -- --- ---- -- ------ ------<br>--- ----- at ----,81395.40000009537,81394.60000014305,81097.891,81107.60000014305,81114.562,81397.924,,54,at
screen,html.Screen,0_2_0_1_55,2021-11-19T11:58:18.527Z,,,,,,,,,,,,,,,,53,,,,,,,,,,,,,,292.6760001430521,,response,,,99,,,,,,Space,keypress(Space),,,,,---- -- ----- -- ------ - ------- --- ----------<br>------------- ------ ------ ---- ---- ------- ----- -- ----<br>-------- ------- -- ---------- --- - --- ----- ----- ----<br>---- --- --- ----- --- ---- ---- ------- ----- ---- -------<br>--- --- -- ----- -- --- ---- -- --- ---- -- ------ ------<br>--- ----- -- all.,81691.40000009537,81690.60000014305,81381.254,81395.60000014305,81397.924,81698.065,,55,all.
Item 99,flow.Loop,0_2_0_1,2021-11-19T11:58:18.531Z,,,,,,,,,,,,,,,,,,,,,,,,,,,,,,18964.639000143048,,completion,,,,E,,,,,,,,,,silence,,81695.79999995232,81690.60000014305,62709.292,62715.90000009537,62725.961,81698.065,,,
Question 1,html.Screen,0_2_0_2,2021-11-19T11:58:23.582Z,,,,,,,,,,,,,,,,,,,,,,,,,,,true,FALSE,,5048.035000143049,,response,,,99,E,,,,,FALSE,click #choice-2,,,,silence,,86746.60000014305,86746.10000014305,81681.394,81696,81698.065,86765.981,,,
Question 2,html.Screen,0_2_0_3,2021-11-19T11:58:28.287Z,,,,,,,,,,,,,,,,,,,,,,,,,,,true,TRUE,,4684.019,,response,,,99,E,,,,,TRUE,click #choice-1,,,,silence,,91451.29999995232,91450,86749.312,86746.60000014305,86765.981,91467.341,,,
Item 99,flow.Sequence,0_2_0,2021-11-19T11:58:28.287Z,,,,,,,,,,,,,,,,,,,,,,,,,,,,,,38727.896,,completion,,,,,,,,,,,,,,,,91451.79999995232,91450,52705.443,52709.90000009537,52722.104,91467.341,,,
Holding screen,html.Screen,0_2_1_0,2021-11-19T11:58:38.290Z,,,,,,,,,,,,,,,,,,,,,,,,,,,,,,10002.61,,timeout,,,,,,,,,,,,,,,,101454,101453.28,91450.67,91452.10000014305,91467.341,101469.951,,,
screen,html.Screen,0_2_1_1_0,2021-11-19T11:58:39.111Z,,,,,,,,,,,,,,,,54,,,,,,,,,,,,,,804.2490000476828,,response,,,100,,,,,,Space,keypress(Space),,,,,At --- ---- --- ------ ----- ------- ---- -- --- ------- --<br>------- ---------- ------ -- ----- -- ----- -- ---- ------<br>--- ----- --- --- ------ -------- ----- --- ------ ----- --<br>----- ----- ---------- --- --- ------ ------ ---- -- ------<br>------- --- ------ ----- --- ---- ------- -- ---- --- --<br>------- ------,102275.10000014305,102274.20000004768,101453.28,101454.5,101469.951,102286.875,,0,At
screen,html.Screen,0_2_1_1_1,2021-11-19T11:58:39.478Z,,,,,,,,,,,,,,,,54,,,,,,,,,,,,,,354.8250000476837,,response,,,100,,,,,,Space,keypress(Space),,,,,-- the ---- --- ------ ----- ------- ---- -- --- ------- --<br>------- ---------- ------ -- ----- -- ----- -- ---- ------<br>--- ----- --- --- ------ -------- ----- --- ------ ----- --<br>----- ----- ---------- --- --- ------ ------ ---- -- ------<br>------- --- ------ ----- --- ---- ------- -- ---- --- --<br>------- ------,102642.5,102641.70000004768,102270.204,102275.40000009537,102286.875,102653.698,,1,the
screen,html.Screen,0_2_1_1_2,2021-11-19T11:58:39.838Z,,,,,,,,,,,,,,,,54,,,,,,,,,,,,,,348.00200004767976,,response,,,100,,,,,,Space,keypress(Space),,,,,-- --- time --- ------ ----- ------- ---- -- --- ------- --<br>------- ---------- ------ -- ----- -- ----- -- ---- ------<br>--- ----- --- --- ------ -------- ----- --- ------ ----- --<br>----- ----- ---------- --- --- ------ ------ ---- -- ------<br>------- --- ------ ----- --- ---- ------- -- ---- --- --<br>------- ------,103002.40000009537,103001.70000004768,102637.027,102642.70000004768,102653.698,103003.773,,2,time
screen,html.Screen,0_2_1_1_3,2021-11-19T11:58:40.214Z,,,,,,,,,,,,,,,,54,,,,,,,,,,,,,,373.92700004768267,,response,,,100,,,,,,Space,keypress(Space),,,,,-- --- ---- the ------ ----- ------- ---- -- --- ------- --<br>------- ---------- ------ -- ----- -- ----- -- ---- ------<br>--- ----- --- --- ------ -------- ----- --- ------ ----- --<br>----- ----- ---------- --- --- ------ ------ ---- -- ------<br>------- --- ------ ----- --- ---- ------- -- ---- --- --<br>------- ------,103378.40000009537,103377.70000004768,102987.102,103002.70000004768,103003.773,103387.091,,3,the
screen,html.Screen,0_2_1_1_4,2021-11-19T11:58:40.606Z,,,,,,,,,,,,,,,,54,,,,,,,,,,,,,,382.60900004768337,,response,,,100,,,,,,Space,keypress(Space),,,,,-- --- ---- --- French ----- ------- ---- -- --- ------- --<br>------- ---------- ------ -- ----- -- ----- -- ---- ------<br>--- ----- --- --- ------ -------- ----- --- ------ ----- --<br>----- ----- ---------- --- --- ------ ------ ---- -- ------<br>------- --- ------ ----- --- ---- ------- -- ---- --- --<br>------- ------,103770.40000009537,103769.70000004768,103370.422,103379.90000009537,103387.091,103787.383,,4,French
screen,html.Screen,0_2_1_1_5,2021-11-19T11:58:41.094Z,,,,,,,,,,,,,,,,54,,,,,,,,,,,,,,470.3170000476821,,response,,,100,,,,,,Space,keypress(Space),,,,,-- --- ---- --- ------ crown ------- ---- -- --- ------- --<br>------- ---------- ------ -- ----- -- ----- -- ---- ------<br>--- ----- --- --- ------ -------- ----- --- ------ ----- --<br>----- ----- ---------- --- --- ------ ------ ---- -- ------<br>------- --- ------ ----- --- ---- ------- -- ---- --- --<br>------- ------,104258.60000014305,104257.70000004768,103770.711,103770.70000004768,103787.383,104270.728,,5,crown
screen,html.Screen,0_2_1_1_6,2021-11-19T11:58:41.638Z,,,,,,,,,,,,,,,,54,,,,,,,,,,,,,,530.8720001430484,,response,,,100,,,,,,Space,keypress(Space),,,,,-- --- ---- --- ------ ----- secured ---- -- --- ------- --<br>------- ---------- ------ -- ----- -- ----- -- ---- ------<br>--- ----- --- --- ------ -------- ----- --- ------ ----- --<br>----- ----- ---------- --- --- ------ ------ ---- -- ------<br>------- --- ------ ----- --- ---- ------- -- ---- --- --<br>------- ------,104802.40000009537,104801.60000014305,104254.058,104258.90000009537,104270.728,104804.247,,6,secured
screen,html.Screen,0_2_1_1_7,2021-11-19T11:58:41.966Z,,,,,,,,,,,,,,,,54,,,,,,,,,,,,,,325.252999999997,,response,,,100,,,,,,Space,keypress(Space),,,,,-- --- ---- --- ------ ----- ------- much -- --- ------- --<br>------- ---------- ------ -- ----- -- ----- -- ---- ------<br>--- ----- --- --- ------ -------- ----- --- ------ ----- --<br>----- ----- ---------- --- --- ------ ------ ---- -- ------<br>------- --- ------ ----- --- ---- ------- -- ---- --- --<br>------- ------,105130.20000004768,105129.5,104787.576,104802.60000014305,104804.247,105137.62,,7,much
screen,html.Screen,0_2_1_1_8,2021-11-19T11:58:42.294Z,,,,,,,,,,,,,,,,54,,,,,,,,,,,,,,319.9800001430558,,response,,,100,,,,,,Space,keypress(Space),,,,,-- --- ---- --- ------ ----- ------- ---- of --- ------- --<br>------- ---------- ------ -- ----- -- ----- -- ---- ------<br>--- ----- --- --- ------ -------- ----- --- ------ ----- --<br>----- ----- ---------- --- --- ------ ------ ---- -- ------<br>------- --- ------ ----- --- ---- ------- -- ---- --- --<br>------- ------,105458.40000009537,105457.60000014305,105120.95,105130.40000009537,105137.62,105471.103,,8,of
screen,html.Screen,0_2_1_1_9,2021-11-19T11:58:42.574Z,,,,,,,,,,,,,,,,54,,,,,,,,,,,,,,266.49700014304835,,response,,,100,,,,,,Space,keypress(Space),,,,,-- --- ---- --- ------ ----- ------- ---- -- its ------- --<br>------- ---------- ------ -- ----- -- ----- -- ---- ------<br>--- ----- --- --- ------ -------- ----- --- ------ ----- --<br>----- ----- ---------- --- --- ------ ------ ---- -- ------<br>------- --- ------ ----- --- ---- ------- -- ---- --- --<br>------- ------,105738.40000009537,105737.60000014305,105454.432,105458.60000014305,105471.103,105754.516,,9,its
screen,html.Screen,0_2_1_1_10,2021-11-19T11:58:42.886Z,,,,,,,,,,,,,,,,54,,,,,,,,,,,,,,295.0840001430479,,response,,,100,,,,,,Space,keypress(Space),,,,,-- --- ---- --- ------ ----- ------- ---- -- --- revenue --<br>------- ---------- ------ -- ----- -- ----- -- ---- ------<br>--- ----- --- --- ------ -------- ----- --- ------ ----- --<br>----- ----- ---------- --- --- ------ ------ ---- -- ------<br>------- --- ------ ----- --- ---- ------- -- ---- --- --<br>------- ------,106050.29999995232,106049.60000014305,105737.845,105738.60000014305,105754.516,106054.557,,10,revenue
screen,html.Screen,0_2_1_1_11,2021-11-19T11:58:43.318Z,,,,,,,,,,,,,,,,54,,,,,,,,,,,,,,426.9429999999993,,response,,,100,,,,,,Space,keypress(Space),,,,,-- --- ---- --- ------ ----- ------- ---- -- --- ------- by<br>------- ---------- ------ -- ----- -- ----- -- ---- ------<br>--- ----- --- --- ------ -------- ----- --- ------ ----- --<br>----- ----- ---------- --- --- ------ ------ ---- -- ------<br>------- --- ------ ----- --- ---- ------- -- ---- --- --<br>------- ------,106482.29999995232,106481.5,106037.887,106050.60000014305,106054.557,106488.062,,11,by
screen,html.Screen,0_2_1_1_12,2021-11-19T11:58:43.614Z,,,,,,,,,,,,,,,,54,,,,,,,,,,,,,,289.5380001430458,,response,,,100,,,,,,Space,keypress(Space),,,,,-- --- ---- --- ------ ----- ------- ---- -- --- ------- --<br>issuing ---------- ------ -- ----- -- ----- -- ---- ------<br>--- ----- --- --- ------ -------- ----- --- ------ ----- --<br>----- ----- ---------- --- --- ------ ------ ---- -- ------<br>------- --- ------ ----- --- ---- ------- -- ---- --- --<br>------- ------,106778.29999995232,106777.60000014305,106471.391,106482.60000014305,106488.062,106788.084,,12,issuing
screen,html.Screen,0_2_1_1_13,2021-11-19T11:58:43.918Z,,,,,,,,,,,,,,,,54,,,,,,,,,,,,,,293.41599999999744,,response,,,100,,,,,,Space,keypress(Space),,,,,-- --- ---- --- ------ ----- ------- ---- -- --- ------- --<br>------- government ------ -- ----- -- ----- -- ---- ------<br>--- ----- --- --- ------ -------- ----- --- ------ ----- --<br>----- ----- ---------- --- --- ------ ------ ---- -- ------<br>------- --- ------ ----- --- ---- ------- -- ---- --- --<br>------- ------,107082.40000009537,107081.5,106771.414,106778.5,106788.084,107088.114,,13,government
screen,html.Screen,0_2_1_1_14,2021-11-19T11:58:44.294Z,,,,,,,,,,,,,,,,54,,,,,,,,,,,,,,369.3859999999986,,response,,,100,,,,,,Space,keypress(Space),,,,,-- --- ---- --- ------ ----- ------- ---- -- --- ------- --<br>------- ---------- bonds. -- ----- -- ----- -- ---- ------<br>--- ----- --- --- ------ -------- ----- --- ------ ----- --<br>----- ----- ---------- --- --- ------ ------ ---- -- ------<br>------- --- ------ ----- --- ---- ------- -- ---- --- --<br>------- ------,107458.29999995232,107457.5,107071.445,107082.60000014305,107088.114,107471.689,,14,bonds.
screen,html.Screen,0_2_1_1_15,2021-11-19T11:58:44.646Z,,,,,,,,,,,,,,,,54,,,,,,,,,,,,,,338.01100004768523,,response,,,100,,,,,,Space,keypress(Space),,,,,-- --- ---- --- ------ ----- ------- ---- -- --- ------- --<br>------- ---------- ------ In ----- -- ----- -- ---- ------<br>--- ----- --- --- ------ -------- ----- --- ------ ----- --<br>----- ----- ---------- --- --- ------ ------ ---- -- ------<br>------- --- ------ ----- --- ---- ------- -- ---- --- --<br>------- ------,107810.5,107809.70000004768,107455.017,107458.60000014305,107471.689,107821.696,,15,In
screen,html.Screen,0_2_1_1_16,2021-11-19T11:58:44.926Z,,,,,,,,,,,,,,,,54,,,,,,,,,,,,,,267.8040000000037,,response,,,100,,,,,,Space,keypress(Space),,,,,"-- --- ---- --- ------ ----- ------- ---- -- --- ------- --<br>------- ---------- ------ -- 1727, -- ----- -- ---- ------<br>--- ----- --- --- ------ -------- ----- --- ------ ----- --<br>----- ----- ---------- --- --- ------ ------ ---- -- ------<br>------- --- ------ ----- --- ---- ------- -- ---- --- --<br>------- ------",108090.20000004768,108089.5,107805.026,107810.70000004768,107821.696,108105.17,,16,"1727,"
screen,html.Screen,0_2_1_1_17,2021-11-19T11:58:45.558Z,,,,,,,,,,,,,,,,54,,,,,,,,,,,,,,616.2300000953692,,response,,,100,,,,,,Space,keypress(Space),,,,,-- --- ---- --- ------ ----- ------- ---- -- --- ------- --<br>------- ---------- ------ -- ----- in ----- -- ---- ------<br>--- ----- --- --- ------ -------- ----- --- ------ ----- --<br>----- ----- ---------- --- --- ------ ------ ---- -- ------<br>------- --- ------ ----- --- ---- ------- -- ---- --- --<br>------- ------,108722.20000004768,108721.40000009537,108088.499,108090.40000009537,108105.17,108738.455,,17,in
screen,html.Screen,0_2_1_1_18,2021-11-19T11:58:46.366Z,,,,,,,,,,,,,,,,54,,,,,,,,,,,,,,790.9450000953657,,response,,,100,,,,,,Space,keypress(Space),,,,,-- --- ---- --- ------ ----- ------- ---- -- --- ------- --<br>------- ---------- ------ -- ----- -- order -- ---- ------<br>--- ----- --- --- ------ -------- ----- --- ------ ----- --<br>----- ----- ---------- --- --- ------ ------ ---- -- ------<br>------- --- ------ ----- --- ---- ------- -- ---- --- --<br>------- ------,109530.20000004768,109529.40000009537,108721.787,108722.5,108738.455,109539.029,,18,order
screen,html.Screen,0_2_1_1_19,2021-11-19T11:58:46.734Z,,,,,,,,,,,,,,,,54,,,,,,,,,,,,,,358.37100009537244,,response,,,100,,,,,,Space,keypress(Space),,,,,-- --- ---- --- ------ ----- ------- ---- -- --- ------- --<br>------- ---------- ------ -- ----- -- ----- to ---- ------<br>--- ----- --- --- ------ -------- ----- --- ------ ----- --<br>----- ----- ---------- --- --- ------ ------ ---- -- ------<br>------- --- ------ ----- --- ---- ------- -- ---- --- --<br>------- ------,109898.20000004768,109897.40000009537,109522.356,109530.40000009537,109539.029,109905.633,,19,to
screen,html.Screen,0_2_1_1_20,2021-11-19T11:58:47.062Z,,,,,,,,,,,,,,,,54,,,,,,,,,,,,,,319.7670000953658,,response,,,100,,,,,,Space,keypress(Space),,,,,-- --- ---- --- ------ ----- ------- ---- -- --- ------- --<br>------- ---------- ------ -- ----- -- ----- -- save ------<br>--- ----- --- --- ------ -------- ----- --- ------ ----- --<br>----- ----- ---------- --- --- ------ ------ ---- -- ------<br>------- --- ------ ----- --- ---- ------- -- ---- --- --<br>------- ------,110226.20000004768,110225.40000009537,109888.962,109898.40000009537,109905.633,110239.013,,20,save
screen,html.Screen,0_2_1_1_21,2021-11-19T11:58:47.398Z,,,,,,,,,,,,,,,,54,,,,,,,,,,,,,,322.38700009536115,,response,,,100,,,,,,Space,keypress(Space),,,,,"-- --- ---- --- ------ ----- ------- ---- -- --- ------- --<br>------- ---------- ------ -- ----- -- ----- -- ---- money,<br>--- ----- --- --- ------ -------- ----- --- ------ ----- --<br>----- ----- ---------- --- --- ------ ------ ---- -- ------<br>------- --- ------ ----- --- ---- ------- -- ---- --- --<br>------- ------",110562.20000004768,110561.40000009537,110222.343,110226.29999995232,110239.013,110572.435,,21,"money,"
screen,html.Screen,0_2_1_1_22,2021-11-19T11:58:47.750Z,,,,,,,,,,,,,,,,54,,,,,,,,,,,,,,340.96500009536976,,response,,,100,,,,,,Space,keypress(Space),,,,,-- --- ---- --- ------ ----- ------- ---- -- --- ------- --<br>------- ---------- ------ -- ----- -- ----- -- ---- ------<br>the ----- --- --- ------ -------- ----- --- ------ ----- --<br>----- ----- ---------- --- --- ------ ------ ---- -- ------<br>------- --- ------ ----- --- ---- ------- -- ---- --- --<br>------- ------,110914.20000004768,110913.40000009537,110555.765,110562.40000009537,110572.435,110922.53,,22,the
screen,html.Screen,0_2_1_1_23,2021-11-19T11:58:48.046Z,,,,,,,,,,,,,,,,54,,,,,,,,,,,,,,286.76999995231745,,response,,,100,,,,,,Space,keypress(Space),,,,,-- --- ---- --- ------ ----- ------- ---- -- --- ------- --<br>------- ---------- ------ -- ----- -- ----- -- ---- ------<br>--- state --- --- ------ -------- ----- --- ------ ----- --<br>----- ----- ---------- --- --- ------ ------ ---- -- ------<br>------- --- ------ ----- --- ---- ------- -- ---- --- --<br>------- ------,111210.10000014305,111209.29999995232,110905.86,110914.29999995232,110922.53,111222.651,,23,state
screen,html.Screen,0_2_1_1_24,2021-11-19T11:58:48.406Z,,,,,,,,,,,,,,,,54,,,,,,,,,,,,,,346.7490000953694,,response,,,100,,,,,,Space,keypress(Space),,,,,-- --- ---- --- ------ ----- ------- ---- -- --- ------- --<br>------- ---------- ------ -- ----- -- ----- -- ---- ------<br>--- ----- cut --- ------ -------- ----- --- ------ ----- --<br>----- ----- ---------- --- --- ------ ------ ---- -- ------<br>------- --- ------ ----- --- ---- ------- -- ---- --- --<br>------- ------,111570.10000014305,111569.40000009537,111205.98,111210.29999995232,111222.651,111572.717,,24,cut
screen,html.Screen,0_2_1_1_25,2021-11-19T11:58:48.670Z,,,,,,,,,,,,,,,,54,,,,,,,,,,,,,,260.5829999523121,,response,,,100,,,,,,Space,keypress(Space),,,,,-- --- ---- --- ------ ----- ------- ---- -- --- ------- --<br>------- ---------- ------ -- ----- -- ----- -- ---- ------<br>--- ----- --- the ------ -------- ----- --- ------ ----- --<br>----- ----- ---------- --- --- ------ ------ ---- -- ------<br>------- --- ------ ----- --- ---- ------- -- ---- --- --<br>------- ------,111834.10000014305,111833.29999995232,111556.047,111570.29999995232,111572.717,111839.447,,25,the
screen,html.Screen,0_2_1_1_26,2021-11-19T11:58:49.014Z,,,,,,,,,,,,,,,,54,,,,,,,,,,,,,,337.85299995231617,,response,,,100,,,,,,Space,keypress(Space),,,,,-- --- ---- --- ------ ----- ------- ---- -- --- ------- --<br>------- ---------- ------ -- ----- -- ----- -- ---- ------<br>--- ----- --- --- bonds' -------- ----- --- ------ ----- --<br>----- ----- ---------- --- --- ------ ------ ---- -- ------<br>------- --- ------ ----- --- ---- ------- -- ---- --- --<br>------- ------,112178.10000014305,112177.29999995232,111822.777,111834.40000009537,111839.447,112189.581,,26,bonds'
screen,html.Screen,0_2_1_1_27,2021-11-19T11:58:49.310Z,,,,,,,,,,,,,,,,54,,,,,,,,,,,,,,284.1190000476781,,response,,,100,,,,,,Space,keypress(Space),,,,,-- --- ---- --- ------ ----- ------- ---- -- --- ------- --<br>------- ---------- ------ -- ----- -- ----- -- ---- ------<br>--- ----- --- --- ------ interest ----- --- ------ ----- --<br>----- ----- ---------- --- --- ------ ------ ---- -- ------<br>------- --- ------ ----- --- ---- ------- -- ---- --- --<br>------- ------,112474.40000009537,112473.70000004768,112172.91,112178.40000009537,112189.581,112489.658,,27,interest
screen,html.Screen,0_2_1_1_28,2021-11-19T11:58:49.726Z,,,,,,,,,,,,,,,,54,,,,,,,,,,,,,,399.5420000476879,,response,,,100,,,,,,Space,keypress(Space),,,,,-- --- ---- --- ------ ----- ------- ---- -- --- ------- --<br>------- ---------- ------ -- ----- -- ----- -- ---- ------<br>--- ----- --- --- ------ -------- rate. --- ------ ----- --<br>----- ----- ---------- --- --- ------ ------ ---- -- ------<br>------- --- ------ ----- --- ---- ------- -- ---- --- --<br>------- ------,112890,112889.20000004768,112472.987,112474.60000014305,112489.658,112906.439,,28,rate.
screen,html.Screen,0_2_1_1_29,2021-11-19T11:58:50.046Z,,,,,,,,,,,,,,,,54,,,,,,,,,,,,,,302.8609999523178,,response,,,100,,,,,,Space,keypress(Space),,,,,-- --- ---- --- ------ ----- ------- ---- -- --- ------- --<br>------- ---------- ------ -- ----- -- ----- -- ---- ------<br>--- ----- --- --- ------ -------- ----- The ------ ----- --<br>----- ----- ---------- --- --- ------ ------ ---- -- ------<br>------- --- ------ ----- --- ---- ------- -- ---- --- --<br>------- ------,113210,113209.29999995232,112889.768,112890.20000004768,112906.439,113223.191,,29,The
screen,html.Screen,0_2_1_1_30,2021-11-19T11:58:50.438Z,,,,,,,,,,,,,,,,54,,,,,,,,,,,,,,378.00900004767755,,response,,,100,,,,,,Space,keypress(Space),,,,,-- --- ---- --- ------ ----- ------- ---- -- --- ------- --<br>------- ---------- ------ -- ----- -- ----- -- ---- ------<br>--- ----- --- --- ------ -------- ----- --- market ----- --<br>----- ----- ---------- --- --- ------ ------ ---- -- ------<br>------- --- ------ ----- --- ---- ------- -- ---- --- --<br>------- ------,113602,113601.20000004768,113206.52,113210.29999995232,113223.191,113606.597,,30,market
screen,html.Screen,0_2_1_1_31,2021-11-19T11:58:50.830Z,,,,,,,,,,,,,,,,54,,,,,,,,,,,,,,386.6030000476894,,response,,,100,,,,,,Space,keypress(Space),,,,,-- --- ---- --- ------ ----- ------- ---- -- --- ------- --<br>------- ---------- ------ -- ----- -- ----- -- ---- ------<br>--- ----- --- --- ------ -------- ----- --- ------ value --<br>----- ----- ---------- --- --- ------ ------ ---- -- ------<br>------- --- ------ ----- --- ---- ------- -- ---- --- --<br>------- ------,113994,113993.20000004768,113589.927,113602.20000004768,113606.597,114006.685,,31,value
screen,html.Screen,0_2_1_1_32,2021-11-19T11:58:51.141Z,,,,,,,,,,,,,,,,54,,,,,,,,,,,,,,298.4150001430535,,response,,,100,,,,,,Space,keypress(Space),,,,,-- --- ---- --- ------ ----- ------- ---- -- --- ------- --<br>------- ---------- ------ -- ----- -- ----- -- ---- ------<br>--- ----- --- --- ------ -------- ----- --- ------ ----- of<br>----- ----- ---------- --- --- ------ ------ ---- -- ------<br>------- --- ------ ----- --- ---- ------- -- ---- --- --<br>------- ------,114305.79999995232,114305.10000014305,113990.015,113994.20000004768,114006.685,114306.818,,32,of
screen,html.Screen,0_2_1_1_33,2021-11-19T11:58:51.493Z,,,,,,,,,,,,,,,,54,,,,,,,,,,,,,,350.3820000476844,,response,,,100,,,,,,Space,keypress(Space),,,,,-- --- ---- --- ------ ----- ------- ---- -- --- ------- --<br>------- ---------- ------ -- ----- -- ----- -- ---- ------<br>--- ----- --- --- ------ -------- ----- --- ------ ----- --<br>these ----- ---------- --- --- ------ ------ ---- -- ------<br>------- --- ------ ----- --- ---- ------- -- ---- --- --<br>------- ------,114658,114657.20000004768,114290.147,114306,114306.818,114673.601,,33,these
screen,html.Screen,0_2_1_1_34,2021-11-19T11:58:51.822Z,,,,,,,,,,,,,,,,54,,,,,,,,,,,,,,311.49900014305604,,response,,,100,,,,,,Space,keypress(Space),,,,,-- --- ---- --- ------ ----- ------- ---- -- --- ------- --<br>------- ---------- ------ -- ----- -- ----- -- ---- ------<br>--- ----- --- --- ------ -------- ----- --- ------ ----- --<br>----- bonds ---------- --- --- ------ ------ ---- -- ------<br>------- --- ------ ----- --- ---- ------- -- ---- --- --<br>------- ------,114985.90000009537,114985.10000014305,114656.93,114658.10000014305,114673.601,114990.301,,34,bonds
screen,html.Screen,0_2_1_1_35,2021-11-19T11:58:52.093Z,,,,,,,,,,,,,,,,54,,,,,,,,,,,,,,266.7990001430444,,response,,,100,,,,,,Space,keypress(Space),,,,,"-- --- ---- --- ------ ----- ------- ---- -- --- ------- --<br>------- ---------- ------ -- ----- -- ----- -- ---- ------<br>--- ----- --- --- ------ -------- ----- --- ------ ----- --<br>----- ----- plummeted, --- --- ------ ------ ---- -- ------<br>------- --- ------ ----- --- ---- ------- -- ---- --- --<br>------- ------",115257.90000009537,115257.10000014305,114973.631,114986.20000004768,114990.301,115273.745,,35,"plummeted,"
screen,html.Screen,0_2_1_1_36,2021-11-19T11:58:52.509Z,,,,,,,,,,,,,,,,54,,,,,,,,,,,,,,399.3550001430558,,response,,,100,,,,,,Space,keypress(Space),,,,,-- --- ---- --- ------ ----- ------- ---- -- --- ------- --<br>------- ---------- ------ -- ----- -- ----- -- ---- ------<br>--- ----- --- --- ------ -------- ----- --- ------ ----- --<br>----- ----- ---------- and --- ------ ------ ---- -- ------<br>------- --- ------ ----- --- ---- ------- -- ---- --- --<br>------- ------,115673.79999995232,115673.10000014305,115257.074,115258.10000014305,115273.745,115690.476,,36,and
screen,html.Screen,0_2_1_1_37,2021-11-19T11:58:52.805Z,,,,,,,,,,,,,,,,54,,,,,,,,,,,,,,278.62400014305604,,response,,,100,,,,,,Space,keypress(Space),,,,,-- --- ---- --- ------ ----- ------- ---- -- --- ------- --<br>------- ---------- ------ -- ----- -- ----- -- ---- ------<br>--- ----- --- --- ------ -------- ----- --- ------ ----- --<br>----- ----- ---------- --- the ------ ------ ---- -- ------<br>------- --- ------ ----- --- ---- ------- -- ---- --- --<br>------- ------,115969.79999995232,115969.10000014305,115673.806,115674.10000014305,115690.476,115973.953,,37,the
screen,html.Screen,0_2_1_1_38,2021-11-19T11:58:53.077Z,,,,,,,,,,,,,,,,54,,,,,,,,,,,,,,267.1470001430571,,response,,,100,,,,,,Space,keypress(Space),,,,,-- --- ---- --- ------ ----- ------- ---- -- --- ------- --<br>------- ---------- ------ -- ----- -- ----- -- ---- ------<br>--- ----- --- --- ------ -------- ----- --- ------ ----- --<br>----- ----- ---------- --- --- market ------ ---- -- ------<br>------- --- ------ ----- --- ---- ------- -- ---- --- --<br>------- ------,116241.90000009537,116241.10000014305,115957.282,115970,115973.953,116257.313,,38,market
screen,html.Screen,0_2_1_1_39,2021-11-19T11:58:53.357Z,,,,,,,,,,,,,,,,54,,,,,,,,,,,,,,263.7870001430565,,response,,,100,,,,,,Space,keypress(Space),,,,,-- --- ---- --- ------ ----- ------- ---- -- --- ------- --<br>------- ---------- ------ -- ----- -- ----- -- ---- ------<br>--- ----- --- --- ------ -------- ----- --- ------ ----- --<br>----- ----- ---------- --- --- ------ became ---- -- ------<br>------- --- ------ ----- --- ---- ------- -- ---- --- --<br>------- ------,116521.90000009537,116521.10000014305,116240.643,116242.10000014305,116257.313,116524.045,,39,became
screen,html.Screen,0_2_1_1_40,2021-11-19T11:58:53.621Z,,,,,,,,,,,,,,,,54,,,,,,,,,,,,,,261.0550001430529,,response,,,100,,,,,,Space,keypress(Space),,,,,-- --- ---- --- ------ ----- ------- ---- -- --- ------- --<br>------- ---------- ------ -- ----- -- ----- -- ---- ------<br>--- ----- --- --- ------ -------- ----- --- ------ ----- --<br>----- ----- ---------- --- --- ------ ------ wary -- ------<br>------- --- ------ ----- --- ---- ------- -- ---- --- --<br>------- ------,116785.79999995232,116785.10000014305,116507.375,116522.10000014305,116524.045,116790.816,,40,wary
screen,html.Screen,0_2_1_1_41,2021-11-19T11:58:53.957Z,,,,,,,,,,,,,,,,54,,,,,,,,,,,,,,330.284000143045,,response,,,100,,,,,,Space,keypress(Space),,,,,-- --- ---- --- ------ ----- ------- ---- -- --- ------- --<br>------- ---------- ------ -- ----- -- ----- -- ---- ------<br>--- ----- --- --- ------ -------- ----- --- ------ ----- --<br>----- ----- ---------- --- --- ------ ------ ---- of ------<br>------- --- ------ ----- --- ---- ------- -- ---- --- --<br>------- ------,117121.79999995232,117121.10000014305,116774.145,116786.10000014305,116790.816,117124.248,,41,of
screen,html.Screen,0_2_1_1_42,2021-11-19T11:58:54.213Z,,,,,,,,,,,,,,,,54,,,,,,,,,,,,,,252.85200014304428,,response,,,100,,,,,,Space,keypress(Space),,,,,-- --- ---- --- ------ ----- ------- ---- -- --- ------- --<br>------- ---------- ------ -- ----- -- ----- -- ---- ------<br>--- ----- --- --- ------ -------- ----- --- ------ ----- --<br>----- ----- ---------- --- --- ------ ------ ---- -- French<br>------- --- ------ ----- --- ---- ------- -- ---- --- --<br>------- ------,117377.79999995232,117377.10000014305,117107.577,117122.10000014305,117124.248,117390.943,,42,French
screen,html.Screen,0_2_1_1_43,2021-11-19T11:58:54.629Z,,,,,,,,,,,,,,,,54,,,,,,,,,,,,,,402.0570000000007,,response,,,100,,,,,,Space,keypress(Space),,,,,-- --- ---- --- ------ ----- ------- ---- -- --- ------- --<br>------- ---------- ------ -- ----- -- ----- -- ---- ------<br>--- ----- --- --- ------ -------- ----- --- ------ ----- --<br>----- ----- ---------- --- --- ------ ------ ---- -- ------<br>credit. --- ------ ----- --- ---- ------- -- ---- --- --<br>------- ------,117793.79999995232,117793,117374.273,117378.10000014305,117390.943,117807.696,,43,credit.
screen,html.Screen,0_2_1_1_44,2021-11-19T11:58:54.901Z,,,,,,,,,,,,,,,,54,,,,,,,,,,,,,,257.4040001430549,,response,,,100,,,,,,Space,keypress(Space),,,,,-- --- ---- --- ------ ----- ------- ---- -- --- ------- --<br>------- ---------- ------ -- ----- -- ----- -- ---- ------<br>--- ----- --- --- ------ -------- ----- --- ------ ----- --<br>----- ----- ---------- --- --- ------ ------ ---- -- ------<br>------- The ------ ----- --- ---- ------- -- ---- --- --<br>------- ------,118065.90000009537,118065.10000014305,117791.026,117794,117807.696,118074.474,,44,The
screen,html.Screen,0_2_1_1_45,2021-11-19T11:58:55.157Z,,,,,,,,,,,,,,,,54,,,,,,,,,,,,,,246.62600014304917,,response,,,100,,,,,,Space,keypress(Space),,,,,-- --- ---- --- ------ ----- ------- ---- -- --- ------- --<br>------- ---------- ------ -- ----- -- ----- -- ---- ------<br>--- ----- --- --- ------ -------- ----- --- ------ ----- --<br>----- ----- ---------- --- --- ------ ------ ---- -- ------<br>------- --- French ----- --- ---- ------- -- ---- --- --<br>------- ------,118321.79999995232,118321.10000014305,118057.803,118066,118074.474,118324.565,,45,French
screen,html.Screen,0_2_1_1_46,2021-11-19T11:58:55.413Z,,,,,,,,,,,,,,,,54,,,,,,,,,,,,,,252.43499999999767,,response,,,100,,,,,,Space,keypress(Space),,,,,-- --- ---- --- ------ ----- ------- ---- -- --- ------- --<br>------- ---------- ------ -- ----- -- ----- -- ---- ------<br>--- ----- --- --- ------ -------- ----- --- ------ ----- --<br>----- ----- ---------- --- --- ------ ------ ---- -- ------<br>------- --- ------ state --- ---- ------- -- ---- --- --<br>------- ------,118577.79999995232,118577,118307.894,118322,118324.565,118591.241,,46,state
screen,html.Screen,0_2_1_1_47,2021-11-19T11:58:55.701Z,,,,,,,,,,,,,,,,54,,,,,,,,,,,,,,273.75900000000547,,response,,,100,,,,,,Space,keypress(Space),,,,,-- --- ---- --- ------ ----- ------- ---- -- --- ------- --<br>------- ---------- ------ -- ----- -- ----- -- ---- ------<br>--- ----- --- --- ------ -------- ----- --- ------ ----- --<br>----- ----- ---------- --- --- ------ ------ ---- -- ------<br>------- --- ------ ----- was ---- ------- -- ---- --- --<br>------- ------,118865.90000009537,118865,118574.572,118578.10000014305,118591.241,118874.723,,47,was
screen,html.Screen,0_2_1_1_48,2021-11-19T11:58:55.981Z,,,,,,,,,,,,,,,,54,,,,,,,,,,,,,,270.377000143053,,response,,,100,,,,,,Space,keypress(Space),,,,,-- --- ---- --- ------ ----- ------- ---- -- --- ------- --<br>------- ---------- ------ -- ----- -- ----- -- ---- ------<br>--- ----- --- --- ------ -------- ----- --- ------ ----- --<br>----- ----- ---------- --- --- ------ ------ ---- -- ------<br>------- --- ------ ----- --- left ------- -- ---- --- --<br>------- ------,119145.79999995232,119145.10000014305,118858.052,118866.10000014305,118874.723,119158.075,,48,left
screen,html.Screen,0_2_1_1_49,2021-11-19T11:58:56.230Z,,,,,,,,,,,,,,,,54,,,,,,,,,,,,,,235.32500009537034,,response,,,100,,,,,,Space,keypress(Space),,,,,-- --- ---- --- ------ ----- ------- ---- -- --- ------- --<br>------- ---------- ------ -- ----- -- ----- -- ---- ------<br>--- ----- --- --- ------ -------- ----- --- ------ ----- --<br>----- ----- ---------- --- --- ------ ------ ---- -- ------<br>------- --- ------ ----- --- ---- without -- ---- --- --<br>------- ------,119394.20000004768,119393.40000009537,119141.405,119146.10000014305,119158.075,119408.186,,49,without
screen,html.Screen,0_2_1_1_50,2021-11-19T11:58:56.493Z,,,,,,,,,,,,,,,,54,,,,,,,,,,,,,,248.8139999999985,,response,,,100,,,,,,Space,keypress(Space),,,,,-- --- ---- --- ------ ----- ------- ---- -- --- ------- --<br>------- ---------- ------ -- ----- -- ----- -- ---- ------<br>--- ----- --- --- ------ -------- ----- --- ------ ----- --<br>----- ----- ---------- --- --- ------ ------ ---- -- ------<br>------- --- ------ ----- --- ---- ------- an ---- --- --<br>------- ------,119657.79999995232,119657,119391.515,119394.60000014305,119408.186,119674.885,,50,an
screen,html.Screen,0_2_1_1_51,2021-11-19T11:58:56.749Z,,,,,,,,,,,,,,,,54,,,,,,,,,,,,,,238.11500000000524,,response,,,100,,,,,,Space,keypress(Space),,,,,-- --- ---- --- ------ ----- ------- ---- -- --- ------- --<br>------- ---------- ------ -- ----- -- ----- -- ---- ------<br>--- ----- --- --- ------ -------- ----- --- ------ ----- --<br>----- ----- ---------- --- --- ------ ------ ---- -- ------<br>------- --- ------ ----- --- ---- ------- -- easy --- --<br>------- ------,119913.79999995232,119913,119658.215,119658,119674.885,119924.99,,51,easy
screen,html.Screen,0_2_1_1_52,2021-11-19T11:58:57.005Z,,,,,,,,,,,,,,,,54,,,,,,,,,,,,,,243.9100000953622,,response,,,100,,,,,,Space,keypress(Space),,,,,-- --- ---- --- ------ ----- ------- ---- -- --- ------- --<br>------- ---------- ------ -- ----- -- ----- -- ---- ------<br>--- ----- --- --- ------ -------- ----- --- ------ ----- --<br>----- ----- ---------- --- --- ------ ------ ---- -- ------<br>------- --- ------ ----- --- ---- ------- -- ---- way --<br>------- ------,120169.70000004768,120168.90000009537,119908.319,119914,119924.99,120174.902,,52,way
screen,html.Screen,0_2_1_1_53,2021-11-19T11:58:57.277Z,,,,,,,,,,,,,,,,54,,,,,,,,,,,,,,265.99800009536557,,response,,,100,,,,,,Space,keypress(Space),,,,,-- --- ---- --- ------ ----- ------- ---- -- --- ------- --<br>------- ---------- ------ -- ----- -- ----- -- ---- ------<br>--- ----- --- --- ------ -------- ----- --- ------ ----- --<br>----- ----- ---------- --- --- ------ ------ ---- -- ------<br>------- --- ------ ----- --- ---- ------- -- ---- --- of<br>------- ------,120441.70000004768,120440.90000009537,120158.235,120170,120174.902,120458.487,,53,of
screen,html.Screen,0_2_1_1_54,2021-11-19T11:58:57.533Z,,,,,,,,,,,,,,,,54,,,,,,,,,,,,,,238.5130000000063,,response,,,100,,,,,,Space,keypress(Space),,,,,-- --- ---- --- ------ ----- ------- ---- -- --- ------- --<br>------- ---------- ------ -- ----- -- ----- -- ---- ------<br>--- ----- --- --- ------ -------- ----- --- ------ ----- --<br>----- ----- ---------- --- --- ------ ------ ---- -- ------<br>------- --- ------ ----- --- ---- ------- -- ---- --- --<br>raising ------,120697.79999995232,120697,120441.815,120442,120458.487,120708.538,,54,raising
screen,html.Screen,0_2_1_1_55,2021-11-19T11:58:57.848Z,,,,,,,,,,,,,,,,54,,,,,,,,,,,,,,300.36200009536697,,response,,,100,,,,,,Space,keypress(Space),,,,,-- --- ---- --- ------ ----- ------- ---- -- --- ------- --<br>------- ---------- ------ -- ----- -- ----- -- ---- ------<br>--- ----- --- --- ------ -------- ----- --- ------ ----- --<br>----- ----- ---------- --- --- ------ ------ ---- -- ------<br>------- --- ------ ----- --- ---- ------- -- ---- --- --<br>------- money.,121009.70000004768,121008.90000009537,120691.867,120698,120708.538,121025.279,,55,money.
Item 100,flow.Loop,0_2_1_1,2021-11-19T11:58:57.849Z,,,,,,,,,,,,,,,,,,,,,,,,,,,,,,19538.949000095367,,completion,,,,E,,,,,,,,,,silence,,121010.20000004768,121008.90000009537,101453.28,101454.29999995232,101469.951,121025.279,,,
Question 1,html.Screen,0_2_1_2,2021-11-19T11:59:00.823Z,,,,,,,,,,,,,,,,,,,,,,,,,,,true,TRUE,,2959.1210000953724,,response,,,100,E,,,,,TRUE,click #choice-1,,,,silence,,123985,123984.40000009537,121008.608,121010.40000009537,121025.279,123992.683,,,
Question 2,html.Screen,0_2_1_3,2021-11-19T11:59:03.144Z,,,,,,,,,,,,,,,,,,,,,,,,,,,true,FALSE,,2311.8169999999955,,response,,,100,E,,,,,FALSE,click #choice-2,,,,silence,,126305.60000014305,126304.5,123976.013,123985.10000014305,123992.683,126309.999,,,
Item 100,flow.Sequence,0_2_1,2021-11-19T11:59:03.144Z,,,,,,,,,,,,,,,,,,,,,,,,,,,,,,34837.159,,completion,,,,,,,,,,,,,,,,126306.10000014305,126304.5,91450.67,91452,91467.341,126309.999,,,
End of Practice,html.Page,0_2_2,2021-11-19T11:59:06.001Z,,,,,,,,,,,,,,,,,,,,,,,,,,,,,,2851.80099995232,,form submission,,,,,,,,,,,,,,,,129162.20000004768,129161.79999995232,126293.329,126306.29999995232,126309.999,129177.459,,,
Practice,flow.Sequence,0_2,2021-11-19T11:59:06.001Z,,,,,,,,,,,,,,,,,,,,,,,,,,,,,,76439.69599995232,,completion,,,,,,,,,,,,,,,,129162.70000004768,129161.79999995232,52705.443,52709.799999952316,52722.104,129177.459,,,
Trap_instruction,html.Page,0_3_0,2021-11-19T11:59:08.528Z,,,,,,,,,,,,,,,,,,,,,,,,,,,,,,2512.241000047681,,form submission,,,,,,,,,,,,,,,,131690.10000014305,131689.70000004768,129160.788,129162.90000009537,129177.459,131711.463,,,
trap_trial,html.Screen,0_3_1,2021-11-19T11:59:12.288Z,,,,,,,,,,,,,,,,,,,,,,,,,,,true,1,,3736.737000047695,,response,,,,,,,,,1,click #choice-1,,,,,,135449.40000009537,135448.20000004768,131678.121,131690.40000009537,131711.463,135462.194,,,
end of trap trial,html.Page,0_3_2,2021-11-19T11:59:14.232Z,,,,,,,,,,,,,,,,,,,,,,,,,,,,,,1931.3060000000114,,form submission,,,,,,,,,,,,,,,,137394.10000014305,137393.5,135445.524,135449.70000004768,135462.194,137396.283,,,
Trap 1,flow.Sequence,0_3,2021-11-19T11:59:14.233Z,,,,,,,,,,,,,,,,,,,,,,,,,,,,,,8216.040999999997,,completion,,,,,,,,,,,,,,,,137394.60000014305,137393.5,129160.788,129162.79999995232,129177.459,137396.283,,,
Standby,html.Page,0_4_0,2021-11-19T11:59:22.222Z,,,,,,,,,,,,,,,,,,,,,,,,,,,,,,8002.149000000005,,timeout,,,,,,,,,,,,,,,,145383.5,145381.761,137379.612,137395,137396.283,145398.432,,,
Holding screen,html.Screen,0_4_1_0_0,2021-11-19T11:59:29.223Z,,,,,,,,,,,,,,,,,,,,,,,,,,,,,,7001.621000000014,,timeout,,,,,,,,,,,,,,,,152385.10000014305,152383.66,145381.761,145383.90000009537,145398.432,152400.053,,,
screen,html.Screen,0_4_1_0_1_0,2021-11-19T11:59:29.975Z,,,,,,,,,,,,,,,,51,,,,,,,,,,,,,,736.0470001430367,,response,,,13,E,,,,,Space,keypress(Space),,,,lyrical,American -------- --- --- ---- --- --- ------ -- --------<br>---- --------- --- ------- ------------ ---------- ---------<br>--- ---------- ------- ---------- ------- -- -------- ----<br>---- --- ------ ----- ------ -- ---- --- ----- -- - -------<br>-------- -- --- --- -- ----- ----------- ----- -----------<br>---- --- ---------- --- ---- --- -- ----------,153137.10000014305,153136.10000014305,152383.66,152385.5,152400.053,153139.058,,0,American
screen,html.Screen,0_4_1_0_1_1,2021-11-19T11:59:30.287Z,,,,,,,,,,,,,,,,51,,,,,,,,,,,,,,308.44200000001,,response,,,13,E,,,,,Space,keypress(Space),,,,lyrical,-------- industry --- --- ---- --- --- ------ -- --------<br>---- --------- --- ------- ------------ ---------- ---------<br>--- ---------- ------- ---------- ------- -- -------- ----<br>---- --- ------ ----- ------ -- ---- --- ----- -- - -------<br>-------- -- --- --- -- ----- ----------- ----- -----------<br>---- --- ---------- --- ---- --- -- ----------,153448.29999995232,153447.5,153122.656,153137.40000009537,153139.058,153462.241,,1,industry
screen,html.Screen,0_4_1_0_1_2,2021-11-19T11:59:30.655Z,,,,,,,,,,,,,,,,51,,,,,,,,,,,,,,353.15900009535835,,response,,,13,E,,,,,Space,keypress(Space),,,,lyrical,-------- -------- may --- ---- --- --- ------ -- --------<br>---- --------- --- ------- ------------ ---------- ---------<br>--- ---------- ------- ---------- ------- -- -------- ----<br>---- --- ------ ----- ------ -- ---- --- ----- -- - -------<br>-------- -- --- --- -- ----- ----------- ----- -----------<br>---- --- ---------- --- ---- --- -- ----------,153816.29999995232,153815.40000009537,153445.84,153448.60000014305,153462.241,153818.981,,2,may
screen,html.Screen,0_4_1_0_1_3,2021-11-19T11:59:31.014Z,,,,,,,,,,,,,,,,51,,,,,,,,,,,,,,356.3189999523165,,response,,,13,E,,,,,Space,keypress(Space),,,,lyrical,-------- -------- --- not ---- --- --- ------ -- --------<br>---- --------- --- ------- ------------ ---------- ---------<br>--- ---------- ------- ---------- ------- -- -------- ----<br>---- --- ------ ----- ------ -- ---- --- ----- -- - -------<br>-------- -- --- --- -- ----- ----------- ----- -----------<br>---- --- ---------- --- ---- --- -- ----------,154175.90000009537,154175.29999995232,153802.688,153816.60000014305,153818.981,154184.614,,3,not
screen,html.Screen,0_4_1_0_1_4,2021-11-19T11:59:31.310Z,,,,,,,,,,,,,,,,51,,,,,,,,,,,,,,286.6859999523149,,response,,,13,E,,,,,Space,keypress(Space),,,,lyrical,-------- -------- --- --- know --- --- ------ -- --------<br>---- --------- --- ------- ------------ ---------- ---------<br>--- ---------- ------- ---------- ------- -- -------- ----<br>---- --- ------ ----- ------ -- ---- --- ----- -- - -------<br>-------- -- --- --- -- ----- ----------- ----- -----------<br>---- --- ---------- --- ---- --- -- ----------,154472,154471.29999995232,154168.321,154176,154184.614,154486.214,,4,know
screen,html.Screen,0_4_1_0_1_5,2021-11-19T11:59:31.607Z,,,,,,,,,,,,,,,,51,,,,,,,,,,,,,,281.2859999999928,,response,,,13,E,,,,,Space,keypress(Space),,,,lyrical,"-------- -------- --- --- ---- it, --- ------ -- --------<br>---- --------- --- ------- ------------ ---------- ---------<br>--- ---------- ------- ---------- ------- -- -------- ----<br>---- --- ------ ----- ------ -- ---- --- ----- -- - -------<br>-------- -- --- --- -- ----- ----------- ----- -----------<br>---- --- ---------- --- ---- --- -- ----------",154768.20000004768,154767.5,154469.921,154472.29999995232,154486.214,154771.078,,5,"it,"
screen,html.Screen,0_4_1_0_1_6,2021-11-19T11:59:31.887Z,,,,,,,,,,,,,,,,51,,,,,,,,,,,,,,276.4219999999914,,response,,,13,E,,,,,Space,keypress(Space),,,,lyrical,-------- -------- --- --- ---- --- but ------ -- --------<br>---- --------- --- ------- ------------ ---------- ---------<br>--- ---------- ------- ---------- ------- -- -------- ----<br>---- --- ------ ----- ------ -- ---- --- ----- -- - -------<br>-------- -- --- --- -- ----- ----------- ----- -----------<br>---- --- ---------- --- ---- --- -- ----------,155048.20000004768,155047.5,154754.785,154768.40000009537,154771.078,155054.864,,6,but
screen,html.Screen,0_4_1_0_1_7,2021-11-19T11:59:32.215Z,,,,,,,,,,,,,,,,51,,,,,,,,,,,,,,320.53600009536603,,response,,,13,E,,,,,Space,keypress(Space),,,,lyrical,-------- -------- --- --- ---- --- --- debate -- --------<br>---- --------- --- ------- ------------ ---------- ---------<br>--- ---------- ------- ---------- ------- -- -------- ----<br>---- --- ------ ----- ------ -- ---- --- ----- -- - -------<br>-------- -- --- --- -- ----- ----------- ----- -----------<br>---- --- ---------- --- ---- --- -- ----------,155376.20000004768,155375.40000009537,155038.571,155048.40000009537,155054.864,155387.578,,7,debate
screen,html.Screen,0_4_1_0_1_8,2021-11-19T11:59:32.543Z,,,,,,,,,,,,,,,,51,,,,,,,,,,,,,,315.8220000953588,,response,,,13,E,,,,,Space,keypress(Space),,,,lyrical,-------- -------- --- --- ---- --- --- ------ in --------<br>---- --------- --- ------- ------------ ---------- ---------<br>--- ---------- ------- ---------- ------- -- -------- ----<br>---- --- ------ ----- ------ -- ---- --- ----- -- - -------<br>-------- -- --- --- -- ----- ----------- ----- -----------<br>---- --- ---------- --- ---- --- -- ----------,155704.20000004768,155703.40000009537,155371.285,155376.40000009537,155387.578,155719.868,,8,in
screen,html.Screen,0_4_1_0_1_9,2021-11-19T11:59:32.815Z,,,,,,,,,,,,,,,,51,,,,,,,,,,,,,,255.53200009537977,,response,,,13,E,,,,,Space,keypress(Space),,,,lyrical,-------- -------- --- --- ---- --- --- ------ -- Congress<br>---- --------- --- ------- ------------ ---------- ---------<br>--- ---------- ------- ---------- ------- -- -------- ----<br>---- --- ------ ----- ------ -- ---- --- ----- -- - -------<br>-------- -- --- --- -- ----- ----------- ----- -----------<br>---- --- ---------- --- ---- --- -- ----------,155976.20000004768,155975.40000009537,155703.575,155704.40000009537,155719.868,155988.131,,9,Congress
screen,html.Screen,0_4_1_0_1_10,2021-11-19T11:59:33.127Z,,,,,,,,,,,,,,,,51,,,,,,,,,,,,,,299.2690000953735,,response,,,13,E,,,,,Space,keypress(Space),,,,lyrical,-------- -------- --- --- ---- --- --- ------ -- --------<br>over --------- --- ------- ------------ ---------- ---------<br>--- ---------- ------- ---------- ------- -- -------- ----<br>---- --- ------ ----- ------ -- ---- --- ----- -- - -------<br>-------- -- --- --- -- ----- ----------- ----- -----------<br>---- --- ---------- --- ---- --- -- ----------,156288.20000004768,156287.40000009537,155971.838,155976.40000009537,155988.131,156304.862,,10,over
screen,html.Screen,0_4_1_0_1_11,2021-11-19T11:59:33.398Z,,,,,,,,,,,,,,,,51,,,,,,,,,,,,,,254.43799995232257,,response,,,13,E,,,,,Space,keypress(Space),,,,lyrical,-------- -------- --- --- ---- --- --- ------ -- --------<br>---- reforming --- ------- ------------ ---------- ---------<br>--- ---------- ------- ---------- ------- -- -------- ----<br>---- --- ------ ----- ------ -- ---- --- ----- -- - -------<br>-------- -- --- --- -- ----- ----------- ----- -----------<br>---- --- ---------- --- ---- --- -- ----------,156560,156559.29999995232,156288.569,156288.40000009537,156304.862,156571.989,,11,reforming
screen,html.Screen,0_4_1_0_1_12,2021-11-19T11:59:33.686Z,,,,,,,,,,,,,,,,51,,,,,,,,,,,,,,275.41100009536603,,response,,,13,E,,,,,Space,keypress(Space),,,,lyrical,-------- -------- --- --- ---- --- --- ------ -- --------<br>---- --------- the ------- ------------ ---------- ---------<br>--- ---------- ------- ---------- ------- -- -------- ----<br>---- --- ------ ----- ------ -- ---- --- ----- -- - -------<br>-------- -- --- --- -- ----- ----------- ----- -----------<br>---- --- ---------- --- ---- --- -- ----------,156848.10000014305,156847.40000009537,156555.696,156560.29999995232,156571.989,156855.785,,12,the
screen,html.Screen,0_4_1_0_1_13,2021-11-19T11:59:33.975Z,,,,,,,,,,,,,,,,51,,,,,,,,,,,,,,279.5149999523128,,response,,,13,E,,,,,Space,keypress(Space),,,,lyrical,-------- -------- --- --- ---- --- --- ------ -- --------<br>---- --------- --- federal ------------ ---------- ---------<br>--- ---------- ------- ---------- ------- -- -------- ----<br>---- --- ------ ----- ------ -- ---- --- ----- -- - -------<br>-------- -- --- --- -- ----- ----------- ----- -----------<br>---- --- ---------- --- ---- --- -- ----------,157136.20000004768,157135.29999995232,156839.492,156848.29999995232,156855.785,157139.186,,13,federal
screen,html.Screen,0_4_1_0_1_14,2021-11-19T11:59:34.286Z,,,,,,,,,,,,,,,,51,,,,,,,,,,,,,,308.1139999523293,,response,,,13,E,,,,,Space,keypress(Space),,,,lyrical,-------- -------- --- --- ---- --- --- ------ -- --------<br>---- --------- --- ------- government's ---------- ---------<br>--- ---------- ------- ---------- ------- -- -------- ----<br>---- --- ------ ----- ------ -- ---- --- ----- -- - -------<br>-------- -- --- --- -- ----- ----------- ----- -----------<br>---- --- ---------- --- ---- --- -- ----------,157448.10000014305,157447.29999995232,157122.893,157136.40000009537,157139.186,157455.178,,14,government's
screen,html.Screen,0_4_1_0_1_15,2021-11-19T11:59:34.606Z,,,,,,,,,,,,,,,,51,,,,,,,,,,,,,,312.12199995230185,,response,,,13,E,,,,,Space,keypress(Space),,,,lyrical,-------- -------- --- --- ---- --- --- ------ -- --------<br>---- --------- --- ------- ------------ regulatory ---------<br>--- ---------- ------- ---------- ------- -- -------- ----<br>---- --- ------ ----- ------ -- ---- --- ----- -- - -------<br>-------- -- --- --- -- ----- ----------- ----- -----------<br>---- --- ---------- --- ---- --- -- ----------,157768.10000014305,157767.29999995232,157438.885,157448.29999995232,157455.178,157771.172,,15,regulatory
screen,html.Screen,0_4_1_0_1_16,2021-11-19T11:59:34.934Z,,,,,,,,,,,,,,,,51,,,,,,,,,,,,,,324.1279999523249,,response,,,13,E,,,,,Space,keypress(Space),,,,lyrical,-------- -------- --- --- ---- --- --- ------ -- --------<br>---- --------- --- ------- ------------ ---------- apparatus<br>--- ---------- ------- ---------- ------- -- -------- ----<br>---- --- ------ ----- ------ -- ---- --- ----- -- - -------<br>-------- -- --- --- -- ----- ----------- ----- -----------<br>---- --- ---------- --- ---- --- -- ----------,158096.10000014305,158095.29999995232,157754.879,157768.40000009537,157771.172,158104.233,,16,apparatus
screen,html.Screen,0_4_1_0_1_17,2021-11-19T11:59:35.278Z,,,,,,,,,,,,,,,,51,,,,,,,,,,,,,,334.8670001430437,,response,,,13,E,,,,,Space,keypress(Space),,,,lyrical,-------- -------- --- --- ---- --- --- ------ -- --------<br>---- --------- --- ------- ------------ ---------- ---------<br>may ---------- ------- ---------- ------- -- -------- ----<br>---- --- ------ ----- ------ -- ---- --- ----- -- - -------<br>-------- -- --- --- -- ----- ----------- ----- -----------<br>---- --- ---------- --- ---- --- -- ----------,158439.90000009537,158439.10000014305,158087.94,158096.29999995232,158104.233,158453.553,,17,may
screen,html.Screen,0_4_1_0_1_18,2021-11-19T11:59:35.622Z,,,,,,,,,,,,,,,,51,,,,,,,,,,,,,,329.74699995230185,,response,,,13,E,,,,,Space,keypress(Space),,,,lyrical,-------- -------- --- --- ---- --- --- ------ -- --------<br>---- --------- --- ------- ------------ ---------- ---------<br>--- profoundly ------- ---------- ------- -- -------- ----<br>---- --- ------ ----- ------ -- ---- --- ----- -- - -------<br>-------- -- --- --- -- ----- ----------- ----- -----------<br>---- --- ---------- --- ---- --- -- ----------,158784,158783.29999995232,158437.26,158440.20000004768,158453.553,158786.984,,18,profoundly
screen,html.Screen,0_4_1_0_1_19,2021-11-19T11:59:35.862Z,,,,,,,,,,,,,,,,51,,,,,,,,,,,,,,236.31599995231954,,response,,,13,E,,,,,Space,keypress(Space),,,,lyrical,-------- -------- --- --- ---- --- --- ------ -- --------<br>---- --------- --- ------- ------------ ---------- ---------<br>--- ---------- improve ---------- ------- -- -------- ----<br>---- --- ------ ----- ------ -- ---- --- ----- -- - -------<br>-------- -- --- --- -- ----- ----------- ----- -----------<br>---- --- ---------- --- ---- --- -- ----------,159024,159023.29999995232,158770.691,158784.29999995232,158786.984,159038.94,,19,improve
screen,html.Screen,0_4_1_0_1_20,2021-11-19T11:59:36.142Z,,,,,,,,,,,,,,,,51,,,,,,,,,,,,,,264.35999995231396,,response,,,13,E,,,,,Space,keypress(Space),,,,lyrical,-------- -------- --- --- ---- --- --- ------ -- --------<br>---- --------- --- ------- ------------ ---------- ---------<br>--- ---------- ------- companies' ------- -- -------- ----<br>---- --- ------ ----- ------ -- ---- --- ----- -- - -------<br>-------- -- --- --- -- ----- ----------- ----- -----------<br>---- --- ---------- --- ---- --- -- ----------,159304.10000014305,159303.29999995232,159022.647,159024.29999995232,159038.94,159307.566,,20,companies'
screen,html.Screen,0_4_1_0_1_21,2021-11-19T11:59:36.486Z,,,,,,,,,,,,,,,,51,,,,,,,,,,,,,,339.6340000476921,,response,,,13,E,,,,,Space,keypress(Space),,,,lyrical,-------- -------- --- --- ---- --- --- ------ -- --------<br>---- --------- --- ------- ------------ ---------- ---------<br>--- ---------- ------- ---------- ability -- -------- ----<br>---- --- ------ ----- ------ -- ---- --- ----- -- - -------<br>-------- -- --- --- -- ----- ----------- ----- -----------<br>---- --- ---------- --- ---- --- -- ----------,159648.10000014305,159647.20000004768,159291.273,159304.40000009537,159307.566,159655.006,,21,ability
screen,html.Screen,0_4_1_0_1_22,2021-11-19T11:59:36.774Z,,,,,,,,,,,,,,,,51,,,,,,,,,,,,,,280.29399995232234,,response,,,13,E,,,,,Space,keypress(Space),,,,lyrical,-------- -------- --- --- ---- --- --- ------ -- --------<br>---- --------- --- ------- ------------ ---------- ---------<br>--- ---------- ------- ---------- ------- to -------- ----<br>---- --- ------ ----- ------ -- ---- --- ----- -- - -------<br>-------- -- --- --- -- ----- ----------- ----- -----------<br>---- --- ---------- --- ---- --- -- ----------,159936,159935.29999995232,159638.713,159648.29999995232,159655.006,159938.422,,22,to
screen,html.Screen,0_4_1_0_1_23,2021-11-19T11:59:37.062Z,,,,,,,,,,,,,,,,51,,,,,,,,,,,,,,284.77800004769233,,response,,,13,E,,,,,Space,keypress(Space),,,,lyrical,-------- -------- --- --- ---- --- --- ------ -- --------<br>---- --------- --- ------- ------------ ---------- ---------<br>--- ---------- ------- ---------- ------- -- survive. ----<br>---- --- ------ ----- ------ -- ---- --- ----- -- - -------<br>-------- -- --- --- -- ----- ----------- ----- -----------<br>---- --- ---------- --- ---- --- -- ----------,160224,160223.20000004768,159922.129,159936.20000004768,159938.422,160239.648,,23,survive.
screen,html.Screen,0_4_1_0_1_24,2021-11-19T11:59:37.342Z,,,,,,,,,,,,,,,,51,,,,,,,,,,,,,,263.5520000476972,,response,,,13,E,,,,,Space,keypress(Space),,,,lyrical,-------- -------- --- --- ---- --- --- ------ -- --------<br>---- --------- --- ------- ------------ ---------- ---------<br>--- ---------- ------- ---------- ------- -- -------- This<br>---- --- ------ ----- ------ -- ---- --- ----- -- - -------<br>-------- -- --- --- -- ----- ----------- ----- -----------<br>---- --- ---------- --- ---- --- -- ----------,160503.90000009537,160503.20000004768,160223.355,160224.20000004768,160239.648,160506.717,,24,This
screen,html.Screen,0_4_1_0_1_25,2021-11-19T11:59:37.646Z,,,,,,,,,,,,,,,,51,,,,,,,,,,,,,,300.4830000476795,,response,,,13,E,,,,,Space,keypress(Space),,,,lyrical,-------- -------- --- --- ---- --- --- ------ -- --------<br>---- --------- --- ------- ------------ ---------- ---------<br>--- ---------- ------- ---------- ------- -- -------- ----<br>week --- ------ ----- ------ -- ---- --- ----- -- - -------<br>-------- -- --- --- -- ----- ----------- ----- -----------<br>---- --- ---------- --- ---- --- -- ----------,160808,160807.20000004768,160490.424,160504.20000004768,160506.717,160822.768,,25,week
screen,html.Screen,0_4_1_0_1_26,2021-11-19T11:59:37.958Z,,,,,,,,,,,,,,,,51,,,,,,,,,,,,,,296.4320000476728,,response,,,13,E,,,,,Space,keypress(Space),,,,lyrical,-------- -------- --- --- ---- --- --- ------ -- --------<br>---- --------- --- ------- ------------ ---------- ---------<br>--- ---------- ------- ---------- ------- -- -------- ----<br>---- the ------ ----- ------ -- ---- --- ----- -- - -------<br>-------- -- --- --- -- ----- ----------- ----- -----------<br>---- --- ---------- --- ---- --- -- ----------,161119.90000009537,161119.20000004768,160806.475,160808.20000004768,160822.768,161122.461,,26,the
screen,html.Screen,0_4_1_0_1_27,2021-11-19T11:59:38.278Z,,,,,,,,,,,,,,,,51,,,,,,,,,,,,,,316.73900004767347,,response,,,13,E,,,,,Space,keypress(Space),,,,lyrical,-------- -------- --- --- ---- --- --- ------ -- --------<br>---- --------- --- ------- ------------ ---------- ---------<br>--- ---------- ------- ---------- ------- -- -------- ----<br>---- --- Senate ----- ------ -- ---- --- ----- -- - -------<br>-------- -- --- --- -- ----- ----------- ----- -----------<br>---- --- ---------- --- ---- --- -- ----------,161440,161439.20000004768,161106.168,161120.20000004768,161122.461,161455.126,,27,Senate
screen,html.Screen,0_4_1_0_1_28,2021-11-19T11:59:38.662Z,,,,,,,,,,,,,,,,51,,,,,,,,,,,,,,367.97400014306186,,response,,,13,E,,,,,Space,keypress(Space),,,,lyrical,-------- -------- --- --- ---- --- --- ------ -- --------<br>---- --------- --- ------- ------------ ---------- ---------<br>--- ---------- ------- ---------- ------- -- -------- ----<br>---- --- ------ seems ------ -- ---- --- ----- -- - -------<br>-------- -- --- --- -- ----- ----------- ----- -----------<br>---- --- ---------- --- ---- --- -- ----------,161823.90000009537,161823.10000014305,161438.833,161440.29999995232,161455.126,161837.051,,28,seems
screen,html.Screen,0_4_1_0_1_29,2021-11-19T11:59:38.950Z,,,,,,,,,,,,,,,,51,,,,,,,,,,,,,,273.94899999999325,,response,,,13,E,,,,,Space,keypress(Space),,,,lyrical,-------- -------- --- --- ---- --- --- ------ -- --------<br>---- --------- --- ------- ------------ ---------- ---------<br>--- ---------- ------- ---------- ------- -- -------- ----<br>---- --- ------ ----- poised -- ---- --- ----- -- - -------<br>-------- -- --- --- -- ----- ----------- ----- -----------<br>---- --- ---------- --- ---- --- -- ----------,162111.79999995232,162111,161820.758,161824.20000004768,161837.051,162113.329,,29,poised
screen,html.Screen,0_4_1_0_1_30,2021-11-19T11:59:39.294Z,,,,,,,,,,,,,,,,51,,,,,,,,,,,,,,341.77100014305324,,response,,,13,E,,,,,Space,keypress(Space),,,,lyrical,-------- -------- --- --- ---- --- --- ------ -- --------<br>---- --------- --- ------- ------------ ---------- ---------<br>--- ---------- ------- ---------- ------- -- -------- ----<br>---- --- ------ ----- ------ to ---- --- ----- -- - -------<br>-------- -- --- --- -- ----- ----------- ----- -----------<br>---- --- ---------- --- ---- --- -- ----------,162455.79999995232,162455.10000014305,162097.036,162112,162113.329,162460.093,,30,to
screen,html.Screen,0_4_1_0_1_31,2021-11-19T11:59:39.582Z,,,,,,,,,,,,,,,,51,,,,,,,,,,,,,,283.2069999523228,,response,,,13,E,,,,,Space,keypress(Space),,,,lyrical,-------- -------- --- --- ---- --- --- ------ -- --------<br>---- --------- --- ------- ------------ ---------- ---------<br>--- ---------- ------- ---------- ------- -- -------- ----<br>---- --- ------ ----- ------ -- join --- ----- -- - -------<br>-------- -- --- --- -- ----- ----------- ----- -----------<br>---- --- ---------- --- ---- --- -- ----------,162744.10000014305,162743.29999995232,162444.115,162456.10000014305,162460.093,162753.031,,31,join
screen,html.Screen,0_4_1_0_1_32,2021-11-19T11:59:39.830Z,,,,,,,,,,,,,,,,51,,,,,,,,,,,,,,237.96900000001187,,response,,,13,E,,,,,Space,keypress(Space),,,,lyrical,-------- -------- --- --- ---- --- --- ------ -- --------<br>---- --------- --- ------- ------------ ---------- ---------<br>--- ---------- ------- ---------- ------- -- -------- ----<br>---- --- ------ ----- ------ -- ---- the ----- -- - -------<br>-------- -- --- --- -- ----- ----------- ----- -----------<br>---- --- ---------- --- ---- --- -- ----------,162991.70000004768,162991,162737.24,162744.29999995232,162753.031,163007.27,,32,the
screen,html.Screen,0_4_1_0_1_33,2021-11-19T11:59:40.070Z,,,,,,,,,,,,,,,,51,,,,,,,,,,,,,,224.1300000953779,,response,,,13,E,,,,,Space,keypress(Space),,,,lyrical,-------- -------- --- --- ---- --- --- ------ -- --------<br>---- --------- --- ------- ------------ ---------- ---------<br>--- ---------- ------- ---------- ------- -- -------- ----<br>---- --- ------ ----- ------ -- ---- --- House -- - -------<br>-------- -- --- --- -- ----- ----------- ----- -----------<br>---- --- ---------- --- ---- --- -- ----------,163232.20000004768,163231.40000009537,162991.392,162991.90000009537,163007.27,163239.441,,33,House
screen,html.Screen,0_4_1_0_1_34,2021-11-19T11:59:40.342Z,,,,,,,,,,,,,,,,51,,,,,,,,,,,,,,263.5590000000084,,response,,,13,E,,,,,Space,keypress(Space),,,,lyrical,-------- -------- --- --- ---- --- --- ------ -- --------<br>---- --------- --- ------- ------------ ---------- ---------<br>--- ---------- ------- ---------- ------- -- -------- ----<br>---- --- ------ ----- ------ -- ---- --- ----- in - -------<br>-------- -- --- --- -- ----- ----------- ----- -----------<br>---- --- ---------- --- ---- --- -- ----------,163503.90000009537,163503,163223.699,163232.40000009537,163239.441,163519.994,,34,in
screen,html.Screen,0_4_1_0_1_35,2021-11-19T11:59:40.582Z,,,,,,,,,,,,,,,,51,,,,,,,,,,,,,,223.1060001430451,,response,,,13,E,,,,,Space,keypress(Space),,,,lyrical,-------- -------- --- --- ---- --- --- ------ -- --------<br>---- --------- --- ------- ------------ ---------- ---------<br>--- ---------- ------- ---------- ------- -- -------- ----<br>---- --- ------ ----- ------ -- ---- --- ----- -- a -------<br>-------- -- --- --- -- ----- ----------- ----- -----------<br>---- --- ---------- --- ---- --- -- ----------,163743.79999995232,163743.10000014305,163504.365,163504.10000014305,163519.994,163754.401,,35,a
screen,html.Screen,0_4_1_0_1_36,2021-11-19T11:59:40.838Z,,,,,,,,,,,,,,,,51,,,,,,,,,,,,,,244.69900014303857,,response,,,13,E,,,,,Space,keypress(Space),,,,lyrical,-------- -------- --- --- ---- --- --- ------ -- --------<br>---- --------- --- ------- ------------ ---------- ---------<br>--- ---------- ------- ---------- ------- -- -------- ----<br>---- --- ------ ----- ------ -- ---- --- ----- -- - massive<br>-------- -- --- --- -- ----- ----------- ----- -----------<br>---- --- ---------- --- ---- --- -- ----------,163999.79999995232,163999.10000014305,163738.773,163744.10000014305,163754.401,164004.611,,36,massive
screen,html.Screen,0_4_1_0_1_37,2021-11-19T11:59:41.118Z,,,,,,,,,,,,,,,,51,,,,,,,,,,,,,,274.3889999999956,,response,,,13,E,,,,,Space,keypress(Space),,,,lyrical,-------- -------- --- --- ---- --- --- ------ -- --------<br>---- --------- --- ------- ------------ ---------- ---------<br>--- ---------- ------- ---------- ------- -- -------- ----<br>---- --- ------ ----- ------ -- ---- --- ----- -- - -------<br>overhaul -- --- --- -- ----- ----------- ----- -----------<br>---- --- ---------- --- ---- --- -- ----------,164279.79999995232,164279,163988.918,164000.10000014305,164004.611,164283.407,,37,overhaul
screen,html.Screen,0_4_1_0_1_38,2021-11-19T11:59:41.374Z,,,,,,,,,,,,,,,,51,,,,,,,,,,,,,,251.69300014304463,,response,,,13,E,,,,,Space,keypress(Space),,,,lyrical,-------- -------- --- --- ---- --- --- ------ -- --------<br>---- --------- --- ------- ------------ ---------- ---------<br>--- ---------- ------- ---------- ------- -- -------- ----<br>---- --- ------ ----- ------ -- ---- --- ----- -- - -------<br>-------- of --- --- -- ----- ----------- ----- -----------<br>---- --- ---------- --- ---- --- -- ----------,164535.79999995232,164535.10000014305,164267.851,164280.10000014305,164283.407,164539.026,,38,of
screen,html.Screen,0_4_1_0_1_39,2021-11-19T11:59:41.614Z,,,,,,,,,,,,,,,,51,,,,,,,,,,,,,,235.97399999998743,,response,,,13,E,,,,,Space,keypress(Space),,,,lyrical,-------- -------- --- --- ---- --- --- ------ -- --------<br>---- --------- --- ------- ------------ ---------- ---------<br>--- ---------- ------- ---------- ------- -- -------- ----<br>---- --- ------ ----- ------ -- ---- --- ----- -- - -------<br>-------- -- the --- -- ----- ----------- ----- -----------<br>---- --- ---------- --- ---- --- -- ----------,164775.79999995232,164775,164523.333,164536,164539.026,164789.843,,39,the
screen,html.Screen,0_4_1_0_1_40,2021-11-19T11:59:41.894Z,,,,,,,,,,,,,,,,51,,,,,,,,,,,,,,265.1570000000065,,response,,,13,E,,,,,Space,keypress(Space),,,,lyrical,-------- -------- --- --- ---- --- --- ------ -- --------<br>---- --------- --- ------- ------------ ---------- ---------<br>--- ---------- ------- ---------- ------- -- -------- ----<br>---- --- ------ ----- ------ -- ---- --- ----- -- - -------<br>-------- -- --- way -- ----- ----------- ----- -----------<br>---- --- ---------- --- ---- --- -- ----------,165055.79999995232,165055,164774.102,164776,164789.843,165068.5,,40,way
screen,html.Screen,0_4_1_0_1_41,2021-11-19T11:59:42.126Z,,,,,,,,,,,,,,,,51,,,,,,,,,,,,,,218.5,,response,,,13,E,,,,,Space,keypress(Space),,,,lyrical,-------- -------- --- --- ---- --- --- ------ -- --------<br>---- --------- --- ------- ------------ ---------- ---------<br>--- ---------- ------- ---------- ------- -- -------- ----<br>---- --- ------ ----- ------ -- ---- --- ----- -- - -------<br>-------- -- --- --- in ----- ----------- ----- -----------<br>---- --- ---------- --- ---- --- -- ----------,165287.70000004768,165287,165052.869,165056,165068.5,165301.601,,41,in
screen,html.Screen,0_4_1_0_1_42,2021-11-19T11:59:42.374Z,,,,,,,,,,,,,,,,51,,,,,,,,,,,,,,233.3990000000049,,response,,,13,E,,,,,Space,keypress(Space),,,,lyrical,-------- -------- --- --- ---- --- --- ------ -- --------<br>---- --------- --- ------- ------------ ---------- ---------<br>--- ---------- ------- ---------- ------- -- -------- ----<br>---- --- ------ ----- ------ -- ---- --- ----- -- - -------<br>-------- -- --- --- -- which ----------- ----- -----------<br>---- --- ---------- --- ---- --- -- ----------,165535.79999995232,165535,165286.042,165288,165301.601,165540.112,,42,which
screen,html.Screen,0_4_1_0_1_43,2021-11-19T11:59:42.614Z,,,,,,,,,,,,,,,,51,,,,,,,,,,,,,,234.78800009537372,,response,,,13,E,,,,,Space,keypress(Space),,,,lyrical,-------- -------- --- --- ---- --- --- ------ -- --------<br>---- --------- --- ------- ------------ ---------- ---------<br>--- ---------- ------- ---------- ------- -- -------- ----<br>---- --- ------ ----- ------ -- ---- --- ----- -- - -------<br>-------- -- --- --- -- ----- bureaucrats ----- -----------<br>---- --- ---------- --- ---- --- -- ----------,165775.70000004768,165774.90000009537,165524.368,165535.90000009537,165540.112,165787.166,,43,bureaucrats
screen,html.Screen,0_4_1_0_1_44,2021-11-19T11:59:42.910Z,,,,,,,,,,,,,,,,51,,,,,,,,,,,,,,283.63399995231885,,response,,,13,E,,,,,Space,keypress(Space),,,,lyrical,-------- -------- --- --- ---- --- --- ------ -- --------<br>---- --------- --- ------- ------------ ---------- ---------<br>--- ---------- ------- ---------- ------- -- -------- ----<br>---- --- ------ ----- ------ -- ---- --- ----- -- - -------<br>-------- -- --- --- -- ----- ----------- enact -----------<br>---- --- ---------- --- ---- --- -- ----------,166071.60000014305,166070.79999995232,165771.61,165776,165787.166,166084.406,,44,enact
screen,html.Screen,0_4_1_0_1_45,2021-11-19T11:59:43.718Z,,,,,,,,,,,,,,,,51,,,,,,,,,,,,,,794.4940000953793,,response,,,13,E,,,,,Space,keypress(Space),,,,lyrical,-------- -------- --- --- ---- --- --- ------ -- --------<br>---- --------- --- ------- ------------ ---------- ---------<br>--- ---------- ------- ---------- ------- -- -------- ----<br>---- --- ------ ----- ------ -- ---- --- ----- -- - -------<br>-------- -- --- --- -- ----- ----------- ----- regulations<br>---- --- ---------- --- ---- --- -- ----------,166879.79999995232,166878.90000009537,166068.775,166071.79999995232,166084.406,166893.108,,45,regulations
screen,html.Screen,0_4_1_0_1_46,2021-11-19T11:59:44.086Z,,,,,,,,,,,,,,,,51,,,,,,,,,,,,,,353.79200009536,,response,,,13,E,,,,,Space,keypress(Space),,,,lyrical,-------- -------- --- --- ---- --- --- ------ -- --------<br>---- --------- --- ------- ------------ ---------- ---------<br>--- ---------- ------- ---------- ------- -- -------- ----<br>---- --- ------ ----- ------ -- ---- --- ----- -- - -------<br>-------- -- --- --- -- ----- ----------- ----- -----------<br>that --- ---------- --- ---- --- -- ----------,167247.70000004768,167246.90000009537,166877.549,166880.10000014305,166893.108,167256.951,,46,that
screen,html.Screen,0_4_1_0_1_47,2021-11-19T11:59:44.342Z,,,,,,,,,,,,,,,,51,,,,,,,,,,,,,,245.9490000953665,,response,,,13,E,,,,,Space,keypress(Space),,,,lyrical,-------- -------- --- --- ---- --- --- ------ -- --------<br>---- --------- --- ------- ------------ ---------- ---------<br>--- ---------- ------- ---------- ------- -- -------- ----<br>---- --- ------ ----- ------ -- ---- --- ----- -- - -------<br>-------- -- --- --- -- ----- ----------- ----- -----------<br>---- are ---------- --- ---- --- -- ----------,167503.70000004768,167502.90000009537,167241.158,167248,167256.951,167517.89,,47,are
screen,html.Screen,0_4_1_0_1_48,2021-11-19T11:59:44.574Z,,,,,,,,,,,,,,,,51,,,,,,,,,,,,,,217.01000009535346,,response,,,13,E,,,,,Space,keypress(Space),,,,lyrical,-------- -------- --- --- ---- --- --- ------ -- --------<br>---- --------- --- ------- ------------ ---------- ---------<br>--- ---------- ------- ---------- ------- -- -------- ----<br>---- --- ------ ----- ------ -- ---- --- ----- -- - -------<br>-------- -- --- --- -- ----- ----------- ----- -----------<br>---- --- strangling --- ---- --- -- ----------,167735.70000004768,167734.90000009537,167502.181,167503.90000009537,167517.89,167750.158,,48,strangling
screen,html.Screen,0_4_1_0_1_49,2021-11-19T11:59:44.934Z,,,,,,,,,,,,,,,,51,,,,,,,,,,,,,,344.7420000953716,,response,,,13,E,,,,,Space,keypress(Space),,,,lyrical,-------- -------- --- --- ---- --- --- ------ -- --------<br>---- --------- --- ------- ------------ ---------- ---------<br>--- ---------- ------- ---------- ------- -- -------- ----<br>---- --- ------ ----- ------ -- ---- --- ----- -- - -------<br>-------- -- --- --- -- ----- ----------- ----- -----------<br>---- --- ---------- the ---- --- -- ----------,168095.60000014305,168094.90000009537,167734.212,167735.90000009537,167750.158,168111.827,,49,the
screen,html.Screen,0_4_1_0_1_50,2021-11-19T11:59:45.246Z,,,,,,,,,,,,,,,,51,,,,,,,,,,,,,,295.0730000953772,,response,,,13,E,,,,,Space,keypress(Space),,,,lyrical,-------- -------- --- --- ---- --- --- ------ -- --------<br>---- --------- --- ------- ------------ ---------- ---------<br>--- ---------- ------- ---------- ------- -- -------- ----<br>---- --- ------ ----- ------ -- ---- --- ----- -- - -------<br>-------- -- --- --- -- ----- ----------- ----- -----------<br>---- --- ---------- --- life --- -- ----------,168407.60000014305,168406.90000009537,168095.881,168095.90000009537,168111.827,168423.582,,50,life
