sender,sender_type,sender_id,timestamp,meta,,Blues,Classical,Country,Dance,Electronic,Folk,Gospel,Hip-Hop,Jazz,Latin,Musical/Film,New-age,Pop,Provo_ID,R&B,Rap,Reggae,Religious,Rock,Soul,Swing,Traditional,age,artist_name,correct,correctResponse,distraction,duration,education,ended_on,familiarity,gender,item,list,music_frequency,offensiveness,pleasantness,preference,response,response_action,snippet_file,song_name,song_rating,sound,text,time_commit,time_end,time_render,time_run,time_show,time_switch,url,word,word_ID
Instructions,html.Page,0_0,2021-12-10T10:37:51.328Z,"{""labjs_version"":""20.2.3"",""labjs_build"":{""flavor"":""production"",""commit"":""7ea907d66ca8aeef8054924ca5d82ffbe11e34e5""},""location"":""https://run.pavlovia.org/mvasilev/lab_music_c/"",""userAgent"":""Mozilla/5.0 (Windows NT 6.1; Win64; x64) AppleWebKit/537.36 (KHTML, like Gecko) Chrome/96.0.4664.93 Safari/537.36"",""platform"":""Win32"",""language"":""en-US"",""locale"":""en-US"",""timeZone"":""Europe/London"",""timezoneOffset"":0,""screen_width"":1920,""screen_height"":1080,""scroll_width"":1920,""scroll_height"":959,""window_innerWidth"":1920,""window_innerHeight"":1007,""devicePixelRatio"":1}",,,,,,,,,,,,,,,,,,,,,,,,,,,,,17135.566,,form submission,,,,,,,,,,,,,,,,25986.799999999814,25986,8817.104,8829.799999999814,8850.434,25992.941,{},,
Headphones,html.Page,0_1,2021-12-10T10:37:54.009Z,,,,,,,,,,,,,,,,,,,,,,,,,,,,,,2674.358999999815,,form submission,,,,,,,,,,,,,,,,28667.69999999972,28667.299999999814,25976.241,25987.19999999972,25992.941,28682.523,,,
Holding screen,html.Screen,0_2_0_0,2021-12-10T10:38:04.011Z,,,,,,,,,,,,,,,,,,,,,,,,,,,,,,9999.296000000002,,timeout,,,,,,,,,,,,,,,,38669.09999999963,38665.154,28665.858,28668.19999999972,28682.523,38681.819,,,
screen,html.Screen,0_2_0_1_0,2021-12-10T10:38:04.984Z,,,,,,,,,,,,,,,,53,,,,,,,,,,,,,,959.4809999998106,,response,,,99,,,,,,Space,keypress(Space),,,,,When -- ----- -- ------ - ------- --- ----------<br>------------- ------ ------ ---- ---- ------- ----- -- ----<br>-------- ------- -- ---------- --- - --- ----- ----- ----<br>---- --- --- ----- --- ---- ---- ------- ----- ---- -------<br>--- --- -- ----- -- --- ---- -- --- ---- -- ------ ------<br>--- ----- -- ----,39642.39999999991,39641.299999999814,38665.154,38669.39999999991,38681.819,39648.322,,0,When
screen,html.Screen,0_2_0_1_1,2021-12-10T10:38:05.335Z,,,,,,,,,,,,,,,,53,,,,,,,,,,,,,,344.6779999999999,,response,,,99,,,,,,Space,keypress(Space),,,,,---- it ----- -- ------ - ------- --- ----------<br>------------- ------ ------ ---- ---- ------- ----- -- ----<br>-------- ------- -- ---------- --- - --- ----- ----- ----<br>---- --- --- ----- --- ---- ---- ------- ----- ---- -------<br>--- --- -- ----- -- --- ---- -- --- ---- -- ------ ------<br>--- ----- -- ----,39993.69999999972,39993,39631.658,39642.59999999963,39648.322,39998.389,,1,it
screen,html.Screen,0_2_0_1_2,2021-12-10T10:38:05.687Z,,,,,,,,,,,,,,,,53,,,,,,,,,,,,,,346.510999999904,,response,,,99,,,,,,Space,keypress(Space),,,,,---- -- comes -- ------ - ------- --- ----------<br>------------- ------ ------ ---- ---- ------- ----- -- ----<br>-------- ------- -- ---------- --- - --- ----- ----- ----<br>---- --- --- ----- --- ---- ---- ------- ----- ---- -------<br>--- --- -- ----- -- --- ---- -- --- ---- -- ------ ------<br>--- ----- -- ----,40345.69999999972,40344.89999999991,39981.724,39993.89999999991,39998.389,40348.373,,2,comes
screen,html.Screen,0_2_0_1_3,2021-12-10T10:38:06.031Z,,,,,,,,,,,,,,,,53,,,,,,,,,,,,,,340.5269999999073,,response,,,99,,,,,,Space,keypress(Space),,,,,---- -- ----- to ------ - ------- --- ----------<br>------------- ------ ------ ---- ---- ------- ----- -- ----<br>-------- ------- -- ---------- --- - --- ----- ----- ----<br>---- --- --- ----- --- ---- ---- ------- ----- ---- -------<br>--- --- -- ----- -- --- ---- -- --- ---- -- ------ ------<br>--- ----- -- ----,40689.59999999963,40688.89999999991,40331.708,40345.799999999814,40348.373,40698.347,,3,to
screen,html.Screen,0_2_0_1_4,2021-12-10T10:38:06.479Z,,,,,,,,,,,,,,,,53,,,,,,,,,,,,,,438.5529999999053,,response,,,99,,,,,,Space,keypress(Space),,,,,---- -- ----- -- having - ------- --- ----------<br>------------- ------ ------ ---- ---- ------- ----- -- ----<br>-------- ------- -- ---------- --- - --- ----- ----- ----<br>---- --- --- ----- --- ---- ---- ------- ----- ---- -------<br>--- --- -- ----- -- --- ---- -- --- ---- -- ------ ------<br>--- ----- -- ----,41137.799999999814,41136.89999999991,40681.682,40689.89999999991,40698.347,41148.313,,4,having
screen,html.Screen,0_2_0_1_5,2021-12-10T10:38:06.855Z,,,,,,,,,,,,,,,,53,,,,,,,,,,,,,,364.58699999990495,,response,,,99,,,,,,Space,keypress(Space),,,,,---- -- ----- -- ------ a ------- --- ----------<br>------------- ------ ------ ---- ---- ------- ----- -- ----<br>-------- ------- -- ---------- --- - --- ----- ----- ----<br>---- --- --- ----- --- ---- ---- ------- ----- ---- -------<br>--- --- -- ----- -- --- ---- -- --- ---- -- ------ ------<br>--- ----- -- ----,41513.5,41512.89999999991,41131.648,41138,41148.313,41514.955,,5,a
screen,html.Screen,0_2_0_1_6,2021-12-10T10:38:07.215Z,,,,,,,,,,,,,,,,53,,,,,,,,,,,,,,357.844999999812,,response,,,99,,,,,,Space,keypress(Space),,,,,---- -- ----- -- ------ - lasting --- ----------<br>------------- ------ ------ ---- ---- ------- ----- -- ----<br>-------- ------- -- ---------- --- - --- ----- ----- ----<br>---- --- --- ----- --- ---- ---- ------- ----- ---- -------<br>--- --- -- ----- -- --- ---- -- --- ---- -- ------ ------<br>--- ----- -- ----,41873.59999999963,41872.799999999814,41498.29,41513.89999999991,41514.955,41881.596,,6,lasting
screen,html.Screen,0_2_0_1_7,2021-12-10T10:38:07.551Z,,,,,,,,,,,,,,,,53,,,,,,,,,,,,,,327.1039999997229,,response,,,99,,,,,,Space,keypress(Space),,,,,---- -- ----- -- ------ - ------- and ----------<br>------------- ------ ------ ---- ---- ------- ----- -- ----<br>-------- ------- -- ---------- --- - --- ----- ----- ----<br>---- --- --- ----- --- ---- ---- ------- ----- ---- -------<br>--- --- -- ----- -- --- ---- -- --- ---- -- ------ ------<br>--- ----- -- ----,42209.5,42208.69999999972,41864.931,41873.799999999814,41881.596,42214.963,,7,and
screen,html.Screen,0_2_0_1_8,2021-12-10T10:38:08.055Z,,,,,,,,,,,,,,,,53,,,,,,,,,,,,,,497.83699999981036,,response,,,99,,,,,,Space,keypress(Space),,,,,---- -- ----- -- ------ - ------- --- fulfilling<br>------------- ------ ------ ---- ---- ------- ----- -- ----<br>-------- ------- -- ---------- --- - --- ----- ----- ----<br>---- --- --- ----- --- ---- ---- ------- ----- ---- -------<br>--- --- -- ----- -- --- ---- -- --- ---- -- ------ ------<br>--- ----- -- ----,42713.59999999963,42712.799999999814,42198.297,42209.69999999972,42214.963,42714.817,,8,fulfilling
screen,html.Screen,0_2_0_1_9,2021-12-10T10:38:08.815Z,,,,,,,,,,,,,,,,53,,,,,,,,,,,,,,757.982999999811,,response,,,99,,,,,,Space,keypress(Space),,,,,"---- -- ----- -- ------ - ------- --- ----------<br>relationship, ------ ------ ---- ---- ------- ----- -- ----<br>-------- ------- -- ---------- --- - --- ----- ----- ----<br>---- --- --- ----- --- ---- ---- ------- ----- ---- -------<br>--- --- -- ----- -- --- ---- -- --- ---- -- ------ ------<br>--- ----- -- ----",43473.5,43472.799999999814,42698.153,42713.799999999814,42714.817,43481.568,,9,"relationship,"
screen,html.Screen,0_2_0_1_10,2021-12-10T10:38:09.279Z,,,,,,,,,,,,,,,,53,,,,,,,,,,,,,,455.1319999997213,,response,,,99,,,,,,Space,keypress(Space),,,,,---- -- ----- -- ------ - ------- --- ----------<br>------------- common ------ ---- ---- ------- ----- -- ----<br>-------- ------- -- ---------- --- - --- ----- ----- ----<br>---- --- --- ----- --- ---- ---- ------- ----- ---- -------<br>--- --- -- ----- -- --- ---- -- --- ---- -- ------ ------<br>--- ----- -- ----,43937.39999999991,43936.69999999972,43464.902,43473.69999999972,43481.568,43948.125,,10,common
screen,html.Screen,0_2_0_1_11,2021-12-10T10:38:09.511Z,,,,,,,,,,,,,,,,53,,,,,,,,,,,,,,220.47499999962747,,response,,,99,,,,,,Space,keypress(Space),,,,,---- -- ----- -- ------ - ------- --- ----------<br>------------- ------ wisdom ---- ---- ------- ----- -- ----<br>-------- ------- -- ---------- --- - --- ----- ----- ----<br>---- --- --- ----- --- ---- ---- ------- ----- ---- -------<br>--- --- -- ----- -- --- ---- -- --- ---- -- ------ ------<br>--- ----- -- ----,44169.299999999814,44168.59999999963,43931.46,43937.59999999963,43948.125,44181.468,,11,wisdom
screen,html.Screen,0_2_0_1_12,2021-12-10T10:38:09.959Z,,,,,,,,,,,,,,,,53,,,,,,,,,,,,,,435.1319999996267,,response,,,99,,,,,,Space,keypress(Space),,,,,---- -- ----- -- ------ - ------- --- ----------<br>------------- ------ ------ says ---- ------- ----- -- ----<br>-------- ------- -- ---------- --- - --- ----- ----- ----<br>---- --- --- ----- --- ---- ---- ------- ----- ---- -------<br>--- --- -- ----- -- --- ---- -- --- ---- -- ------ ------<br>--- ----- -- ----,44617.19999999972,44616.59999999963,44164.803,44169.5,44181.468,44631.371,,12,says
screen,html.Screen,0_2_0_1_13,2021-12-10T10:38:10.295Z,,,,,,,,,,,,,,,,53,,,,,,,,,,,,,,321.3289999997214,,response,,,99,,,,,,Space,keypress(Space),,,,,---- -- ----- -- ------ - ------- --- ----------<br>------------- ------ ------ ---- that ------- ----- -- ----<br>-------- ------- -- ---------- --- - --- ----- ----- ----<br>---- --- --- ----- --- ---- ---- ------- ----- ---- -------<br>--- --- -- ----- -- --- ---- -- --- ---- -- ------ ------<br>--- ----- -- ----,44953.299999999814,44952.69999999972,44614.707,44617.39999999991,44631.371,44964.783,,13,that
screen,html.Screen,0_2_0_1_14,2021-12-10T10:38:10.551Z,,,,,,,,,,,,,,,,53,,,,,,,,,,,,,,243.8169999996244,,response,,,99,,,,,,Space,keypress(Space),,,,,---- -- ----- -- ------ - ------- --- ----------<br>------------- ------ ------ ---- ---- feeling ----- -- ----<br>-------- ------- -- ---------- --- - --- ----- ----- ----<br>---- --- --- ----- --- ---- ---- ------- ----- ---- -------<br>--- --- -- ----- -- --- ---- -- --- ---- -- ------ ------<br>--- ----- -- ----,45209.19999999972,45208.59999999963,44948.117,44953.5,44964.783,45214.732,,14,feeling
screen,html.Screen,0_2_0_1_15,2021-12-10T10:38:10.935Z,,,,,,,,,,,,,,,,53,,,,,,,,,,,,,,377.7679999999964,,response,,,99,,,,,,Space,keypress(Space),,,,,---- -- ----- -- ------ - ------- --- ----------<br>------------- ------ ------ ---- ---- ------- close -- ----<br>-------- ------- -- ---------- --- - --- ----- ----- ----<br>---- --- --- ----- --- ---- ---- ------- ----- ---- -------<br>--- --- -- ----- -- --- ---- -- --- ---- -- ------ ------<br>--- ----- -- ----,45593.19999999972,45592.5,45198.067,45209.39999999991,45214.732,45597.996,,15,close
screen,html.Screen,0_2_0_1_16,2021-12-10T10:38:11.255Z,,,,,,,,,,,,,,,,53,,,,,,,,,,,,,,314.5040000000008,,response,,,99,,,,,,Space,keypress(Space),,,,,---- -- ----- -- ------ - ------- --- ----------<br>------------- ------ ------ ---- ---- ------- ----- to ----<br>-------- ------- -- ---------- --- - --- ----- ----- ----<br>---- --- --- ----- --- ---- ---- ------- ----- ---- -------<br>--- --- -- ----- -- --- ---- -- --- ---- -- ------ ------<br>--- ----- -- ----,45913.09999999963,45912.5,45581.332,45593.39999999991,45597.996,45914.664,,16,to
screen,html.Screen,0_2_0_1_17,2021-12-10T10:38:11.447Z,,,,,,,,,,,,,,,,53,,,,,,,,,,,,,,189.93599999963044,,response,,,99,,,,,,Space,keypress(Space),,,,,---- -- ----- -- ------ - ------- --- ----------<br>------------- ------ ------ ---- ---- ------- ----- -- your<br>-------- ------- -- ---------- --- - --- ----- ----- ----<br>---- --- --- ----- --- ---- ---- ------- ----- ---- -------<br>--- --- -- ----- -- --- ---- -- --- ---- -- ------ ------<br>--- ----- -- ----,46105.09999999963,46104.59999999963,45897.999,45913.19999999972,45914.664,46114.615,,17,your
screen,html.Screen,0_2_0_1_18,2021-12-10T10:38:11.903Z,,,,,,,,,,,,,,,,53,,,,,,,,,,,,,,445.88500000000204,,response,,,99,,,,,,Space,keypress(Space),,,,,---- -- ----- -- ------ - ------- --- ----------<br>------------- ------ ------ ---- ---- ------- ----- -- ----<br>romantic ------- -- ---------- --- - --- ----- ----- ----<br>---- --- --- ----- --- ---- ---- ------- ----- ---- -------<br>--- --- -- ----- -- --- ---- -- --- ---- -- ------ ------<br>--- ----- -- ----,46561.09999999963,46560.5,46097.951,46105.299999999814,46114.615,46564.597,,18,romantic
screen,html.Screen,0_2_0_1_19,2021-12-10T10:38:12.095Z,,,,,,,,,,,,,,,,53,,,,,,,,,,,,,,187.8029999999053,,response,,,99,,,,,,Space,keypress(Space),,,,,---- -- ----- -- ------ - ------- --- ----------<br>------------- ------ ------ ---- ---- ------- ----- -- ----<br>-------- partner -- ---------- --- - --- ----- ----- ----<br>---- --- --- ----- --- ---- ---- ------- ----- ---- -------<br>--- --- -- ----- -- --- ---- -- --- ---- -- ------ ------<br>--- ----- -- ----,46753,46752.39999999991,46547.932,46561.299999999814,46564.597,46764.585,,19,partner
screen,html.Screen,0_2_0_1_20,2021-12-10T10:38:12.271Z,,,,,,,,,,,,,,,,53,,,,,,,,,,,,,,163.91500000000087,,response,,,99,,,,,,Space,keypress(Space),,,,,---- -- ----- -- ------ - ------- --- ----------<br>------------- ------ ------ ---- ---- ------- ----- -- ----<br>-------- ------- is ---------- --- - --- ----- ----- ----<br>---- --- --- ----- --- ---- ---- ------- ----- ---- -------<br>--- --- -- ----- -- --- ---- -- --- ---- -- ------ ------<br>--- ----- -- ----,46929.09999999963,46928.5,46747.92,46753.19999999972,46764.585,46931.25,,20,is
screen,html.Screen,0_2_0_1_21,2021-12-10T10:38:12.671Z,,,,,,,,,,,,,,,,53,,,,,,,,,,,,,,397.25,,response,,,99,,,,,,Space,keypress(Space),,,,,---- -- ----- -- ------ - ------- --- ----------<br>------------- ------ ------ ---- ---- ------- ----- -- ----<br>-------- ------- -- paramount. --- - --- ----- ----- ----<br>---- --- --- ----- --- ---- ---- ------- ----- ---- -------<br>--- --- -- ----- -- --- ---- -- --- ---- -- ------ ------<br>--- ----- -- ----,47329.09999999963,47328.5,46914.585,46929.19999999972,46931.25,47331.21,,21,paramount.
screen,html.Screen,0_2_0_1_22,2021-12-10T10:38:13.359Z,,,,,,,,,,,,,,,,53,,,,,,,,,,,,,,685.1899999999077,,response,,,99,,,,,,Space,keypress(Space),,,,,---- -- ----- -- ------ - ------- --- ----------<br>------------- ------ ------ ---- ---- ------- ----- -- ----<br>-------- ------- -- ---------- But - --- ----- ----- ----<br>---- --- --- ----- --- ---- ---- ------- ----- ---- -------<br>--- --- -- ----- -- --- ---- -- --- ---- -- ------ ------<br>--- ----- -- ----,48017,48016.39999999991,47314.545,47329.39999999991,47331.21,48031.247,,22,But
screen,html.Screen,0_2_0_1_23,2021-12-10T10:38:13.703Z,,,,,,,,,,,,,,,,53,,,,,,,,,,,,,,329.252999999997,,response,,,99,,,,,,Space,keypress(Space),,,,,---- -- ----- -- ------ - ------- --- ----------<br>------------- ------ ------ ---- ---- ------- ----- -- ----<br>-------- ------- -- ---------- --- a --- ----- ----- ----<br>---- --- --- ----- --- ---- ---- ------- ----- ---- -------<br>--- --- -- ----- -- --- ---- -- --- ---- -- ------ ------<br>--- ----- -- ----,48361,48360.5,48014.58,48017.299999999814,48031.247,48364.524,,23,a
screen,html.Screen,0_2_0_1_24,2021-12-10T10:38:14.239Z,,,,,,,,,,,,,,,,53,,,,,,,,,,,,,,531.8759999999093,,response,,,99,,,,,,Space,keypress(Space),,,,,---- -- ----- -- ------ - ------- --- ----------<br>------------- ------ ------ ---- ---- ------- ----- -- ----<br>-------- ------- -- ---------- --- - new ----- ----- ----<br>---- --- --- ----- --- ---- ---- ------- ----- ---- -------<br>--- --- -- ----- -- --- ---- -- --- ---- -- ------ ------<br>--- ----- -- ----,48897,48896.39999999991,48347.859,48361.19999999972,48364.524,48897.785,,24,new
screen,html.Screen,0_2_0_1_25,2021-12-10T10:38:14.943Z,,,,,,,,,,,,,,,,53,,,,,,,,,,,,,,702.5149999998102,,response,,,99,,,,,,Space,keypress(Space),,,,,---- -- ----- -- ------ - ------- --- ----------<br>------------- ------ ------ ---- ---- ------- ----- -- ----<br>-------- ------- -- ---------- --- - --- study ----- ----<br>---- --- --- ----- --- ---- ---- ------- ----- ---- -------<br>--- --- -- ----- -- --- ---- -- --- ---- -- ------ ------<br>--- ----- -- ----,49601,49600.299999999814,48881.12,48897.19999999972,48897.785,49614.421,,25,study
screen,html.Screen,0_2_0_1_26,2021-12-10T10:38:15.295Z,,,,,,,,,,,,,,,,53,,,,,,,,,,,,,,338.0789999999979,,response,,,99,,,,,,Space,keypress(Space),,,,,---- -- ----- -- ------ - ------- --- ----------<br>------------- ------ ------ ---- ---- ------- ----- -- ----<br>-------- ------- -- ---------- --- - --- ----- finds ----<br>---- --- --- ----- --- ---- ---- ------- ----- ---- -------<br>--- --- -- ----- -- --- ---- -- --- ---- -- ------ ------<br>--- ----- -- ----,49953.09999999963,49952.5,49597.756,49601.19999999972,49614.421,49964.34,,26,finds
screen,html.Screen,0_2_0_1_27,2021-12-10T10:38:15.679Z,,,,,,,,,,,,,,,,53,,,,,,,,,,,,,,371.9599999998172,,response,,,99,,,,,,Space,keypress(Space),,,,,---- -- ----- -- ------ - ------- --- ----------<br>------------- ------ ------ ---- ---- ------- ----- -- ----<br>-------- ------- -- ---------- --- - --- ----- ----- that<br>---- --- --- ----- --- ---- ---- ------- ----- ---- -------<br>--- --- -- ----- -- --- ---- -- --- ---- -- ------ ------<br>--- ----- -- ----,50336.89999999991,50336.299999999814,49947.676,49953.299999999814,49964.34,50347.683,,27,that
screen,html.Screen,0_2_0_1_28,2021-12-10T10:38:16.231Z,,,,,,,,,,,,,,,,53,,,,,,,,,,,,,,540.5169999997233,,response,,,99,,,,,,Space,keypress(Space),,,,,---- -- ----- -- ------ - ------- --- ----------<br>------------- ------ ------ ---- ---- ------- ----- -- ----<br>-------- ------- -- ---------- --- - --- ----- ----- ----<br>it's --- --- ----- --- ---- ---- ------- ----- ---- -------<br>--- --- -- ----- -- --- ---- -- --- ---- -- ------ ------<br>--- ----- -- ----,50888.799999999814,50888.19999999972,50331.018,50337,50347.683,50897.662,,28,it's
screen,html.Screen,0_2_0_1_29,2021-12-10T10:38:16.598Z,,,,,,,,,,,,,,,,53,,,,,,,,,,,,,,358.43799999963085,,response,,,99,,,,,,Space,keypress(Space),,,,,---- -- ----- -- ------ - ------- --- ----------<br>------------- ------ ------ ---- ---- ------- ----- -- ----<br>-------- ------- -- ---------- --- - --- ----- ----- ----<br>---- not --- ----- --- ---- ---- ------- ----- ---- -------<br>--- --- -- ----- -- --- ---- -- --- ---- -- ------ ------<br>--- ----- -- ----,51256.799999999814,51256.09999999963,50880.997,50889.09999999963,50897.662,51264.18,,29,not
screen,html.Screen,0_2_0_1_30,2021-12-10T10:38:16.902Z,,,,,,,,,,,,,,,,53,,,,,,,,,,,,,,295.9199999996272,,response,,,99,,,,,,Space,keypress(Space),,,,,---- -- ----- -- ------ - ------- --- ----------<br>------------- ------ ------ ---- ---- ------- ----- -- ----<br>-------- ------- -- ---------- --- - --- ----- ----- ----<br>---- --- how ----- --- ---- ---- ------- ----- ---- -------<br>--- --- -- ----- -- --- ---- -- --- ---- -- ------ ------<br>--- ----- -- ----,51560.69999999972,51560.09999999963,51247.517,51257,51264.18,51564.247,,30,how
screen,html.Screen,0_2_0_1_31,2021-12-10T10:38:17.246Z,,,,,,,,,,,,,,,,53,,,,,,,,,,,,,,339.85299999962444,,response,,,99,,,,,,Space,keypress(Space),,,,,---- -- ----- -- ------ - ------- --- ----------<br>------------- ------ ------ ---- ---- ------- ----- -- ----<br>-------- ------- -- ---------- --- - --- ----- ----- ----<br>---- --- --- close --- ---- ---- ------- ----- ---- -------<br>--- --- -- ----- -- --- ---- -- --- ---- -- ------ ------<br>--- ----- -- ----,51904.799999999814,51904.09999999963,51547.582,51560.89999999991,51564.247,51914.297,,31,close
screen,html.Screen,0_2_0_1_32,2021-12-10T10:38:17.558Z,,,,,,,,,,,,,,,,53,,,,,,,,,,,,,,301.8029999996288,,response,,,99,,,,,,Space,keypress(Space),,,,,---- -- ----- -- ------ - ------- --- ----------<br>------------- ------ ------ ---- ---- ------- ----- -- ----<br>-------- ------- -- ---------- --- - --- ----- ----- ----<br>---- --- --- ----- you ---- ---- ------- ----- ---- -------<br>--- --- -- ----- -- --- ---- -- --- ---- -- ------ ------<br>--- ----- -- ----,52216.69999999972,52216.09999999963,51897.631,51904.89999999991,51914.297,52230.896,,32,you
screen,html.Screen,0_2_0_1_33,2021-12-10T10:38:17.886Z,,,,,,,,,,,,,,,,53,,,,,,,,,,,,,,313.20399999962683,,response,,,99,,,,,,Space,keypress(Space),,,,,---- -- ----- -- ------ - ------- --- ----------<br>------------- ------ ------ ---- ---- ------- ----- -- ----<br>-------- ------- -- ---------- --- - --- ----- ----- ----<br>---- --- --- ----- --- feel ---- ------- ----- ---- -------<br>--- --- -- ----- -- --- ---- -- --- ---- -- ------ ------<br>--- ----- -- ----,52544.59999999963,52544.09999999963,52214.231,52216.799999999814,52230.896,52547.536,,33,feel
screen,html.Screen,0_2_0_1_34,2021-12-10T10:38:18.270Z,,,,,,,,,,,,,,,,53,,,,,,,,,,,,,,380.5639999996274,,response,,,99,,,,,,Space,keypress(Space),,,,,---- -- ----- -- ------ - ------- --- ----------<br>------------- ------ ------ ---- ---- ------- ----- -- ----<br>-------- ------- -- ---------- --- - --- ----- ----- ----<br>---- --- --- ----- --- ---- that ------- ----- ---- -------<br>--- --- -- ----- -- --- ---- -- --- ---- -- ------ ------<br>--- ----- -- ----,52928.799999999814,52928.09999999963,52530.871,52544.89999999991,52547.536,52930.859,,34,that
screen,html.Screen,0_2_0_1_35,2021-12-10T10:38:18.518Z,,,,,,,,,,,,,,,,53,,,,,,,,,,,,,,245.14100000000326,,response,,,99,,,,,,Space,keypress(Space),,,,,---- -- ----- -- ------ - ------- --- ----------<br>------------- ------ ------ ---- ---- ------- ----- -- ----<br>-------- ------- -- ---------- --- - --- ----- ----- ----<br>---- --- --- ----- --- ---- ---- matters ----- ---- -------<br>--- --- -- ----- -- --- ---- -- --- ---- -- ------ ------<br>--- ----- -- ----,53176.59999999963,53176,52914.194,52928.89999999991,52930.859,53180.689,,35,matters
screen,html.Screen,0_2_0_1_36,2021-12-10T10:38:18.814Z,,,,,,,,,,,,,,,,53,,,,,,,,,,,,,,291.3110000000015,,response,,,99,,,,,,Space,keypress(Space),,,,,"---- -- ----- -- ------ - ------- --- ----------<br>------------- ------ ------ ---- ---- ------- ----- -- ----<br>-------- ------- -- ---------- --- - --- ----- ----- ----<br>---- --- --- ----- --- ---- ---- ------- most, ---- -------<br>--- --- -- ----- -- --- ---- -- --- ---- -- ------ ------<br>--- ----- -- ----",53472.69999999972,53472,53164.027,53176.799999999814,53180.689,53480.875,,36,"most,"
screen,html.Screen,0_2_0_1_37,2021-12-10T10:38:19.206Z,,,,,,,,,,,,,,,,53,,,,,,,,,,,,,,383.125,,response,,,99,,,,,,Space,keypress(Space),,,,,---- -- ----- -- ------ - ------- --- ----------<br>------------- ------ ------ ---- ---- ------- ----- -- ----<br>-------- ------- -- ---------- --- - --- ----- ----- ----<br>---- --- --- ----- --- ---- ---- ------- ----- it's -------<br>--- --- -- ----- -- --- ---- -- --- ---- -- ------ ------<br>--- ----- -- ----,53864.59999999963,53864,53464.208,53472.89999999991,53480.875,53880.689,,37,it's
screen,html.Screen,0_2_0_1_38,2021-12-10T10:38:19.518Z,,,,,,,,,,,,,,,,53,,,,,,,,,,,,,,295.2109999999084,,response,,,99,,,,,,Space,keypress(Space),,,,,---- -- ----- -- ------ - ------- --- ----------<br>------------- ------ ------ ---- ---- ------- ----- -- ----<br>-------- ------- -- ---------- --- - --- ----- ----- ----<br>---- --- --- ----- --- ---- ---- ------- ----- ---- whether<br>--- --- -- ----- -- --- ---- -- --- ---- -- ------ ------<br>--- ----- -- ----,54176.5,54175.89999999991,53864.026,53864.89999999991,53880.689,54180.732,,38,whether
screen,html.Screen,0_2_0_1_39,2021-12-10T10:38:19.822Z,,,,,,,,,,,,,,,,53,,,,,,,,,,,,,,299.16799999990326,,response,,,99,,,,,,Space,keypress(Space),,,,,---- -- ----- -- ------ - ------- --- ----------<br>------------- ------ ------ ---- ---- ------- ----- -- ----<br>-------- ------- -- ---------- --- - --- ----- ----- ----<br>---- --- --- ----- --- ---- ---- ------- ----- ---- -------<br>you --- -- ----- -- --- ---- -- --- ---- -- ------ ------<br>--- ----- -- ----,54480.59999999963,54479.89999999991,54164.067,54176.69999999972,54180.732,54497.431,,39,you
screen,html.Screen,0_2_0_1_40,2021-12-10T10:38:20.094Z,,,,,,,,,,,,,,,,53,,,,,,,,,,,,,,254.46899999991,,response,,,99,,,,,,Space,keypress(Space),,,,,---- -- ----- -- ------ - ------- --- ----------<br>------------- ------ ------ ---- ---- ------- ----- -- ----<br>-------- ------- -- ---------- --- - --- ----- ----- ----<br>---- --- --- ----- --- ---- ---- ------- ----- ---- -------<br>--- are -- ----- -- --- ---- -- --- ---- -- ------ ------<br>--- ----- -- ----,54752.59999999963,54751.89999999991,54480.765,54480.69999999972,54497.431,54763.971,,40,are
screen,html.Screen,0_2_0_1_41,2021-12-10T10:38:20.398Z,,,,,,,,,,,,,,,,53,,,,,,,,,,,,,,291.92899999990914,,response,,,99,,,,,,Space,keypress(Space),,,,,---- -- ----- -- ------ - ------- --- ----------<br>------------- ------ ------ ---- ---- ------- ----- -- ----<br>-------- ------- -- ---------- --- - --- ----- ----- ----<br>---- --- --- ----- --- ---- ---- ------- ----- ---- -------<br>--- --- as ----- -- --- ---- -- --- ---- -- ------ ------<br>--- ----- -- ----,55056.5,55055.89999999991,54747.308,54752.799999999814,54763.971,55064.068,,41,as
screen,html.Screen,0_2_0_1_42,2021-12-10T10:38:20.726Z,,,,,,,,,,,,,,,,53,,,,,,,,,,,,,,319.83199999990757,,response,,,99,,,,,,Space,keypress(Space),,,,,---- -- ----- -- ------ - ------- --- ----------<br>------------- ------ ------ ---- ---- ------- ----- -- ----<br>-------- ------- -- ---------- --- - --- ----- ----- ----<br>---- --- --- ----- --- ---- ---- ------- ----- ---- -------<br>--- --- -- close -- --- ---- -- --- ---- -- ------ ------<br>--- ----- -- ----,55384.5,55383.89999999991,55047.402,55056.69999999972,55064.068,55397.344,,42,close
screen,html.Screen,0_2_0_1_43,2021-12-10T10:38:21.062Z,,,,,,,,,,,,,,,,53,,,,,,,,,,,,,,322.4559999998164,,response,,,99,,,,,,Space,keypress(Space),,,,,---- -- ----- -- ------ - ------- --- ----------<br>------------- ------ ------ ---- ---- ------- ----- -- ----<br>-------- ------- -- ---------- --- - --- ----- ----- ----<br>---- --- --- ----- --- ---- ---- ------- ----- ---- -------<br>--- --- -- ----- as --- ---- -- --- ---- -- ------ ------<br>--- ----- -- ----,55720.39999999991,55719.799999999814,55380.679,55384.59999999963,55397.344,55730.632,,43,as
screen,html.Screen,0_2_0_1_44,2021-12-10T10:38:21.398Z,,,,,,,,,,,,,,,,53,,,,,,,,,,,,,,325.16799999981595,,response,,,99,,,,,,Space,keypress(Space),,,,,---- -- ----- -- ------ - ------- --- ----------<br>------------- ------ ------ ---- ---- ------- ----- -- ----<br>-------- ------- -- ---------- --- - --- ----- ----- ----<br>---- --- --- ----- --- ---- ---- ------- ----- ---- -------<br>--- --- -- ----- -- you ---- -- --- ---- -- ------ ------<br>--- ----- -- ----,56056.39999999991,56055.799999999814,55713.967,55720.59999999963,55730.632,56063.87,,44,you
screen,html.Screen,0_2_0_1_45,2021-12-10T10:38:21.678Z,,,,,,,,,,,,,,,,53,,,,,,,,,,,,,,271.9299999998111,,response,,,99,,,,,,Space,keypress(Space),,,,,---- -- ----- -- ------ - ------- --- ----------<br>------------- ------ ------ ---- ---- ------- ----- -- ----<br>-------- ------- -- ---------- --- - --- ----- ----- ----<br>---- --- --- ----- --- ---- ---- ------- ----- ---- -------<br>--- --- -- ----- -- --- want -- --- ---- -- ------ ------<br>--- ----- -- ----,56336.5,56335.799999999814,56047.207,56056.59999999963,56063.87,56347.254,,45,want
screen,html.Screen,0_2_0_1_46,2021-12-10T10:38:21.974Z,,,,,,,,,,,,,,,,53,,,,,,,,,,,,,,284.4459999997198,,response,,,99,,,,,,Space,keypress(Space),,,,,---- -- ----- -- ------ - ------- --- ----------<br>------------- ------ ------ ---- ---- ------- ----- -- ----<br>-------- ------- -- ---------- --- - --- ----- ----- ----<br>---- --- --- ----- --- ---- ---- ------- ----- ---- -------<br>--- --- -- ----- -- --- ---- to --- ---- -- ------ ------<br>--- ----- -- ----,56632.299999999814,56631.69999999972,56330.589,56336.59999999963,56347.254,56647.276,,46,to
screen,html.Screen,0_2_0_1_47,2021-12-10T10:38:22.302Z,,,,,,,,,,,,,,,,53,,,,,,,,,,,,,,312.5239999998157,,response,,,99,,,,,,Space,keypress(Space),,,,,"---- -- ----- -- ------ - ------- --- ----------<br>------------- ------ ------ ---- ---- ------- ----- -- ----<br>-------- ------- -- ---------- --- - --- ----- ----- ----<br>---- --- --- ----- --- ---- ---- ------- ----- ---- -------<br>--- --- -- ----- -- --- ---- -- be, ---- -- ------ ------<br>--- ----- -- ----",56960.5,56959.799999999814,56630.61,56632.5,56647.276,56963.838,,47,"be,"
screen,html.Screen,0_2_0_1_48,2021-12-10T10:38:22.686Z,,,,,,,,,,,,,,,,53,,,,,,,,,,,,,,379.96199999981036,,response,,,99,,,,,,Space,keypress(Space),,,,,---- -- ----- -- ------ - ------- --- ----------<br>------------- ------ ------ ---- ---- ------- ----- -- ----<br>-------- ------- -- ---------- --- - --- ----- ----- ----<br>---- --- --- ----- --- ---- ---- ------- ----- ---- -------<br>--- --- -- ----- -- --- ---- -- --- even -- ------ ------<br>--- ----- -- ----,57344.299999999814,57343.799999999814,56947.174,56960.59999999963,56963.838,57347.175,,48,even
screen,html.Screen,0_2_0_1_49,2021-12-10T10:38:23.022Z,,,,,,,,,,,,,,,,53,,,,,,,,,,,,,,332.6249999998108,,response,,,99,,,,,,Space,keypress(Space),,,,,---- -- ----- -- ------ - ------- --- ----------<br>------------- ------ ------ ---- ---- ------- ----- -- ----<br>-------- ------- -- ---------- --- - --- ----- ----- ----<br>---- --- --- ----- --- ---- ---- ------- ----- ---- -------<br>--- --- -- ----- -- --- ---- -- --- ---- if ------ ------<br>--- ----- -- ----,57680.299999999814,57679.799999999814,57330.51,57344.5,57347.175,57697.207,,49,if
screen,html.Screen,0_2_0_1_50,2021-12-10T10:38:23.334Z,,,,,,,,,,,,,,,,53,,,,,,,,,,,,,,294.49299999971845,,response,,,99,,,,,,Space,keypress(Space),,,,,---- -- ----- -- ------ - ------- --- ----------<br>------------- ------ ------ ---- ---- ------- ----- -- ----<br>-------- ------- -- ---------- --- - --- ----- ----- ----<br>---- --- --- ----- --- ---- ---- ------- ----- ---- -------<br>--- --- -- ----- -- --- ---- -- --- ---- -- that's ------<br>--- ----- -- ----,57992.19999999972,57991.69999999972,57680.541,57680.39999999991,57697.207,57997.101,,50,that's
screen,html.Screen,0_2_0_1_51,2021-12-10T10:38:23.654Z,,,,,,,,,,,,,,,,53,,,,,,,,,,,,,,314.5989999997182,,response,,,99,,,,,,Space,keypress(Space),,,,,---- -- ----- -- ------ - ------- --- ----------<br>------------- ------ ------ ---- ---- ------- ----- -- ----<br>-------- ------- -- ---------- --- - --- ----- ----- ----<br>---- --- --- ----- --- ---- ---- ------- ----- ---- -------<br>--- --- -- ----- -- --- ---- -- --- ---- -- ------ really<br>--- ----- -- ----,58312.39999999991,58311.69999999972,57980.437,57992.39999999991,57997.101,58313.787,,51,really
screen,html.Screen,0_2_0_1_52,2021-12-10T10:38:24.030Z,,,,,,,,,,,,,,,,53,,,,,,,,,,,,,,373.81299999963085,,response,,,99,,,,,,Space,keypress(Space),,,,,---- -- ----- -- ------ - ------- --- ----------<br>------------- ------ ------ ---- ---- ------- ----- -- ----<br>-------- ------- -- ---------- --- - --- ----- ----- ----<br>---- --- --- ----- --- ---- ---- ------- ----- ---- -------<br>--- --- -- ----- -- --- ---- -- --- ---- -- ------ ------<br>not ----- -- ----,58688.19999999972,58687.59999999963,58297.122,58312.5,58313.787,58697.082,,52,not
screen,html.Screen,0_2_0_1_53,2021-12-10T10:38:24.318Z,,,,,,,,,,,,,,,,53,,,,,,,,,,,,,,278.5179999996253,,response,,,99,,,,,,Space,keypress(Space),,,,,---- -- ----- -- ------ - ------- --- ----------<br>------------- ------ ------ ---- ---- ------- ----- -- ----<br>-------- ------- -- ---------- --- - --- ----- ----- ----<br>---- --- --- ----- --- ---- ---- ------- ----- ---- -------<br>--- --- -- ----- -- --- ---- -- --- ---- -- ------ ------<br>--- close -- ----,58976.19999999972,58975.59999999963,58680.417,58688.39999999991,58697.082,58980.449,,53,close
screen,html.Screen,0_2_0_1_54,2021-12-10T10:38:24.710Z,,,,,,,,,,,,,,,,53,,,,,,,,,,,,,,387.15099999962695,,response,,,99,,,,,,Space,keypress(Space),,,,,---- -- ----- -- ------ - ------- --- ----------<br>------------- ------ ------ ---- ---- ------- ----- -- ----<br>-------- ------- -- ---------- --- - --- ----- ----- ----<br>---- --- --- ----- --- ---- ---- ------- ----- ---- -------<br>--- --- -- ----- -- --- ---- -- --- ---- -- ------ ------<br>--- ----- at ----,59368.299999999814,59367.59999999963,58963.783,58976.299999999814,58980.449,59380.327,,54,at
screen,html.Screen,0_2_0_1_55,2021-12-10T10:38:25.070Z,,,,,,,,,,,,,,,,53,,,,,,,,,,,,,,347.27299999963,,response,,,99,,,,,,Space,keypress(Space),,,,,---- -- ----- -- ------ - ------- --- ----------<br>------------- ------ ------ ---- ---- ------- ----- -- ----<br>-------- ------- -- ---------- --- - --- ----- ----- ----<br>---- --- --- ----- --- ---- ---- ------- ----- ---- -------<br>--- --- -- ----- -- --- ---- -- --- ---- -- ------ ------<br>--- ----- -- all.,59728.09999999963,59727.59999999963,59363.663,59368.5,59380.327,59747.016,,55,all.
Item 99,flow.Loop,0_2_0_1,2021-12-10T10:38:25.073Z,,,,,,,,,,,,,,,,,,,,,,,,,,,,,,21045.780999999624,,completion,,,,C,,,,,,,,,,silence,,59731,59727.59999999963,38665.154,38669.39999999991,38681.819,59747.016,,,
Question 1,html.Screen,0_2_0_2,2021-12-10T10:38:37.997Z,,,,,,,,,,,,,,,,,,,,,,,,,,,true,FALSE,,12903.684000000183,,response,,,99,C,,,,,FALSE,click #choice-2,,,,silence,,72651.70000000019,72650.70000000019,59730.351,59731.19999999972,59747.016,72662.662,,,
Question 2,html.Screen,0_2_0_3,2021-12-10T10:38:42.584Z,,,,,,,,,,,,,,,,,,,,,,,,,,,true,TRUE,,4575.338000000003,,response,,,99,C,,,,,TRUE,click #choice-1,,,,silence,,77238.70000000019,77238,72645.998,72651.89999999944,72662.662,77245.297,,,
Item 99,flow.Sequence,0_2_0,2021-12-10T10:38:42.584Z,,,,,,,,,,,,,,,,,,,,,,,,,,,,,,48555.477,,completion,,,,,,,,,,,,,,,,77239.09999999963,77238,28665.858,28668,28682.523,77245.297,,,
Holding screen,html.Screen,0_2_1_0,2021-12-10T10:38:52.575Z,,,,,,,,,,,,,,,,,,,,,,,,,,,,,,9999.797999999995,,timeout,,,,,,,,,,,,,,,,87229.20000000019,87228.43,77228.646,77239.29999999981,77245.297,87245.095,,,
screen,html.Screen,0_2_1_1_0,2021-12-10T10:38:53.896Z,,,,,,,,,,,,,,,,54,,,,,,,,,,,,,,1304.80499999944,,response,,,100,,,,,,Space,keypress(Space),,,,,At --- ---- --- ------ ----- ------- ---- -- --- ------- --<br>------- ---------- ------ -- ----- -- ----- -- ---- ------<br>--- ----- --- --- ------ -------- ----- --- ------ ----- --<br>----- ----- ---------- --- --- ------ ------ ---- -- ------<br>------- --- ------ ----- --- ---- ------- -- ---- --- --<br>------- ------,88550.5,88549.89999999944,87228.43,87229.5,87245.095,88561.636,,0,At
screen,html.Screen,0_2_1_1_1,2021-12-10T10:38:54.231Z,,,,,,,,,,,,,,,,54,,,,,,,,,,,,,,323.8640000000014,,response,,,100,,,,,,Space,keypress(Space),,,,,-- the ---- --- ------ ----- ------- ---- -- --- ------- --<br>------- ---------- ------ -- ----- -- ----- -- ---- ------<br>--- ----- --- --- ------ -------- ----- --- ------ ----- --<br>----- ----- ---------- --- --- ------ ------ ---- -- ------<br>------- --- ------ ----- --- ---- ------- -- ---- --- --<br>------- ------,88886.20000000019,88885.5,88544.971,88550.70000000019,88561.636,88894.898,,1,the
screen,html.Screen,0_2_1_1_2,2021-12-10T10:38:54.535Z,,,,,,,,,,,,,,,,54,,,,,,,,,,,,,,294.60199999999895,,response,,,100,,,,,,Space,keypress(Space),,,,,-- --- time --- ------ ----- ------- ---- -- --- ------- --<br>------- ---------- ------ -- ----- -- ----- -- ---- ------<br>--- ----- --- --- ------ -------- ----- --- ------ ----- --<br>----- ----- ---------- --- --- ------ ------ ---- -- ------<br>------- --- ------ ----- --- ---- ------- -- ---- --- --<br>------- ------,89190.09999999963,89189.5,88878.234,88886.39999999944,88894.898,89194.957,,2,time
screen,html.Screen,0_2_1_1_3,2021-12-10T10:38:54.887Z,,,,,,,,,,,,,,,,54,,,,,,,,,,,,,,346.5430000000051,,response,,,100,,,,,,Space,keypress(Space),,,,,-- --- ---- the ------ ----- ------- ---- -- --- ------- --<br>------- ---------- ------ -- ----- -- ----- -- ---- ------<br>--- ----- --- --- ------ -------- ----- --- ------ ----- --<br>----- ----- ---------- --- --- ------ ------ ---- -- ------<br>------- --- ------ ----- --- ---- ------- -- ---- --- --<br>------- ------,89542.09999999963,89541.5,89178.292,89190.20000000019,89194.957,89544.878,,3,the
screen,html.Screen,0_2_1_1_4,2021-12-10T10:38:55.167Z,,,,,,,,,,,,,,,,54,,,,,,,,,,,,,,276.622000000003,,response,,,100,,,,,,Space,keypress(Space),,,,,-- --- ---- --- French ----- ------- ---- -- --- ------- --<br>------- ---------- ------ -- ----- -- ----- -- ---- ------<br>--- ----- --- --- ------ -------- ----- --- ------ ----- --<br>----- ----- ---------- --- --- ------ ------ ---- -- ------<br>------- --- ------ ----- --- ---- ------- -- ---- --- --<br>------- ------,89822,89821.5,89528.214,89542.29999999981,89544.878,89828.181,,4,French
screen,html.Screen,0_2_1_1_5,2021-12-10T10:38:55.759Z,,,,,,,,,,,,,,,,54,,,,,,,,,,,,,,585.3190000000031,,response,,,100,,,,,,Space,keypress(Space),,,,,-- --- ---- --- ------ crown ------- ---- -- --- ------- --<br>------- ---------- ------ -- ----- -- ----- -- ---- ------<br>--- ----- --- --- ------ -------- ----- --- ------ ----- --<br>----- ----- ---------- --- --- ------ ------ ---- -- ------<br>------- --- ------ ----- --- ---- ------- -- ---- --- --<br>------- ------,90414.20000000019,90413.5,89811.517,89822.20000000019,89828.181,90428.223,,5,crown
screen,html.Screen,0_2_1_1_6,2021-12-10T10:38:56.087Z,,,,,,,,,,,,,,,,54,,,,,,,,,,,,,,313.17699999944307,,response,,,100,,,,,,Space,keypress(Space),,,,,-- --- ---- --- ------ ----- secured ---- -- --- ------- --<br>------- ---------- ------ -- ----- -- ----- -- ---- ------<br>--- ----- --- --- ------ -------- ----- --- ------ ----- --<br>----- ----- ---------- --- --- ------ ------ ---- -- ------<br>------- --- ------ ----- --- ---- ------- -- ---- --- --<br>------- ------,90741.89999999944,90741.39999999944,90411.557,90414.29999999981,90428.223,90744.934,,6,secured
screen,html.Screen,0_2_1_1_7,2021-12-10T10:38:56.471Z,,,,,,,,,,,,,,,,54,,,,,,,,,,,,,,380.3659999998199,,response,,,100,,,,,,Space,keypress(Space),,,,,-- --- ---- --- ------ ----- ------- much -- --- ------- --<br>------- ---------- ------ -- ----- -- ----- -- ---- ------<br>--- ----- --- --- ------ -------- ----- --- ------ ----- --<br>----- ----- ---------- --- --- ------ ------ ---- -- ------<br>------- --- ------ ----- --- ---- ------- -- ---- --- --<br>------- ------,91126,91125.29999999981,90728.267,90742.09999999963,90744.934,91128.154,,7,much
screen,html.Screen,0_2_1_1_8,2021-12-10T10:38:56.895Z,,,,,,,,,,,,,,,,54,,,,,,,,,,,,,,421.14599999981874,,response,,,100,,,,,,Space,keypress(Space),,,,,-- --- ---- --- ------ ----- ------- ---- of --- ------- --<br>------- ---------- ------ -- ----- -- ----- -- ---- ------<br>--- ----- --- --- ------ -------- ----- --- ------ ----- --<br>----- ----- ---------- --- --- ------ ------ ---- -- ------<br>------- --- ------ ----- --- ---- ------- -- ---- --- --<br>------- ------,91550,91549.29999999981,91111.489,91126.09999999963,91128.154,91561.353,,8,of
screen,html.Screen,0_2_1_1_9,2021-12-10T10:38:57.183Z,,,,,,,,,,,,,,,,54,,,,,,,,,,,,,,275.94699999981094,,response,,,100,,,,,,Space,keypress(Space),,,,,-- --- ---- --- ------ ----- ------- ---- -- its ------- --<br>------- ---------- ------ -- ----- -- ----- -- ---- ------<br>--- ----- --- --- ------ -------- ----- --- ------ ----- --<br>----- ----- ---------- --- --- ------ ------ ---- -- ------<br>------- --- ------ ----- --- ---- ------- -- ---- --- --<br>------- ------,91837.89999999944,91837.29999999981,91544.69,91550.09999999963,91561.353,91844.803,,9,its
screen,html.Screen,0_2_1_1_10,2021-12-10T10:38:57.431Z,,,,,,,,,,,,,,,,54,,,,,,,,,,,,,,240.49699999981385,,response,,,100,,,,,,Space,keypress(Space),,,,,-- --- ---- --- ------ ----- ------- ---- -- --- revenue --<br>------- ---------- ------ -- ----- -- ----- -- ---- ------<br>--- ----- --- --- ------ -------- ----- --- ------ ----- --<br>----- ----- ---------- --- --- ------ ------ ---- -- ------<br>------- --- ------ ----- --- ---- ------- -- ---- --- --<br>------- ------,92085.89999999944,92085.29999999981,91828.137,91838,91844.803,92094.756,,10,revenue
screen,html.Screen,0_2_1_1_11,2021-12-10T10:38:57.911Z,,,,,,,,,,,,,,,,54,,,,,,,,,,,,,,470.64399999944726,,response,,,100,,,,,,Space,keypress(Space),,,,,-- --- ---- --- ------ ----- ------- ---- -- --- ------- by<br>------- ---------- ------ -- ----- -- ----- -- ---- ------<br>--- ----- --- --- ------ -------- ----- --- ------ ----- --<br>----- ----- ---------- --- --- ------ ------ ---- -- ------<br>------- --- ------ ----- --- ---- ------- -- ---- --- --<br>------- ------,92565.89999999944,92565.39999999944,92078.091,92086.09999999963,92094.756,92577.985,,11,by
screen,html.Screen,0_2_1_1_12,2021-12-10T10:38:58.255Z,,,,,,,,,,,,,,,,54,,,,,,,,,,,,,,331.2150000001857,,response,,,100,,,,,,Space,keypress(Space),,,,,-- --- ---- --- ------ ----- ------- ---- -- --- ------- --<br>issuing ---------- ------ -- ----- -- ----- -- ---- ------<br>--- ----- --- --- ------ -------- ----- --- ------ ----- --<br>----- ----- ---------- --- --- ------ ------ ---- -- ------<br>------- --- ------ ----- --- ---- ------- -- ---- --- --<br>------- ------,92909.79999999981,92909.20000000019,92561.321,92566.20000000019,92577.985,92911.346,,12,issuing
screen,html.Screen,0_2_1_1_13,2021-12-10T10:38:58.607Z,,,,,,,,,,,,,,,,54,,,,,,,,,,,,,,349.85400000018126,,response,,,100,,,,,,Space,keypress(Space),,,,,-- --- ---- --- ------ ----- ------- ---- -- --- ------- --<br>------- government ------ -- ----- -- ----- -- ---- ------<br>--- ----- --- --- ------ -------- ----- --- ------ ----- --<br>----- ----- ---------- --- --- ------ ------ ---- -- ------<br>------- --- ------ ----- --- ---- ------- -- ---- --- --<br>------- ------,93261.89999999944,93261.20000000019,92894.681,92910,92911.346,93278.01,,13,government
screen,html.Screen,0_2_1_1_14,2021-12-10T10:38:58.967Z,,,,,,,,,,,,,,,,54,,,,,,,,,,,,,,343.1900000001915,,response,,,100,,,,,,Space,keypress(Space),,,,,-- --- ---- --- ------ ----- ------- ---- -- --- ------- --<br>------- ---------- bonds. -- ----- -- ----- -- ---- ------<br>--- ----- --- --- ------ -------- ----- --- ------ ----- --<br>----- ----- ---------- --- --- ------ ------ ---- -- ------<br>------- --- ------ ----- --- ---- ------- -- ---- --- --<br>------- ------,93621.79999999981,93621.20000000019,93261.345,93262,93278.01,93627.912,,14,bonds.
screen,html.Screen,0_2_1_1_15,2021-12-10T10:38:59.447Z,,,,,,,,,,,,,,,,54,,,,,,,,,,,,,,473.28800000018964,,response,,,100,,,,,,Space,keypress(Space),,,,,-- --- ---- --- ------ ----- ------- ---- -- --- ------- --<br>------- ---------- ------ In ----- -- ----- -- ---- ------<br>--- ----- --- --- ------ -------- ----- --- ------ ----- --<br>----- ----- ---------- --- --- ------ ------ ---- -- ------<br>------- --- ------ ----- --- ---- ------- -- ---- --- --<br>------- ------,94101.79999999981,94101.20000000019,93611.248,93621.89999999944,93627.912,94111.317,,15,In
screen,html.Screen,0_2_1_1_16,2021-12-10T10:38:59.735Z,,,,,,,,,,,,,,,,54,,,,,,,,,,,,,,277.782999999632,,response,,,100,,,,,,Space,keypress(Space),,,,,"-- --- ---- --- ------ ----- ------- ---- -- --- ------- --<br>------- ---------- ------ -- 1727, -- ----- -- ---- ------<br>--- ----- --- --- ------ -------- ----- --- ------ ----- --<br>----- ----- ---------- --- --- ------ ------ ---- -- ------<br>------- --- ------ ----- --- ---- ------- -- ---- --- --<br>------- ------",94389.70000000019,94389.09999999963,94094.651,94101.89999999944,94111.317,94394.601,,16,"1727,"
screen,html.Screen,0_2_1_1_17,2021-12-10T10:39:00.503Z,,,,,,,,,,,,,,,,54,,,,,,,,,,,,,,762.4989999996324,,response,,,100,,,,,,Space,keypress(Space),,,,,-- --- ---- --- ------ ----- ------- ---- -- --- ------- --<br>------- ---------- ------ -- ----- in ----- -- ---- ------<br>--- ----- --- --- ------ -------- ----- --- ------ ----- --<br>----- ----- ---------- --- --- ------ ------ ---- -- ------<br>------- --- ------ ----- --- ---- ------- -- ---- --- --<br>------- ------,95157.79999999981,95157.09999999963,94377.936,94389.89999999944,94394.601,95161.031,,17,in
screen,html.Screen,0_2_1_1_18,2021-12-10T10:39:01.279Z,,,,,,,,,,,,,,,,54,,,,,,,,,,,,,,772.0689999996248,,response,,,100,,,,,,Space,keypress(Space),,,,,-- --- ---- --- ------ ----- ------- ---- -- --- ------- --<br>------- ---------- ------ -- ----- -- order -- ---- ------<br>--- ----- --- --- ------ -------- ----- --- ------ ----- --<br>----- ----- ---------- --- --- ------ ------ ---- -- ------<br>------- --- ------ ----- --- ---- ------- -- ---- --- --<br>------- ------,95933.70000000019,95933.09999999963,95144.368,95158,95161.031,95944.536,,18,order
screen,html.Screen,0_2_1_1_19,2021-12-10T10:39:02.103Z,,,,,,,,,,,,,,,,54,,,,,,,,,,,,,,812.5639999996347,,response,,,100,,,,,,Space,keypress(Space),,,,,-- --- ---- --- ------ ----- ------- ---- -- --- ------- --<br>------- ---------- ------ -- ----- -- ----- to ---- ------<br>--- ----- --- --- ------ -------- ----- --- ------ ----- --<br>----- ----- ---------- --- --- ------ ------ ---- -- ------<br>------- --- ------ ----- --- ---- ------- -- ---- --- --<br>------- ------,96757.59999999963,96757.09999999963,95927.87,95933.89999999944,95944.536,96761.166,,19,to
screen,html.Screen,0_2_1_1_20,2021-12-10T10:39:02.487Z,,,,,,,,,,,,,,,,54,,,,,,,,,,,,,,379.73399999944377,,response,,,100,,,,,,Space,keypress(Space),,,,,-- --- ---- --- ------ ----- ------- ---- -- --- ------- --<br>------- ---------- ------ -- ----- -- ----- -- save ------<br>--- ----- --- --- ------ -------- ----- --- ------ ----- --<br>----- ----- ---------- --- --- ------ ------ ---- -- ------<br>------- --- ------ ----- --- ---- ------- -- ---- --- --<br>------- ------,97141.59999999963,97140.89999999944,96744.5,96757.79999999981,96761.166,97144.313,,20,save
screen,html.Screen,0_2_1_1_21,2021-12-10T10:39:02.807Z,,,,,,,,,,,,,,,,54,,,,,,,,,,,,,,316.58699999944656,,response,,,100,,,,,,Space,keypress(Space),,,,,"-- --- ---- --- ------ ----- ------- ---- -- --- ------- --<br>------- ---------- ------ -- ----- -- ----- -- ---- money,<br>--- ----- --- --- ------ -------- ----- --- ------ ----- --<br>----- ----- ---------- --- --- ------ ------ ---- -- ------<br>------- --- ------ ----- --- ---- ------- -- ---- --- --<br>------- ------",97461.5,97460.89999999944,97127.649,97141.70000000019,97144.313,97477.723,,21,"money,"
screen,html.Screen,0_2_1_1_22,2021-12-10T10:39:03.151Z,,,,,,,,,,,,,,,,54,,,,,,,,,,,,,,327.17699999944307,,response,,,100,,,,,,Space,keypress(Space),,,,,-- --- ---- --- ------ ----- ------- ---- -- --- ------- --<br>------- ---------- ------ -- ----- -- ----- -- ---- ------<br>the ----- --- --- ------ -------- ----- --- ------ ----- --<br>----- ----- ---------- --- --- ------ ------ ---- -- ------<br>------- --- ------ ----- --- ---- ------- -- ---- --- --<br>------- ------,97805.39999999944,97804.89999999944,97461.058,97461.59999999963,97477.723,97810.985,,22,the
screen,html.Screen,0_2_1_1_23,2021-12-10T10:39:03.431Z,,,,,,,,,,,,,,,,54,,,,,,,,,,,,,,273.81499999981315,,response,,,100,,,,,,Space,keypress(Space),,,,,-- --- ---- --- ------ ----- ------- ---- -- --- ------- --<br>------- ---------- ------ -- ----- -- ----- -- ---- ------<br>--- state --- --- ------ -------- ----- --- ------ ----- --<br>----- ----- ---------- --- --- ------ ------ ---- -- ------<br>------- --- ------ ----- --- ---- ------- -- ---- --- --<br>------- ------,98085.5,98084.79999999981,97794.321,97805.59999999963,97810.985,98094.347,,23,state
screen,html.Screen,0_2_1_1_24,2021-12-10T10:39:03.671Z,,,,,,,,,,,,,,,,54,,,,,,,,,,,,,,230.5529999994469,,response,,,100,,,,,,Space,keypress(Space),,,,,-- --- ---- --- ------ ----- ------- ---- -- --- ------- --<br>------- ---------- ------ -- ----- -- ----- -- ---- ------<br>--- ----- cut --- ------ -------- ----- --- ------ ----- --<br>----- ----- ---------- --- --- ------ ------ ---- -- ------<br>------- --- ------ ----- --- ---- ------- -- ---- --- --<br>------- ------,98325.39999999944,98324.89999999944,98077.682,98085.59999999963,98094.347,98327.627,,24,cut
screen,html.Screen,0_2_1_1_25,2021-12-10T10:39:04.079Z,,,,,,,,,,,,,,,,54,,,,,,,,,,,,,,405.57300000019313,,response,,,100,,,,,,Space,keypress(Space),,,,,-- --- ---- --- ------ ----- ------- ---- -- --- ------- --<br>------- ---------- ------ -- ----- -- ----- -- ---- ------<br>--- ----- --- the ------ -------- ----- --- ------ ----- --<br>----- ----- ---------- --- --- ------ ------ ---- -- ------<br>------- --- ------ ----- --- ---- ------- -- ---- --- --<br>------- ------,98733.79999999981,98733.20000000019,98310.963,98325.59999999963,98327.627,98744.223,,25,the
screen,html.Screen,0_2_1_1_26,2021-12-10T10:39:04.447Z,,,,,,,,,,,,,,,,54,,,,,,,,,,,,,,356.5769999998156,,response,,,100,,,,,,Space,keypress(Space),,,,,-- --- ---- --- ------ ----- ------- ---- -- --- ------- --<br>------- ---------- ------ -- ----- -- ----- -- ---- ------<br>--- ----- --- --- bonds' -------- ----- --- ------ ----- --<br>----- ----- ---------- --- --- ------ ------ ---- -- ------<br>------- --- ------ ----- --- ---- ------- -- ---- --- --<br>------- ------,99101.29999999981,99100.79999999981,98727.559,98734,98744.223,99111.012,,26,bonds'
screen,html.Screen,0_2_1_1_27,2021-12-10T10:39:04.903Z,,,,,,,,,,,,,,,,54,,,,,,,,,,,,,,445.7879999998113,,response,,,100,,,,,,Space,keypress(Space),,,,,-- --- ---- --- ------ ----- ------- ---- -- --- ------- --<br>------- ---------- ------ -- ----- -- ----- -- ---- ------<br>--- ----- --- --- ------ interest ----- --- ------ ----- --<br>----- ----- ---------- --- --- ------ ------ ---- -- ------<br>------- --- ------ ----- --- ---- ------- -- ---- --- --<br>------- ------,99557.39999999944,99556.79999999981,99094.345,99101.5,99111.012,99560.834,,27,interest
screen,html.Screen,0_2_1_1_28,2021-12-10T10:39:05.423Z,,,,,,,,,,,,,,,,54,,,,,,,,,,,,,,515.8660000001837,,response,,,100,,,,,,Space,keypress(Space),,,,,-- --- ---- --- ------ ----- ------- ---- -- --- ------- --<br>------- ---------- ------ -- ----- -- ----- -- ---- ------<br>--- ----- --- --- ------ -------- rate. --- ------ ----- --<br>----- ----- ---------- --- --- ------ ------ ---- -- ------<br>------- --- ------ ----- --- ---- ------- -- ---- --- --<br>------- ------,100077.39999999944,100076.70000000019,99544.17,99557.59999999963,99560.834,100094.236,,28,rate.
screen,html.Screen,0_2_1_1_29,2021-12-10T10:39:05.775Z,,,,,,,,,,,,,,,,54,,,,,,,,,,,,,,334.46400000018184,,response,,,100,,,,,,Space,keypress(Space),,,,,-- --- ---- --- ------ ----- ------- ---- -- --- ------- --<br>------- ---------- ------ -- ----- -- ----- -- ---- ------<br>--- ----- --- --- ------ -------- ----- The ------ ----- --<br>----- ----- ---------- --- --- ------ ------ ---- -- ------<br>------- --- ------ ----- --- ---- ------- -- ---- --- --<br>------- ------,100429.5,100428.70000000019,100077.57,100077.70000000019,100094.236,100444.173,,29,The
screen,html.Screen,0_2_1_1_30,2021-12-10T10:39:06.127Z,,,,,,,,,,,,,,,,54,,,,,,,,,,,,,,336.52700000019104,,response,,,100,,,,,,Space,keypress(Space),,,,,-- --- ---- --- ------ ----- ------- ---- -- --- ------- --<br>------- ---------- ------ -- ----- -- ----- -- ---- ------<br>--- ----- --- --- ------ -------- ----- --- market ----- --<br>----- ----- ---------- --- --- ------ ------ ---- -- ------<br>------- --- ------ ----- --- ---- ------- -- ---- --- --<br>------- ------,100781.29999999981,100780.70000000019,100427.508,100429.70000000019,100444.173,100794.157,,30,market
screen,html.Screen,0_2_1_1_31,2021-12-10T10:39:06.791Z,,,,,,,,,,,,,,,,54,,,,,,,,,,,,,,650.442999999621,,response,,,100,,,,,,Space,keypress(Space),,,,,-- --- ---- --- ------ ----- ------- ---- -- --- ------- --<br>------- ---------- ------ -- ----- -- ----- -- ---- ------<br>--- ----- --- --- ------ -------- ----- --- ------ value --<br>----- ----- ---------- --- --- ------ ------ ---- -- ------<br>------- --- ------ ----- --- ---- ------- -- ---- --- --<br>------- ------,101445.29999999981,101444.59999999963,100777.492,100781.5,100794.157,101460.761,,31,value
screen,html.Screen,0_2_1_1_32,2021-12-10T10:39:07.190Z,,,,,,,,,,,,,,,,54,,,,,,,,,,,,,,383.83899999962887,,response,,,100,,,,,,Space,keypress(Space),,,,,-- --- ---- --- ------ ----- ------- ---- -- --- ------- --<br>------- ---------- ------ -- ----- -- ----- -- ---- ------<br>--- ----- --- --- ------ -------- ----- --- ------ ----- of<br>----- ----- ---------- --- --- ------ ------ ---- -- ------<br>------- --- ------ ----- --- ---- ------- -- ---- --- --<br>------- ------,101845.20000000019,101844.59999999963,101444.096,101445.39999999944,101460.761,101860.735,,32,of
screen,html.Screen,0_2_1_1_33,2021-12-10T10:39:07.590Z,,,,,,,,,,,,,,,,54,,,,,,,,,,,,,,383.7649999999994,,response,,,100,,,,,,Space,keypress(Space),,,,,-- --- ---- --- ------ ----- ------- ---- -- --- ------- --<br>------- ---------- ------ -- ----- -- ----- -- ---- ------<br>--- ----- --- --- ------ -------- ----- --- ------ ----- --<br>these ----- ---------- --- --- ------ ------ ---- -- ------<br>------- --- ------ ----- --- ---- ------- -- ---- --- --<br>------- ------,102245.20000000019,102244.5,101844.07,101845.29999999981,101860.735,102260.703,,33,these
screen,html.Screen,0_2_1_1_34,2021-12-10T10:39:07.942Z,,,,,,,,,,,,,,,,54,,,,,,,,,,,,,,335.79700000000594,,response,,,100,,,,,,Space,keypress(Space),,,,,-- --- ---- --- ------ ----- ------- ---- -- --- ------- --<br>------- ---------- ------ -- ----- -- ----- -- ---- ------<br>--- ----- --- --- ------ -------- ----- --- ------ ----- --<br>----- bonds ---------- --- --- ------ ------ ---- -- ------<br>------- --- ------ ----- --- ---- ------- -- ---- --- --<br>------- ------,102597.09999999963,102596.5,102244.038,102245.29999999981,102260.703,102610.679,,34,bonds
screen,html.Screen,0_2_1_1_35,2021-12-10T10:39:08.366Z,,,,,,,,,,,,,,,,54,,,,,,,,,,,,,,409.8209999999963,,response,,,100,,,,,,Space,keypress(Space),,,,,"-- --- ---- --- ------ ----- ------- ---- -- --- ------- --<br>------- ---------- ------ -- ----- -- ----- -- ---- ------<br>--- ----- --- --- ------ -------- ----- --- ------ ----- --<br>----- ----- plummeted, --- --- ------ ------ ---- -- ------<br>------- --- ------ ----- --- ---- ------- -- ---- --- --<br>------- ------",103021.09999999963,103020.5,102594.014,102597.29999999981,102610.679,103027.316,,35,"plummeted,"
screen,html.Screen,0_2_1_1_36,2021-12-10T10:39:09.030Z,,,,,,,,,,,,,,,,54,,,,,,,,,,,,,,657.2839999996213,,response,,,100,,,,,,Space,keypress(Space),,,,,-- --- ---- --- ------ ----- ------- ---- -- --- ------- --<br>------- ---------- ------ -- ----- -- ----- -- ---- ------<br>--- ----- --- --- ------ -------- ----- --- ------ ----- --<br>----- ----- ---------- and --- ------ ------ ---- -- ------<br>------- --- ------ ----- --- ---- ------- -- ---- --- --<br>------- ------,103685.09999999963,103684.59999999963,103010.651,103021.29999999981,103027.316,103693.924,,36,and
screen,html.Screen,0_2_1_1_37,2021-12-10T10:39:09.350Z,,,,,,,,,,,,,,,,54,,,,,,,,,,,,,,310.47599999944214,,response,,,100,,,,,,Space,keypress(Space),,,,,-- --- ---- --- ------ ----- ------- ---- -- --- ------- --<br>------- ---------- ------ -- ----- -- ----- -- ---- ------<br>--- ----- --- --- ------ -------- ----- --- ------ ----- --<br>----- ----- ---------- --- the ------ ------ ---- -- ------<br>------- --- ------ ----- --- ---- ------- -- ---- --- --<br>------- ------,104005.09999999963,104004.39999999944,103677.259,103685.39999999944,103693.924,104010.511,,37,the
screen,html.Screen,0_2_1_1_38,2021-12-10T10:39:09.678Z,,,,,,,,,,,,,,,,54,,,,,,,,,,,,,,321.8889999994426,,response,,,100,,,,,,Space,keypress(Space),,,,,-- --- ---- --- ------ ----- ------- ---- -- --- ------- --<br>------- ---------- ------ -- ----- -- ----- -- ---- ------<br>--- ----- --- --- ------ -------- ----- --- ------ ----- --<br>----- ----- ---------- --- --- market ------ ---- -- ------<br>------- --- ------ ----- --- ---- ------- -- ---- --- --<br>------- ------,104333.20000000019,104332.39999999944,103993.847,104005.09999999963,104010.511,104343.869,,38,market
screen,html.Screen,0_2_1_1_39,2021-12-10T10:39:10.086Z,,,,,,,,,,,,,,,,54,,,,,,,,,,,,,,396.53099999943515,,response,,,100,,,,,,Space,keypress(Space),,,,,-- --- ---- --- ------ ----- ------- ---- -- --- ------- --<br>------- ---------- ------ -- ----- -- ----- -- ---- ------<br>--- ----- --- --- ------ -------- ----- --- ------ ----- --<br>----- ----- ---------- --- --- ------ became ---- -- ------<br>------- --- ------ ----- --- ---- ------- -- ---- --- --<br>------- ------,104741.09999999963,104740.39999999944,104327.204,104333.29999999981,104343.869,104743.892,,39,became
screen,html.Screen,0_2_1_1_40,2021-12-10T10:39:10.422Z,,,,,,,,,,,,,,,,54,,,,,,,,,,,,,,332.5079999994341,,response,,,100,,,,,,Space,keypress(Space),,,,,-- --- ---- --- ------ ----- ------- ---- -- --- ------- --<br>------- ---------- ------ -- ----- -- ----- -- ---- ------<br>--- ----- --- --- ------ -------- ----- --- ------ ----- --<br>----- ----- ---------- --- --- ------ ------ wary -- ------<br>------- --- ------ ----- --- ---- ------- -- ---- --- --<br>------- ------,105077,105076.39999999944,104727.226,104741.20000000019,104743.892,105093.78,,40,wary
screen,html.Screen,0_2_1_1_41,2021-12-10T10:39:11.046Z,,,,,,,,,,,,,,,,54,,,,,,,,,,,,,,606.6199999994424,,response,,,100,,,,,,Space,keypress(Space),,,,,-- --- ---- --- ------ ----- ------- ---- -- --- ------- --<br>------- ---------- ------ -- ----- -- ----- -- ---- ------<br>--- ----- --- --- ------ -------- ----- --- ------ ----- --<br>----- ----- ---------- --- --- ------ ------ ---- of ------<br>------- --- ------ ----- --- ---- ------- -- ---- --- --<br>------- ------,105701.09999999963,105700.39999999944,105077.116,105077.09999999963,105093.78,105710.429,,41,of
screen,html.Screen,0_2_1_1_42,2021-12-10T10:39:11.302Z,,,,,,,,,,,,,,,,54,,,,,,,,,,,,,,245.87099999981,,response,,,100,,,,,,Space,keypress(Space),,,,,-- --- ---- --- ------ ----- ------- ---- -- --- ------- --<br>------- ---------- ------ -- ----- -- ----- -- ---- ------<br>--- ----- --- --- ------ -------- ----- --- ------ ----- --<br>----- ----- ---------- --- --- ------ ------ ---- -- French<br>------- --- ------ ----- --- ---- ------- -- ---- --- --<br>------- ------,105956.79999999981,105956.29999999981,105693.764,105701.20000000019,105710.429,105960.416,,42,French
screen,html.Screen,0_2_1_1_43,2021-12-10T10:39:11.630Z,,,,,,,,,,,,,,,,54,,,,,,,,,,,,,,323.8839999998163,,response,,,100,,,,,,Space,keypress(Space),,,,,-- --- ---- --- ------ ----- ------- ---- -- --- ------- --<br>------- ---------- ------ -- ----- -- ----- -- ---- ------<br>--- ----- --- --- ------ -------- ----- --- ------ ----- --<br>----- ----- ---------- --- --- ------ ------ ---- -- ------<br>credit. --- ------ ----- --- ---- ------- -- ---- --- --<br>------- ------,106284.89999999944,106284.29999999981,105943.751,105957.09999999963,105960.416,106293.757,,43,credit.
screen,html.Screen,0_2_1_1_44,2021-12-10T10:39:12.054Z,,,,,,,,,,,,,,,,54,,,,,,,,,,,,,,414.54299999981595,,response,,,100,,,,,,Space,keypress(Space),,,,,-- --- ---- --- ------ ----- ------- ---- -- --- ------- --<br>------- ---------- ------ -- ----- -- ----- -- ---- ------<br>--- ----- --- --- ------ -------- ----- --- ------ ----- --<br>----- ----- ---------- --- --- ------ ------ ---- -- ------<br>------- The ------ ----- --- ---- ------- -- ---- --- --<br>------- ------,106708.89999999944,106708.29999999981,106277.092,106285.09999999963,106293.757,106710.39,,44,The
screen,html.Screen,0_2_1_1_45,2021-12-10T10:39:12.334Z,,,,,,,,,,,,,,,,54,,,,,,,,,,,,,,277.81000000018685,,response,,,100,,,,,,Space,keypress(Space),,,,,-- --- ---- --- ------ ----- ------- ---- -- --- ------- --<br>------- ---------- ------ -- ----- -- ----- -- ---- ------<br>--- ----- --- --- ------ -------- ----- --- ------ ----- --<br>----- ----- ---------- --- --- ------ ------ ---- -- ------<br>------- --- French ----- --- ---- ------- -- ---- --- --<br>------- ------,106988.79999999981,106988.20000000019,106693.725,106709.09999999963,106710.39,106993.643,,45,French
screen,html.Screen,0_2_1_1_46,2021-12-10T10:39:12.630Z,,,,,,,,,,,,,,,,54,,,,,,,,,,,,,,290.5570000001899,,response,,,100,,,,,,Space,keypress(Space),,,,,-- --- ---- --- ------ ----- ------- ---- -- --- ------- --<br>------- ---------- ------ -- ----- -- ----- -- ---- ------<br>--- ----- --- --- ------ -------- ----- --- ------ ----- --<br>----- ----- ---------- --- --- ------ ------ ---- -- ------<br>------- --- ------ state --- ---- ------- -- ---- --- --<br>------- ------,107284.79999999981,107284.20000000019,106976.979,106989,106993.643,107293.714,,46,state
screen,html.Screen,0_2_1_1_47,2021-12-10T10:39:12.934Z,,,,,,,,,,,,,,,,54,,,,,,,,,,,,,,294.48600000017905,,response,,,100,,,,,,Space,keypress(Space),,,,,-- --- ---- --- ------ ----- ------- ---- -- --- ------- --<br>------- ---------- ------ -- ----- -- ----- -- ---- ------<br>--- ----- --- --- ------ -------- ----- --- ------ ----- --<br>----- ----- ---------- --- --- ------ ------ ---- -- ------<br>------- --- ------ ----- was ---- ------- -- ---- --- --<br>------- ------,107588.79999999981,107588.20000000019,107277.048,107285,107293.714,107593.608,,47,was
screen,html.Screen,0_2_1_1_48,2021-12-10T10:39:13.214Z,,,,,,,,,,,,,,,,54,,,,,,,,,,,,,,274.4919999996346,,response,,,100,,,,,,Space,keypress(Space),,,,,-- --- ---- --- ------ ----- ------- ---- -- --- ------- --<br>------- ---------- ------ -- ----- -- ----- -- ---- ------<br>--- ----- --- --- ------ -------- ----- --- ------ ----- --<br>----- ----- ---------- --- --- ------ ------ ---- -- ------<br>------- --- ------ ----- --- left ------- -- ---- --- --<br>------- ------,107868.70000000019,107868.09999999963,107576.944,107588.89999999944,107593.608,107876.961,,48,left
screen,html.Screen,0_2_1_1_49,2021-12-10T10:39:13.526Z,,,,,,,,,,,,,,,,54,,,,,,,,,,,,,,303.2390000001906,,response,,,100,,,,,,Space,keypress(Space),,,,,-- --- ---- --- ------ ----- ------- ---- -- --- ------- --<br>------- ---------- ------ -- ----- -- ----- -- ---- ------<br>--- ----- --- --- ------ -------- ----- --- ------ ----- --<br>----- ----- ---------- --- --- ------ ------ ---- -- ------<br>------- --- ------ ----- --- ---- without -- ---- --- --<br>------- ------,108180.70000000019,108180.20000000019,107860.296,107868.89999999944,107876.961,108193.6,,49,without
screen,html.Screen,0_2_1_1_50,2021-12-10T10:39:13.798Z,,,,,,,,,,,,,,,,54,,,,,,,,,,,,,,258.49999999962165,,response,,,100,,,,,,Space,keypress(Space),,,,,-- --- ---- --- ------ ----- ------- ---- -- --- ------- --<br>------- ---------- ------ -- ----- -- ----- -- ---- ------<br>--- ----- --- --- ------ -------- ----- --- ------ ----- --<br>----- ----- ---------- --- --- ------ ------ ---- -- ------<br>------- --- ------ ----- --- ---- ------- an ---- --- --<br>------- ------,108452.70000000019,108452.09999999963,108176.935,108180.89999999944,108193.6,108460.303,,50,an
screen,html.Screen,0_2_1_1_51,2021-12-10T10:39:14.038Z,,,,,,,,,,,,,,,,54,,,,,,,,,,,,,,231.7969999996276,,response,,,100,,,,,,Space,keypress(Space),,,,,-- --- ---- --- ------ ----- ------- ---- -- --- ------- --<br>------- ---------- ------ -- ----- -- ----- -- ---- ------<br>--- ----- --- --- ------ -------- ----- --- ------ ----- --<br>----- ----- ---------- --- --- ------ ------ ---- -- ------<br>------- --- ------ ----- --- ---- ------- -- easy --- --<br>------- ------,108692.59999999963,108692.09999999963,108443.637,108452.89999999944,108460.303,108693.539,,51,easy
screen,html.Screen,0_2_1_1_52,2021-12-10T10:39:14.318Z,,,,,,,,,,,,,,,,54,,,,,,,,,,,,,,278.8609999994369,,response,,,100,,,,,,Space,keypress(Space),,,,,-- --- ---- --- ------ ----- ------- ---- -- --- ------- --<br>------- ---------- ------ -- ----- -- ----- -- ---- ------<br>--- ----- --- --- ------ -------- ----- --- ------ ----- --<br>----- ----- ---------- --- --- ------ ------ ---- -- ------<br>------- --- ------ ----- --- ---- ------- -- ---- way --<br>------- ------,108972.89999999944,108972.39999999944,108676.875,108692.70000000019,108693.539,108976.875,,52,way
screen,html.Screen,0_2_1_1_53,2021-12-10T10:39:14.654Z,,,,,,,,,,,,,,,,54,,,,,,,,,,,,,,331.32500000018626,,response,,,100,,,,,,Space,keypress(Space),,,,,-- --- ---- --- ------ ----- ------- ---- -- --- ------- --<br>------- ---------- ------ -- ----- -- ----- -- ---- ------<br>--- ----- --- --- ------ -------- ----- --- ------ ----- --<br>----- ----- ---------- --- --- ------ ------ ---- -- ------<br>------- --- ------ ----- --- ---- ------- -- ---- --- of<br>------- ------,109308.79999999981,109308.20000000019,108960.21,108973.09999999963,108976.875,109310.192,,53,of
screen,html.Screen,0_2_1_1_54,2021-12-10T10:39:14.958Z,,,,,,,,,,,,,,,,54,,,,,,,,,,,,,,301.80800000000454,,response,,,100,,,,,,Space,keypress(Space),,,,,-- --- ---- --- ------ ----- ------- ---- -- --- ------- --<br>------- ---------- ------ -- ----- -- ----- -- ---- ------<br>--- ----- --- --- ------ -------- ----- --- ------ ----- --<br>----- ----- ---------- --- --- ------ ------ ---- -- ------<br>------- --- ------ ----- --- ---- ------- -- ---- --- --<br>raising ------,109612.59999999963,109612,109293.527,109308.89999999944,109310.192,109626.892,,54,raising
screen,html.Screen,0_2_1_1_55,2021-12-10T10:39:15.294Z,,,,,,,,,,,,,,,,54,,,,,,,,,,,,,,321.1079999999929,,response,,,100,,,,,,Space,keypress(Space),,,,,-- --- ---- --- ------ ----- ------- ---- -- --- ------- --<br>------- ---------- ------ -- ----- -- ----- -- ---- ------<br>--- ----- --- --- ------ -------- ----- --- ------ ----- --<br>----- ----- ---------- --- --- ------ ------ ---- -- ------<br>------- --- ------ ----- --- ---- ------- -- ---- --- --<br>------- money.,109948.70000000019,109948,109610.226,109612.79999999981,109626.892,109960.035,,55,money.
Item 100,flow.Loop,0_2_1_1,2021-12-10T10:39:15.294Z,,,,,,,,,,,,,,,,,,,,,,,,,,,,,,22702.905,,completion,,,,C,,,,,,,,,,silence,,109949,109948,87228.43,87229.29999999981,87245.095,109960.035,,,
Question 1,html.Screen,0_2_1_2,2021-12-10T10:39:18.850Z,,,,,,,,,,,,,,,,,,,,,,,,,,,true,TRUE,,3543.7649999998102,,response,,,100,C,,,,,TRUE,click #choice-1,,,,silence,,113504.5,113503.79999999981,109943.372,109949.09999999963,109960.035,113509.867,,,
Question 2,html.Screen,0_2_1_3,2021-12-10T10:39:22.442Z,,,,,,,,,,,,,,,,,,,,,,,,,,,true,FALSE,,3585.833000000188,,response,,,100,C,,,,,FALSE,click #choice-2,,,,silence,,117096.39999999944,117095.70000000019,113493.203,113504.70000000019,113509.867,117109.819,,,
Item 100,flow.Sequence,0_2_1,2021-12-10T10:39:22.442Z,,,,,,,,,,,,,,,,,,,,,,,,,,,,,,39850.40300000018,,completion,,,,,,,,,,,,,,,,117096.79999999981,117095.70000000019,77228.646,77239.20000000019,77245.297,117109.819,,,
End of Practice,html.Page,0_2_2,2021-12-10T10:39:26.234Z,,,,,,,,,,,,,,,,,,,,,,,,,,,,,,3775.2809999996243,,form submission,,,,,,,,,,,,,,,,120885.5,120885.09999999963,117093.15,117096.89999999944,117109.819,120892.675,,,
Practice,flow.Sequence,0_2,2021-12-10T10:39:26.234Z,,,,,,,,,,,,,,,,,,,,,,,,,,,,,,92202.57699999963,,completion,,,,,,,,,,,,,,,,120885.70000000019,120885.09999999963,28665.858,28668,28682.523,120892.675,,,
Trap_instruction,html.Page,0_3_0,2021-12-10T10:39:29.714Z,,,,,,,,,,,,,,,,,,,,,,,,,,,,,,3472.624999999811,,form submission,,,,,,,,,,,,,,,,124365.70000000019,124365.29999999981,120876.01,120885.89999999944,120892.675,124375.675,,,
trap_trial,html.Screen,0_3_1,2021-12-10T10:39:34.047Z,,,,,,,,,,,,,,,,,,,,,,,,,,,true,1,,4321.924999999625,,response,,,,,,,,,1,click #choice-1,,,,,,128698.59999999963,128697.59999999963,124359.01,124365.79999999981,124375.675,128707.947,,,
end of trap trial,html.Page,0_3_2,2021-12-10T10:39:35.460Z,,,,,,,,,,,,,,,,,,,,,,,,,,,,,,1403.2530000001861,,form submission,,,,,,,,,,,,,,,,130111.5,130111.20000000019,128691.285,128698.70000000019,128707.947,130125.399,,,
Trap 1,flow.Sequence,0_3,2021-12-10T10:39:35.461Z,,,,,,,,,,,,,,,,,,,,,,,,,,,,,,9218.525000000183,,completion,,,,,,,,,,,,,,,,130111.79999999981,130111.20000000019,120876.01,120885.89999999944,120892.675,130125.399,,,
Standby,html.Page,0_4_0,2021-12-10T10:39:43.458Z,,,,,,,,,,,,,,,,,,,,,,,,,,,,,,7998.684999999998,,timeout,,,,,,,,,,,,,,,,138108.89999999944,138107.42,130108.734,130112,130125.399,138124.084,,,
Holding screen,html.Screen,0_4_1_0_0,2021-12-10T10:39:50.458Z,,,,,,,,,,,,,,,,,,,,,,,,,,,,,,7000.236999999994,,timeout,,,,,,,,,,,,,,,,145108.89999999944,145107.656,138107.42,138109.2000000002,138124.084,145124.321,,,
screen,html.Screen,0_4_1_0_1_0,2021-12-10T10:39:51.135Z,,,,,,,,,,,,,,,,2,,,,,,,,,,,,,,661.4789999998175,,response,,,1,C,,,,,Space,keypress(Space),,,,instrumental,Two ---- ------ --- ------- ---------- ------- ----------<br>--- --------- --- ----------- ------- ----- ------- ---<br>--------- ---- -- --- ---- -- --------- -- ---- -------<br>-- --------- ------ --- ----- ------ ---- --- --------- --<br>------ - ---- -- --- ----------- ------- ---- ----- -----<br>--- -------- - ------ ---- -- ----- ---- --- --- -----------<br>-- -------,145786.7000000002,145785.7999999998,145107.656,145109.09999999963,145124.321,145790.952,,0,Two
screen,html.Screen,0_4_1_0_1_1,2021-12-10T10:39:51.439Z,,,,,,,,,,,,,,,,2,,,,,,,,,,,,,,298.447999999451,,response,,,1,C,,,,,Space,keypress(Space),,,,instrumental,--- days ------ --- ------- ---------- ------- ----------<br>--- --------- --- ----------- ------- ----- ------- ---<br>--------- ---- -- --- ---- -- --------- -- ---- -------<br>-- --------- ------ --- ----- ------ ---- --- --------- --<br>------ - ---- -- --- ----------- ------- ---- ----- -----<br>--- -------- - ------ ---- -- ----- ---- --- --- -----------<br>-- -------,146090.09999999963,146089.39999999944,145774.287,145786.89999999944,145790.952,146090.947,,1,days
screen,html.Screen,0_4_1_0_1_2,2021-12-10T10:39:51.671Z,,,,,,,,,,,,,,,,2,,,,,,,,,,,,,,230.45299999945564,,response,,,1,C,,,,,Space,keypress(Space),,,,instrumental,"--- ---- later, --- ------- ---------- ------- ----------<br>--- --------- --- ----------- ------- ----- ------- ---<br>--------- ---- -- --- ---- -- --------- -- ---- -------<br>-- --------- ------ --- ----- ------ ---- --- --------- --<br>------ - ---- -- --- ----------- ------- ---- ----- -----<br>--- -------- - ------ ---- -- ----- ---- --- --- -----------<br>-- -------",146322,146321.39999999944,146074.282,146090.2000000002,146090.947,146324.201,,2,"later,"
screen,html.Screen,0_4_1_0_1_3,2021-12-10T10:39:52.199Z,,,,,,,,,,,,,,,,2,,,,,,,,,,,,,,525.2989999999991,,response,,,1,C,,,,,Space,keypress(Space),,,,instrumental,--- ---- ------ the ------- ---------- ------- ----------<br>--- --------- --- ----------- ------- ----- ------- ---<br>--------- ---- -- --- ---- -- --------- -- ---- -------<br>-- --------- ------ --- ----- ------ ---- --- --------- --<br>------ - ---- -- --- ----------- ------- ---- ----- -----<br>--- -------- - ------ ---- -- ----- ---- --- --- -----------<br>-- -------,146850,146849.5,146307.537,146322.2999999998,146324.201,146857.588,,3,the
screen,html.Screen,0_4_1_0_1_4,2021-12-10T10:39:52.511Z,,,,,,,,,,,,,,,,2,,,,,,,,,,,,,,303.9120000000112,,response,,,1,C,,,,,Space,keypress(Space),,,,instrumental,--- ---- ------ --- British ---------- ------- ----------<br>--- --------- --- ----------- ------- ----- ------- ---<br>--------- ---- -- --- ---- -- --------- -- ---- -------<br>-- --------- ------ --- ----- ------ ---- --- --------- --<br>------ - ---- -- --- ----------- ------- ---- ----- -----<br>--- -------- - ------ ---- -- ----- ---- --- --- -----------<br>-- -------,147162,147161.5,146840.922,146850.2000000002,146857.588,147174.2,,4,British
screen,html.Screen,0_4_1_0_1_5,2021-12-10T10:39:53.335Z,,,,,,,,,,,,,,,,2,,,,,,,,,,,,,,811.2999999999884,,response,,,1,C,,,,,Space,keypress(Space),,,,instrumental,--- ---- ------ --- ------- astronomer ------- ----------<br>--- --------- --- ----------- ------- ----- ------- ---<br>--------- ---- -- --- ---- -- --------- -- ---- -------<br>-- --------- ------ --- ----- ------ ---- --- --------- --<br>------ - ---- -- --- ----------- ------- ---- ----- -----<br>--- -------- - ------ ---- -- ----- ---- --- --- -----------<br>-- -------,147986,147985.5,147157.535,147162.2000000002,147174.2,147990.813,,5,astronomer
screen,html.Screen,0_4_1_0_1_6,2021-12-10T10:39:53.615Z,,,,,,,,,,,,,,,,2,,,,,,,,,,,,,,274.4869999998191,,response,,,1,C,,,,,Space,keypress(Space),,,,instrumental,--- ---- ------ --- ------- ---------- Richard ----------<br>--- --------- --- ----------- ------- ----- ------- ---<br>--------- ---- -- --- ---- -- --------- -- ---- -------<br>-- --------- ------ --- ----- ------ ---- --- --------- --<br>------ - ---- -- --- ----------- ------- ---- ----- -----<br>--- -------- - ------ ---- -- ----- ---- --- --- -----------<br>-- -------,148265.89999999944,148265.2999999998,147974.148,147986.2999999998,147990.813,148274.121,,6,Richard
screen,html.Screen,0_4_1_0_1_7,2021-12-10T10:39:53.911Z,,,,,,,,,,,,,,,,2,,,,,,,,,,,,,,287.27899999942747,,response,,,1,C,,,,,Space,keypress(Space),,,,instrumental,--- ---- ------ --- ------- ---------- ------- Carrington<br>--- --------- --- ----------- ------- ----- ------- ---<br>--------- ---- -- --- ---- -- --------- -- ---- -------<br>-- --------- ------ --- ----- ------ ---- --- --------- --<br>------ - ---- -- --- ----------- ------- ---- ----- -----<br>--- -------- - ------ ---- -- ----- ---- --- --- -----------<br>-- -------,148561.89999999944,148561.39999999944,148257.456,148266,148274.121,148574.073,,7,Carrington
screen,html.Screen,0_4_1_0_1_8,2021-12-10T10:39:54.423Z,,,,,,,,,,,,,,,,2,,,,,,,,,,,,,,499.32699999943725,,response,,,1,C,,,,,Space,keypress(Space),,,,instrumental,--- ---- ------ --- ------- ---------- ------- ----------<br>was --------- --- ----------- ------- ----- ------- ---<br>--------- ---- -- --- ---- -- --------- -- ---- -------<br>-- --------- ------ --- ----- ------ ---- --- --------- --<br>------ - ---- -- --- ----------- ------- ---- ----- -----<br>--- -------- - ------ ---- -- ----- ---- --- --- -----------<br>-- -------,149074,149073.39999999944,148557.409,148562.09999999963,148574.073,149090.776,,8,was
screen,html.Screen,0_4_1_0_1_9,2021-12-10T10:39:54.743Z,,,,,,,,,,,,,,,,2,,,,,,,,,,,,,,302.4240000001737,,response,,,1,C,,,,,Space,keypress(Space),,,,instrumental,--- ---- ------ --- ------- ---------- ------- ----------<br>--- observing --- ----------- ------- ----- ------- ---<br>--------- ---- -- --- ---- -- --------- -- ---- -------<br>-- --------- ------ --- ----- ------ ---- --- --------- --<br>------ - ---- -- --- ----------- ------- ---- ----- -----<br>--- -------- - ------ ---- -- ----- ---- --- --- -----------<br>-- -------,149393.7999999998,149393.2000000002,149074.11,149074.09999999963,149090.776,149407.341,,9,observing
screen,html.Screen,0_4_1_0_1_10,2021-12-10T10:39:55.079Z,,,,,,,,,,,,,,,,2,,,,,,,,,,,,,,321.95899999982794,,response,,,1,C,,,,,Space,keypress(Space),,,,instrumental,--- ---- ------ --- ------- ---------- ------- ----------<br>--- --------- the ----------- ------- ----- ------- ---<br>--------- ---- -- --- ---- -- --------- -- ---- -------<br>-- --------- ------ --- ----- ------ ---- --- --------- --<br>------ - ---- -- --- ----------- ------- ---- ----- -----<br>--- -------- - ------ ---- -- ----- ---- --- --- -----------<br>-- -------,149729.89999999944,149729.2999999998,149390.677,149393.89999999944,149407.341,149740.706,,10,the
screen,html.Screen,0_4_1_0_1_11,2021-12-10T10:39:55.359Z,,,,,,,,,,,,,,,,2,,,,,,,,,,,,,,268.4940000001807,,response,,,1,C,,,,,Space,keypress(Space),,,,instrumental,--- ---- ------ --- ------- ---------- ------- ----------<br>--- --------- --- interesting ------- ----- ------- ---<br>--------- ---- -- --- ---- -- --------- -- ---- -------<br>-- --------- ------ --- ----- ------ ---- --- --------- --<br>------ - ---- -- --- ----------- ------- ---- ----- -----<br>--- -------- - ------ ---- -- ----- ---- --- --- -----------<br>-- -------,150009.7999999998,150009.2000000002,149724.041,149730,149740.706,150024.007,,11,interesting
screen,html.Screen,0_4_1_0_1_12,2021-12-10T10:39:55.823Z,,,,,,,,,,,,,,,,2,,,,,,,,,,,,,,449.1930000001739,,response,,,1,C,,,,,Space,keypress(Space),,,,instrumental,--- ---- ------ --- ------- ---------- ------- ----------<br>--- --------- --- ----------- sunspot ----- ------- ---<br>--------- ---- -- --- ---- -- --------- -- ---- -------<br>-- --------- ------ --- ----- ------ ---- --- --------- --<br>------ - ---- -- --- ----------- ------- ---- ----- -----<br>--- -------- - ------ ---- -- ----- ---- --- --- -----------<br>-- -------,150473.7999999998,150473.2000000002,150007.342,150010,150024.007,150490.575,,12,sunspot
screen,html.Screen,0_4_1_0_1_13,2021-12-10T10:39:56.271Z,,,,,,,,,,,,,,,,2,,,,,,,,,,,,,,430.6250000001746,,response,,,1,C,,,,,Space,keypress(Space),,,,instrumental,--- ---- ------ --- ------- ---------- ------- ----------<br>--- --------- --- ----------- ------- group ------- ---<br>--------- ---- -- --- ---- -- --------- -- ---- -------<br>-- --------- ------ --- ----- ------ ---- --- --------- --<br>------ - ---- -- --- ----------- ------- ---- ----- -----<br>--- -------- - ------ ---- -- ----- ---- --- --- -----------<br>-- -------,150921.89999999944,150921.2000000002,150473.911,150474.09999999963,150490.575,150923.981,,13,group
screen,html.Screen,0_4_1_0_1_14,2021-12-10T10:39:56.543Z,,,,,,,,,,,,,,,,2,,,,,,,,,,,,,,269.1189999996277,,response,,,1,C,,,,,Space,keypress(Space),,,,instrumental,--- ---- ------ --- ------- ---------- ------- ----------<br>--- --------- --- ----------- ------- ----- through ---<br>--------- ---- -- --- ---- -- --------- -- ---- -------<br>-- --------- ------ --- ----- ------ ---- --- --------- --<br>------ - ---- -- --- ----------- ------- ---- ----- -----<br>--- -------- - ------ ---- -- ----- ---- --- --- -----------<br>-- -------,151193.7999999998,151193.09999999963,150907.315,150922,150923.981,151207.183,,14,through
screen,html.Screen,0_4_1_0_1_15,2021-12-10T10:39:56.806Z,,,,,,,,,,,,,,,,2,,,,,,,,,,,,,,249.91699999963748,,response,,,1,C,,,,,Space,keypress(Space),,,,instrumental,--- ---- ------ --- ------- ---------- ------- ----------<br>--- --------- --- ----------- ------- ----- ------- his<br>--------- ---- -- --- ---- -- --------- -- ---- -------<br>-- --------- ------ --- ----- ------ ---- --- --------- --<br>------ - ---- -- --- ----------- ------- ---- ----- -----<br>--- -------- - ------ ---- -- ----- ---- --- --- -----------<br>-- -------,151457.59999999963,151457.09999999963,151190.519,151193.89999999944,151207.183,151473.88,,15,his
screen,html.Screen,0_4_1_0_1_16,2021-12-10T10:39:57.110Z,,,,,,,,,,,,,,,,2,,,,,,,,,,,,,,287.2199999996228,,response,,,1,C,,,,,Space,keypress(Space),,,,instrumental,--- ---- ------ --- ------- ---------- ------- ----------<br>--- --------- --- ----------- ------- ----- ------- ---<br>telescope ---- -- --- ---- -- --------- -- ---- -------<br>-- --------- ------ --- ----- ------ ---- --- --------- --<br>------ - ---- -- --- ----------- ------- ---- ----- -----<br>--- -------- - ------ ---- -- ----- ---- --- --- -----------<br>-- -------,151761.7000000002,151761.09999999963,151457.215,151457.89999999944,151473.88,151773.905,,16,telescope
screen,html.Screen,0_4_1_0_1_17,2021-12-10T10:39:57.638Z,,,,,,,,,,,,,,,,2,,,,,,,,,,,,,,515.0950000000012,,response,,,1,C,,,,,Space,keypress(Space),,,,instrumental,--- ---- ------ --- ------- ---------- ------- ----------<br>--- --------- --- ----------- ------- ----- ------- ---<br>--------- when -- --- ---- -- --------- -- ---- -------<br>-- --------- ------ --- ----- ------ ---- --- --------- --<br>------ - ---- -- --- ----------- ------- ---- ----- -----<br>--- -------- - ------ ---- -- ----- ---- --- --- -----------<br>-- -------,152289.7000000002,152289,151757.239,151762,151773.905,152307.175,,17,when
screen,html.Screen,0_4_1_0_1_18,2021-12-10T10:39:58.014Z,,,,,,,,,,,,,,,,2,,,,,,,,,,,,,,357.9249999996391,,response,,,1,C,,,,,Space,keypress(Space),,,,instrumental,--- ---- ------ --- ------- ---------- ------- ----------<br>--- --------- --- ----------- ------- ----- ------- ---<br>--------- ---- he --- ---- -- --------- -- ---- -------<br>-- --------- ------ --- ----- ------ ---- --- --------- --<br>------ - ---- -- --- ----------- ------- ---- ----- -----<br>--- -------- - ------ ---- -- ----- ---- --- --- -----------<br>-- -------,152665.7000000002,152665.09999999963,152290.51,152289.89999999944,152307.175,152673.75,,18,he
screen,html.Screen,0_4_1_0_1_19,2021-12-10T10:39:58.470Z,,,,,,,,,,,,,,,,2,,,,,,,,,,,,,,447.25,,response,,,1,C,,,,,Space,keypress(Space),,,,instrumental,--- ---- ------ --- ------- ---------- ------- ----------<br>--- --------- --- ----------- ------- ----- ------- ---<br>--------- ---- -- saw ---- -- --------- -- ---- -------<br>-- --------- ------ --- ----- ------ ---- --- --------- --<br>------ - ---- -- --- ----------- ------- ---- ----- -----<br>--- -------- - ------ ---- -- ----- ---- --- --- -----------<br>-- -------,153121.59999999963,153121,152657.086,152665.7999999998,152673.75,153123.771,,19,saw
screen,html.Screen,0_4_1_0_1_20,2021-12-10T10:39:59.534Z,,,,,,,,,,,,,,,,2,,,,,,,,,,,,,,1061.228999999992,,response,,,1,C,,,,,Space,keypress(Space),,,,instrumental,--- ---- ------ --- ------- ---------- ------- ----------<br>--- --------- --- ----------- ------- ----- ------- ---<br>--------- ---- -- --- what -- --------- -- ---- -------<br>-- --------- ------ --- ----- ------ ---- --- --------- --<br>------ - ---- -- --- ----------- ------- ---- ----- -----<br>--- -------- - ------ ---- -- ----- ---- --- --- -----------<br>-- -------,154185.7000000002,154185,153107.106,153121.7999999998,153123.771,154190.347,,20,what
screen,html.Screen,0_4_1_0_1_21,2021-12-10T10:39:59.918Z,,,,,,,,,,,,,,,,2,,,,,,,,,,,,,,378.55299999943236,,response,,,1,C,,,,,Space,keypress(Space),,,,instrumental,--- ---- ------ --- ------- ---------- ------- ----------<br>--- --------- --- ----------- ------- ----- ------- ---<br>--------- ---- -- --- ---- he --------- -- ---- -------<br>-- --------- ------ --- ----- ------ ---- --- --------- --<br>------ - ---- -- --- ----------- ------- ---- ----- -----<br>--- -------- - ------ ---- -- ----- ---- --- --- -----------<br>-- -------,154569.5,154568.89999999944,154173.682,154185.7999999998,154190.347,154573.678,,21,he
screen,html.Screen,0_4_1_0_1_22,2021-12-10T10:40:01.126Z,,,,,,,,,,,,,,,,2,,,,,,,,,,,,,,1203.2219999994268,,response,,,1,C,,,,,Space,keypress(Space),,,,instrumental,--- ---- ------ --- ------- ---------- ------- ----------<br>--- --------- --- ----------- ------- ----- ------- ---<br>--------- ---- -- --- ---- -- described -- ---- -------<br>-- --------- ------ --- ----- ------ ---- --- --------- --<br>------ - ---- -- --- ----------- ------- ---- ----- -----<br>--- -------- - ------ ---- -- ----- ---- --- --- -----------<br>-- -------,155777.5,155776.89999999944,154557.013,154569.7000000002,154573.678,155790.127,,22,described
screen,html.Screen,0_4_1_0_1_23,2021-12-10T10:40:01.438Z,,,,,,,,,,,,,,,,2,,,,,,,,,,,,,,298.8729999999923,,response,,,1,C,,,,,Space,keypress(Space),,,,instrumental,--- ---- ------ --- ------- ---------- ------- ----------<br>--- --------- --- ----------- ------- ----- ------- ---<br>--------- ---- -- --- ---- -- --------- as ---- -------<br>-- --------- ------ --- ----- ------ ---- --- --------- --<br>------ - ---- -- --- ----------- ------- ---- ----- -----<br>--- -------- - ------ ---- -- ----- ---- --- --- -----------<br>-- -------,156089.5,156089,155773.463,155777.7000000002,155790.127,156106.964,,23,as
screen,html.Screen,0_4_1_0_1_24,2021-12-10T10:40:01.702Z,,,,,,,,,,,,,,,,2,,,,,,,,,,,,,,245.83599999980652,,response,,,1,C,,,,,Space,keypress(Space),,,,instrumental,"--- ---- ------ --- ------- ---------- ------- ----------<br>--- --------- --- ----------- ------- ----- ------- ---<br>--------- ---- -- --- ---- -- --------- -- ""two -------<br>-- --------- ------ --- ----- ------ ---- --- --------- --<br>------ - ---- -- --- ----------- ------- ---- ----- -----<br>--- -------- - ------ ---- -- ----- ---- --- --- -----------<br>-- -------",156353.39999999944,156352.7999999998,156090.298,156089.7000000002,156106.964,156356.875,,24,"""two"
screen,html.Screen,0_4_1_0_1_25,2021-12-10T10:40:02.158Z,,,,,,,,,,,,,,,,2,,,,,,,,,,,,,,451.82500000018626,,response,,,1,C,,,,,Space,keypress(Space),,,,instrumental,--- ---- ------ --- ------- ---------- ------- ----------<br>--- --------- --- ----------- ------- ----- ------- ---<br>--------- ---- -- --- ---- -- --------- -- ---- patches<br>-- --------- ------ --- ----- ------ ---- --- --------- --<br>------ - ---- -- --- ----------- ------- ---- ----- -----<br>--- -------- - ------ ---- -- ----- ---- --- --- -----------<br>-- -------,156809.2999999998,156808.7000000002,156340.21,156353.59999999963,156356.875,156823.398,,25,patches
screen,html.Screen,0_4_1_0_1_26,2021-12-10T10:40:02.470Z,,,,,,,,,,,,,,,,2,,,,,,,,,,,,,,297.30200000019977,,response,,,1,C,,,,,Space,keypress(Space),,,,instrumental,--- ---- ------ --- ------- ---------- ------- ----------<br>--- --------- --- ----------- ------- ----- ------- ---<br>--------- ---- -- --- ---- -- --------- -- ---- -------<br>of --------- ------ --- ----- ------ ---- --- --------- --<br>------ - ---- -- --- ----------- ------- ---- ----- -----<br>--- -------- - ------ ---- -- ----- ---- --- --- -----------<br>-- -------,157121.2999999998,157120.7000000002,156806.735,156809.5,156823.398,157123.557,,26,of
screen,html.Screen,0_4_1_0_1_27,2021-12-10T10:40:02.982Z,,,,,,,,,,,,,,,,2,,,,,,,,,,,,,,509.14300000018557,,response,,,1,C,,,,,Space,keypress(Space),,,,instrumental,--- ---- ------ --- ------- ---------- ------- ----------<br>--- --------- --- ----------- ------- ----- ------- ---<br>--------- ---- -- --- ---- -- --------- -- ---- -------<br>-- intensely ------ --- ----- ------ ---- --- --------- --<br>------ - ---- -- --- ----------- ------- ---- ----- -----<br>--- -------- - ------ ---- -- ----- ---- --- --- -----------<br>-- -------,157633.2999999998,157632.7000000002,157106.889,157121.5,157123.557,157640.082,,27,intensely
screen,html.Screen,0_4_1_0_1_28,2021-12-10T10:40:03.310Z,,,,,,,,,,,,,,,,2,,,,,,,,,,,,,,320.5179999996326,,response,,,1,C,,,,,Space,keypress(Space),,,,instrumental,--- ---- ------ --- ------- ---------- ------- ----------<br>--- --------- --- ----------- ------- ----- ------- ---<br>--------- ---- -- --- ---- -- --------- -- ---- -------<br>-- --------- bright --- ----- ------ ---- --- --------- --<br>------ - ---- -- --- ----------- ------- ---- ----- -----<br>--- -------- - ------ ---- -- ----- ---- --- --- -----------<br>-- -------,157961.2000000002,157960.59999999963,157623.418,157633.39999999944,157640.082,157973.49,,28,bright
screen,html.Screen,0_4_1_0_1_29,2021-12-10T10:40:03.622Z,,,,,,,,,,,,,,,,2,,,,,,,,,,,,,,299.2100000001956,,response,,,1,C,,,,,Space,keypress(Space),,,,instrumental,--- ---- ------ --- ------- ---------- ------- ----------<br>--- --------- --- ----------- ------- ----- ------- ---<br>--------- ---- -- --- ---- -- --------- -- ---- -------<br>-- --------- ------ and ----- ------ ---- --- --------- --<br>------ - ---- -- --- ----------- ------- ---- ----- -----<br>--- -------- - ------ ---- -- ----- ---- --- --- -----------<br>-- -------,158273.2000000002,158272.7000000002,157956.824,157961.2999999998,157973.49,158290.041,,29,and
screen,html.Screen,0_4_1_0_1_30,2021-12-10T10:40:03.950Z,,,,,,,,,,,,,,,,2,,,,,,,,,,,,,,310.45900000000256,,response,,,1,C,,,,,Space,keypress(Space),,,,instrumental,--- ---- ------ --- ------- ---------- ------- ----------<br>--- --------- --- ----------- ------- ----- ------- ---<br>--------- ---- -- --- ---- -- --------- -- ---- -------<br>-- --------- ------ --- white ------ ---- --- --------- --<br>------ - ---- -- --- ----------- ------- ---- ----- -----<br>--- -------- - ------ ---- -- ----- ---- --- --- -----------<br>-- -------,158601.09999999963,158600.5,158273.377,158273.2999999998,158290.041,158606.78,,30,white
screen,html.Screen,0_4_1_0_1_31,2021-12-10T10:40:04.342Z,,,,,,,,,,,,,,,,2,,,,,,,,,,,,,,385.81999999962864,,response,,,1,C,,,,,Space,keypress(Space),,,,instrumental,"--- ---- ------ --- ------- ---------- ------- ----------<br>--- --------- --- ----------- ------- ----- ------- ---<br>--------- ---- -- --- ---- -- --------- -- ---- -------<br>-- --------- ------ --- ----- light"" ---- --- --------- --<br>------ - ---- -- --- ----------- ------- ---- ----- -----<br>--- -------- - ------ ---- -- ----- ---- --- --- -----------<br>-- -------",158993.2999999998,158992.59999999963,158590.114,158601.2999999998,158606.78,159006.617,,31,"light"""
screen,html.Screen,0_4_1_0_1_32,2021-12-10T10:40:04.806Z,,,,,,,,,,,,,,,,2,,,,,,,,,,,,,,449.9829999996291,,response,,,1,C,,,,,Space,keypress(Space),,,,instrumental,--- ---- ------ --- ------- ---------- ------- ----------<br>--- --------- --- ----------- ------- ----- ------- ---<br>--------- ---- -- --- ---- -- --------- -- ---- -------<br>-- --------- ------ --- ----- ------ over --- --------- --<br>------ - ---- -- --- ----------- ------- ---- ----- -----<br>--- -------- - ------ ---- -- ----- ---- --- --- -----------<br>-- -------,159457.09999999963,159456.59999999963,158989.954,158993.5,159006.617,159473.382,,32,over
screen,html.Screen,0_4_1_0_1_33,2021-12-10T10:40:05.110Z,,,,,,,,,,,,,,,,2,,,,,,,,,,,,,,287.11799999998766,,response,,,1,C,,,,,Space,keypress(Space),,,,instrumental,--- ---- ------ --- ------- ---------- ------- ----------<br>--- --------- --- ----------- ------- ----- ------- ---<br>--------- ---- -- --- ---- -- --------- -- ---- -------<br>-- --------- ------ --- ----- ------ ---- the --------- --<br>------ - ---- -- --- ----------- ------- ---- ----- -----<br>--- -------- - ------ ---- -- ----- ---- --- --- -----------<br>-- -------,159761.09999999963,159760.5,159456.716,159457.2999999998,159473.382,159773.328,,33,the
screen,html.Screen,0_4_1_0_1_34,2021-12-10T10:40:05.406Z,,,,,,,,,,,,,,,,2,,,,,,,,,,,,,,283.27199999961886,,response,,,1,C,,,,,Space,keypress(Space),,,,instrumental,--- ---- ------ --- ------- ---------- ------- ----------<br>--- --------- --- ----------- ------- ----- ------- ---<br>--------- ---- -- --- ---- -- --------- -- ---- -------<br>-- --------- ------ --- ----- ------ ---- --- sunspots. --<br>------ - ---- -- --- ----------- ------- ---- ----- -----<br>--- -------- - ------ ---- -- ----- ---- --- --- -----------<br>-- -------,160057.2000000002,160056.59999999963,159756.663,159761.2999999998,159773.328,160073.298,,34,sunspots.
screen,html.Screen,0_4_1_0_1_35,2021-12-10T10:40:05.894Z,,,,,,,,,,,,,,,,2,,,,,,,,,,,,,,471.2019999999902,,response,,,1,C,,,,,Space,keypress(Space),,,,instrumental,--- ---- ------ --- ------- ---------- ------- ----------<br>--- --------- --- ----------- ------- ----- ------- ---<br>--------- ---- -- --- ---- -- --------- -- ---- -------<br>-- --------- ------ --- ----- ------ ---- --- --------- He<br>------ - ---- -- --- ----------- ------- ---- ----- -----<br>--- -------- - ------ ---- -- ----- ---- --- --- -----------<br>-- -------,160545.09999999963,160544.5,160056.633,160057.2999999998,160073.298,160556.601,,35,He
screen,html.Screen,0_4_1_0_1_36,2021-12-10T10:40:06.190Z,,,,,,,,,,,,,,,,2,,,,,,,,,,,,,,283.7989999994461,,response,,,1,C,,,,,Space,keypress(Space),,,,instrumental,--- ---- ------ --- ------- ---------- ------- ----------<br>--- --------- --- ----------- ------- ----- ------- ---<br>--------- ---- -- --- ---- -- --------- -- ---- -------<br>-- --------- ------ --- ----- ------ ---- --- --------- --<br>jotted - ---- -- --- ----------- ------- ---- ----- -----<br>--- -------- - ------ ---- -- ----- ---- --- --- -----------<br>-- -------,160841,160840.39999999944,160539.936,160545.2999999998,160556.601,160856.574,,36,jotted
screen,html.Screen,0_4_1_0_1_37,2021-12-10T10:40:06.422Z,,,,,,,,,,,,,,,,2,,,,,,,,,,,,,,215.82599999944796,,response,,,1,C,,,,,Space,keypress(Space),,,,instrumental,--- ---- ------ --- ------- ---------- ------- ----------<br>--- --------- --- ----------- ------- ----- ------- ---<br>--------- ---- -- --- ---- -- --------- -- ---- -------<br>-- --------- ------ --- ----- ------ ---- --- --------- --<br>------ a ---- -- --- ----------- ------- ---- ----- -----<br>--- -------- - ------ ---- -- ----- ---- --- --- -----------<br>-- -------,161073,161072.39999999944,160839.909,160841.2000000002,160856.574,161089.903,,37,a
screen,html.Screen,0_4_1_0_1_38,2021-12-10T10:40:06.718Z,,,,,,,,,,,,,,,,2,,,,,,,,,,,,,,278.49699999945005,,response,,,1,C,,,,,Space,keypress(Space),,,,instrumental,--- ---- ------ --- ------- ---------- ------- ----------<br>--- --------- --- ----------- ------- ----- ------- ---<br>--------- ---- -- --- ---- -- --------- -- ---- -------<br>-- --------- ------ --- ----- ------ ---- --- --------- --<br>------ - note -- --- ----------- ------- ---- ----- -----<br>--- -------- - ------ ---- -- ----- ---- --- --- -----------<br>-- -------,161369,161368.39999999944,161073.238,161073.2000000002,161089.903,161373.218,,38,note
screen,html.Screen,0_4_1_0_1_39,2021-12-10T10:40:07.094Z,,,,,,,,,,,,,,,,2,,,,,,,,,,,,,,371.1819999994477,,response,,,1,C,,,,,Space,keypress(Space),,,,instrumental,--- ---- ------ --- ------- ---------- ------- ----------<br>--- --------- --- ----------- ------- ----- ------- ---<br>--------- ---- -- --- ---- -- --------- -- ---- -------<br>-- --------- ------ --- ----- ------ ---- --- --------- --<br>------ - ---- in --- ----------- ------- ---- ----- -----<br>--- -------- - ------ ---- -- ----- ---- --- --- -----------<br>-- -------,161745,161744.39999999944,161356.553,161369.2000000002,161373.218,161756.408,,39,in
screen,html.Screen,0_4_1_0_1_40,2021-12-10T10:40:07.342Z,,,,,,,,,,,,,,,,2,,,,,,,,,,,,,,235.9919999994454,,response,,,1,C,,,,,Space,keypress(Space),,,,instrumental,--- ---- ------ --- ------- ---------- ------- ----------<br>--- --------- --- ----------- ------- ----- ------- ---<br>--------- ---- -- --- ---- -- --------- -- ---- -------<br>-- --------- ------ --- ----- ------ ---- --- --------- --<br>------ - ---- -- his ----------- ------- ---- ----- -----<br>--- -------- - ------ ---- -- ----- ---- --- --- -----------<br>-- -------,161992.89999999944,161992.39999999944,161739.745,161745.09999999963,161756.408,162006.484,,40,his
screen,html.Screen,0_4_1_0_1_41,2021-12-10T10:40:07.638Z,,,,,,,,,,,,,,,,2,,,,,,,,,,,,,,281.91599999944447,,response,,,1,C,,,,,Space,keypress(Space),,,,instrumental,--- ---- ------ --- ------- ---------- ------- ----------<br>--- --------- --- ----------- ------- ----- ------- ---<br>--------- ---- -- --- ---- -- --------- -- ---- -------<br>-- --------- ------ --- ----- ------ ---- --- --------- --<br>------ - ---- -- --- painstaking ------- ---- ----- -----<br>--- -------- - ------ ---- -- ----- ---- --- --- -----------<br>-- -------,162288.89999999944,162288.39999999944,161989.819,161993.09999999963,162006.484,162306.516,,41,painstaking
screen,html.Screen,0_4_1_0_1_42,2021-12-10T10:40:08.230Z,,,,,,,,,,,,,,,,2,,,,,,,,,,,,,,573.7839999998105,,response,,,1,C,,,,,Space,keypress(Space),,,,instrumental,--- ---- ------ --- ------- ---------- ------- ----------<br>--- --------- --- ----------- ------- ----- ------- ---<br>--------- ---- -- --- ---- -- --------- -- ---- -------<br>-- --------- ------ --- ----- ------ ---- --- --------- --<br>------ - ---- -- --- ----------- record. ---- ----- -----<br>--- -------- - ------ ---- -- ----- ---- --- --- -----------<br>-- -------,162881,162880.2999999998,162289.85,162289.2000000002,162306.516,162889.72,,42,record.
screen,html.Screen,0_4_1_0_1_43,2021-12-10T10:40:08.814Z,,,,,,,,,,,,,,,,2,,,,,,,,,,,,,,574.5799999998126,,response,,,1,C,,,,,Space,keypress(Space),,,,instrumental,--- ---- ------ --- ------- ---------- ------- ----------<br>--- --------- --- ----------- ------- ----- ------- ---<br>--------- ---- -- --- ---- -- --------- -- ---- -------<br>-- --------- ------ --- ----- ------ ---- --- --------- --<br>------ - ---- -- --- ----------- ------- That ----- -----<br>--- -------- - ------ ---- -- ----- ---- --- --- -----------<br>-- -------,163464.89999999944,163464.2999999998,162873.056,162881.2000000002,162889.72,163472.977,,43,That
screen,html.Screen,0_4_1_0_1_44,2021-12-10T10:40:09.102Z,,,,,,,,,,,,,,,,2,,,,,,,,,,,,,,279.22300000017276,,response,,,1,C,,,,,Space,keypress(Space),,,,instrumental,--- ---- ------ --- ------- ---------- ------- ----------<br>--- --------- --- ----------- ------- ----- ------- ---<br>--------- ---- -- --- ---- -- --------- -- ---- -------<br>-- --------- ------ --- ----- ------ ---- --- --------- --<br>------ - ---- -- --- ----------- ------- ---- night -----<br>--- -------- - ------ ---- -- ----- ---- --- --- -----------<br>-- -------,163752.7999999998,163752.2000000002,163456.313,163465.09999999963,163472.977,163756.356,,44,night
screen,html.Screen,0_4_1_0_1_45,2021-12-10T10:40:09.357Z,,,,,,,,,,,,,,,,2,,,,,,,,,,,,,,251.8440000001865,,response,,,1,C,,,,,Space,keypress(Space),,,,instrumental,--- ---- ------ --- ------- ---------- ------- ----------<br>--- --------- --- ----------- ------- ----- ------- ---<br>--------- ---- -- --- ---- -- --------- -- ---- -------<br>-- --------- ------ --- ----- ------ ---- --- --------- --<br>------ - ---- -- --- ----------- ------- ---- ----- there<br>--- -------- - ------ ---- -- ----- ---- --- --- -----------<br>-- -------,164008.7999999998,164008.2000000002,163739.691,163753,163756.356,164023.034,,45,there
screen,html.Screen,0_4_1_0_1_46,2021-12-10T10:40:09.662Z,,,,,,,,,,,,,,,,2,,,,,,,,,,,,,,289.16600000017206,,response,,,1,C,,,,,Space,keypress(Space),,,,instrumental,--- ---- ------ --- ------- ---------- ------- ----------<br>--- --------- --- ----------- ------- ----- ------- ---<br>--------- ---- -- --- ---- -- --------- -- ---- -------<br>-- --------- ------ --- ----- ------ ---- --- --------- --<br>------ - ---- -- --- ----------- ------- ---- ----- -----<br>was -------- - ------ ---- -- ----- ---- --- --- -----------<br>-- -------,164312.7999999998,164312.2000000002,164006.369,164008.89999999944,164023.034,164323.012,,46,was
screen,html.Screen,0_4_1_0_1_47,2021-12-10T10:40:09.917Z,,,,,,,,,,,,,,,,2,,,,,,,,,,,,,,245.18800000019837,,response,,,1,C,,,,,Space,keypress(Space),,,,instrumental,--- ---- ------ --- ------- ---------- ------- ----------<br>--- --------- --- ----------- ------- ----- ------- ---<br>--------- ---- -- --- ---- -- --------- -- ---- -------<br>-- --------- ------ --- ----- ------ ---- --- --------- --<br>------ - ---- -- --- ----------- ------- ---- ----- -----<br>--- scarcely - ------ ---- -- ----- ---- --- --- -----------<br>-- -------,164568.7999999998,164568.2000000002,164306.347,164313.09999999963,164323.012,164572.918,,47,scarcely
screen,html.Screen,0_4_1_0_1_48,2021-12-10T10:40:10.238Z,,,,,,,,,,,,,,,,2,,,,,,,,,,,,,,315.28200000018114,,response,,,1,C,,,,,Space,keypress(Space),,,,instrumental,--- ---- ------ --- ------- ---------- ------- ----------<br>--- --------- --- ----------- ------- ----- ------- ---<br>--------- ---- -- --- ---- -- --------- -- ---- -------<br>-- --------- ------ --- ----- ------ ---- --- --------- --<br>------ - ---- -- --- ----------- ------- ---- ----- -----<br>--- -------- a ------ ---- -- ----- ---- --- --- -----------<br>-- -------,164888.7999999998,164888.2000000002,164556.255,164568.89999999944,164572.918,164889.606,,48,a
screen,html.Screen,0_4_1_0_1_49,2021-12-10T10:40:10.565Z,,,,,,,,,,,,,,,,2,,,,,,,,,,,,,,326.4939999996277,,response,,,1,C,,,,,Space,keypress(Space),,,,instrumental,--- ---- ------ --- ------- ---------- ------- ----------<br>--- --------- --- ----------- ------- ----- ------- ---<br>--------- ---- -- --- ---- -- --------- -- ---- -------<br>-- --------- ------ --- ----- ------ ---- --- --------- --<br>------ - ---- -- --- ----------- ------- ---- ----- -----<br>--- -------- - square ---- -- ----- ---- --- --- -----------<br>-- -------,165216.7000000002,165216.09999999963,164872.941,164889,164889.606,165222.915,,49,square
