sender,sender_type,sender_id,timestamp,meta,,Blues,Classical,Country,Dance,Electronic,Folk,Gospel,Hip-Hop,Jazz,Latin,Musical/Film,New-age,Pop,Provo_ID,R&B,Rap,Reggae,Religious,Rock,Soul,Swing,Traditional,age,artist_name,correct,correctResponse,distraction,duration,education,ended_on,familiarity,gender,item,list,music_frequency,offensiveness,pleasantness,preference,response,response_action,snippet_file,song_name,song_rating,sound,text,time_commit,time_end,time_render,time_run,time_show,time_switch,url,word,word_ID
Instructions,html.Page,0_0,2021-11-19T14:03:56.187Z,"{""labjs_version"":""20.2.3"",""labjs_build"":{""flavor"":""production"",""commit"":""7ea907d66ca8aeef8054924ca5d82ffbe11e34e5""},""location"":""https://run.pavlovia.org/mvasilev/lab_music_e/"",""userAgent"":""Mozilla/5.0 (Windows NT 6.1; Win64; x64) AppleWebKit/537.36 (KHTML, like Gecko) Chrome/96.0.4664.45 Safari/537.36"",""platform"":""Win32"",""language"":""en-US"",""locale"":""en-US"",""timeZone"":""Europe/London"",""timezoneOffset"":0,""screen_width"":1920,""screen_height"":1080,""scroll_width"":1920,""scroll_height"":959,""window_innerWidth"":1920,""window_innerHeight"":1007,""devicePixelRatio"":1}",,,,,,,,,,,,,,,,,,,,,,,,,,,,,31966.620999952316,,form submission,,,,,,,,,,,,,,,,41919.39999985695,41918.299999952316,9918.289,9934.200000047684,9951.679,41925.689,{},,
Headphones,html.Page,0_1,2021-11-19T14:04:03.493Z,,,,,,,,,,,,,,,,,,,,,,,,,,,,,,7299.110999952318,,form submission,,,,,,,,,,,,,,,,49225.299999952316,49224.799999952316,41909.077,41920.09999990463,41925.689,49244.712,,,
Holding screen,html.Screen,0_2_0_0,2021-11-19T14:04:13.505Z,,,,,,,,,,,,,,,,,,,,,,,,,,,,,,10002.612000000001,,timeout,,,,,,,,,,,,,,,,59237.200000047684,59230.654,49211.372,49226,49244.712,59247.324,,,
screen,html.Screen,0_2_0_1_0,2021-11-19T14:04:14.791Z,,,,,,,,,,,,,,,,53,,,,,,,,,,,,,,1271.9759999523158,,response,,,99,,,,,,Space,keypress(Space),,,,,When -- ----- -- ------ - ------- --- ----------<br>------------- ------ ------ ---- ---- ------- ----- -- ----<br>-------- ------- -- ---------- --- - --- ----- ----- ----<br>---- --- --- ----- --- ---- ---- ------- ----- ---- -------<br>--- --- -- ----- -- --- ---- -- --- ---- -- ------ ------<br>--- ----- -- ----,60520.700000047684,60519.299999952316,59230.654,59237.59999990463,59247.324,60531.204,,0,When
screen,html.Screen,0_2_0_1_1,2021-11-19T14:04:15.263Z,,,,,,,,,,,,,,,,53,,,,,,,,,,,,,,459.9960000476858,,response,,,99,,,,,,Space,keypress(Space),,,,,---- it ----- -- ------ - ------- --- ----------<br>------------- ------ ------ ---- ---- ------- ----- -- ----<br>-------- ------- -- ---------- --- - --- ----- ----- ----<br>---- --- --- ----- --- ---- ---- ------- ----- ---- -------<br>--- --- -- ----- -- --- ---- -- --- ---- -- ------ ------<br>--- ----- -- ----,60992.09999990463,60991.200000047684,60514.533,60521,60531.204,60997.905,,1,it
screen,html.Screen,0_2_0_1_2,2021-11-19T14:04:15.767Z,,,,,,,,,,,,,,,,53,,,,,,,,,,,,,,497.2950000476849,,response,,,99,,,,,,Space,keypress(Space),,,,,---- -- comes -- ------ - ------- --- ----------<br>------------- ------ ------ ---- ---- ------- ----- -- ----<br>-------- ------- -- ---------- --- - --- ----- ----- ----<br>---- --- --- ----- --- ---- ---- ------- ----- ---- -------<br>--- --- -- ----- -- --- ---- -- --- ---- -- ------ ------<br>--- ----- -- ----,61496.09999990463,61495.200000047684,60981.235,60992.39999985695,60997.905,61498.127,,2,comes
screen,html.Screen,0_2_0_1_3,2021-11-19T14:04:16.094Z,,,,,,,,,,,,,,,,53,,,,,,,,,,,,,,324.5730000476833,,response,,,99,,,,,,Space,keypress(Space),,,,,---- -- ----- to ------ - ------- --- ----------<br>------------- ------ ------ ---- ---- ------- ----- -- ----<br>-------- ------- -- ---------- --- - --- ----- ----- ----<br>---- --- --- ----- --- ---- ---- ------- ----- ---- -------<br>--- --- -- ----- -- --- ---- -- --- ---- -- ------ ------<br>--- ----- -- ----,61823.09999990463,61822.700000047684,61481.456,61496.39999985695,61498.127,61831.496,,3,to
screen,html.Screen,0_2_0_1_4,2021-11-19T14:04:16.519Z,,,,,,,,,,,,,,,,53,,,,,,,,,,,,,,415.70400004768453,,response,,,99,,,,,,Space,keypress(Space),,,,,---- -- ----- -- having - ------- --- ----------<br>------------- ------ ------ ---- ---- ------- ----- -- ----<br>-------- ------- -- ---------- --- - --- ----- ----- ----<br>---- --- --- ----- --- ---- ---- ------- ----- ---- -------<br>--- --- -- ----- -- --- ---- -- --- ---- -- ------ ------<br>--- ----- -- ----,62248.299999952316,62247.200000047684,61814.826,61823.200000047684,61831.496,62264.863,,4,having
screen,html.Screen,0_2_0_1_5,2021-11-19T14:04:16.967Z,,,,,,,,,,,,,,,,53,,,,,,,,,,,,,,430.736999904635,,response,,,99,,,,,,Space,keypress(Space),,,,,---- -- ----- -- ------ a ------- --- ----------<br>------------- ------ ------ ---- ---- ------- ----- -- ----<br>-------- ------- -- ---------- --- - --- ----- ----- ----<br>---- --- --- ----- --- ---- ---- ------- ----- ---- -------<br>--- --- -- ----- -- --- ---- -- --- ---- -- ------ ------<br>--- ----- -- ----,62696.5,62695.59999990463,62248.194,62248.700000047684,62264.863,62698.328,,5,a
screen,html.Screen,0_2_0_1_6,2021-11-19T14:04:17.399Z,,,,,,,,,,,,,,,,53,,,,,,,,,,,,,,428.8720000476824,,response,,,99,,,,,,Space,keypress(Space),,,,,---- -- ----- -- ------ - lasting --- ----------<br>------------- ------ ------ ---- ---- ------- ----- -- ----<br>-------- ------- -- ---------- --- - --- ----- ----- ----<br>---- --- --- ----- --- ---- ---- ------- ----- ---- -------<br>--- --- -- ----- -- --- ---- -- --- ---- -- ------ ------<br>--- ----- -- ----,63128.09999990463,63127.200000047684,62681.658,62696.89999985695,62698.328,63131.912,,6,lasting
screen,html.Screen,0_2_0_1_7,2021-11-19T14:04:17.727Z,,,,,,,,,,,,,,,,53,,,,,,,,,,,,,,323.18799990463594,,response,,,99,,,,,,Space,keypress(Space),,,,,---- -- ----- -- ------ - ------- and ----------<br>------------- ------ ------ ---- ---- ------- ----- -- ----<br>-------- ------- -- ---------- --- - --- ----- ----- ----<br>---- --- --- ----- --- ---- ---- ------- ----- ---- -------<br>--- --- -- ----- -- --- ---- -- --- ---- -- ------ ------<br>--- ----- -- ----,63456.09999990463,63455.09999990463,63115.24,63128.299999952316,63131.912,63465.216,,7,and
screen,html.Screen,0_2_0_1_8,2021-11-19T14:04:18.207Z,,,,,,,,,,,,,,,,53,,,,,,,,,,,,,,469.8839999046322,,response,,,99,,,,,,Space,keypress(Space),,,,,---- -- ----- -- ------ - ------- --- fulfilling<br>------------- ------ ------ ---- ---- ------- ----- -- ----<br>-------- ------- -- ---------- --- - --- ----- ----- ----<br>---- --- --- ----- --- ---- ---- ------- ----- ---- -------<br>--- --- -- ----- -- --- ---- -- --- ---- -- ------ ------<br>--- ----- -- ----,63936.09999990463,63935.09999990463,63448.546,63456.299999952316,63465.216,63948.826,,8,fulfilling
screen,html.Screen,0_2_0_1_9,2021-11-19T14:04:18.854Z,,,,,,,,,,,,,,,,53,,,,,,,,,,,,,,634.1739999999991,,response,,,99,,,,,,Space,keypress(Space),,,,,"---- -- ----- -- ------ - ------- --- ----------<br>relationship, ------ ------ ---- ---- ------- ----- -- ----<br>-------- ------- -- ---------- --- - --- ----- ----- ----<br>---- --- --- ----- --- ---- ---- ------- ----- ---- -------<br>--- --- -- ----- -- --- ---- -- --- ---- -- ------ ------<br>--- ----- -- ----",64583.89999985695,64583,63932.154,63936.5,63948.826,64598.784,,9,"relationship,"
screen,html.Screen,0_2_0_1_10,2021-11-19T14:04:19.271Z,,,,,,,,,,,,,,,,53,,,,,,,,,,,,,,400.3159999046329,,response,,,99,,,,,,Space,keypress(Space),,,,,---- -- ----- -- ------ - ------- --- ----------<br>------------- common ------ ---- ---- ------- ----- -- ----<br>-------- ------- -- ---------- --- - --- ----- ----- ----<br>---- --- --- ----- --- ---- ---- ------- ----- ---- -------<br>--- --- -- ----- -- --- ---- -- --- ---- -- ------ ------<br>--- ----- -- ----,65000,64999.09999990463,64582.115,64584.09999990463,64598.784,65015.791,,10,common
screen,html.Screen,0_2_0_1_11,2021-11-19T14:04:19.678Z,,,,,,,,,,,,,,,,53,,,,,,,,,,,,,,391.20900000000256,,response,,,99,,,,,,Space,keypress(Space),,,,,---- -- ----- -- ------ - ------- --- ----------<br>------------- ------ wisdom ---- ---- ------- ----- -- ----<br>-------- ------- -- ---------- --- - --- ----- ----- ----<br>---- --- --- ----- --- ---- ---- ------- ----- ---- -------<br>--- --- -- ----- -- --- ---- -- --- ---- -- ------ ------<br>--- ----- -- ----,65407.89999985695,65407,64999.119,65000.200000047684,65015.791,65415.828,,11,wisdom
screen,html.Screen,0_2_0_1_12,2021-11-19T14:04:20.382Z,,,,,,,,,,,,,,,,53,,,,,,,,,,,,,,695.1719999999987,,response,,,99,,,,,,Space,keypress(Space),,,,,---- -- ----- -- ------ - ------- --- ----------<br>------------- ------ ------ says ---- ------- ----- -- ----<br>-------- ------- -- ---------- --- - --- ----- ----- ----<br>---- --- --- ----- --- ---- ---- ------- ----- ---- -------<br>--- --- -- ----- -- --- ---- -- --- ---- -- ------ ------<br>--- ----- -- ----,66111.79999995232,66111,65399.157,65408.200000047684,65415.828,66116.019,,12,says
screen,html.Screen,0_2_0_1_13,2021-11-19T14:04:20.862Z,,,,,,,,,,,,,,,,53,,,,,,,,,,,,,,474.98099999999977,,response,,,99,,,,,,Space,keypress(Space),,,,,---- -- ----- -- ------ - ------- --- ----------<br>------------- ------ ------ ---- that ------- ----- -- ----<br>-------- ------- -- ---------- --- - --- ----- ----- ----<br>---- --- --- ----- --- ---- ---- ------- ----- ---- -------<br>--- --- -- ----- -- --- ---- -- --- ---- -- ------ ------<br>--- ----- -- ----,66591.79999995232,66591,66099.348,66112,66116.019,66599.419,,13,that
screen,html.Screen,0_2_0_1_14,2021-11-19T14:04:21.150Z,,,,,,,,,,,,,,,,53,,,,,,,,,,,,,,279.5810000000056,,response,,,99,,,,,,Space,keypress(Space),,,,,---- -- ----- -- ------ - ------- --- ----------<br>------------- ------ ------ ---- ---- feeling ----- -- ----<br>-------- ------- -- ---------- --- - --- ----- ----- ----<br>---- --- --- ----- --- ---- ---- ------- ----- ---- -------<br>--- --- -- ----- -- --- ---- -- --- ---- -- ------ ------<br>--- ----- -- ----,66879.79999995232,66879,66582.749,66592.09999990463,66599.419,66882.89,,14,feeling
screen,html.Screen,0_2_0_1_15,2021-11-19T14:04:21.550Z,,,,,,,,,,,,,,,,53,,,,,,,,,,,,,,396.1100000000006,,response,,,99,,,,,,Space,keypress(Space),,,,,---- -- ----- -- ------ - ------- --- ----------<br>------------- ------ ------ ---- ---- ------- close -- ----<br>-------- ------- -- ---------- --- - --- ----- ----- ----<br>---- --- --- ----- --- ---- ---- ------- ----- ---- -------<br>--- --- -- ----- -- --- ---- -- --- ---- -- ------ ------<br>--- ----- -- ----,67279.70000004768,67279,66866.219,66880,66882.89,67282.959,,15,close
screen,html.Screen,0_2_0_1_16,2021-11-19T14:04:21.838Z,,,,,,,,,,,,,,,,53,,,,,,,,,,,,,,284.04099999999744,,response,,,99,,,,,,Space,keypress(Space),,,,,---- -- ----- -- ------ - ------- --- ----------<br>------------- ------ ------ ---- ---- ------- ----- to ----<br>-------- ------- -- ---------- --- - --- ----- ----- ----<br>---- --- --- ----- --- ---- ---- ------- ----- ---- -------<br>--- --- -- ----- -- --- ---- -- --- ---- -- ------ ------<br>--- ----- -- ----,67567.79999995232,67567,67266.289,67280,67282.959,67583.091,,16,to
screen,html.Screen,0_2_0_1_17,2021-11-19T14:04:22.230Z,,,,,,,,,,,,,,,,53,,,,,,,,,,,,,,375.8089998569485,,response,,,99,,,,,,Space,keypress(Space),,,,,---- -- ----- -- ------ - ------- --- ----------<br>------------- ------ ------ ---- ---- ------- ----- -- your<br>-------- ------- -- ---------- --- - --- ----- ----- ----<br>---- --- --- ----- --- ---- ---- ------- ----- ---- -------<br>--- --- -- ----- -- --- ---- -- --- ---- -- ------ ------<br>--- ----- -- ----,67959.59999990463,67958.89999985695,67566.42,67568,67583.091,67966.482,,17,your
screen,html.Screen,0_2_0_1_18,2021-11-19T14:04:22.670Z,,,,,,,,,,,,,,,,53,,,,,,,,,,,,,,432.41799985694524,,response,,,99,,,,,,Space,keypress(Space),,,,,---- -- ----- -- ------ - ------- --- ----------<br>------------- ------ ------ ---- ---- ------- ----- -- ----<br>romantic ------- -- ---------- --- - --- ----- ----- ----<br>---- --- --- ----- --- ---- ---- ------- ----- ---- -------<br>--- --- -- ----- -- --- ---- -- --- ---- -- ------ ------<br>--- ----- -- ----,68399.59999990463,68398.89999985695,67949.812,67960,67966.482,68416.569,,18,romantic
screen,html.Screen,0_2_0_1_19,2021-11-19T14:04:23.078Z,,,,,,,,,,,,,,,,53,,,,,,,,,,,,,,390.3309998569457,,response,,,99,,,,,,Space,keypress(Space),,,,,---- -- ----- -- ------ - ------- --- ----------<br>------------- ------ ------ ---- ---- ------- ----- -- ----<br>-------- partner -- ---------- --- - --- ----- ----- ----<br>---- --- --- ----- --- ---- ---- ------- ----- ---- -------<br>--- --- -- ----- -- --- ---- -- --- ---- -- ------ ------<br>--- ----- -- ----,68807.70000004768,68806.89999985695,68399.899,68399.89999985695,68416.569,68816.749,,19,partner
screen,html.Screen,0_2_0_1_20,2021-11-19T14:04:23.462Z,,,,,,,,,,,,,,,,53,,,,,,,,,,,,,,374.0509999523201,,response,,,99,,,,,,Space,keypress(Space),,,,,---- -- ----- -- ------ - ------- --- ----------<br>------------- ------ ------ ---- ---- ------- ----- -- ----<br>-------- ------- is ---------- --- - --- ----- ----- ----<br>---- --- --- ----- --- ---- ---- ------- ----- ---- -------<br>--- --- -- ----- -- --- ---- -- --- ---- -- ------ ------<br>--- ----- -- ----,69191.70000004768,69190.79999995232,68800.078,68807.89999985695,68816.749,69200.2,,20,is
screen,html.Screen,0_2_0_1_21,2021-11-19T14:04:24.174Z,,,,,,,,,,,,,,,,53,,,,,,,,,,,,,,702.5999999523192,,response,,,99,,,,,,Space,keypress(Space),,,,,---- -- ----- -- ------ - ------- --- ----------<br>------------- ------ ------ ---- ---- ------- ----- -- ----<br>-------- ------- -- paramount. --- - --- ----- ----- ----<br>---- --- --- ----- --- ---- ---- ------- ----- ---- -------<br>--- --- -- ----- -- --- ---- -- --- ---- -- ------ ------<br>--- ----- -- ----,69903.59999990463,69902.79999995232,69183.529,69191.89999985695,69200.2,69916.975,,21,paramount.
screen,html.Screen,0_2_0_1_22,2021-11-19T14:04:24.542Z,,,,,,,,,,,,,,,,53,,,,,,,,,,,,,,353.82499995231046,,response,,,99,,,,,,Space,keypress(Space),,,,,---- -- ----- -- ------ - ------- --- ----------<br>------------- ------ ------ ---- ---- ------- ----- -- ----<br>-------- ------- -- ---------- But - --- ----- ----- ----<br>---- --- --- ----- --- ---- ---- ------- ----- ---- -------<br>--- --- -- ----- -- --- ---- -- --- ---- -- ------ ------<br>--- ----- -- ----,70271.59999990463,70270.79999995232,69900.305,69904.20000004768,69916.975,70283.821,,22,But
screen,html.Screen,0_2_0_1_23,2021-11-19T14:04:24.750Z,,,,,,,,,,,,,,,,53,,,,,,,,,,,,,,194.97899995232,,response,,,99,,,,,,Space,keypress(Space),,,,,---- -- ----- -- ------ - ------- --- ----------<br>------------- ------ ------ ---- ---- ------- ----- -- ----<br>-------- ------- -- ---------- --- a --- ----- ----- ----<br>---- --- --- ----- --- ---- ---- ------- ----- ---- -------<br>--- --- -- ----- -- --- ---- -- --- ---- -- ------ ------<br>--- ----- -- ----,70479.5,70478.79999995232,70267.15,70271.89999985695,70283.821,70483.841,,23,a
screen,html.Screen,0_2_0_1_24,2021-11-19T14:04:25.118Z,,,,,,,,,,,,,,,,53,,,,,,,,,,,,,,362.95899995231593,,response,,,99,,,,,,Space,keypress(Space),,,,,---- -- ----- -- ------ - ------- --- ----------<br>------------- ------ ------ ---- ---- ------- ----- -- ----<br>-------- ------- -- ---------- --- - new ----- ----- ----<br>---- --- --- ----- --- ---- ---- ------- ----- ---- -------<br>--- --- -- ----- -- --- ---- -- --- ---- -- ------ ------<br>--- ----- -- ----,70847.5,70846.79999995232,70467.171,70479.79999995232,70483.841,70850.634,,24,new
screen,html.Screen,0_2_0_1_25,2021-11-19T14:04:25.430Z,,,,,,,,,,,,,,,,53,,,,,,,,,,,,,,308.1659999523108,,response,,,99,,,,,,Space,keypress(Space),,,,,---- -- ----- -- ------ - ------- --- ----------<br>------------- ------ ------ ---- ---- ------- ----- -- ----<br>-------- ------- -- ---------- --- - --- study ----- ----<br>---- --- --- ----- --- ---- ---- ------- ----- ---- -------<br>--- --- -- ----- -- --- ---- -- --- ---- -- ------ ------<br>--- ----- -- ----,71159.5,71158.79999995232,70833.963,70847.79999995232,70850.634,71167.336,,25,study
screen,html.Screen,0_2_0_1_26,2021-11-19T14:04:25.846Z,,,,,,,,,,,,,,,,53,,,,,,,,,,,,,,407.364000047688,,response,,,99,,,,,,Space,keypress(Space),,,,,---- -- ----- -- ------ - ------- --- ----------<br>------------- ------ ------ ---- ---- ------- ----- -- ----<br>-------- ------- -- ---------- --- - --- ----- finds ----<br>---- --- --- ----- --- ---- ---- ------- ----- ---- -------<br>--- --- -- ----- -- --- ---- -- --- ---- -- ------ ------<br>--- ----- -- ----,71575.5,71574.70000004768,71150.666,71159.79999995232,71167.336,71584.15,,26,finds
screen,html.Screen,0_2_0_1_27,2021-11-19T14:04:26.222Z,,,,,,,,,,,,,,,,53,,,,,,,,,,,,,,366.55000004768954,,response,,,99,,,,,,Space,keypress(Space),,,,,---- -- ----- -- ------ - ------- --- ----------<br>------------- ------ ------ ---- ---- ------- ----- -- ----<br>-------- ------- -- ---------- --- - --- ----- ----- that<br>---- --- --- ----- --- ---- ---- ------- ----- ---- -------<br>--- --- -- ----- -- --- ---- -- --- ---- -- ------ ------<br>--- ----- -- ----,71951.59999990463,71950.70000004768,71567.479,71575.79999995232,71584.15,71967.589,,27,that
screen,html.Screen,0_2_0_1_28,2021-11-19T14:04:26.606Z,,,,,,,,,,,,,,,,53,,,,,,,,,,,,,,367.1110000476765,,response,,,99,,,,,,Space,keypress(Space),,,,,---- -- ----- -- ------ - ------- --- ----------<br>------------- ------ ------ ---- ---- ------- ----- -- ----<br>-------- ------- -- ---------- --- - --- ----- ----- ----<br>it's --- --- ----- --- ---- ---- ------- ----- ---- -------<br>--- --- -- ----- -- --- ---- -- --- ---- -- ------ ------<br>--- ----- -- ----,72335.5,72334.70000004768,71950.918,71951.79999995232,71967.589,72350.864,,28,it's
screen,html.Screen,0_2_0_1_29,2021-11-19T14:04:26.886Z,,,,,,,,,,,,,,,,53,,,,,,,,,,,,,,263.8360000476823,,response,,,99,,,,,,Space,keypress(Space),,,,,---- -- ----- -- ------ - ------- --- ----------<br>------------- ------ ------ ---- ---- ------- ----- -- ----<br>-------- ------- -- ---------- --- - --- ----- ----- ----<br>---- not --- ----- --- ---- ---- ------- ----- ---- -------<br>--- --- -- ----- -- --- ---- -- --- ---- -- ------ ------<br>--- ----- -- ----,72615.59999990463,72614.70000004768,72334.196,72335.70000004768,72350.864,72617.846,,29,not
screen,html.Screen,0_2_0_1_30,2021-11-19T14:04:27.166Z,,,,,,,,,,,,,,,,53,,,,,,,,,,,,,,277.153999999995,,response,,,99,,,,,,Space,keypress(Space),,,,,---- -- ----- -- ------ - ------- --- ----------<br>------------- ------ ------ ---- ---- ------- ----- -- ----<br>-------- ------- -- ---------- --- - --- ----- ----- ----<br>---- --- how ----- --- ---- ---- ------- ----- ---- -------<br>--- --- -- ----- -- --- ---- -- --- ---- -- ------ ------<br>--- ----- -- ----,72895.79999995232,72895,72601.173,72615.89999985695,72617.846,72901.028,,30,how
screen,html.Screen,0_2_0_1_31,2021-11-19T14:04:27.765Z,,,,,,,,,,,,,,,,53,,,,,,,,,,,,,,593.2719999523106,,response,,,99,,,,,,Space,keypress(Space),,,,,---- -- ----- -- ------ - ------- --- ----------<br>------------- ------ ------ ---- ---- ------- ----- -- ----<br>-------- ------- -- ---------- --- - --- ----- ----- ----<br>---- --- --- close --- ---- ---- ------- ----- ---- -------<br>--- --- -- ----- -- --- ---- -- --- ---- -- ------ ------<br>--- ----- -- ----,73494.5,73494.29999995232,72884.36,72896.09999990463,72901.028,73501.484,,31,close
screen,html.Screen,0_2_0_1_32,2021-11-19T14:04:28.021Z,,,,,,,,,,,,,,,,53,,,,,,,,,,,,,,248.71600004768698,,response,,,99,,,,,,Space,keypress(Space),,,,,---- -- ----- -- ------ - ------- --- ----------<br>------------- ------ ------ ---- ---- ------- ----- -- ----<br>-------- ------- -- ---------- --- - --- ----- ----- ----<br>---- --- --- ----- you ---- ---- ------- ----- ---- -------<br>--- --- -- ----- -- --- ---- -- --- ---- -- ------ ------<br>--- ----- -- ----,73750.59999990463,73750.20000004768,73484.81,73494.59999990463,73501.484,73751.352,,32,you
screen,html.Screen,0_2_0_1_33,2021-11-19T14:04:28.398Z,,,,,,,,,,,,,,,,53,,,,,,,,,,,,,,375.34800004768476,,response,,,99,,,,,,Space,keypress(Space),,,,,---- -- ----- -- ------ - ------- --- ----------<br>------------- ------ ------ ---- ---- ------- ----- -- ----<br>-------- ------- -- ---------- --- - --- ----- ----- ----<br>---- --- --- ----- --- feel ---- ------- ----- ---- -------<br>--- --- -- ----- -- --- ---- -- --- ---- -- ------ ------<br>--- ----- -- ----,74127.29999995232,74126.70000004768,73734.681,73750.70000004768,73751.352,74134.67,,33,feel
screen,html.Screen,0_2_0_1_34,2021-11-19T14:04:28.790Z,,,,,,,,,,,,,,,,53,,,,,,,,,,,,,,383.9299999046343,,response,,,99,,,,,,Space,keypress(Space),,,,,---- -- ----- -- ------ - ------- --- ----------<br>------------- ------ ------ ---- ---- ------- ----- -- ----<br>-------- ------- -- ---------- --- - --- ----- ----- ----<br>---- --- --- ----- --- ---- that ------- ----- ---- -------<br>--- --- -- ----- -- --- ---- -- --- ---- -- ------ ------<br>--- ----- -- ----,74519.39999985695,74518.59999990463,74118.002,74127.59999990463,74134.67,74535.065,,34,that
screen,html.Screen,0_2_0_1_35,2021-11-19T14:04:29.158Z,,,,,,,,,,,,,,,,53,,,,,,,,,,,,,,351.53499990463024,,response,,,99,,,,,,Space,keypress(Space),,,,,---- -- ----- -- ------ - ------- --- ----------<br>------------- ------ ------ ---- ---- ------- ----- -- ----<br>-------- ------- -- ---------- --- - --- ----- ----- ----<br>---- --- --- ----- --- ---- ---- matters ----- ---- -------<br>--- --- -- ----- -- --- ---- -- --- ---- -- ------ ------<br>--- ----- -- ----,74887.39999985695,74886.59999990463,74518.391,74519.70000004768,74535.065,74901.725,,35,matters
screen,html.Screen,0_2_0_1_36,2021-11-19T14:04:29.558Z,,,,,,,,,,,,,,,,53,,,,,,,,,,,,,,384.7749999999942,,response,,,99,,,,,,Space,keypress(Space),,,,,"---- -- ----- -- ------ - ------- --- ----------<br>------------- ------ ------ ---- ---- ------- ----- -- ----<br>-------- ------- -- ---------- --- - --- ----- ----- ----<br>---- --- --- ----- --- ---- ---- ------- most, ---- -------<br>--- --- -- ----- -- --- ---- -- --- ---- -- ------ ------<br>--- ----- -- ----",75287.5,75286.5,74885.054,74887.70000004768,74901.725,75301.815,,36,"most,"
screen,html.Screen,0_2_0_1_37,2021-11-19T14:04:29.982Z,,,,,,,,,,,,,,,,53,,,,,,,,,,,,,,408.6849999999977,,response,,,99,,,,,,Space,keypress(Space),,,,,---- -- ----- -- ------ - ------- --- ----------<br>------------- ------ ------ ---- ---- ------- ----- -- ----<br>-------- ------- -- ---------- --- - --- ----- ----- ----<br>---- --- --- ----- --- ---- ---- ------- ----- it's -------<br>--- --- -- ----- -- --- ---- -- --- ---- -- ------ ------<br>--- ----- -- ----,75711.29999995232,75710.5,75285.144,75287.70000004768,75301.815,75718.562,,37,it's
screen,html.Screen,0_2_0_1_38,2021-11-19T14:04:30.286Z,,,,,,,,,,,,,,,,53,,,,,,,,,,,,,,295.93799999999464,,response,,,99,,,,,,Space,keypress(Space),,,,,---- -- ----- -- ------ - ------- --- ----------<br>------------- ------ ------ ---- ---- ------- ----- -- ----<br>-------- ------- -- ---------- --- - --- ----- ----- ----<br>---- --- --- ----- --- ---- ---- ------- ----- ---- whether<br>--- --- -- ----- -- --- ---- -- --- ---- -- ------ ------<br>--- ----- -- ----,76015.29999995232,76014.5,75701.892,75711.5,75718.562,76018.678,,38,whether
screen,html.Screen,0_2_0_1_39,2021-11-19T14:04:30.574Z,,,,,,,,,,,,,,,,53,,,,,,,,,,,,,,283.8220000000001,,response,,,99,,,,,,Space,keypress(Space),,,,,---- -- ----- -- ------ - ------- --- ----------<br>------------- ------ ------ ---- ---- ------- ----- -- ----<br>-------- ------- -- ---------- --- - --- ----- ----- ----<br>---- --- --- ----- --- ---- ---- ------- ----- ---- -------<br>you --- -- ----- -- --- ---- -- --- ---- -- ------ ------<br>--- ----- -- ----,76303.29999995232,76302.5,76002.007,76015.39999985695,76018.678,76318.721,,39,you
screen,html.Screen,0_2_0_1_40,2021-11-19T14:04:30.862Z,,,,,,,,,,,,,,,,53,,,,,,,,,,,,,,271.67899985694385,,response,,,99,,,,,,Space,keypress(Space),,,,,---- -- ----- -- ------ - ------- --- ----------<br>------------- ------ ------ ---- ---- ------- ----- -- ----<br>-------- ------- -- ---------- --- - --- ----- ----- ----<br>---- --- --- ----- --- ---- ---- ------- ----- ---- -------<br>--- are -- ----- -- --- ---- -- --- ---- -- ------ ------<br>--- ----- -- ----,76591.09999990463,76590.39999985695,76302.051,76303.5,76318.721,76602.18,,40,are
screen,html.Screen,0_2_0_1_41,2021-11-19T14:04:31.238Z,,,,,,,,,,,,,,,,53,,,,,,,,,,,,,,364.21999985695584,,response,,,99,,,,,,Space,keypress(Space),,,,,---- -- ----- -- ------ - ------- --- ----------<br>------------- ------ ------ ---- ---- ------- ----- -- ----<br>-------- ------- -- ---------- --- - --- ----- ----- ----<br>---- --- --- ----- --- ---- ---- ------- ----- ---- -------<br>--- --- as ----- -- --- ---- -- --- ---- -- ------ ------<br>--- ----- -- ----,76967.29999995232,76966.39999985695,76585.509,76591.39999985695,76602.18,76968.896,,41,as
screen,html.Screen,0_2_0_1_42,2021-11-19T14:04:31.646Z,,,,,,,,,,,,,,,,53,,,,,,,,,,,,,,405.5039998569555,,response,,,99,,,,,,Space,keypress(Space),,,,,---- -- ----- -- ------ - ------- --- ----------<br>------------- ------ ------ ---- ---- ------- ----- -- ----<br>-------- ------- -- ---------- --- - --- ----- ----- ----<br>---- --- --- ----- --- ---- ---- ------- ----- ---- -------<br>--- --- -- close -- --- ---- -- --- ---- -- ------ ------<br>--- ----- -- ----,77375.29999995232,77374.39999985695,76952.226,76967.39999985695,76968.896,77385.613,,42,close
screen,html.Screen,0_2_0_1_43,2021-11-19T14:04:31.966Z,,,,,,,,,,,,,,,,53,,,,,,,,,,,,,,308.7869998569513,,response,,,99,,,,,,Space,keypress(Space),,,,,---- -- ----- -- ------ - ------- --- ----------<br>------------- ------ ------ ---- ---- ------- ----- -- ----<br>-------- ------- -- ---------- --- - --- ----- ----- ----<br>---- --- --- ----- --- ---- ---- ------- ----- ---- -------<br>--- --- -- ----- as --- ---- -- --- ---- -- ------ ------<br>--- ----- -- ----,77695.29999995232,77694.39999985695,77368.944,77375.39999985695,77385.613,77702.483,,43,as
screen,html.Screen,0_2_0_1_44,2021-11-19T14:04:32.278Z,,,,,,,,,,,,,,,,53,,,,,,,,,,,,,,303.91699985695595,,response,,,99,,,,,,Space,keypress(Space),,,,,---- -- ----- -- ------ - ------- --- ----------<br>------------- ------ ------ ---- ---- ------- ----- -- ----<br>-------- ------- -- ---------- --- - --- ----- ----- ----<br>---- --- --- ----- --- ---- ---- ------- ----- ---- -------<br>--- --- -- ----- -- you ---- -- --- ---- -- ------ ------<br>--- ----- -- ----,78007.20000004768,78006.39999985695,77685.812,77695.5,77702.483,78019.214,,44,you
screen,html.Screen,0_2_0_1_45,2021-11-19T14:04:32.646Z,,,,,,,,,,,,,,,,53,,,,,,,,,,,,,,355.2859999999928,,response,,,99,,,,,,Space,keypress(Space),,,,,---- -- ----- -- ------ - ------- --- ----------<br>------------- ------ ------ ---- ---- ------- ----- -- ----<br>-------- ------- -- ---------- --- - --- ----- ----- ----<br>---- --- --- ----- --- ---- ---- ------- ----- ---- -------<br>--- --- -- ----- -- --- want -- --- ---- -- ------ ------<br>--- ----- -- ----,78375.29999995232,78374.5,78002.543,78007.5,78019.214,78385.946,,45,want
screen,html.Screen,0_2_0_1_46,2021-11-19T14:04:32.974Z,,,,,,,,,,,,,,,,53,,,,,,,,,,,,,,316.4539998569526,,response,,,99,,,,,,Space,keypress(Space),,,,,---- -- ----- -- ------ - ------- --- ----------<br>------------- ------ ------ ---- ---- ------- ----- -- ----<br>-------- ------- -- ---------- --- - --- ----- ----- ----<br>---- --- --- ----- --- ---- ---- ------- ----- ---- -------<br>--- --- -- ----- -- --- ---- to --- ---- -- ------ ------<br>--- ----- -- ----,78703.29999995232,78702.39999985695,78369.276,78375.39999985695,78385.946,78719.31,,46,to
screen,html.Screen,0_2_0_1_47,2021-11-19T14:04:33.278Z,,,,,,,,,,,,,,,,53,,,,,,,,,,,,,,287.0899998569512,,response,,,99,,,,,,Space,keypress(Space),,,,,"---- -- ----- -- ------ - ------- --- ----------<br>------------- ------ ------ ---- ---- ------- ----- -- ----<br>-------- ------- -- ---------- --- - --- ----- ----- ----<br>---- --- --- ----- --- ---- ---- ------- ----- ---- -------<br>--- --- -- ----- -- --- ---- -- be, ---- -- ------ ------<br>--- ----- -- ----",79007.20000004768,79006.39999985695,78702.641,78703.5,78719.31,79019.52,,47,"be,"
screen,html.Screen,0_2_0_1_48,2021-11-19T14:04:33.622Z,,,,,,,,,,,,,,,,53,,,,,,,,,,,,,,330.8799998569448,,response,,,99,,,,,,Space,keypress(Space),,,,,---- -- ----- -- ------ - ------- --- ----------<br>------------- ------ ------ ---- ---- ------- ----- -- ----<br>-------- ------- -- ---------- --- - --- ----- ----- ----<br>---- --- --- ----- --- ---- ---- ------- ----- ---- -------<br>--- --- -- ----- -- --- ---- -- --- even -- ------ ------<br>--- ----- -- ----,79351.20000004768,79350.39999985695,79002.848,79007.39999985695,79019.52,79352.902,,48,even
screen,html.Screen,0_2_0_1_49,2021-11-19T14:04:33.862Z,,,,,,,,,,,,,,,,53,,,,,,,,,,,,,,237.497999856947,,response,,,99,,,,,,Space,keypress(Space),,,,,---- -- ----- -- ------ - ------- --- ----------<br>------------- ------ ------ ---- ---- ------- ----- -- ----<br>-------- ------- -- ---------- --- - --- ----- ----- ----<br>---- --- --- ----- --- ---- ---- ------- ----- ---- -------<br>--- --- -- ----- -- --- ---- -- --- ---- if ------ ------<br>--- ----- -- ----,79591.20000004768,79590.39999985695,79336.231,79351.39999985695,79352.902,79602.984,,49,if
screen,html.Screen,0_2_0_1_50,2021-11-19T14:04:34.326Z,,,,,,,,,,,,,,,,53,,,,,,,,,,,,,,451.4159998569521,,response,,,99,,,,,,Space,keypress(Space),,,,,---- -- ----- -- ------ - ------- --- ----------<br>------------- ------ ------ ---- ---- ------- ----- -- ----<br>-------- ------- -- ---------- --- - --- ----- ----- ----<br>---- --- --- ----- --- ---- ---- ------- ----- ---- -------<br>--- --- -- ----- -- --- ---- -- --- ---- -- that's ------<br>--- ----- -- ----,80055.09999990463,80054.39999985695,79586.313,79591.5,79602.984,80069.777,,50,that's
screen,html.Screen,0_2_0_1_51,2021-11-19T14:04:34.702Z,,,,,,,,,,,,,,,,53,,,,,,,,,,,,,,360.622999856947,,response,,,99,,,,,,Space,keypress(Space),,,,,---- -- ----- -- ------ - ------- --- ----------<br>------------- ------ ------ ---- ---- ------- ----- -- ----<br>-------- ------- -- ---------- --- - --- ----- ----- ----<br>---- --- --- ----- --- ---- ---- ------- ----- ---- -------<br>--- --- -- ----- -- --- ---- -- --- ---- -- ------ really<br>--- ----- -- ----,80431.20000004768,80430.39999985695,80053.106,80055.39999985695,80069.777,80436.538,,51,really
screen,html.Screen,0_2_0_1_52,2021-11-19T14:04:35.054Z,,,,,,,,,,,,,,,,53,,,,,,,,,,,,,,345.8619998569484,,response,,,99,,,,,,Space,keypress(Space),,,,,---- -- ----- -- ------ - ------- --- ----------<br>------------- ------ ------ ---- ---- ------- ----- -- ----<br>-------- ------- -- ---------- --- - --- ----- ----- ----<br>---- --- --- ----- --- ---- ---- ------- ----- ---- -------<br>--- --- -- ----- -- --- ---- -- --- ---- -- ------ ------<br>not ----- -- ----,80783.20000004768,80782.39999985695,80419.867,80431.39999985695,80436.538,80786.602,,52,not
screen,html.Screen,0_2_0_1_53,2021-11-19T14:04:35.366Z,,,,,,,,,,,,,,,,53,,,,,,,,,,,,,,307.69799995231733,,response,,,99,,,,,,Space,keypress(Space),,,,,---- -- ----- -- ------ - ------- --- ----------<br>------------- ------ ------ ---- ---- ------- ----- -- ----<br>-------- ------- -- ---------- --- - --- ----- ----- ----<br>---- --- --- ----- --- ---- ---- ------- ----- ---- -------<br>--- --- -- ----- -- --- ---- -- --- ---- -- ------ ------<br>--- close -- ----,81095.20000004768,81094.29999995232,80769.932,80783.29999995232,80786.602,81103.269,,53,close
screen,html.Screen,0_2_0_1_54,2021-11-19T14:04:35.662Z,,,,,,,,,,,,,,,,53,,,,,,,,,,,,,,287.03099995231605,,response,,,99,,,,,,Space,keypress(Space),,,,,---- -- ----- -- ------ - ------- --- ----------<br>------------- ------ ------ ---- ---- ------- ----- -- ----<br>-------- ------- -- ---------- --- - --- ----- ----- ----<br>---- --- --- ----- --- ---- ---- ------- ----- ---- -------<br>--- --- -- ----- -- --- ---- -- --- ---- -- ------ ------<br>--- ----- at ----,81391.09999990463,81390.29999995232,81086.6,81095.39999985695,81103.269,81403.456,,54,at
screen,html.Screen,0_2_0_1_55,2021-11-19T14:04:36.142Z,,,,,,,,,,,,,,,,53,,,,,,,,,,,,,,466.94399985694326,,response,,,99,,,,,,Space,keypress(Space),,,,,---- -- ----- -- ------ - ------- --- ----------<br>------------- ------ ------ ---- ---- ------- ----- -- ----<br>-------- ------- -- ---------- --- - --- ----- ----- ----<br>---- --- --- ----- --- ---- ---- ------- ----- ---- -------<br>--- --- -- ----- -- --- ---- -- --- ---- -- ------ ------<br>--- ----- -- all.,81871.09999990463,81870.39999985695,81386.785,81391.29999995232,81403.456,81886.924,,55,all.
Item 99,flow.Loop,0_2_0_1,2021-11-19T14:04:36.146Z,,,,,,,,,,,,,,,,,,,,,,,,,,,,,,22623.07599985695,,completion,,,,E,,,,,,,,,,silence,,81875.5,81870.39999985695,59230.654,59237.5,59247.324,81886.924,,,
Question 1,html.Screen,0_2_0_2,2021-11-19T14:04:40.742Z,,,,,,,,,,,,,,,,,,,,,,,,,,,true,FALSE,,4582.97599985695,,response,,,99,E,,,,,FALSE,click #choice-2,,,,silence,,86471.29999995232,86469.89999985695,81870.253,81875.79999995232,81886.924,86471.488,,,
Question 2,html.Screen,0_2_0_3,2021-11-19T14:04:44.709Z,,,,,,,,,,,,,,,,,,,,,,,,,,,true,TRUE,,3966.3119999523187,,response,,,99,E,,,,,TRUE,click #choice-1,,,,silence,,90438.79999995232,90437.79999995232,86454.817,86471.59999990463,86471.488,90439.18,,,
Item 99,flow.Sequence,0_2_0,2021-11-19T14:04:44.710Z,,,,,,,,,,,,,,,,,,,,,,,,,,,,,,41193.08799995232,,completion,,,,,,,,,,,,,,,,90439.29999995232,90437.79999995232,49211.372,49225.799999952316,49244.712,90439.18,,,
Holding screen,html.Screen,0_2_1_0,2021-11-19T14:04:54.697Z,,,,,,,,,,,,,,,,,,,,,,,,,,,,,,10002.573000000004,,timeout,,,,,,,,,,,,,,,,100426,100425.083,90422.51,90439.70000004768,90439.18,100441.753,,,
screen,html.Screen,0_2_1_1_0,2021-11-19T14:04:55.453Z,,,,,,,,,,,,,,,,54,,,,,,,,,,,,,,740.247000000003,,response,,,100,,,,,,Space,keypress(Space),,,,,At --- ---- --- ------ ----- ------- ---- -- --- ------- --<br>------- ---------- ------ -- ----- -- ----- -- ---- ------<br>--- ----- --- --- ------ -------- ----- --- ------ ----- --<br>----- ----- ---------- --- --- ------ ------ ---- -- ------<br>------- --- ------ ----- --- ---- ------- -- ---- --- --<br>------- ------,101182.79999995232,101182,100425.083,100426.39999985695,100441.753,101192.149,,0,At
screen,html.Screen,0_2_1_1_1,2021-11-19T14:04:55.773Z,,,,,,,,,,,,,,,,54,,,,,,,,,,,,,,309.25099985694396,,response,,,100,,,,,,Space,keypress(Space),,,,,-- the ---- --- ------ ----- ------- ---- -- --- ------- --<br>------- ---------- ------ -- ----- -- ----- -- ---- ------<br>--- ----- --- --- ------ -------- ----- --- ------ ----- --<br>----- ----- ---------- --- --- ------ ------ ---- -- ------<br>------- --- ------ ----- --- ---- ------- -- ---- --- --<br>------- ------,101502.20000004768,101501.39999985695,101175.477,101183.09999990463,101192.149,101508.829,,1,the
screen,html.Screen,0_2_1_1_2,2021-11-19T14:04:56.229Z,,,,,,,,,,,,,,,,54,,,,,,,,,,,,,,448.57099985695095,,response,,,100,,,,,,Space,keypress(Space),,,,,-- --- time --- ------ ----- ------- ---- -- --- ------- --<br>------- ---------- ------ -- ----- -- ----- -- ---- ------<br>--- ----- --- --- ------ -------- ----- --- ------ ----- --<br>----- ----- ---------- --- --- ------ ------ ---- -- ------<br>------- --- ------ ----- --- ---- ------- -- ---- --- --<br>------- ------,101958.20000004768,101957.39999985695,101492.159,101502.5,101508.829,101975.616,,2,time
screen,html.Screen,0_2_1_1_3,2021-11-19T14:04:56.605Z,,,,,,,,,,,,,,,,54,,,,,,,,,,,,,,357.88400000000547,,response,,,100,,,,,,Space,keypress(Space),,,,,-- --- ---- the ------ ----- ------- ---- -- --- ------- --<br>------- ---------- ------ -- ----- -- ----- -- ---- ------<br>--- ----- --- --- ------ -------- ----- --- ------ ----- --<br>----- ----- ---------- --- --- ------ ------ ---- -- ------<br>------- --- ------ ----- --- ---- ------- -- ---- --- --<br>------- ------,102334.20000004768,102333.5,101958.946,101958.5,101975.616,102342.363,,3,the
screen,html.Screen,0_2_1_1_4,2021-11-19T14:04:57.189Z,,,,,,,,,,,,,,,,54,,,,,,,,,,,,,,575.0369998569513,,response,,,100,,,,,,Space,keypress(Space),,,,,-- --- ---- --- French ----- ------- ---- -- --- ------- --<br>------- ---------- ------ -- ----- -- ----- -- ---- ------<br>--- ----- --- --- ------ -------- ----- --- ------ ----- --<br>----- ----- ---------- --- --- ------ ------ ---- -- ------<br>------- --- ------ ----- --- ---- ------- -- ---- --- --<br>------- ------,102918.20000004768,102917.39999985695,102325.693,102334.39999985695,102342.363,102925.914,,4,French
screen,html.Screen,0_2_1_1_5,2021-11-19T14:04:57.605Z,,,,,,,,,,,,,,,,54,,,,,,,,,,,,,,407.48599985694455,,response,,,100,,,,,,Space,keypress(Space),,,,,-- --- ---- --- ------ crown ------- ---- -- --- ------- --<br>------- ---------- ------ -- ----- -- ----- -- ---- ------<br>--- ----- --- --- ------ -------- ----- --- ------ ----- --<br>----- ----- ---------- --- --- ------ ------ ---- -- ------<br>------- --- ------ ----- --- ---- ------- -- ---- --- --<br>------- ------,103334.29999995232,103333.39999985695,102909.243,102919.70000004768,102925.914,103342.68,,5,crown
screen,html.Screen,0_2_1_1_6,2021-11-19T14:04:57.885Z,,,,,,,,,,,,,,,,54,,,,,,,,,,,,,,270.820000000007,,response,,,100,,,,,,Space,keypress(Space),,,,,-- --- ---- --- ------ ----- secured ---- -- --- ------- --<br>------- ---------- ------ -- ----- -- ----- -- ---- ------<br>--- ----- --- --- ------ -------- ----- --- ------ ----- --<br>----- ----- ---------- --- --- ------ ------ ---- -- ------<br>------- --- ------ ----- --- ---- ------- -- ---- --- --<br>------- ------,103614.29999995232,103613.5,103326.009,103334.5,103342.68,103626.061,,6,secured
screen,html.Screen,0_2_1_1_7,2021-11-19T14:04:58.317Z,,,,,,,,,,,,,,,,54,,,,,,,,,,,,,,419.23899995231477,,response,,,100,,,,,,Space,keypress(Space),,,,,-- --- ---- --- ------ ----- ------- much -- --- ------- --<br>------- ---------- ------ -- ----- -- ----- -- ---- ------<br>--- ----- --- --- ------ -------- ----- --- ------ ----- --<br>----- ----- ---------- --- --- ------ ------ ---- -- ------<br>------- --- ------ ----- --- ---- ------- -- ---- --- --<br>------- ------,104046.09999990463,104045.29999995232,103609.391,103614.59999990463,103626.061,104059.557,,7,much
screen,html.Screen,0_2_1_1_8,2021-11-19T14:04:58.693Z,,,,,,,,,,,,,,,,54,,,,,,,,,,,,,,361.9429999999993,,response,,,100,,,,,,Space,keypress(Space),,,,,-- --- ---- --- ------ ----- ------- ---- of --- ------- --<br>------- ---------- ------ -- ----- -- ----- -- ---- ------<br>--- ----- --- --- ------ -------- ----- --- ------ ----- --<br>----- ----- ---------- --- --- ------ ------ ---- -- ------<br>------- --- ------ ----- --- ---- ------- -- ---- --- --<br>------- ------,104422.20000004768,104421.5,104042.886,104046.39999985695,104059.557,104426.125,,8,of
screen,html.Screen,0_2_1_1_9,2021-11-19T14:04:59.197Z,,,,,,,,,,,,,,,,54,,,,,,,,,,,,,,499.1749999523163,,response,,,100,,,,,,Space,keypress(Space),,,,,-- --- ---- --- ------ ----- ------- ---- -- its ------- --<br>------- ---------- ------ -- ----- -- ----- -- ---- ------<br>--- ----- --- --- ------ -------- ----- --- ------ ----- --<br>----- ----- ---------- --- --- ------ ------ ---- -- ------<br>------- --- ------ ----- --- ---- ------- -- ---- --- --<br>------- ------,104926.09999990463,104925.29999995232,104409.457,104422.5,104426.125,104943.07,,9,its
screen,html.Screen,0_2_1_1_10,2021-11-19T14:04:59.517Z,,,,,,,,,,,,,,,,54,,,,,,,,,,,,,,302.2299999523093,,response,,,100,,,,,,Space,keypress(Space),,,,,-- --- ---- --- ------ ----- ------- ---- -- --- revenue --<br>------- ---------- ------ -- ----- -- ----- -- ---- ------<br>--- ----- --- --- ------ -------- ----- --- ------ ----- --<br>----- ----- ---------- --- --- ------ ------ ---- -- ------<br>------- --- ------ ----- --- ---- ------- -- ---- --- --<br>------- ------,105246.09999990463,105245.29999995232,104926.399,104926.39999985695,104943.07,105259.932,,10,revenue
screen,html.Screen,0_2_1_1_11,2021-11-19T14:04:59.965Z,,,,,,,,,,,,,,,,54,,,,,,,,,,,,,,433.268000047683,,response,,,100,,,,,,Space,keypress(Space),,,,,-- --- ---- --- ------ ----- ------- ---- -- --- ------- by<br>------- ---------- ------ -- ----- -- ----- -- ---- ------<br>--- ----- --- --- ------ -------- ----- --- ------ ----- --<br>----- ----- ---------- --- --- ------ ------ ---- -- ------<br>------- --- ------ ----- --- ---- ------- -- ---- --- --<br>------- ------,105694,105693.20000004768,105243.26,105246.29999995232,105259.932,105709.984,,11,by
screen,html.Screen,0_2_1_1_12,2021-11-19T14:05:00.357Z,,,,,,,,,,,,,,,,54,,,,,,,,,,,,,,375.216000047687,,response,,,100,,,,,,Space,keypress(Space),,,,,-- --- ---- --- ------ ----- ------- ---- -- --- ------- --<br>issuing ---------- ------ -- ----- -- ----- -- ---- ------<br>--- ----- --- --- ------ -------- ----- --- ------ ----- --<br>----- ----- ---------- --- --- ------ ------ ---- -- ------<br>------- --- ------ ----- --- ---- ------- -- ---- --- --<br>------- ------,106086,106085.20000004768,105693.313,105694.20000004768,105709.984,106093.424,,12,issuing
screen,html.Screen,0_2_1_1_13,2021-11-19T14:05:00.797Z,,,,,,,,,,,,,,,,54,,,,,,,,,,,,,,431.6759999046335,,response,,,100,,,,,,Space,keypress(Space),,,,,-- --- ---- --- ------ ----- ------- ---- -- --- ------- --<br>------- government ------ -- ----- -- ----- -- ---- ------<br>--- ----- --- --- ------ -------- ----- --- ------ ----- --<br>----- ----- ---------- --- --- ------ ------ ---- -- ------<br>------- --- ------ ----- --- ---- ------- -- ---- --- --<br>------- ------,106526,106525.09999990463,106076.753,106086.20000004768,106093.424,106526.874,,13,government
screen,html.Screen,0_2_1_1_14,2021-11-19T14:05:01.357Z,,,,,,,,,,,,,,,,54,,,,,,,,,,,,,,558.3260000476876,,response,,,100,,,,,,Space,keypress(Space),,,,,-- --- ---- --- ------ ----- ------- ---- -- --- ------- --<br>------- ---------- bonds. -- ----- -- ----- -- ---- ------<br>--- ----- --- --- ------ -------- ----- --- ------ ----- --<br>----- ----- ---------- --- --- ------ ------ ---- -- ------<br>------- --- ------ ----- --- ---- ------- -- ---- --- --<br>------- ------,107086,107085.20000004768,106510.203,106526.20000004768,106526.874,107093.706,,14,bonds.
screen,html.Screen,0_2_1_1_15,2021-11-19T14:05:01.853Z,,,,,,,,,,,,,,,,54,,,,,,,,,,,,,,487.4940000476781,,response,,,100,,,,,,Space,keypress(Space),,,,,-- --- ---- --- ------ ----- ------- ---- -- --- ------- --<br>------- ---------- ------ In ----- -- ----- -- ---- ------<br>--- ----- --- --- ------ -------- ----- --- ------ ----- --<br>----- ----- ---------- --- --- ------ ------ ---- -- ------<br>------- --- ------ ----- --- ---- ------- -- ---- --- --<br>------- ------,107581.89999985695,107581.20000004768,107077.035,107086.09999990463,107093.706,107593.625,,15,In
screen,html.Screen,0_2_1_1_16,2021-11-19T14:05:01.997Z,,,,,,,,,,,,,,,,54,,,,,,,,,,,,,,131.57500004768372,,response,,,100,,,,,,Space,keypress(Space),,,,,"-- --- ---- --- ------ ----- ------- ---- -- --- ------- --<br>------- ---------- ------ -- 1727, -- ----- -- ---- ------<br>--- ----- --- --- ------ -------- ----- --- ------ ----- --<br>----- ----- ---------- --- --- ------ ------ ---- -- ------<br>------- --- ------ ----- --- ---- ------- -- ---- --- --<br>------- ------",107726,107725.20000004768,107576.957,107582.20000004768,107593.625,107727.25,,16,"1727,"
screen,html.Screen,0_2_1_1_17,2021-11-19T14:05:03.028Z,,,,,,,,,,,,,,,,54,,,,,,,,,,,,,,1029.8499999046326,,response,,,100,,,,,,Space,keypress(Space),,,,,-- --- ---- --- ------ ----- ------- ---- -- --- ------- --<br>------- ---------- ------ -- ----- in ----- -- ---- ------<br>--- ----- --- --- ------ -------- ----- --- ------ ----- --<br>----- ----- ---------- --- --- ------ ------ ---- -- ------<br>------- --- ------ ----- --- ---- ------- -- ---- --- --<br>------- ------,108757.79999995232,108757.09999990463,107710.578,107726.20000004768,107727.25,108760.806,,17,in
screen,html.Screen,0_2_1_1_18,2021-11-19T14:05:03.428Z,,,,,,,,,,,,,,,,54,,,,,,,,,,,,,,396.2939999046357,,response,,,100,,,,,,Space,keypress(Space),,,,,-- --- ---- --- ------ ----- ------- ---- -- --- ------- --<br>------- ---------- ------ -- ----- -- order -- ---- ------<br>--- ----- --- --- ------ -------- ----- --- ------ ----- --<br>----- ----- ---------- --- --- ------ ------ ---- -- ------<br>------- --- ------ ----- --- ---- ------- -- ---- --- --<br>------- ------,109157.79999995232,109157.09999990463,108744.135,108758.09999990463,108760.806,109160.85,,18,order
screen,html.Screen,0_2_1_1_19,2021-11-19T14:05:04.004Z,,,,,,,,,,,,,,,,54,,,,,,,,,,,,,,572.2499999046267,,response,,,100,,,,,,Space,keypress(Space),,,,,-- --- ---- --- ------ ----- ------- ---- -- --- ------- --<br>------- ---------- ------ -- ----- -- ----- to ---- ------<br>--- ----- --- --- ------ -------- ----- --- ------ ----- --<br>----- ----- ---------- --- --- ------ ------ ---- -- ------<br>------- --- ------ ----- --- ---- ------- -- ---- --- --<br>------- ------,109733.89999985695,109733.09999990463,109144.18,109158.09999990463,109160.85,109744.411,,19,to
screen,html.Screen,0_2_1_1_20,2021-11-19T14:05:04.316Z,,,,,,,,,,,,,,,,54,,,,,,,,,,,,,,300.6889999046398,,response,,,100,,,,,,Space,keypress(Space),,,,,-- --- ---- --- ------ ----- ------- ---- -- --- ------- --<br>------- ---------- ------ -- ----- -- ----- -- save ------<br>--- ----- --- --- ------ -------- ----- --- ------ ----- --<br>----- ----- ---------- --- --- ------ ------ ---- -- ------<br>------- --- ------ ----- --- ---- ------- -- ---- --- --<br>------- ------,110045.89999985695,110045.09999990463,109727.74,109734.09999990463,109744.411,110061.042,,20,save
screen,html.Screen,0_2_1_1_21,2021-11-19T14:05:04.612Z,,,,,,,,,,,,,,,,54,,,,,,,,,,,,,,279.9579999999987,,response,,,100,,,,,,Space,keypress(Space),,,,,"-- --- ---- --- ------ ----- ------- ---- -- --- ------- --<br>------- ---------- ------ -- ----- -- ----- -- ---- money,<br>--- ----- --- --- ------ -------- ----- --- ------ ----- --<br>----- ----- ---------- --- --- ------ ------ ---- -- ------<br>------- --- ------ ----- --- ---- ------- -- ---- --- --<br>------- ------",110341.89999985695,110341,110044.373,110046.09999990463,110061.042,110344.575,,21,"money,"
screen,html.Screen,0_2_1_1_22,2021-11-19T14:05:05.188Z,,,,,,,,,,,,,,,,54,,,,,,,,,,,,,,572.3249998569518,,response,,,100,,,,,,Space,keypress(Space),,,,,-- --- ---- --- ------ ----- ------- ---- -- --- ------- --<br>------- ---------- ------ -- ----- -- ----- -- ---- ------<br>the ----- --- --- ------ -------- ----- --- ------ ----- --<br>----- ----- ---------- --- --- ------ ------ ---- -- ------<br>------- --- ------ ----- --- ---- ------- -- ---- --- --<br>------- ------,110917.79999995232,110916.89999985695,110327.904,110342.09999990463,110344.575,110928.073,,22,the
screen,html.Screen,0_2_1_1_23,2021-11-19T14:05:05.525Z,,,,,,,,,,,,,,,,54,,,,,,,,,,,,,,325.3269998569449,,response,,,100,,,,,,Space,keypress(Space),,,,,-- --- ---- --- ------ ----- ------- ---- -- --- ------- --<br>------- ---------- ------ -- ----- -- ----- -- ---- ------<br>--- state --- --- ------ -------- ----- --- ------ ----- --<br>----- ----- ---------- --- --- ------ ------ ---- -- ------<br>------- --- ------ ----- --- ---- ------- -- ---- --- --<br>------- ------,111254.20000004768,111253.39999985695,110911.402,110918,110928.073,111261.439,,23,state
screen,html.Screen,0_2_1_1_24,2021-11-19T14:05:05.972Z,,,,,,,,,,,,,,,,54,,,,,,,,,,,,,,439.46099985695037,,response,,,100,,,,,,Space,keypress(Space),,,,,-- --- ---- --- ------ ----- ------- ---- -- --- ------- --<br>------- ---------- ------ -- ----- -- ----- -- ---- ------<br>--- ----- cut --- ------ -------- ----- --- ------ ----- --<br>----- ----- ---------- --- --- ------ ------ ---- -- ------<br>------- --- ------ ----- --- ---- ------- -- ---- --- --<br>------- ------,111701.70000004768,111700.89999985695,111244.769,111254.5,111261.439,111711.6,,24,cut
screen,html.Screen,0_2_1_1_25,2021-11-19T14:05:06.332Z,,,,,,,,,,,,,,,,54,,,,,,,,,,,,,,349.29999985694303,,response,,,100,,,,,,Space,keypress(Space),,,,,-- --- ---- --- ------ ----- ------- ---- -- --- ------- --<br>------- ---------- ------ -- ----- -- ----- -- ---- ------<br>--- ----- --- the ------ -------- ----- --- ------ ----- --<br>----- ----- ---------- --- --- ------ ------ ---- -- ------<br>------- --- ------ ----- --- ---- ------- -- ---- --- --<br>------- ------,112061.79999995232,112060.89999985695,111694.929,111702,111711.6,112078.367,,25,the
screen,html.Screen,0_2_1_1_26,2021-11-19T14:05:06.852Z,,,,,,,,,,,,,,,,54,,,,,,,,,,,,,,502.4329999523179,,response,,,100,,,,,,Space,keypress(Space),,,,,-- --- ---- --- ------ ----- ------- ---- -- --- ------- --<br>------- ---------- ------ -- ----- -- ----- -- ---- ------<br>--- ----- --- --- bonds' -------- ----- --- ------ ----- --<br>----- ----- ---------- --- --- ------ ------ ---- -- ------<br>------- --- ------ ----- --- ---- ------- -- ---- --- --<br>------- ------,112581.59999990463,112580.79999995232,112061.696,112062,112078.367,112595.045,,26,bonds'
screen,html.Screen,0_2_1_1_27,2021-11-19T14:05:07.204Z,,,,,,,,,,,,,,,,54,,,,,,,,,,,,,,337.8549998569506,,response,,,100,,,,,,Space,keypress(Space),,,,,-- --- ---- --- ------ ----- ------- ---- -- --- ------- --<br>------- ---------- ------ -- ----- -- ----- -- ---- ------<br>--- ----- --- --- ------ interest ----- --- ------ ----- --<br>----- ----- ---------- --- --- ------ ------ ---- -- ------<br>------- --- ------ ----- --- ---- ------- -- ---- --- --<br>------- ------,112933.70000004768,112932.89999985695,112578.376,112581.89999985695,112595.045,112945.332,,27,interest
screen,html.Screen,0_2_1_1_28,2021-11-19T14:05:07.548Z,,,,,,,,,,,,,,,,54,,,,,,,,,,,,,,331.567999856954,,response,,,100,,,,,,Space,keypress(Space),,,,,-- --- ---- --- ------ ----- ------- ---- -- --- ------- --<br>------- ---------- ------ -- ----- -- ----- -- ---- ------<br>--- ----- --- --- ------ -------- rate. --- ------ ----- --<br>----- ----- ---------- --- --- ------ ------ ---- -- ------<br>------- --- ------ ----- --- ---- ------- -- ---- --- --<br>------- ------,113277.70000004768,113276.89999985695,112928.66,112933.89999985695,112945.332,113278.705,,28,rate.
screen,html.Screen,0_2_1_1_29,2021-11-19T14:05:08.060Z,,,,,,,,,,,,,,,,54,,,,,,,,,,,,,,510.1949998569471,,response,,,100,,,,,,Space,keypress(Space),,,,,-- --- ---- --- ------ ----- ------- ---- -- --- ------- --<br>------- ---------- ------ -- ----- -- ----- -- ---- ------<br>--- ----- --- --- ------ -------- ----- The ------ ----- --<br>----- ----- ---------- --- --- ------ ------ ---- -- ------<br>------- --- ------ ----- --- ---- ------- -- ---- --- --<br>------- ------,113789.59999990463,113788.89999985695,113262.034,113278,113278.705,113795.447,,29,The
screen,html.Screen,0_2_1_1_30,2021-11-19T14:05:08.580Z,,,,,,,,,,,,,,,,54,,,,,,,,,,,,,,513.4529998569487,,response,,,100,,,,,,Space,keypress(Space),,,,,-- --- ---- --- ------ ----- ------- ---- -- --- ------- --<br>------- ---------- ------ -- ----- -- ----- -- ---- ------<br>--- ----- --- --- ------ -------- ----- --- market ----- --<br>----- ----- ---------- --- --- ------ ------ ---- -- ------<br>------- --- ------ ----- --- ---- ------- -- ---- --- --<br>------- ------,114309.79999995232,114308.89999985695,113778.777,113789.89999985695,113795.447,114312.327,,30,market
screen,html.Screen,0_2_1_1_31,2021-11-19T14:05:08.876Z,,,,,,,,,,,,,,,,54,,,,,,,,,,,,,,292.5729998569441,,response,,,100,,,,,,Space,keypress(Space),,,,,-- --- ---- --- ------ ----- ------- ---- -- --- ------- --<br>------- ---------- ------ -- ----- -- ----- -- ---- ------<br>--- ----- --- --- ------ -------- ----- --- ------ value --<br>----- ----- ---------- --- --- ------ ------ ---- -- ------<br>------- --- ------ ----- --- ---- ------- -- ---- --- --<br>------- ------,114605.59999990463,114604.89999985695,114295.656,114310,114312.327,114612.341,,31,value
screen,html.Screen,0_2_1_1_32,2021-11-19T14:05:09.316Z,,,,,,,,,,,,,,,,54,,,,,,,,,,,,,,432.45899995231593,,response,,,100,,,,,,Space,keypress(Space),,,,,-- --- ---- --- ------ ----- ------- ---- -- --- ------- --<br>------- ---------- ------ -- ----- -- ----- -- ---- ------<br>--- ----- --- --- ------ -------- ----- --- ------ ----- of<br>----- ----- ---------- --- --- ------ ------ ---- -- ------<br>------- --- ------ ----- --- ---- ------- -- ---- --- --<br>------- ------,115045.59999990463,115044.79999995232,114595.671,114605.89999985695,114612.341,115062.515,,32,of
screen,html.Screen,0_2_1_1_33,2021-11-19T14:05:09.828Z,,,,,,,,,,,,,,,,54,,,,,,,,,,,,,,494.38499985694943,,response,,,100,,,,,,Space,keypress(Space),,,,,-- --- ---- --- ------ ----- ------- ---- -- --- ------- --<br>------- ---------- ------ -- ----- -- ----- -- ---- ------<br>--- ----- --- --- ------ -------- ----- --- ------ ----- --<br>these ----- ---------- --- --- ------ ------ ---- -- ------<br>------- --- ------ ----- --- ---- ------- -- ---- --- --<br>------- ------,115557.59999990463,115556.89999985695,115045.844,115045.89999985695,115062.515,115562.589,,33,these
screen,html.Screen,0_2_1_1_34,2021-11-19T14:05:10.228Z,,,,,,,,,,,,,,,,54,,,,,,,,,,,,,,394.1110000476765,,response,,,100,,,,,,Space,keypress(Space),,,,,-- --- ---- --- ------ ----- ------- ---- -- --- ------- --<br>------- ---------- ------ -- ----- -- ----- -- ---- ------<br>--- ----- --- --- ------ -------- ----- --- ------ ----- --<br>----- bonds ---------- --- --- ------ ------ ---- -- ------<br>------- --- ------ ----- --- ---- ------- -- ---- --- --<br>------- ------,115957.59999990463,115956.70000004768,115545.919,115557.79999995232,115562.589,115962.743,,34,bonds
screen,html.Screen,0_2_1_1_35,2021-11-19T14:05:10.604Z,,,,,,,,,,,,,,,,54,,,,,,,,,,,,,,370.0569999523141,,response,,,100,,,,,,Space,keypress(Space),,,,,"-- --- ---- --- ------ ----- ------- ---- -- --- ------- --<br>------- ---------- ------ -- ----- -- ----- -- ---- ------<br>--- ----- --- --- ------ -------- ----- --- ------ ----- --<br>----- ----- plummeted, --- --- ------ ------ ---- -- ------<br>------- --- ------ ----- --- ---- ------- -- ---- --- --<br>------- ------",116333.59999990463,116332.79999995232,115946.072,115957.70000004768,115962.743,116346.182,,35,"plummeted,"
screen,html.Screen,0_2_1_1_36,2021-11-19T14:05:11.204Z,,,,,,,,,,,,,,,,54,,,,,,,,,,,,,,586.6179999523156,,response,,,100,,,,,,Space,keypress(Space),,,,,-- --- ---- --- ------ ----- ------- ---- -- --- ------- --<br>------- ---------- ------ -- ----- -- ----- -- ---- ------<br>--- ----- --- --- ------ -------- ----- --- ------ ----- --<br>----- ----- ---------- and --- ------ ------ ---- -- ------<br>------- --- ------ ----- --- ---- ------- -- ---- --- --<br>------- ------,116933.5,116932.79999995232,116329.511,116333.79999995232,116346.182,116946.356,,36,and
screen,html.Screen,0_2_1_1_37,2021-11-19T14:05:11.556Z,,,,,,,,,,,,,,,,54,,,,,,,,,,,,,,338.4439999523165,,response,,,100,,,,,,Space,keypress(Space),,,,,-- --- ---- --- ------ ----- ------- ---- -- --- ------- --<br>------- ---------- ------ -- ----- -- ----- -- ---- ------<br>--- ----- --- --- ------ -------- ----- --- ------ ----- --<br>----- ----- ---------- --- the ------ ------ ---- -- ------<br>------- --- ------ ----- --- ---- ------- -- ---- --- --<br>------- ------,117285.5,117284.79999995232,116929.685,116933.70000004768,116946.356,117296.409,,37,the
screen,html.Screen,0_2_1_1_38,2021-11-19T14:05:12.020Z,,,,,,,,,,,,,,,,54,,,,,,,,,,,,,,452.29100004768407,,response,,,100,,,,,,Space,keypress(Space),,,,,-- --- ---- --- ------ ----- ------- ---- -- --- ------- --<br>------- ---------- ------ -- ----- -- ----- -- ---- ------<br>--- ----- --- --- ------ -------- ----- --- ------ ----- --<br>----- ----- ---------- --- --- market ------ ---- -- ------<br>------- --- ------ ----- --- ---- ------- -- ---- --- --<br>------- ------,117749.59999990463,117748.70000004768,117279.739,117285.79999995232,117296.409,117763.193,,38,market
screen,html.Screen,0_2_1_1_39,2021-11-19T14:05:12.324Z,,,,,,,,,,,,,,,,54,,,,,,,,,,,,,,289.5070000476844,,response,,,100,,,,,,Space,keypress(Space),,,,,-- --- ---- --- ------ ----- ------- ---- -- --- ------- --<br>------- ---------- ------ -- ----- -- ----- -- ---- ------<br>--- ----- --- --- ------ -------- ----- --- ------ ----- --<br>----- ----- ---------- --- --- ------ became ---- -- ------<br>------- --- ------ ----- --- ---- ------- -- ---- --- --<br>------- ------,118053.5,118052.70000004768,117746.523,117749.79999995232,117763.193,118063.309,,39,became
screen,html.Screen,0_2_1_1_40,2021-11-19T14:05:12.828Z,,,,,,,,,,,,,,,,54,,,,,,,,,,,,,,493.3910000476899,,response,,,100,,,,,,Space,keypress(Space),,,,,-- --- ---- --- ------ ----- ------- ---- -- --- ------- --<br>------- ---------- ------ -- ----- -- ----- -- ---- ------<br>--- ----- --- --- ------ -------- ----- --- ------ ----- --<br>----- ----- ---------- --- --- ------ ------ wary -- ------<br>------- --- ------ ----- --- ---- ------- -- ---- --- --<br>------- ------,118557.5,118556.70000004768,118046.638,118053.70000004768,118063.309,118563.445,,40,wary
screen,html.Screen,0_2_1_1_41,2021-11-19T14:05:13.164Z,,,,,,,,,,,,,,,,54,,,,,,,,,,,,,,329.1549999046256,,response,,,100,,,,,,Space,keypress(Space),,,,,-- --- ---- --- ------ ----- ------- ---- -- --- ------- --<br>------- ---------- ------ -- ----- -- ----- -- ---- ------<br>--- ----- --- --- ------ -------- ----- --- ------ ----- --<br>----- ----- ---------- --- --- ------ ------ ---- of ------<br>------- --- ------ ----- --- ---- ------- -- ---- --- --<br>------- ------,118893.5,118892.59999990463,118546.774,118557.79999995232,118563.445,118896.837,,41,of
screen,html.Screen,0_2_1_1_42,2021-11-19T14:05:13.549Z,,,,,,,,,,,,,,,,54,,,,,,,,,,,,,,379.8630000476842,,response,,,100,,,,,,Space,keypress(Space),,,,,-- --- ---- --- ------ ----- ------- ---- -- --- ------- --<br>------- ---------- ------ -- ----- -- ----- -- ---- ------<br>--- ----- --- --- ------ -------- ----- --- ------ ----- --<br>----- ----- ---------- --- --- ------ ------ ---- -- French<br>------- --- ------ ----- --- ---- ------- -- ---- --- --<br>------- ------,119278.70000004768,119276.70000004768,118880.167,118893.79999995232,118896.837,119280.27,,42,French
screen,html.Screen,0_2_1_1_43,2021-11-19T14:05:13.932Z,,,,,,,,,,,,,,,,54,,,,,,,,,,,,,,380.43000004767964,,response,,,100,,,,,,Space,keypress(Space),,,,,-- --- ---- --- ------ ----- ------- ---- -- --- ------- --<br>------- ---------- ------ -- ----- -- ----- -- ---- ------<br>--- ----- --- --- ------ -------- ----- --- ------ ----- --<br>----- ----- ---------- --- --- ------ ------ ---- -- ------<br>credit. --- ------ ----- --- ---- ------- -- ---- --- --<br>------- ------,119661.39999985695,119660.70000004768,119263.6,119279,119280.27,119663.748,,43,credit.
screen,html.Screen,0_2_1_1_44,2021-11-19T14:05:14.396Z,,,,,,,,,,,,,,,,54,,,,,,,,,,,,,,460.95200004767685,,response,,,100,,,,,,Space,keypress(Space),,,,,-- --- ---- --- ------ ----- ------- ---- -- --- ------- --<br>------- ---------- ------ -- ----- -- ----- -- ---- ------<br>--- ----- --- --- ------ -------- ----- --- ------ ----- --<br>----- ----- ---------- --- --- ------ ------ ---- -- ------<br>------- The ------ ----- --- ---- ------- -- ---- --- --<br>------- ------,120125.5,120124.70000004768,119647.077,119661.59999990463,119663.748,120130.533,,44,The
screen,html.Screen,0_2_1_1_45,2021-11-19T14:05:14.620Z,,,,,,,,,,,,,,,,54,,,,,,,,,,,,,,218.06699990463676,,response,,,100,,,,,,Space,keypress(Space),,,,,-- --- ---- --- ------ ----- ------- ---- -- --- ------- --<br>------- ---------- ------ -- ----- -- ----- -- ---- ------<br>--- ----- --- --- ------ -------- ----- --- ------ ----- --<br>----- ----- ---------- --- --- ------ ------ ---- -- ------<br>------- --- French ----- --- ---- ------- -- ---- --- --<br>------- ------,120349.39999985695,120348.59999990463,120113.862,120125.70000004768,120130.533,120363.93,,45,French
screen,html.Screen,0_2_1_1_46,2021-11-19T14:05:15.031Z,,,,,,,,,,,,,,,,54,,,,,,,,,,,,,,392.66999990463955,,response,,,100,,,,,,Space,keypress(Space),,,,,-- --- ---- --- ------ ----- ------- ---- -- --- ------- --<br>------- ---------- ------ -- ----- -- ----- -- ---- ------<br>--- ----- --- --- ------ -------- ----- --- ------ ----- --<br>----- ----- ---------- --- --- ------ ------ ---- -- ------<br>------- --- ------ state --- ---- ------- -- ---- --- --<br>------- ------,120757.39999985695,120756.59999990463,120347.259,120349.59999990463,120363.93,120764.042,,46,state
screen,html.Screen,0_2_1_1_47,2021-11-19T14:05:15.407Z,,,,,,,,,,,,,,,,54,,,,,,,,,,,,,,368.5579999046313,,response,,,100,,,,,,Space,keypress(Space),,,,,-- --- ---- --- ------ ----- ------- ---- -- --- ------- --<br>------- ---------- ------ -- ----- -- ----- -- ---- ------<br>--- ----- --- --- ------ -------- ----- --- ------ ----- --<br>----- ----- ---------- --- --- ------ ------ ---- -- ------<br>------- --- ------ ----- was ---- ------- -- ---- --- --<br>------- ------,121133.29999995232,121132.59999990463,120747.371,120757.70000004768,120764.042,121147.425,,47,was
screen,html.Screen,0_2_1_1_48,2021-11-19T14:05:15.695Z,,,,,,,,,,,,,,,,54,,,,,,,,,,,,,,273.5749999999971,,response,,,100,,,,,,Space,keypress(Space),,,,,-- --- ---- --- ------ ----- ------- ---- -- --- ------- --<br>------- ---------- ------ -- ----- -- ----- -- ---- ------<br>--- ----- --- --- ------ -------- ----- --- ------ ----- --<br>----- ----- ---------- --- --- ------ ------ ---- -- ------<br>------- --- ------ ----- --- left ------- -- ---- --- --<br>------- ------,121421.79999995232,121421,121130.755,121133.59999990463,121147.425,121430.791,,48,left
screen,html.Screen,0_2_1_1_49,2021-11-19T14:05:16.071Z,,,,,,,,,,,,,,,,54,,,,,,,,,,,,,,365.80899990463513,,response,,,100,,,,,,Space,keypress(Space),,,,,-- --- ---- --- ------ ----- ------- ---- -- --- ------- --<br>------- ---------- ------ -- ----- -- ----- -- ---- ------<br>--- ----- --- --- ------ -------- ----- --- ------ ----- --<br>----- ----- ---------- --- --- ------ ------ ---- -- ------<br>------- --- ------ ----- --- ---- without -- ---- --- --<br>------- ------,121797.29999995232,121796.59999990463,121414.122,121422,121430.791,121814.363,,49,without
screen,html.Screen,0_2_1_1_50,2021-11-19T14:05:16.495Z,,,,,,,,,,,,,,,,54,,,,,,,,,,,,,,406.236999904635,,response,,,100,,,,,,Space,keypress(Space),,,,,-- --- ---- --- ------ ----- ------- ---- -- --- ------- --<br>------- ---------- ------ -- ----- -- ----- -- ---- ------<br>--- ----- --- --- ------ -------- ----- --- ------ ----- --<br>----- ----- ---------- --- --- ------ ------ ---- -- ------<br>------- --- ------ ----- --- ---- ------- an ---- --- --<br>------- ------,122221.29999995232,122220.59999990463,121797.691,121797.59999990463,121814.363,122231.056,,50,an
screen,html.Screen,0_2_1_1_51,2021-11-19T14:05:16.759Z,,,,,,,,,,,,,,,,54,,,,,,,,,,,,,,253.44400000000314,,response,,,100,,,,,,Space,keypress(Space),,,,,-- --- ---- --- ------ ----- ------- ---- -- --- ------- --<br>------- ---------- ------ -- ----- -- ----- -- ---- ------<br>--- ----- --- --- ------ -------- ----- --- ------ ----- --<br>----- ----- ---------- --- --- ------ ------ ---- -- ------<br>------- --- ------ ----- --- ---- ------- -- easy --- --<br>------- ------,122485.29999995232,122484.5,122214.386,122221.59999990463,122231.056,122497.831,,51,easy
screen,html.Screen,0_2_1_1_52,2021-11-19T14:05:17.023Z,,,,,,,,,,,,,,,,54,,,,,,,,,,,,,,250.76899990462698,,response,,,100,,,,,,Space,keypress(Space),,,,,-- --- ---- --- ------ ----- ------- ---- -- --- ------- --<br>------- ---------- ------ -- ----- -- ----- -- ---- ------<br>--- ----- --- --- ------ -------- ----- --- ------ ----- --<br>----- ----- ---------- --- --- ------ ------ ---- -- ------<br>------- --- ------ ----- --- ---- ------- -- ---- way --<br>------- ------,122749.29999995232,122748.59999990463,122481.16,122485.5,122497.831,122764.584,,52,way
screen,html.Screen,0_2_1_1_53,2021-11-19T14:05:17.431Z,,,,,,,,,,,,,,,,54,,,,,,,,,,,,,,391.91599999999744,,response,,,100,,,,,,Space,keypress(Space),,,,,-- --- ---- --- ------ ----- ------- ---- -- --- ------- --<br>------- ---------- ------ -- ----- -- ----- -- ---- ------<br>--- ----- --- --- ------ -------- ----- --- ------ ----- --<br>----- ----- ---------- --- --- ------ ------ ---- -- ------<br>------- --- ------ ----- --- ---- ------- -- ---- --- of<br>------- ------,123157.20000004768,123156.5,122747.913,122749.59999990463,122764.584,123164.603,,53,of
screen,html.Screen,0_2_1_1_54,2021-11-19T14:05:17.679Z,,,,,,,,,,,,,,,,54,,,,,,,,,,,,,,239.8969999999972,,response,,,100,,,,,,Space,keypress(Space),,,,,-- --- ---- --- ------ ----- ------- ---- -- --- ------- --<br>------- ---------- ------ -- ----- -- ----- -- ---- ------<br>--- ----- --- --- ------ -------- ----- --- ------ ----- --<br>----- ----- ---------- --- --- ------ ------ ---- -- ------<br>------- --- ------ ----- --- ---- ------- -- ---- --- --<br>raising ------,123405.29999995232,123404.5,123147.934,123157.5,123164.603,123414.77,,54,raising
screen,html.Screen,0_2_1_1_55,2021-11-19T14:05:18.055Z,,,,,,,,,,,,,,,,54,,,,,,,,,,,,,,365.7299999999959,,response,,,100,,,,,,Space,keypress(Space),,,,,-- --- ---- --- ------ ----- ------- ---- -- --- ------- --<br>------- ---------- ------ -- ----- -- ----- -- ---- ------<br>--- ----- --- --- ------ -------- ----- --- ------ ----- --<br>----- ----- ---------- --- --- ------ ------ ---- -- ------<br>------- --- ------ ----- --- ---- ------- -- ---- --- --<br>------- money.,123781.29999995232,123780.5,123398.099,123405.5,123414.77,123798.152,,55,money.
Item 100,flow.Loop,0_2_1_1,2021-11-19T14:05:18.055Z,,,,,,,,,,,,,,,,,,,,,,,,,,,,,,23338.747000000003,,completion,,,,E,,,,,,,,,,silence,,123781.79999995232,123780.5,100425.083,100426.20000004768,100441.753,123798.152,,,
Question 1,html.Screen,0_2_1_2,2021-11-19T14:05:20.063Z,,,,,,,,,,,,,,,,,,,,,,,,,,,true,TRUE,,1990.0480000476819,,response,,,100,E,,,,,TRUE,click #choice-1,,,,silence,,125789.29999995232,125788.20000004768,123781.482,123782,123798.152,125815.527,,,
Question 2,html.Screen,0_2_1_3,2021-11-19T14:05:22.663Z,,,,,,,,,,,,,,,,,,,,,,,,,,,true,FALSE,,2572.5729999046307,,response,,,100,E,,,,,FALSE,click #choice-2,,,,silence,,128389.29999995232,128388.09999990463,125798.855,125789.5,125815.527,128399.417,,,
Item 100,flow.Sequence,0_2_1,2021-11-19T14:05:22.663Z,,,,,,,,,,,,,,,,,,,,,,,,,,,,,,37948.91999990464,,completion,,,,,,,,,,,,,,,,128389.59999990463,128388.09999990463,90422.51,90439.5,90439.18,128399.417,,,
End of Practice,html.Page,0_2_2,2021-11-19T14:05:26.223Z,,,,,,,,,,,,,,,,,,,,,,,,,,,,,,3549.9829998569476,,form submission,,,,,,,,,,,,,,,,131950,131949.39999985695,128382.746,128389.79999995232,128399.417,131950.211,,,
Practice,flow.Sequence,0_2,2021-11-19T14:05:26.224Z,,,,,,,,,,,,,,,,,,,,,,,,,,,,,,82704.68799985695,,completion,,,,,,,,,,,,,,,,131950.5,131949.39999985695,49211.372,49225.799999952316,49244.712,131950.211,,,
Trap_instruction,html.Page,0_3_0,2021-11-19T14:05:29.158Z,,,,,,,,,,,,,,,,,,,,,,,,,,,,,,2934.4890000476735,,form submission,,,,,,,,,,,,,,,,134885,134884.70000004768,131933.541,131951,131950.211,134900.912,,,
trap_trial,html.Screen,0_3_1,2021-11-19T14:05:33.302Z,,,,,,,,,,,,,,,,,,,,,,,,,,,true,1,,4126.587999999989,,response,,,,,,,,,1,click #choice-1,,,,,,139028.89999985695,139027.5,134884.242,134885.20000004768,134900.912,139035.277,,,
end of trap trial,html.Page,0_3_2,2021-11-19T14:05:35.295Z,,,,,,,,,,,,,,,,,,,,,,,,,,,,,,1985.7229999999981,,form submission,,,,,,,,,,,,,,,,141021.59999990463,141021,139018.607,139029.09999990463,139035.277,141036.087,,,
Trap 1,flow.Sequence,0_3,2021-11-19T14:05:35.295Z,,,,,,,,,,,,,,,,,,,,,,,,,,,,,,9070.78899999999,,completion,,,,,,,,,,,,,,,,141022.09999990463,141021,131933.541,131950.79999995232,131950.211,141036.087,,,
Standby,html.Page,0_4_0,2021-11-19T14:05:43.297Z,,,,,,,,,,,,,,,,,,,,,,,,,,,,,,8002.1600000000035,,timeout,,,,,,,,,,,,,,,,149023.39999985695,149021.576,141019.416,141022.5,141036.087,149038.247,,,
Holding screen,html.Screen,0_4_1_0_0,2021-11-19T14:05:50.298Z,,,,,,,,,,,,,,,,,,,,,,,,,,,,,,7001.766000000003,,timeout,,,,,,,,,,,,,,,,156025.09999990463,156023.343,149021.576,149023.79999995232,149038.247,156040.013,,,
screen,html.Screen,0_4_1_0_1_0,2021-11-19T14:05:51.150Z,,,,,,,,,,,,,,,,51,,,,,,,,,,,,,,835.5869999046263,,response,,,13,E,,,,,Space,keypress(Space),,,,lyrical,American -------- --- --- ---- --- --- ------ -- --------<br>---- --------- --- ------- ------------ ---------- ---------<br>--- ---------- ------- ---------- ------- -- -------- ----<br>---- --- ------ ----- ------ -- ---- --- ----- -- - -------<br>-------- -- --- --- -- ----- ----------- ----- -----------<br>---- --- ---------- --- ---- --- -- ----------,156876.59999990463,156875.59999990463,156023.343,156025.5,156040.013,156890.27,,0,American
screen,html.Screen,0_4_1_0_1_1,2021-11-19T14:05:51.573Z,,,,,,,,,,,,,,,,51,,,,,,,,,,,,,,408.52999995232676,,response,,,13,E,,,,,Space,keypress(Space),,,,lyrical,-------- industry --- --- ---- --- --- ------ -- --------<br>---- --------- --- ------- ------------ ---------- ---------<br>--- ---------- ------- ---------- ------- -- -------- ----<br>---- --- ------ ----- ------ -- ---- --- ----- -- - -------<br>-------- -- --- --- -- ----- ----------- ----- -----------<br>---- --- ---------- --- ---- --- -- ----------,157299.79999995232,157298.79999995232,156873.6,156877,156890.27,157307.219,,1,industry
screen,html.Screen,0_4_1_0_1_2,2021-11-19T14:05:52.093Z,,,,,,,,,,,,,,,,51,,,,,,,,,,,,,,511.680999856937,,response,,,13,E,,,,,Space,keypress(Space),,,,lyrical,-------- -------- may --- ---- --- --- ------ -- --------<br>---- --------- --- ------- ------------ ---------- ---------<br>--- ---------- ------- ---------- ------- -- -------- ----<br>---- --- ------ ----- ------ -- ---- --- ----- -- - -------<br>-------- -- --- --- -- ----- ----------- ----- -----------<br>---- --- ---------- --- ---- --- -- ----------,157819.59999990463,157818.89999985695,157290.548,157300.09999990463,157307.219,157823.894,,2,may
screen,html.Screen,0_4_1_0_1_3,2021-11-19T14:05:52.765Z,,,,,,,,,,,,,,,,51,,,,,,,,,,,,,,667.1059999999998,,response,,,13,E,,,,,Space,keypress(Space),,,,lyrical,-------- -------- --- not ---- --- --- ------ -- --------<br>---- --------- --- ------- ------------ ---------- ---------<br>--- ---------- ------- ---------- ------- -- -------- ----<br>---- --- ------ ----- ------ -- ---- --- ----- -- - -------<br>-------- -- --- --- -- ----- ----------- ----- -----------<br>---- --- ---------- --- ---- --- -- ----------,158491.89999985695,158491,157807.224,157819.89999985695,157823.894,158507.588,,3,not
screen,html.Screen,0_4_1_0_1_4,2021-11-19T14:05:53.085Z,,,,,,,,,,,,,,,,51,,,,,,,,,,,,,,303.21199995232746,,response,,,13,E,,,,,Space,keypress(Space),,,,lyrical,-------- -------- --- --- know --- --- ------ -- --------<br>---- --------- --- ------- ------------ ---------- ---------<br>--- ---------- ------- ---------- ------- -- -------- ----<br>---- --- ------ ----- ------ -- ---- --- ----- -- - -------<br>-------- -- --- --- -- ----- ----------- ----- -----------<br>---- --- ---------- --- ---- --- -- ----------,158811.59999990463,158810.79999995232,158490.916,158492.09999990463,158507.588,158824.119,,4,know
screen,html.Screen,0_4_1_0_1_5,2021-11-19T14:05:53.429Z,,,,,,,,,,,,,,,,51,,,,,,,,,,,,,,330.7809998569428,,response,,,13,E,,,,,Space,keypress(Space),,,,lyrical,"-------- -------- --- --- ---- it, --- ------ -- --------<br>---- --------- --- ------- ------------ ---------- ---------<br>--- ---------- ------- ---------- ------- -- -------- ----<br>---- --- ------ ----- ------ -- ---- --- ----- -- - -------<br>-------- -- --- --- -- ----- ----------- ----- -----------<br>---- --- ---------- --- ---- --- -- ----------",159155.70000004768,159154.89999985695,158807.45,158811.89999985695,158824.119,159157.654,,5,"it,"
screen,html.Screen,0_4_1_0_1_6,2021-11-19T14:05:53.837Z,,,,,,,,,,,,,,,,51,,,,,,,,,,,,,,405.2459998569393,,response,,,13,E,,,,,Space,keypress(Space),,,,lyrical,-------- -------- --- --- ---- --- but ------ -- --------<br>---- --------- --- ------- ------------ ---------- ---------<br>--- ---------- ------- ---------- ------- -- -------- ----<br>---- --- ------ ----- ------ -- ---- --- ----- -- - -------<br>-------- -- --- --- -- ----- ----------- ----- -----------<br>---- --- ---------- --- ---- --- -- ----------,159563.89999985695,159562.89999985695,159140.983,159156,159157.654,159574.521,,6,but
screen,html.Screen,0_4_1_0_1_7,2021-11-19T14:05:54.381Z,,,,,,,,,,,,,,,,51,,,,,,,,,,,,,,532.2789999523084,,response,,,13,E,,,,,Space,keypress(Space),,,,lyrical,-------- -------- --- --- ---- --- --- debate -- --------<br>---- --------- --- ------- ------------ ---------- ---------<br>--- ---------- ------- ---------- ------- -- -------- ----<br>---- --- ------ ----- ------ -- ---- --- ----- -- - -------<br>-------- -- --- --- -- ----- ----------- ----- -----------<br>---- --- ---------- --- ---- --- -- ----------,160107.70000004768,160106.79999995232,159557.849,159564.20000004768,159574.521,160124.607,,7,debate
screen,html.Screen,0_4_1_0_1_8,2021-11-19T14:05:54.605Z,,,,,,,,,,,,,,,,51,,,,,,,,,,,,,,206.19299995232723,,response,,,13,E,,,,,Space,keypress(Space),,,,lyrical,-------- -------- --- --- ---- --- --- ------ in --------<br>---- --------- --- ------- ------------ ---------- ---------<br>--- ---------- ------- ---------- ------- -- -------- ----<br>---- --- ------ ----- ------ -- ---- --- ----- -- - -------<br>-------- -- --- --- -- ----- ----------- ----- -----------<br>---- --- ---------- --- ---- --- -- ----------,160331.59999990463,160330.79999995232,160107.936,160108.09999990463,160124.607,160341.246,,8,in
screen,html.Screen,0_4_1_0_1_9,2021-11-19T14:05:55.413Z,,,,,,,,,,,,,,,,51,,,,,,,,,,,,,,797.45400004767,,response,,,13,E,,,,,Space,keypress(Space),,,,lyrical,-------- -------- --- --- ---- --- --- ------ -- Congress<br>---- --------- --- ------- ------------ ---------- ---------<br>--- ---------- ------- ---------- ------- -- -------- ----<br>---- --- ------ ----- ------ -- ---- --- ----- -- - -------<br>-------- -- --- --- -- ----- ----------- ----- -----------<br>---- --- ---------- --- ---- --- -- ----------,161139.5,161138.70000004768,160324.577,160332,160341.246,161141.562,,9,Congress
screen,html.Screen,0_4_1_0_1_10,2021-11-19T14:05:56.197Z,,,,,,,,,,,,,,,,51,,,,,,,,,,,,,,781.1380000476784,,response,,,13,E,,,,,Space,keypress(Space),,,,lyrical,-------- -------- --- --- ---- --- --- ------ -- --------<br>over --------- --- ------- ------------ ---------- ---------<br>--- ---------- ------- ---------- ------- -- -------- ----<br>---- --- ------ ----- ------ -- ---- --- ----- -- - -------<br>-------- -- --- --- -- ----- ----------- ----- -----------<br>---- --- ---------- --- ---- --- -- ----------,161923.39999985695,161922.70000004768,161124.891,161139.70000004768,161141.562,161925.01,,10,over
screen,html.Screen,0_4_1_0_1_11,2021-11-19T14:05:56.525Z,,,,,,,,,,,,,,,,51,,,,,,,,,,,,,,325.78999995230697,,response,,,13,E,,,,,Space,keypress(Space),,,,lyrical,-------- -------- --- --- ---- --- --- ------ -- --------<br>---- reforming --- ------- ------------ ---------- ---------<br>--- ---------- ------- ---------- ------- -- -------- ----<br>---- --- ------ ----- ------ -- ---- --- ----- -- - -------<br>-------- -- --- --- -- ----- ----------- ----- -----------<br>---- --- ---------- --- ---- --- -- ----------,162251.5,162250.79999995232,161908.34,161923.70000004768,161925.01,162258.519,,11,reforming
screen,html.Screen,0_4_1_0_1_12,2021-11-19T14:05:57.029Z,,,,,,,,,,,,,,,,51,,,,,,,,,,,,,,496.1810000476835,,response,,,13,E,,,,,Space,keypress(Space),,,,lyrical,-------- -------- --- --- ---- --- --- ------ -- --------<br>---- --------- the ------- ------------ ---------- ---------<br>--- ---------- ------- ---------- ------- -- -------- ----<br>---- --- ------ ----- ------ -- ---- --- ----- -- - -------<br>-------- -- --- --- -- ----- ----------- ----- -----------<br>---- --- ---------- --- ---- --- -- ----------,162755.5,162754.70000004768,162241.848,162251.79999995232,162258.519,162758.652,,12,the
screen,html.Screen,0_4_1_0_1_13,2021-11-19T14:05:57.677Z,,,,,,,,,,,,,,,,51,,,,,,,,,,,,,,644.1479999523144,,response,,,13,E,,,,,Space,keypress(Space),,,,lyrical,-------- -------- --- --- ---- --- --- ------ -- --------<br>---- --------- --- federal ------------ ---------- ---------<br>--- ---------- ------- ---------- ------- -- -------- ----<br>---- --- ------ ----- ------ -- ---- --- ----- -- - -------<br>-------- -- --- --- -- ----- ----------- ----- -----------<br>---- --- ---------- --- ---- --- -- ----------,163403.5,163402.79999995232,162741.981,162755.79999995232,162758.652,163408.827,,13,federal
screen,html.Screen,0_4_1_0_1_14,2021-11-19T14:05:58.237Z,,,,,,,,,,,,,,,,51,,,,,,,,,,,,,,553.8730000476935,,response,,,13,E,,,,,Space,keypress(Space),,,,lyrical,-------- -------- --- --- ---- --- --- ------ -- --------<br>---- --------- --- ------- government's ---------- ---------<br>--- ---------- ------- ---------- ------- -- -------- ----<br>---- --- ------ ----- ------ -- ---- --- ----- -- - -------<br>-------- -- --- --- -- ----- ----------- ----- -----------<br>---- --- ---------- --- ---- --- -- ----------,163963.5,163962.70000004768,163392.156,163403.70000004768,163408.827,163975.594,,14,government's
screen,html.Screen,0_4_1_0_1_15,2021-11-19T14:05:59.117Z,,,,,,,,,,,,,,,,51,,,,,,,,,,,,,,867.1060000476718,,response,,,13,E,,,,,Space,keypress(Space),,,,lyrical,-------- -------- --- --- ---- --- --- ------ -- --------<br>---- --------- --- ------- ------------ regulatory ---------<br>--- ---------- ------- ---------- ------- -- -------- ----<br>---- --- ------ ----- ------ -- ---- --- ----- -- - -------<br>-------- -- --- --- -- ----- ----------- ----- -----------<br>---- --- ---------- --- ---- --- -- ----------,164843.5,164842.70000004768,163958.924,163963.70000004768,163975.594,164859.207,,15,regulatory
screen,html.Screen,0_4_1_0_1_16,2021-11-19T14:05:59.477Z,,,,,,,,,,,,,,,,51,,,,,,,,,,,,,,343.49300004768884,,response,,,13,E,,,,,Space,keypress(Space),,,,lyrical,-------- -------- --- --- ---- --- --- ------ -- --------<br>---- --------- --- ------- ------------ ---------- apparatus<br>--- ---------- ------- ---------- ------- -- -------- ----<br>---- --- ------ ----- ------ -- ---- --- ----- -- - -------<br>-------- -- --- --- -- ----- ----------- ----- -----------<br>---- --- ---------- --- ---- --- -- ----------,165203.59999990463,165202.70000004768,164842.536,164843.70000004768,164859.207,165209.305,,16,apparatus
screen,html.Screen,0_4_1_0_1_17,2021-11-19T14:06:00.133Z,,,,,,,,,,,,,,,,51,,,,,,,,,,,,,,649.195000000007,,response,,,13,E,,,,,Space,keypress(Space),,,,lyrical,-------- -------- --- --- ---- --- --- ------ -- --------<br>---- --------- --- ------- ------------ ---------- ---------<br>may ---------- ------- ---------- ------- -- -------- ----<br>---- --- ------ ----- ------ -- ---- --- ----- -- - -------<br>-------- -- --- --- -- ----- ----------- ----- -----------<br>---- --- ---------- --- ---- --- -- ----------,165859.20000004768,165858.5,165192.634,165203.79999995232,165209.305,165876.175,,17,may
screen,html.Screen,0_4_1_0_1_18,2021-11-19T14:06:00.405Z,,,,,,,,,,,,,,,,51,,,,,,,,,,,,,,254.32500000001164,,response,,,13,E,,,,,Space,keypress(Space),,,,lyrical,-------- -------- --- --- ---- --- --- ------ -- --------<br>---- --------- --- ------- ------------ ---------- ---------<br>--- profoundly ------- ---------- ------- -- -------- ----<br>---- --- ------ ----- ------ -- ---- --- ----- -- - -------<br>-------- -- --- --- -- ----- ----------- ----- -----------<br>---- --- ---------- --- ---- --- -- ----------,166131.20000004768,166130.5,165859.504,165859.59999990463,165876.175,166142.861,,18,profoundly
screen,html.Screen,0_4_1_0_1_19,2021-11-19T14:06:00.933Z,,,,,,,,,,,,,,,,51,,,,,,,,,,,,,,515.6389999999956,,response,,,13,E,,,,,Space,keypress(Space),,,,lyrical,-------- -------- --- --- ---- --- --- ------ -- --------<br>---- --------- --- ------- ------------ ---------- ---------<br>--- ---------- improve ---------- ------- -- -------- ----<br>---- --- ------ ----- ------ -- ---- --- ----- -- - -------<br>-------- -- --- --- -- ----- ----------- ----- -----------<br>---- --- ---------- --- ---- --- -- ----------,166659.29999995232,166658.5,166126.191,166131.59999990463,166142.861,166676.382,,19,improve
screen,html.Screen,0_4_1_0_1_20,2021-11-19T14:06:01.509Z,,,,,,,,,,,,,,,,51,,,,,,,,,,,,,,558.5179998569365,,response,,,13,E,,,,,Space,keypress(Space),,,,lyrical,-------- -------- --- --- ---- --- --- ------ -- --------<br>---- --------- --- ------- ------------ ---------- ---------<br>--- ---------- ------- companies' ------- -- -------- ----<br>---- --- ------ ----- ------ -- ---- --- ----- -- - -------<br>-------- -- --- --- -- ----- ----------- ----- -----------<br>---- --- ---------- --- ---- --- -- ----------,167235.70000004768,167234.89999985695,166659.711,166659.5,166676.382,167243.139,,20,companies'
screen,html.Screen,0_4_1_0_1_21,2021-11-19T14:06:01.892Z,,,,,,,,,,,,,,,,51,,,,,,,,,,,,,,375.3610000000044,,response,,,13,E,,,,,Space,keypress(Space),,,,lyrical,-------- -------- --- --- ---- --- --- ------ -- --------<br>---- --------- --- ------- ------------ ---------- ---------<br>--- ---------- ------- ---------- ability -- -------- ----<br>---- --- ------ ----- ------ -- ---- --- ----- -- - -------<br>-------- -- --- --- -- ----- ----------- ----- -----------<br>---- --- ---------- --- ---- --- -- ----------,167619.09999990463,167618.5,167226.469,167236.09999990463,167243.139,167626.592,,21,ability
screen,html.Screen,0_4_1_0_1_22,2021-11-19T14:06:02.493Z,,,,,,,,,,,,,,,,51,,,,,,,,,,,,,,591.8079998569447,,response,,,13,E,,,,,Space,keypress(Space),,,,lyrical,-------- -------- --- --- ---- --- --- ------ -- --------<br>---- --------- --- ------- ------------ ---------- ---------<br>--- ---------- ------- ---------- ------- to -------- ----<br>---- --- ------ ----- ------ -- ---- --- ----- -- - -------<br>-------- -- --- --- -- ----- ----------- ----- -----------<br>---- --- ---------- --- ---- --- -- ----------,168219.20000004768,168218.39999985695,167609.922,167619.39999985695,167626.592,168226.645,,22,to
screen,html.Screen,0_4_1_0_1_23,2021-11-19T14:06:02.717Z,,,,,,,,,,,,,,,,51,,,,,,,,,,,,,,215.95499990464305,,response,,,13,E,,,,,Space,keypress(Space),,,,lyrical,-------- -------- --- --- ---- --- --- ------ -- --------<br>---- --------- --- ------- ------------ ---------- ---------<br>--- ---------- ------- ---------- ------- -- survive. ----<br>---- --- ------ ----- ------ -- ---- --- ----- -- - -------<br>-------- -- --- --- -- ----- ----------- ----- -----------<br>---- --- ---------- --- ---- --- -- ----------,168443.29999995232,168442.59999990463,168209.976,168219.39999985695,168226.645,168460.252,,23,survive.
screen,html.Screen,0_4_1_0_1_24,2021-11-19T14:06:03.292Z,,,,,,,,,,,,,,,,51,,,,,,,,,,,,,,558.0479999523086,,response,,,13,E,,,,,Space,keypress(Space),,,,lyrical,-------- -------- --- --- ---- --- --- ------ -- --------<br>---- --------- --- ------- ------------ ---------- ---------<br>--- ---------- ------- ---------- ------- -- -------- This<br>---- --- ------ ----- ------ -- ---- --- ----- -- - -------<br>-------- -- --- --- -- ----- ----------- ----- -----------<br>---- --- ---------- --- ---- --- -- ----------,169019.09999990463,169018.29999995232,168443.58,168443.5,168460.252,169026.999,,24,This
screen,html.Screen,0_4_1_0_1_25,2021-11-19T14:06:03.604Z,,,,,,,,,,,,,,,,51,,,,,,,,,,,,,,303.40099985693814,,response,,,13,E,,,,,Space,keypress(Space),,,,lyrical,-------- -------- --- --- ---- --- --- ------ -- --------<br>---- --------- --- ------- ------------ ---------- ---------<br>--- ---------- ------- ---------- ------- -- -------- ----<br>week --- ------ ----- ------ -- ---- --- ----- -- - -------<br>-------- -- --- --- -- ----- ----------- ----- -----------<br>---- --- ---------- --- ---- --- -- ----------,169331.09999990463,169330.39999985695,169010.328,169019.39999985695,169026.999,169343.528,,25,week
screen,html.Screen,0_4_1_0_1_26,2021-11-19T14:06:03.957Z,,,,,,,,,,,,,,,,51,,,,,,,,,,,,,,338.97200000000885,,response,,,13,E,,,,,Space,keypress(Space),,,,lyrical,-------- -------- --- --- ---- --- --- ------ -- --------<br>---- --------- --- ------- ------------ ---------- ---------<br>--- ---------- ------- ---------- ------- -- -------- ----<br>---- the ------ ----- ------ -- ---- --- ----- -- - -------<br>-------- -- --- --- -- ----- ----------- ----- -----------<br>---- --- ---------- --- ---- --- -- ----------,169683.20000004768,169682.5,169326.861,169331.39999985695,169343.528,169693.902,,26,the
screen,html.Screen,0_4_1_0_1_27,2021-11-19T14:06:04.436Z,,,,,,,,,,,,,,,,51,,,,,,,,,,,,,,468.497999856947,,response,,,13,E,,,,,Space,keypress(Space),,,,lyrical,-------- -------- --- --- ---- --- --- ------ -- --------<br>---- --------- --- ------- ------------ ---------- ---------<br>--- ---------- ------- ---------- ------- -- -------- ----<br>---- --- Senate ----- ------ -- ---- --- ----- -- - -------<br>-------- -- --- --- -- ----- ----------- ----- -----------<br>---- --- ---------- --- ---- --- -- ----------,170163.20000004768,170162.39999985695,169677.23,169683.5,169693.902,170177.27,,27,Senate
screen,html.Screen,0_4_1_0_1_28,2021-11-19T14:06:04.812Z,,,,,,,,,,,,,,,,51,,,,,,,,,,,,,,361.02999995232676,,response,,,13,E,,,,,Space,keypress(Space),,,,lyrical,-------- -------- --- --- ---- --- --- ------ -- --------<br>---- --------- --- ------- ------------ ---------- ---------<br>--- ---------- ------- ---------- ------- -- -------- ----<br>---- --- ------ seems ------ -- ---- --- ----- -- - -------<br>-------- -- --- --- -- ----- ----------- ----- -----------<br>---- --- ---------- --- ---- --- -- ----------,170539,170538.29999995232,170160.6,170163.5,170177.27,170544.043,,28,seems
screen,html.Screen,0_4_1_0_1_29,2021-11-19T14:06:05.188Z,,,,,,,,,,,,,,,,51,,,,,,,,,,,,,,370.35699985694373,,response,,,13,E,,,,,Space,keypress(Space),,,,lyrical,-------- -------- --- --- ---- --- --- ------ -- --------<br>---- --------- --- ------- ------------ ---------- ---------<br>--- ---------- ------- ---------- ------- -- -------- ----<br>---- --- ------ ----- poised -- ---- --- ----- -- - -------<br>-------- -- --- --- -- ----- ----------- ----- -----------<br>---- --- ---------- --- ---- --- -- ----------,170915.20000004768,170914.39999985695,170527.373,170539.20000004768,170544.043,170927.527,,29,poised
screen,html.Screen,0_4_1_0_1_30,2021-11-19T14:06:05.596Z,,,,,,,,,,,,,,,,51,,,,,,,,,,,,,,394.872999856947,,response,,,13,E,,,,,Space,keypress(Space),,,,lyrical,-------- -------- --- --- ---- --- --- ------ -- --------<br>---- --------- --- ------- ------------ ---------- ---------<br>--- ---------- ------- ---------- ------- -- -------- ----<br>---- --- ------ ----- ------ to ---- --- ----- -- - -------<br>-------- -- --- --- -- ----- ----------- ----- -----------<br>---- --- ---------- --- ---- --- -- ----------,171323.20000004768,171322.39999985695,170910.856,170915.39999985695,170927.527,171327.455,,30,to
screen,html.Screen,0_4_1_0_1_31,2021-11-19T14:06:05.796Z,,,,,,,,,,,,,,,,51,,,,,,,,,,,,,,194.8449999523291,,response,,,13,E,,,,,Space,keypress(Space),,,,lyrical,-------- -------- --- --- ---- --- --- ------ -- --------<br>---- --------- --- ------- ------------ ---------- ---------<br>--- ---------- ------- ---------- ------- -- -------- ----<br>---- --- ------ ----- ------ -- join --- ----- -- - -------<br>-------- -- --- --- -- ----- ----------- ----- -----------<br>---- --- ---------- --- ---- --- -- ----------,171523,171522.29999995232,171310.787,171323.39999985695,171327.455,171527.76,,31,join
screen,html.Screen,0_4_1_0_1_32,2021-11-19T14:06:06.420Z,,,,,,,,,,,,,,,,51,,,,,,,,,,,,,,618.539999952307,,response,,,13,E,,,,,Space,keypress(Space),,,,lyrical,-------- -------- --- --- ---- --- --- ------ -- --------<br>---- --------- --- ------- ------------ ---------- ---------<br>--- ---------- ------- ---------- ------- -- -------- ----<br>---- --- ------ ----- ------ -- ---- the ----- -- - -------<br>-------- -- --- --- -- ----- ----------- ----- -----------<br>---- --- ---------- --- ---- --- -- ----------,172147.09999990463,172146.29999995232,171511.087,171523.20000004768,171527.76,172161.129,,32,the
screen,html.Screen,0_4_1_0_1_33,2021-11-19T14:06:07.164Z,,,,,,,,,,,,,,,,51,,,,,,,,,,,,,,729.17099995233,,response,,,13,E,,,,,Space,keypress(Space),,,,lyrical,-------- -------- --- --- ---- --- --- ------ -- --------<br>---- --------- --- ------- ------------ ---------- ---------<br>--- ---------- ------- ---------- ------- -- -------- ----<br>---- --- ------ ----- ------ -- ---- --- House -- - -------<br>-------- -- --- --- -- ----- ----------- ----- -----------<br>---- --- ---------- --- ---- --- -- ----------,172891.09999990463,172890.29999995232,172144.459,172147.39999985695,172161.129,172894.728,,33,House
screen,html.Screen,0_4_1_0_1_34,2021-11-19T14:06:07.468Z,,,,,,,,,,,,,,,,51,,,,,,,,,,,,,,299.5719999523135,,response,,,13,E,,,,,Space,keypress(Space),,,,lyrical,-------- -------- --- --- ---- --- --- ------ -- --------<br>---- --------- --- ------- ------------ ---------- ---------<br>--- ---------- ------- ---------- ------- -- -------- ----<br>---- --- ------ ----- ------ -- ---- --- ----- in - -------<br>-------- -- --- --- -- ----- ----------- ----- -----------<br>---- --- ---------- --- ---- --- -- ----------,173195.09999990463,173194.29999995232,172878.057,172891.29999995232,172894.728,173211.327,,34,in
screen,html.Screen,0_4_1_0_1_35,2021-11-19T14:06:07.812Z,,,,,,,,,,,,,,,,51,,,,,,,,,,,,,,326.8730000476935,,response,,,13,E,,,,,Space,keypress(Space),,,,lyrical,-------- -------- --- --- ---- --- --- ------ -- --------<br>---- --------- --- ------- ------------ ---------- ---------<br>--- ---------- ------- ---------- ------- -- -------- ----<br>---- --- ------ ----- ------ -- ---- --- ----- -- a -------<br>-------- -- --- --- -- ----- ----------- ----- -----------<br>---- --- ---------- --- ---- --- -- ----------,173538.89999985695,173538.20000004768,173194.658,173195.39999985695,173211.327,173544.84,,35,a
screen,html.Screen,0_4_1_0_1_36,2021-11-19T14:06:08.268Z,,,,,,,,,,,,,,,,51,,,,,,,,,,,,,,449.4599999523198,,response,,,13,E,,,,,Space,keypress(Space),,,,lyrical,-------- -------- --- --- ---- --- --- ------ -- --------<br>---- --------- --- ------- ------------ ---------- ---------<br>--- ---------- ------- ---------- ------- -- -------- ----<br>---- --- ------ ----- ------ -- ---- --- ----- -- - massive<br>-------- -- --- --- -- ----- ----------- ----- -----------<br>---- --- ---------- --- ---- --- -- ----------,173995.09999990463,173994.29999995232,173528.169,173539.09999990463,173544.84,174011.783,,36,massive
screen,html.Screen,0_4_1_0_1_37,2021-11-19T14:06:08.732Z,,,,,,,,,,,,,,,,51,,,,,,,,,,,,,,446.31699990463676,,response,,,13,E,,,,,Space,keypress(Space),,,,lyrical,-------- -------- --- --- ---- --- --- ------ -- --------<br>---- --------- --- ------- ------------ ---------- ---------<br>--- ---------- ------- ---------- ------- -- -------- ----<br>---- --- ------ ----- ------ -- ---- --- ----- -- - -------<br>overhaul -- --- --- -- ----- ----------- ----- -----------<br>---- --- ---------- --- ---- --- -- ----------,174459,174458.09999990463,173995.11,173995.29999995232,174011.783,174461.796,,37,overhaul
screen,html.Screen,0_4_1_0_1_38,2021-11-19T14:06:09.124Z,,,,,,,,,,,,,,,,51,,,,,,,,,,,,,,388.5039999523142,,response,,,13,E,,,,,Space,keypress(Space),,,,lyrical,-------- -------- --- --- ---- --- --- ------ -- --------<br>---- --------- --- ------- ------------ ---------- ---------<br>--- ---------- ------- ---------- ------- -- -------- ----<br>---- --- ------ ----- ------ -- ---- --- ----- -- - -------<br>-------- of --- --- -- ----- ----------- ----- -----------<br>---- --- ---------- --- ---- --- -- ----------,174851,174850.29999995232,174445.125,174459.29999995232,174461.796,174861.917,,38,of
screen,html.Screen,0_4_1_0_1_39,2021-11-19T14:06:09.836Z,,,,,,,,,,,,,,,,51,,,,,,,,,,,,,,700.3829999523296,,response,,,13,E,,,,,Space,keypress(Space),,,,lyrical,-------- -------- --- --- ---- --- --- ------ -- --------<br>---- --------- --- ------- ------------ ---------- ---------<br>--- ---------- ------- ---------- ------- -- -------- ----<br>---- --- ------ ----- ------ -- ---- --- ----- -- - -------<br>-------- -- the --- -- ----- ----------- ----- -----------<br>---- --- ---------- --- ---- --- -- ----------,175563,175562.29999995232,174845.246,174851.20000004768,174861.917,175578.765,,39,the
screen,html.Screen,0_4_1_0_1_40,2021-11-19T14:06:10.092Z,,,,,,,,,,,,,,,,51,,,,,,,,,,,,,,239.3349999046186,,response,,,13,E,,,,,Space,keypress(Space),,,,lyrical,-------- -------- --- --- ---- --- --- ------ -- --------<br>---- --------- --- ------- ------------ ---------- ---------<br>--- ---------- ------- ---------- ------- -- -------- ----<br>---- --- ------ ----- ------ -- ---- --- ----- -- - -------<br>-------- -- --- way -- ----- ----------- ----- -----------<br>---- --- ---------- --- ---- --- -- ----------,175818.79999995232,175818.09999990463,175562.094,175563.29999995232,175578.765,175828.707,,40,way
screen,html.Screen,0_4_1_0_1_41,2021-11-19T14:06:10.452Z,,,,,,,,,,,,,,,,51,,,,,,,,,,,,,,349.2930000000051,,response,,,13,E,,,,,Space,keypress(Space),,,,lyrical,-------- -------- --- --- ---- --- --- ------ -- --------<br>---- --------- --- ------- ------------ ---------- ---------<br>--- ---------- ------- ---------- ------- -- -------- ----<br>---- --- ------ ----- ------ -- ---- --- ----- -- - -------<br>-------- -- --- --- in ----- ----------- ----- -----------<br>---- --- ---------- --- ---- --- -- ----------,176178.79999995232,176178,175812.038,175819,175828.707,176195.621,,41,in
screen,html.Screen,0_4_1_0_1_42,2021-11-19T14:06:10.884Z,,,,,,,,,,,,,,,,51,,,,,,,,,,,,,,414.47899990461883,,response,,,13,E,,,,,Space,keypress(Space),,,,lyrical,-------- -------- --- --- ---- --- --- ------ -- --------<br>---- --------- --- ------- ------------ ---------- ---------<br>--- ---------- ------- ---------- ------- -- -------- ----<br>---- --- ------ ----- ------ -- ---- --- ----- -- - -------<br>-------- -- --- --- -- which ----------- ----- -----------<br>---- --- ---------- --- ---- --- -- ----------,176610.89999985695,176610.09999990463,176178.95,176179.09999990463,176195.621,176612.293,,42,which
screen,html.Screen,0_4_1_0_1_43,2021-11-19T14:06:11.332Z,,,,,,,,,,,,,,,,51,,,,,,,,,,,,,,445.7069999999949,,response,,,13,E,,,,,Space,keypress(Space),,,,lyrical,-------- -------- --- --- ---- --- --- ------ -- --------<br>---- --------- --- ------- ------------ ---------- ---------<br>--- ---------- ------- ---------- ------- -- -------- ----<br>---- --- ------ ----- ------ -- ---- --- ----- -- - -------<br>-------- -- --- --- -- ----- bureaucrats ----- -----------<br>---- --- ---------- --- ---- --- -- ----------,177058.89999985695,177058,176595.624,176611.09999990463,176612.293,177062.504,,43,bureaucrats
screen,html.Screen,0_4_1_0_1_44,2021-11-19T14:06:11.741Z,,,,,,,,,,,,,,,,51,,,,,,,,,,,,,,404.19600004769745,,response,,,13,E,,,,,Space,keypress(Space),,,,lyrical,-------- -------- --- --- ---- --- --- ------ -- --------<br>---- --------- --- ------- ------------ ---------- ---------<br>--- ---------- ------- ---------- ------- -- -------- ----<br>---- --- ------ ----- ------ -- ---- --- ----- -- - -------<br>-------- -- --- --- -- ----- ----------- enact -----------<br>---- --- ---------- --- ---- --- -- ----------,177467.5,177466.70000004768,177045.833,177059.20000004768,177062.504,177479.105,,44,enact
screen,html.Screen,0_4_1_0_1_45,2021-11-19T14:06:12.220Z,,,,,,,,,,,,,,,,51,,,,,,,,,,,,,,467.09500004767324,,response,,,13,E,,,,,Space,keypress(Space),,,,lyrical,-------- -------- --- --- ---- --- --- ------ -- --------<br>---- --------- --- ------- ------------ ---------- ---------<br>--- ---------- ------- ---------- ------- -- -------- ----<br>---- --- ------ ----- ------ -- ---- --- ----- -- - -------<br>-------- -- --- --- -- ----- ----------- ----- regulations<br>---- --- ---------- --- ---- --- -- ----------,177947,177946.20000004768,177462.437,177467.70000004768,177479.105,177962.81,,45,regulations
screen,html.Screen,0_4_1_0_1_46,2021-11-19T14:06:12.764Z,,,,,,,,,,,,,,,,51,,,,,,,,,,,,,,527.2899999046349,,response,,,13,E,,,,,Space,keypress(Space),,,,lyrical,-------- -------- --- --- ---- --- --- ------ -- --------<br>---- --------- --- ------- ------------ ---------- ---------<br>--- ---------- ------- ---------- ------- -- -------- ----<br>---- --- ------ ----- ------ -- ---- --- ----- -- - -------<br>-------- -- --- --- -- ----- ----------- ----- -----------<br>that --- ---------- --- ---- --- -- ----------,178490.79999995232,178490.09999990463,177946.138,177947.20000004768,177962.81,178496.014,,46,that
screen,html.Screen,0_4_1_0_1_47,2021-11-19T14:06:13.028Z,,,,,,,,,,,,,,,,51,,,,,,,,,,,,,,258.085999904637,,response,,,13,E,,,,,Space,keypress(Space),,,,lyrical,-------- -------- --- --- ---- --- --- ------ -- --------<br>---- --------- --- ------- ------------ ---------- ---------<br>--- ---------- ------- ---------- ------- -- -------- ----<br>---- --- ------ ----- ------ -- ---- --- ----- -- - -------<br>-------- -- --- --- -- ----- ----------- ----- -----------<br>---- are ---------- --- ---- --- -- ----------,178754.89999985695,178754.09999990463,178479.346,178491.09999990463,178496.014,178763.03,,47,are
screen,html.Screen,0_4_1_0_1_48,2021-11-19T14:06:13.332Z,,,,,,,,,,,,,,,,51,,,,,,,,,,,,,,294.86999985695,,response,,,13,E,,,,,Space,keypress(Space),,,,lyrical,-------- -------- --- --- ---- --- --- ------ -- --------<br>---- --------- --- ------- ------------ ---------- ---------<br>--- ---------- ------- ---------- ------- -- -------- ----<br>---- --- ------ ----- ------ -- ---- --- ----- -- - -------<br>-------- -- --- --- -- ----- ----------- ----- -----------<br>---- --- strangling --- ---- --- -- ----------,179058.70000004768,179057.89999985695,178746.358,178755.09999990463,178763.03,179062.952,,48,strangling
screen,html.Screen,0_4_1_0_1_49,2021-11-19T14:06:13.748Z,,,,,,,,,,,,,,,,51,,,,,,,,,,,,,,411.0480000000098,,response,,,13,E,,,,,Space,keypress(Space),,,,lyrical,-------- -------- --- --- ---- --- --- ------ -- --------<br>---- --------- --- ------- ------------ ---------- ---------<br>--- ---------- ------- ---------- ------- -- -------- ----<br>---- --- ------ ----- ------ -- ---- --- ----- -- - -------<br>-------- -- --- --- -- ----- ----------- ----- -----------<br>---- --- ---------- the ---- --- -- ----------,179474.89999985695,179474,179046.283,179058.89999985695,179062.952,179479.866,,49,the
screen,html.Screen,0_4_1_0_1_50,2021-11-19T14:06:14.028Z,,,,,,,,,,,,,,,,51,,,,,,,,,,,,,,274.1339999999909,,response,,,13,E,,,,,Space,keypress(Space),,,,lyrical,-------- -------- --- --- ---- --- --- ------ -- --------<br>---- --------- --- ------- ------------ ---------- ---------<br>--- ---------- ------- ---------- ------- -- -------- ----<br>---- --- ------ ----- ------ -- ---- --- ----- -- - -------<br>-------- -- --- --- -- ----- ----------- ----- -----------<br>---- --- ---------- --- life --- -- ----------,179754.79999995232,179754,179463.194,179475,179479.866,179763.111,,50,life
