sender,sender_type,sender_id,timestamp,meta,,Blues,Classical,Country,Dance,Electronic,Folk,Gospel,Hip-Hop,Jazz,Latin,Musical/Film,New-age,Pop,Provo_ID,R&B,Rap,Reggae,Religious,Rock,Soul,Swing,Traditional,age,artist_name,correct,correctResponse,distraction,duration,education,ended_on,familiarity,gender,item,list,music_frequency,offensiveness,pleasantness,preference,response,response_action,snippet_file,song_name,song_rating,sound,text,time_commit,time_end,time_render,time_run,time_show,time_switch,url,word,word_ID
Instructions,html.Page,0_0,2021-12-02T10:56:50.551Z,"{""labjs_version"":""20.2.3"",""labjs_build"":{""flavor"":""production"",""commit"":""7ea907d66ca8aeef8054924ca5d82ffbe11e34e5""},""location"":""https://run.pavlovia.org/mvasilev/lab_music_c/"",""userAgent"":""Mozilla/5.0 (Windows NT 6.1; Win64; x64) AppleWebKit/537.36 (KHTML, like Gecko) Chrome/96.0.4664.45 Safari/537.36"",""platform"":""Win32"",""language"":""en-US"",""locale"":""en-US"",""timeZone"":""Europe/London"",""timezoneOffset"":0,""screen_width"":1920,""screen_height"":1080,""scroll_width"":1920,""scroll_height"":959,""window_innerWidth"":1920,""window_innerHeight"":1007,""devicePixelRatio"":1}",,,,,,,,,,,,,,,,,,,,,,,,,,,,,35464.65699999963,,form submission,,,,,,,,,,,,,,,,43430.300000000745,43429.09999999963,7931.103,7949.200000001118,7964.443,43423.873,{},,
Headphones,html.Page,0_1,2021-12-02T10:56:54.166Z,,,,,,,,,,,,,,,,,,,,,,,,,,,,,,3620.9270000007455,,form submission,,,,,,,,,,,,,,,,47045.20000000112,47044.800000000745,43407.201,43431.09999999963,43423.873,47058.049,,,
Holding screen,html.Screen,0_2_0_0,2021-12-02T10:57:04.170Z,,,,,,,,,,,,,,,,,,,,,,,,,,,,,,10002.450000000004,,timeout,,,,,,,,,,,,,,,,57049.59999999963,57043.829,47041.378,47045.800000000745,47058.049,57060.499,,,
screen,html.Screen,0_2_0_1_0,2021-12-02T10:57:05.469Z,,,,,,,,,,,,,,,,53,,,,,,,,,,,,,,1285.901000000369,,response,,,99,,,,,,Space,keypress(Space),,,,,When -- ----- -- ------ - ------- --- ----------<br>------------- ------ ------ ---- ---- ------- ----- -- ----<br>-------- ------- -- ---------- --- - --- ----- ----- ----<br>---- --- --- ----- --- ---- ---- ------- ----- ---- -------<br>--- --- -- ----- -- --- ---- -- --- ---- -- ------ ------<br>--- ----- -- ----,58347.90000000037,58346.40000000037,57043.829,57050,57060.499,58360.998,,0,When
screen,html.Screen,0_2_0_1_1,2021-12-02T10:57:06.932Z,,,,,,,,,,,,,,,,53,,,,,,,,,,,,,,1448.8020000007455,,response,,,99,,,,,,Space,keypress(Space),,,,,---- it ----- -- ------ - ------- --- ----------<br>------------- ------ ------ ---- ---- ------- ----- -- ----<br>-------- ------- -- ---------- --- - --- ----- ----- ----<br>---- --- --- ----- --- ---- ---- ------- ----- ---- -------<br>--- --- -- ----- -- --- ---- -- --- ---- -- ------ ------<br>--- ----- -- ----,59810.800000000745,59809.800000000745,58344.327,58348.20000000112,58360.998,59827.928,,1,it
screen,html.Screen,0_2_0_1_2,2021-12-02T10:57:08.575Z,,,,,,,,,,,,,,,,53,,,,,,,,,,,,,,1621.7720000011177,,response,,,99,,,,,,Space,keypress(Space),,,,,---- -- comes -- ------ - ------- --- ----------<br>------------- ------ ------ ---- ---- ------- ----- -- ----<br>-------- ------- -- ---------- --- - --- ----- ----- ----<br>---- --- --- ----- --- ---- ---- ------- ----- ---- -------<br>--- --- -- ----- -- --- ---- -- --- ---- -- ------ ------<br>--- ----- -- ----,61450.59999999963,61449.70000000112,59811.258,59811.09999999963,59827.928,61461.663,,2,comes
screen,html.Screen,0_2_0_1_3,2021-12-02T10:57:09.423Z,,,,,,,,,,,,,,,,53,,,,,,,,,,,,,,836.0370000011171,,response,,,99,,,,,,Space,keypress(Space),,,,,---- -- ----- to ------ - ------- --- ----------<br>------------- ------ ------ ---- ---- ------- ----- -- ----<br>-------- ------- -- ---------- --- - --- ----- ----- ----<br>---- --- --- ----- --- ---- ---- ------- ----- ---- -------<br>--- --- -- ----- -- --- ---- -- --- ---- -- ------ ------<br>--- ----- -- ----,62298.59999999963,62297.70000000112,61444.993,61450.90000000037,61461.663,62311.934,,3,to
screen,html.Screen,0_2_0_1_4,2021-12-02T10:57:10.287Z,,,,,,,,,,,,,,,,53,,,,,,,,,,,,,,849.6659999996264,,response,,,99,,,,,,Space,keypress(Space),,,,,---- -- ----- -- having - ------- --- ----------<br>------------- ------ ------ ---- ---- ------- ----- -- ----<br>-------- ------- -- ---------- --- - --- ----- ----- ----<br>---- --- --- ----- --- ---- ---- ------- ----- ---- -------<br>--- --- -- ----- -- --- ---- -- --- ---- -- ------ ------<br>--- ----- -- ----,63162.800000000745,63161.59999999963,62295.264,62299.20000000112,62311.934,63178.827,,4,having
screen,html.Screen,0_2_0_1_5,2021-12-02T10:57:10.751Z,,,,,,,,,,,,,,,,53,,,,,,,,,,,,,,446.77299999963,,response,,,99,,,,,,Space,keypress(Space),,,,,---- -- ----- -- ------ a ------- --- ----------<br>------------- ------ ------ ---- ---- ------- ----- -- ----<br>-------- ------- -- ---------- --- - --- ----- ----- ----<br>---- --- --- ----- --- ---- ---- ------- ----- ---- -------<br>--- --- -- ----- -- --- ---- -- --- ---- -- ------ ------<br>--- ----- -- ----,63626.5,63625.59999999963,63162.157,63163.09999999963,63178.827,63628.945,,5,a
screen,html.Screen,0_2_0_1_6,2021-12-02T10:57:11.687Z,,,,,,,,,,,,,,,,53,,,,,,,,,,,,,,932.6549999996278,,response,,,99,,,,,,Space,keypress(Space),,,,,---- -- ----- -- ------ - lasting --- ----------<br>------------- ------ ------ ---- ---- ------- ----- -- ----<br>-------- ------- -- ---------- --- - --- ----- ----- ----<br>---- --- --- ----- --- ---- ---- ------- ----- ---- -------<br>--- --- -- ----- -- --- ---- -- --- ---- -- ------ ------<br>--- ----- -- ----,64562.59999999963,64561.59999999963,63612.275,63627.09999999963,63628.945,64579.06,,6,lasting
screen,html.Screen,0_2_0_1_7,2021-12-02T10:57:15.471Z,,,,,,,,,,,,,,,,53,,,,,,,,,,,,,,3766.2400000007474,,response,,,99,,,,,,Space,keypress(Space),,,,,---- -- ----- -- ------ - ------- and ----------<br>------------- ------ ------ ---- ---- ------- ----- -- ----<br>-------- ------- -- ---------- --- - --- ----- ----- ----<br>---- --- --- ----- --- ---- ---- ------- ----- ---- -------<br>--- --- -- ----- -- --- ---- -- --- ---- -- ------ ------<br>--- ----- -- ----,68346.30000000075,68345.30000000075,64562.391,64562.90000000037,64579.06,68363.847,,7,and
screen,html.Screen,0_2_0_1_8,2021-12-02T10:57:16.775Z,,,,,,,,,,,,,,,,53,,,,,,,,,,,,,,1285.7529999996332,,response,,,99,,,,,,Space,keypress(Space),,,,,---- -- ----- -- ------ - ------- --- fulfilling<br>------------- ------ ------ ---- ---- ------- ----- -- ----<br>-------- ------- -- ---------- --- - --- ----- ----- ----<br>---- --- --- ----- --- ---- ---- ------- ----- ---- -------<br>--- --- -- ----- -- --- ---- -- --- ---- -- ------ ------<br>--- ----- -- ----,69650.80000000075,69649.59999999963,68347.175,68346.70000000112,68363.847,69663.786,,8,fulfilling
screen,html.Screen,0_2_0_1_9,2021-12-02T10:57:19.991Z,,,,,,,,,,,,,,,,53,,,,,,,,,,,,,,3201.3139999996347,,response,,,99,,,,,,Space,keypress(Space),,,,,"---- -- ----- -- ------ - ------- --- ----------<br>relationship, ------ ------ ---- ---- ------- ----- -- ----<br>-------- ------- -- ---------- --- - --- ----- ----- ----<br>---- --- --- ----- --- ---- ---- ------- ----- ---- -------<br>--- --- -- ----- -- --- ---- -- --- ---- -- ------ ------<br>--- ----- -- ----",72866.09999999963,72865.09999999963,69647.116,69651.09999999963,69663.786,72881.103,,9,"relationship,"
screen,html.Screen,0_2_0_1_10,2021-12-02T10:57:21.543Z,,,,,,,,,,,,,,,,53,,,,,,,,,,,,,,1536.2970000003697,,response,,,99,,,,,,Space,keypress(Space),,,,,---- -- ----- -- ------ - ------- --- ----------<br>------------- common ------ ---- ---- ------- ----- -- ----<br>-------- ------- -- ---------- --- - --- ----- ----- ----<br>---- --- --- ----- --- ---- ---- ------- ----- ---- -------<br>--- --- -- ----- -- --- ---- -- --- ---- -- ------ ------<br>--- ----- -- ----,74418.40000000037,74417.40000000037,72864.433,72866.40000000037,72881.103,74431.731,,10,common
screen,html.Screen,0_2_0_1_11,2021-12-02T10:57:22.446Z,,,,,,,,,,,,,,,,53,,,,,,,,,,,,,,889.1690000003728,,response,,,99,,,,,,Space,keypress(Space),,,,,---- -- ----- -- ------ - ------- --- ----------<br>------------- ------ wisdom ---- ---- ------- ----- -- ----<br>-------- ------- -- ---------- --- - --- ----- ----- ----<br>---- --- --- ----- --- ---- ---- ------- ----- ---- -------<br>--- --- -- ----- -- --- ---- -- --- ---- -- ------ ------<br>--- ----- -- ----,75321.90000000037,75320.90000000037,74415.06,74418.70000000112,74431.731,75331.892,,11,wisdom
screen,html.Screen,0_2_0_1_12,2021-12-02T10:57:23.358Z,,,,,,,,,,,,,,,,53,,,,,,,,,,,,,,900.908000000738,,response,,,99,,,,,,Space,keypress(Space),,,,,---- -- ----- -- ------ - ------- --- ----------<br>------------- ------ ------ says ---- ------- ----- -- ----<br>-------- ------- -- ---------- --- - --- ----- ----- ----<br>---- --- --- ----- --- ---- ---- ------- ----- ---- -------<br>--- --- -- ----- -- --- ---- -- --- ---- -- ------ ------<br>--- ----- -- ----,76233.80000000075,76232.80000000075,75315.222,75322.09999999963,75331.892,76248.94,,12,says
screen,html.Screen,0_2_0_1_13,2021-12-02T10:57:29.270Z,,,,,,,,,,,,,,,,53,,,,,,,,,,,,,,5896.059999999998,,response,,,99,,,,,,Space,keypress(Space),,,,,---- -- ----- -- ------ - ------- --- ----------<br>------------- ------ ------ ---- that ------- ----- -- ----<br>-------- ------- -- ---------- --- - --- ----- ----- ----<br>---- --- --- ----- --- ---- ---- ------- ----- ---- -------<br>--- --- -- ----- -- --- ---- -- --- ---- -- ------ ------<br>--- ----- -- ----,82146,82145,76232.269,76234,76248.94,82150.093,,13,that
screen,html.Screen,0_2_0_1_14,2021-12-02T10:57:30.046Z,,,,,,,,,,,,,,,,53,,,,,,,,,,,,,,770.506999999634,,response,,,99,,,,,,Space,keypress(Space),,,,,---- -- ----- -- ------ - ------- --- ----------<br>------------- ------ ------ ---- ---- feeling ----- -- ----<br>-------- ------- -- ---------- --- - --- ----- ----- ----<br>---- --- --- ----- --- ---- ---- ------- ----- ---- -------<br>--- --- -- ----- -- --- ---- -- --- ---- -- ------ ------<br>--- ----- -- ----,82921.5,82920.59999999963,82133.423,82146.09999999963,82150.093,82933.662,,14,feeling
screen,html.Screen,0_2_0_1_15,2021-12-02T10:57:30.798Z,,,,,,,,,,,,,,,,53,,,,,,,,,,,,,,738.8380000000034,,response,,,99,,,,,,Space,keypress(Space),,,,,---- -- ----- -- ------ - ------- --- ----------<br>------------- ------ ------ ---- ---- ------- close -- ----<br>-------- ------- -- ---------- --- - --- ----- ----- ----<br>---- --- --- ----- --- ---- ---- ------- ----- ---- -------<br>--- --- -- ----- -- --- ---- -- --- ---- -- ------ ------<br>--- ----- -- ----,83673.30000000075,83672.5,82916.992,82921.80000000075,82933.662,83684.043,,15,close
screen,html.Screen,0_2_0_1_16,2021-12-02T10:57:31.254Z,,,,,,,,,,,,,,,,53,,,,,,,,,,,,,,444.4569999999949,,response,,,99,,,,,,Space,keypress(Space),,,,,---- -- ----- -- ------ - ------- --- ----------<br>------------- ------ ------ ---- ---- ------- ----- to ----<br>-------- ------- -- ---------- --- - --- ----- ----- ----<br>---- --- --- ----- --- ---- ---- ------- ----- ---- -------<br>--- --- -- ----- -- --- ---- -- --- ---- -- ------ ------<br>--- ----- -- ----,84129.20000000112,84128.5,83667.373,83673.70000000112,83684.043,84134.238,,16,to
screen,html.Screen,0_2_0_1_17,2021-12-02T10:57:31.982Z,,,,,,,,,,,,,,,,53,,,,,,,,,,,,,,722.0620000007475,,response,,,99,,,,,,Space,keypress(Space),,,,,---- -- ----- -- ------ - ------- --- ----------<br>------------- ------ ------ ---- ---- ------- ----- -- your<br>-------- ------- -- ---------- --- - --- ----- ----- ----<br>---- --- --- ----- --- ---- ---- ------- ----- ---- -------<br>--- --- -- ----- -- --- ---- -- --- ---- -- ------ ------<br>--- ----- -- ----,84857.20000000112,84856.30000000075,84117.567,84129.5,84134.238,84867.815,,17,your
screen,html.Screen,0_2_0_1_18,2021-12-02T10:57:32.814Z,,,,,,,,,,,,,,,,53,,,,,,,,,,,,,,820.5850000003702,,response,,,99,,,,,,Space,keypress(Space),,,,,---- -- ----- -- ------ - ------- --- ----------<br>------------- ------ ------ ---- ---- ------- ----- -- ----<br>romantic ------- -- ---------- --- - --- ----- ----- ----<br>---- --- --- ----- --- ---- ---- ------- ----- ---- -------<br>--- --- -- ----- -- --- ---- -- --- ---- -- ------ ------<br>--- ----- -- ----,85689.20000000112,85688.40000000037,84851.144,84857.59999999963,84867.815,85701.135,,18,romantic
screen,html.Screen,0_2_0_1_19,2021-12-02T10:57:33.926Z,,,,,,,,,,,,,,,,53,,,,,,,,,,,,,,1099.1650000007503,,response,,,99,,,,,,Space,keypress(Space),,,,,---- -- ----- -- ------ - ------- --- ----------<br>------------- ------ ------ ---- ---- ------- ----- -- ----<br>-------- partner -- ---------- --- - --- ----- ----- ----<br>---- --- --- ----- --- ---- ---- ------- ----- ---- -------<br>--- --- -- ----- -- --- ---- -- --- ---- -- ------ ------<br>--- ----- -- ----,86801.20000000112,86800.30000000075,85684.466,85689.5,85701.135,86818.423,,19,partner
screen,html.Screen,0_2_0_1_20,2021-12-02T10:57:34.662Z,,,,,,,,,,,,,,,,53,,,,,,,,,,,,,,717.8770000007498,,response,,,99,,,,,,Space,keypress(Space),,,,,---- -- ----- -- ------ - ------- --- ----------<br>------------- ------ ------ ---- ---- ------- ----- -- ----<br>-------- ------- is ---------- --- - --- ----- ----- ----<br>---- --- --- ----- --- ---- ---- ------- ----- ---- -------<br>--- --- -- ----- -- --- ---- -- --- ---- -- ------ ------<br>--- ----- -- ----,87537.09999999963,87536.30000000075,86801.751,86801.5,86818.423,87551.747,,20,is
screen,html.Screen,0_2_0_1_21,2021-12-02T10:57:52.909Z,,,,,,,,,,,,,,,,53,,,,,,,,,,,,,,18232.053000000742,,response,,,99,,,,,,Space,keypress(Space),,,,,---- -- ----- -- ------ - ------- --- ----------<br>------------- ------ ------ ---- ---- ------- ----- -- ----<br>-------- ------- -- paramount. --- - --- ----- ----- ----<br>---- --- --- ----- --- ---- ---- ------- ----- ---- -------<br>--- --- -- ----- -- --- ---- -- --- ---- -- ------ ------<br>--- ----- -- ----,105784.5,105783.80000000075,87535.077,87537.5,87551.747,105788.797,,21,paramount.
screen,html.Screen,0_2_0_1_22,2021-12-02T10:57:53.493Z,,,,,,,,,,,,,,,,53,,,,,,,,,,,,,,578.4030000011116,,response,,,99,,,,,,Space,keypress(Space),,,,,---- -- ----- -- ------ - ------- --- ----------<br>------------- ------ ------ ---- ---- ------- ----- -- ----<br>-------- ------- -- ---------- But - --- ----- ----- ----<br>---- --- --- ----- --- ---- ---- ------- ----- ---- -------<br>--- --- -- ----- -- --- ---- -- --- ---- -- ------ ------<br>--- ----- -- ----,106368,106367.20000000112,105772.127,105785.09999999963,105788.797,106372.527,,22,But
screen,html.Screen,0_2_0_1_23,2021-12-02T10:57:54.004Z,,,,,,,,,,,,,,,,53,,,,,,,,,,,,,,506.5729999996256,,response,,,99,,,,,,Space,keypress(Space),,,,,---- -- ----- -- ------ - ------- --- ----------<br>------------- ------ ------ ---- ---- ------- ----- -- ----<br>-------- ------- -- ---------- --- a --- ----- ----- ----<br>---- --- --- ----- --- ---- ---- ------- ----- ---- -------<br>--- --- -- ----- -- --- ---- -- --- ---- -- ------ ------<br>--- ----- -- ----,106879.90000000037,106879.09999999963,106355.857,106368.30000000075,106372.527,106890.041,,23,a
screen,html.Screen,0_2_0_1_24,2021-12-02T10:57:54.468Z,,,,,,,,,,,,,,,,53,,,,,,,,,,,,,,453.05899999963003,,response,,,99,,,,,,Space,keypress(Space),,,,,---- -- ----- -- ------ - ------- --- ----------<br>------------- ------ ------ ---- ---- ------- ----- -- ----<br>-------- ------- -- ---------- --- - new ----- ----- ----<br>---- --- --- ----- --- ---- ---- ------- ----- ---- -------<br>--- --- -- ----- -- --- ---- -- --- ---- -- ------ ------<br>--- ----- -- ----,107343.90000000037,107343.09999999963,106873.371,106880.20000000112,106890.041,107356.877,,24,new
screen,html.Screen,0_2_0_1_25,2021-12-02T10:57:55.244Z,,,,,,,,,,,,,,,,53,,,,,,,,,,,,,,762.2229999996343,,response,,,99,,,,,,Space,keypress(Space),,,,,---- -- ----- -- ------ - ------- --- ----------<br>------------- ------ ------ ---- ---- ------- ----- -- ----<br>-------- ------- -- ---------- --- - --- study ----- ----<br>---- --- --- ----- --- ---- ---- ------- ----- ---- -------<br>--- --- -- ----- -- --- ---- -- --- ---- -- ------ ------<br>--- ----- -- ----,108119.90000000037,108119.09999999963,107340.206,107344.20000000112,107356.877,108123.851,,25,study
screen,html.Screen,0_2_0_1_26,2021-12-02T10:57:55.980Z,,,,,,,,,,,,,,,,53,,,,,,,,,,,,,,731.2489999996324,,response,,,99,,,,,,Space,keypress(Space),,,,,---- -- ----- -- ------ - ------- --- ----------<br>------------- ------ ------ ---- ---- ------- ----- -- ----<br>-------- ------- -- ---------- --- - --- ----- finds ----<br>---- --- --- ----- --- ---- ---- ------- ----- ---- -------<br>--- --- -- ----- -- --- ---- -- --- ---- -- ------ ------<br>--- ----- -- ----,108856,108855.09999999963,108107.179,108120.20000000112,108123.851,108857.141,,26,finds
screen,html.Screen,0_2_0_1_27,2021-12-02T10:57:56.732Z,,,,,,,,,,,,,,,,53,,,,,,,,,,,,,,749.9589999996242,,response,,,99,,,,,,Space,keypress(Space),,,,,---- -- ----- -- ------ - ------- --- ----------<br>------------- ------ ------ ---- ---- ------- ----- -- ----<br>-------- ------- -- ---------- --- - --- ----- ----- that<br>---- --- --- ----- --- ---- ---- ------- ----- ---- -------<br>--- --- -- ----- -- --- ---- -- --- ---- -- ------ ------<br>--- ----- -- ----,109607.90000000037,109607.09999999963,108840.472,108856.20000000112,108857.141,109624.208,,27,that
screen,html.Screen,0_2_0_1_28,2021-12-02T10:57:57.413Z,,,,,,,,,,,,,,,,53,,,,,,,,,,,,,,662.7920000000013,,response,,,99,,,,,,Space,keypress(Space),,,,,---- -- ----- -- ------ - ------- --- ----------<br>------------- ------ ------ ---- ---- ------- ----- -- ----<br>-------- ------- -- ---------- --- - --- ----- ----- ----<br>it's --- --- ----- --- ---- ---- ------- ----- ---- -------<br>--- --- -- ----- -- --- ---- -- --- ---- -- ------ ------<br>--- ----- -- ----,110288,110287,109607.537,109608.09999999963,109624.208,110290.849,,28,it's
screen,html.Screen,0_2_0_1_29,2021-12-02T10:57:57.868Z,,,,,,,,,,,,,,,,53,,,,,,,,,,,,,,452.150999999998,,response,,,99,,,,,,Space,keypress(Space),,,,,---- -- ----- -- ------ - ------- --- ----------<br>------------- ------ ------ ---- ---- ------- ----- -- ----<br>-------- ------- -- ---------- --- - --- ----- ----- ----<br>---- not --- ----- --- ---- ---- ------- ----- ---- -------<br>--- --- -- ----- -- --- ---- -- --- ---- -- ------ ------<br>--- ----- -- ----,110743.80000000075,110743,110274.18,110288.20000000112,110290.849,110757.806,,29,not
screen,html.Screen,0_2_0_1_30,2021-12-02T10:57:58.277Z,,,,,,,,,,,,,,,,53,,,,,,,,,,,,,,393.19400000000314,,response,,,99,,,,,,Space,keypress(Space),,,,,---- -- ----- -- ------ - ------- --- ----------<br>------------- ------ ------ ---- ---- ------- ----- -- ----<br>-------- ------- -- ---------- --- - --- ----- ----- ----<br>---- --- how ----- --- ---- ---- ------- ----- ---- -------<br>--- --- -- ----- -- --- ---- -- --- ---- -- ------ ------<br>--- ----- -- ----,111152.09999999963,111151,110741.135,110744.09999999963,110757.806,111157.866,,30,how
screen,html.Screen,0_2_0_1_31,2021-12-02T10:57:59.036Z,,,,,,,,,,,,,,,,53,,,,,,,,,,,,,,753.1340000000055,,response,,,99,,,,,,Space,keypress(Space),,,,,---- -- ----- -- ------ - ------- --- ----------<br>------------- ------ ------ ---- ---- ------- ----- -- ----<br>-------- ------- -- ---------- --- - --- ----- ----- ----<br>---- --- --- close --- ---- ---- ------- ----- ---- -------<br>--- --- -- ----- -- --- ---- -- --- ---- -- ------ ------<br>--- ----- -- ----,111911.80000000075,111911,111141.196,111152.40000000037,111157.866,111924.782,,31,close
screen,html.Screen,0_2_0_1_32,2021-12-02T10:57:59.532Z,,,,,,,,,,,,,,,,53,,,,,,,,,,,,,,482.118000000366,,response,,,99,,,,,,Space,keypress(Space),,,,,---- -- ----- -- ------ - ------- --- ----------<br>------------- ------ ------ ---- ---- ------- ----- -- ----<br>-------- ------- -- ---------- --- - --- ----- ----- ----<br>---- --- --- ----- you ---- ---- ------- ----- ---- -------<br>--- --- -- ----- -- --- ---- -- --- ---- -- ------ ------<br>--- ----- -- ----,112407.70000000112,112406.90000000037,111908.111,111912.09999999963,111924.782,112424.826,,32,you
screen,html.Screen,0_2_0_1_33,2021-12-02T10:58:00.124Z,,,,,,,,,,,,,,,,53,,,,,,,,,,,,,,573.9740000007441,,response,,,99,,,,,,Space,keypress(Space),,,,,---- -- ----- -- ------ - ------- --- ----------<br>------------- ------ ------ ---- ---- ------- ----- -- ----<br>-------- ------- -- ---------- --- - --- ----- ----- ----<br>---- --- --- ----- --- feel ---- ------- ----- ---- -------<br>--- --- -- ----- -- --- ---- -- --- ---- -- ------ ------<br>--- ----- -- ----,112999.70000000112,112998.80000000075,112408.156,112408.09999999963,112424.826,113008.335,,33,feel
screen,html.Screen,0_2_0_1_34,2021-12-02T10:58:00.740Z,,,,,,,,,,,,,,,,53,,,,,,,,,,,,,,606.4650000007387,,response,,,99,,,,,,Space,keypress(Space),,,,,---- -- ----- -- ------ - ------- --- ----------<br>------------- ------ ------ ---- ---- ------- ----- -- ----<br>-------- ------- -- ---------- --- - --- ----- ----- ----<br>---- --- --- ----- --- ---- that ------- ----- ---- -------<br>--- --- -- ----- -- --- ---- -- --- ---- -- ------ ------<br>--- ----- -- ----,113615.70000000112,113614.80000000075,112991.665,113000,113008.335,113625.121,,34,that
screen,html.Screen,0_2_0_1_35,2021-12-02T10:58:01.260Z,,,,,,,,,,,,,,,,53,,,,,,,,,,,,,,509.6790000007459,,response,,,99,,,,,,Space,keypress(Space),,,,,---- -- ----- -- ------ - ------- --- ----------<br>------------- ------ ------ ---- ---- ------- ----- -- ----<br>-------- ------- -- ---------- --- - --- ----- ----- ----<br>---- --- --- ----- --- ---- ---- matters ----- ---- -------<br>--- --- -- ----- -- --- ---- -- --- ---- -- ------ ------<br>--- ----- -- ----,114135.59999999963,114134.80000000075,113608.451,113615.90000000037,113625.121,114142.018,,35,matters
screen,html.Screen,0_2_0_1_36,2021-12-02T10:58:01.956Z,,,,,,,,,,,,,,,,53,,,,,,,,,,,,,,688.6820000011212,,response,,,99,,,,,,Space,keypress(Space),,,,,"---- -- ----- -- ------ - ------- --- ----------<br>------------- ------ ------ ---- ---- ------- ----- -- ----<br>-------- ------- -- ---------- --- - --- ----- ----- ----<br>---- --- --- ----- --- ---- ---- ------- most, ---- -------<br>--- --- -- ----- -- --- ---- -- --- ---- -- ------ ------<br>--- ----- -- ----",114831.80000000075,114830.70000000112,114125.347,114135.90000000037,114142.018,114842.137,,36,"most,"
screen,html.Screen,0_2_0_1_37,2021-12-02T10:58:02.644Z,,,,,,,,,,,,,,,,53,,,,,,,,,,,,,,676.5630000011151,,response,,,99,,,,,,Space,keypress(Space),,,,,---- -- ----- -- ------ - ------- --- ----------<br>------------- ------ ------ ---- ---- ------- ----- -- ----<br>-------- ------- -- ---------- --- - --- ----- ----- ----<br>---- --- --- ----- --- ---- ---- ------- ----- it's -------<br>--- --- -- ----- -- --- ---- -- --- ---- -- ------ ------<br>--- ----- -- ----,115519.59999999963,115518.70000000112,114825.467,114832,114842.137,115525.624,,37,it's
screen,html.Screen,0_2_0_1_38,2021-12-02T10:58:03.332Z,,,,,,,,,,,,,,,,53,,,,,,,,,,,,,,681.4759999996313,,response,,,99,,,,,,Space,keypress(Space),,,,,---- -- ----- -- ------ - ------- --- ----------<br>------------- ------ ------ ---- ---- ------- ----- -- ----<br>-------- ------- -- ---------- --- - --- ----- ----- ----<br>---- --- --- ----- --- ---- ---- ------- ----- ---- whether<br>--- --- -- ----- -- --- ---- -- --- ---- -- ------ ------<br>--- ----- -- ----,116207.90000000037,116207.09999999963,115508.954,115519.70000000112,115525.624,116209.145,,38,whether
screen,html.Screen,0_2_0_1_39,2021-12-02T10:58:03.844Z,,,,,,,,,,,,,,,,53,,,,,,,,,,,,,,509.5550000011135,,response,,,99,,,,,,Space,keypress(Space),,,,,---- -- ----- -- ------ - ------- --- ----------<br>------------- ------ ------ ---- ---- ------- ----- -- ----<br>-------- ------- -- ---------- --- - --- ----- ----- ----<br>---- --- --- ----- --- ---- ---- ------- ----- ---- -------<br>you --- -- ----- -- --- ---- -- --- ---- -- ------ ------<br>--- ----- -- ----,116719.5,116718.70000000112,116192.475,116208.09999999963,116209.145,116725.961,,39,you
screen,html.Screen,0_2_0_1_40,2021-12-02T10:58:04.324Z,,,,,,,,,,,,,,,,53,,,,,,,,,,,,,,472.7390000011219,,response,,,99,,,,,,Space,keypress(Space),,,,,---- -- ----- -- ------ - ------- --- ----------<br>------------- ------ ------ ---- ---- ------- ----- -- ----<br>-------- ------- -- ---------- --- - --- ----- ----- ----<br>---- --- --- ----- --- ---- ---- ------- ----- ---- -------<br>--- are -- ----- -- --- ---- -- --- ---- -- ------ ------<br>--- ----- -- ----,117199.40000000037,117198.70000000112,116709.291,116719.80000000075,116725.961,117209.421,,40,are
screen,html.Screen,0_2_0_1_41,2021-12-02T10:58:04.964Z,,,,,,,,,,,,,,,,53,,,,,,,,,,,,,,629.1789999996254,,response,,,99,,,,,,Space,keypress(Space),,,,,---- -- ----- -- ------ - ------- --- ----------<br>------------- ------ ------ ---- ---- ------- ----- -- ----<br>-------- ------- -- ---------- --- - --- ----- ----- ----<br>---- --- --- ----- --- ---- ---- ------- ----- ---- -------<br>--- --- as ----- -- --- ---- -- --- ---- -- ------ ------<br>--- ----- -- ----,117839.30000000075,117838.59999999963,117192.751,117199.70000000112,117209.421,117842.905,,41,as
screen,html.Screen,0_2_0_1_42,2021-12-02T10:58:05.468Z,,,,,,,,,,,,,,,,53,,,,,,,,,,,,,,499.69499999962864,,response,,,99,,,,,,Space,keypress(Space),,,,,---- -- ----- -- ------ - ------- --- ----------<br>------------- ------ ------ ---- ---- ------- ----- -- ----<br>-------- ------- -- ---------- --- - --- ----- ----- ----<br>---- --- --- ----- --- ---- ---- ------- ----- ---- -------<br>--- --- -- close -- --- ---- -- --- ---- -- ------ ------<br>--- ----- -- ----,118343.40000000037,118342.59999999963,117826.235,117839.70000000112,117842.905,118359.713,,42,close
screen,html.Screen,0_2_0_1_43,2021-12-02T10:58:05.940Z,,,,,,,,,,,,,,,,53,,,,,,,,,,,,,,454.8869999996241,,response,,,99,,,,,,Space,keypress(Space),,,,,---- -- ----- -- ------ - ------- --- ----------<br>------------- ------ ------ ---- ---- ------- ----- -- ----<br>-------- ------- -- ---------- --- - --- ----- ----- ----<br>---- --- --- ----- --- ---- ---- ------- ----- ---- -------<br>--- --- -- ----- as --- ---- -- --- ---- -- ------ ------<br>--- ----- -- ----,118815.30000000075,118814.59999999963,118343.043,118343.80000000075,118359.713,118826.395,,43,as
screen,html.Screen,0_2_0_1_44,2021-12-02T10:58:06.412Z,,,,,,,,,,,,,,,,53,,,,,,,,,,,,,,460.1049999999959,,response,,,99,,,,,,Space,keypress(Space),,,,,---- -- ----- -- ------ - ------- --- ----------<br>------------- ------ ------ ---- ---- ------- ----- -- ----<br>-------- ------- -- ---------- --- - --- ----- ----- ----<br>---- --- --- ----- --- ---- ---- ------- ----- ---- -------<br>--- --- -- ----- -- you ---- -- --- ---- -- ------ ------<br>--- ----- -- ----,119287.30000000075,119286.5,118809.726,118815.59999999963,118826.395,119293.401,,44,you
screen,html.Screen,0_2_0_1_45,2021-12-02T10:58:06.860Z,,,,,,,,,,,,,,,,53,,,,,,,,,,,,,,441.099000000002,,response,,,99,,,,,,Space,keypress(Space),,,,,---- -- ----- -- ------ - ------- --- ----------<br>------------- ------ ------ ---- ---- ------- ----- -- ----<br>-------- ------- -- ---------- --- - --- ----- ----- ----<br>---- --- --- ----- --- ---- ---- ------- ----- ---- -------<br>--- --- -- ----- -- --- want -- --- ---- -- ------ ------<br>--- ----- -- ----,119735.40000000037,119734.5,119276.729,119287.59999999963,119293.401,119743.416,,45,want
screen,html.Screen,0_2_0_1_46,2021-12-02T10:58:07.380Z,,,,,,,,,,,,,,,,53,,,,,,,,,,,,,,511.08400000000256,,response,,,99,,,,,,Space,keypress(Space),,,,,---- -- ----- -- ------ - ------- --- ----------<br>------------- ------ ------ ---- ---- ------- ----- -- ----<br>-------- ------- -- ---------- --- - --- ----- ----- ----<br>---- --- --- ----- --- ---- ---- ------- ----- ---- -------<br>--- --- -- ----- -- --- ---- to --- ---- -- ------ ------<br>--- ----- -- ----,120255.30000000075,120254.5,119726.746,119735.70000000112,119743.416,120260.134,,46,to
screen,html.Screen,0_2_0_1_47,2021-12-02T10:58:07.772Z,,,,,,,,,,,,,,,,53,,,,,,,,,,,,,,386.36599999999453,,response,,,99,,,,,,Space,keypress(Space),,,,,"---- -- ----- -- ------ - ------- --- ----------<br>------------- ------ ------ ---- ---- ------- ----- -- ----<br>-------- ------- -- ---------- --- - --- ----- ----- ----<br>---- --- --- ----- --- ---- ---- ------- ----- ---- -------<br>--- --- -- ----- -- --- ---- -- be, ---- -- ------ ------<br>--- ----- -- ----",120647.20000000112,120646.5,120243.465,120255.5,120260.134,120660.34,,47,"be,"
screen,html.Screen,0_2_0_1_48,2021-12-02T10:58:08.164Z,,,,,,,,,,,,,,,,53,,,,,,,,,,,,,,378.060000000376,,response,,,99,,,,,,Space,keypress(Space),,,,,---- -- ----- -- ------ - ------- --- ----------<br>------------- ------ ------ ---- ---- ------- ----- -- ----<br>-------- ------- -- ---------- --- - --- ----- ----- ----<br>---- --- --- ----- --- ---- ---- ------- ----- ---- -------<br>--- --- -- ----- -- --- ---- -- --- even -- ------ ------<br>--- ----- -- ----,121039.20000000112,121038.40000000037,120643.669,120647.40000000037,120660.34,121043.673,,48,even
screen,html.Screen,0_2_0_1_49,2021-12-02T10:58:08.556Z,,,,,,,,,,,,,,,,53,,,,,,,,,,,,,,386.7270000003773,,response,,,99,,,,,,Space,keypress(Space),,,,,---- -- ----- -- ------ - ------- --- ----------<br>------------- ------ ------ ---- ---- ------- ----- -- ----<br>-------- ------- -- ---------- --- - --- ----- ----- ----<br>---- --- --- ----- --- ---- ---- ------- ----- ---- -------<br>--- --- -- ----- -- --- ---- -- --- ---- if ------ ------<br>--- ----- -- ----,121431.09999999963,121430.40000000037,121027.004,121039.30000000075,121043.673,121443.916,,49,if
screen,html.Screen,0_2_0_1_50,2021-12-02T10:58:08.967Z,,,,,,,,,,,,,,,,53,,,,,,,,,,,,,,394.3840000007476,,response,,,99,,,,,,Space,keypress(Space),,,,,---- -- ----- -- ------ - ------- --- ----------<br>------------- ------ ------ ---- ---- ------- ----- -- ----<br>-------- ------- -- ---------- --- - --- ----- ----- ----<br>---- --- --- ----- --- ---- ---- ------- ----- ---- -------<br>--- --- -- ----- -- --- ---- -- --- ---- -- that's ------<br>--- ----- -- ----,121839.20000000112,121838.30000000075,121427.244,121431.40000000037,121443.916,121843.981,,50,that's
screen,html.Screen,0_2_0_1_51,2021-12-02T10:58:09.471Z,,,,,,,,,,,,,,,,53,,,,,,,,,,,,,,498.3190000007453,,response,,,99,,,,,,Space,keypress(Space),,,,,---- -- ----- -- ------ - ------- --- ----------<br>------------- ------ ------ ---- ---- ------- ----- -- ----<br>-------- ------- -- ---------- --- - --- ----- ----- ----<br>---- --- --- ----- --- ---- ---- ------- ----- ---- -------<br>--- --- -- ----- -- --- ---- -- --- ---- -- ------ really<br>--- ----- -- ----,122343.20000000112,122342.30000000075,121827.31,121839.5,121843.981,122360.742,,51,really
screen,html.Screen,0_2_0_1_52,2021-12-02T10:58:09.951Z,,,,,,,,,,,,,,,,53,,,,,,,,,,,,,,461.65800000037416,,response,,,99,,,,,,Space,keypress(Space),,,,,---- -- ----- -- ------ - ------- --- ----------<br>------------- ------ ------ ---- ---- ------- ----- -- ----<br>-------- ------- -- ---------- --- - --- ----- ----- ----<br>---- --- --- ----- --- ---- ---- ------- ----- ---- -------<br>--- --- -- ----- -- --- ---- -- --- ---- -- ------ ------<br>not ----- -- ----,122823.20000000112,122822.40000000037,122344.072,122343.5,122360.742,122827.528,,52,not
screen,html.Screen,0_2_0_1_53,2021-12-02T10:58:10.383Z,,,,,,,,,,,,,,,,53,,,,,,,,,,,,,,426.6720000011119,,response,,,99,,,,,,Space,keypress(Space),,,,,---- -- ----- -- ------ - ------- --- ----------<br>------------- ------ ------ ---- ---- ------- ----- -- ----<br>-------- ------- -- ---------- --- - --- ----- ----- ----<br>---- --- --- ----- --- ---- ---- ------- ----- ---- -------<br>--- --- -- ----- -- --- ---- -- --- ---- -- ------ ------<br>--- close -- ----,123255.09999999963,123254.20000000112,122810.858,122823.40000000037,122827.528,123261.018,,53,close
screen,html.Screen,0_2_0_1_54,2021-12-02T10:58:10.806Z,,,,,,,,,,,,,,,,53,,,,,,,,,,,,,,417.28200000074867,,response,,,99,,,,,,Space,keypress(Space),,,,,---- -- ----- -- ------ - ------- --- ----------<br>------------- ------ ------ ---- ---- ------- ----- -- ----<br>-------- ------- -- ---------- --- - --- ----- ----- ----<br>---- --- --- ----- --- ---- ---- ------- ----- ---- -------<br>--- --- -- ----- -- --- ---- -- --- ---- -- ------ ------<br>--- ----- at ----,123679,123678.30000000075,123244.347,123255.40000000037,123261.018,123694.429,,54,at
screen,html.Screen,0_2_0_1_55,2021-12-02T10:58:11.846Z,,,,,,,,,,,,,,,,53,,,,,,,,,,,,,,1023.6709999996237,,response,,,99,,,,,,Space,keypress(Space),,,,,---- -- ----- -- ------ - ------- --- ----------<br>------------- ------ ------ ---- ---- ------- ----- -- ----<br>-------- ------- -- ---------- --- - --- ----- ----- ----<br>---- --- --- ----- --- ---- ---- ------- ----- ---- -------<br>--- --- -- ----- -- --- ---- -- --- ---- -- ------ ------<br>--- ----- -- all.,124718.90000000037,124718.09999999963,123677.759,123679.30000000075,123694.429,124727.992,,55,all.
Item 99,flow.Loop,0_2_0_1,2021-12-02T10:58:11.851Z,,,,,,,,,,,,,,,,,,,,,,,,,,,,,,67657.60099999962,,completion,,,,C,,,,,,,,,,silence,,124723.90000000037,124718.09999999963,57043.829,57049.90000000037,57060.499,124727.992,,,
Question 1,html.Screen,0_2_0_2,2021-12-02T10:58:18.874Z,,,,,,,,,,,,,,,,,,,,,,,,,,,true,FALSE,,7017.508000000002,,response,,,99,C,,,,,FALSE,click #choice-2,,,,silence,,131746.90000000037,131745.5,124711.322,124724.30000000075,124727.992,131762.392,,,
Question 2,html.Screen,0_2_0_3,2021-12-02T10:58:19.080Z,,,,,,,,,,,,,,,,,,,,,,,,,,,false,TRUE,,188.60800000000745,,response,,,99,C,,,,,FALSE,click #choice-2,,,,silence,,131952.20000000112,131951,131746.488,131747.40000000037,131762.392,131963.2,,,
Item 99,flow.Sequence,0_2_0,2021-12-02T10:58:19.080Z,,,,,,,,,,,,,,,,,,,,,,,,,,,,,,84892.951,,completion,,,,,,,,,,,,,,,,131952.70000000112,131951,47041.378,47045.70000000112,47058.049,131963.2,,,
Holding screen,html.Screen,0_2_1_0,2021-12-02T10:58:29.078Z,,,,,,,,,,,,,,,,,,,,,,,,,,,,,,10002.49099999998,,timeout,,,,,,,,,,,,,,,,141950.59999999963,141949.021,131946.529,131953,131963.2,141965.691,,,
screen,html.Screen,0_2_1_1_0,2021-12-02T10:58:30.654Z,,,,,,,,,,,,,,,,54,,,,,,,,,,,,,,1559.9089999996359,,response,,,100,,,,,,Space,keypress(Space),,,,,At --- ---- --- ------ ----- ------- ---- -- --- ------- --<br>------- ---------- ------ -- ----- -- ----- -- ---- ------<br>--- ----- --- --- ------ -------- ----- --- ------ ----- --<br>----- ----- ---------- --- --- ------ ------ ---- -- ------<br>------- --- ------ ----- --- ---- ------- -- ---- --- --<br>------- ------,143526.5,143525.59999999963,141949.021,141951,141965.691,143533.007,,0,At
screen,html.Screen,0_2_1_1_1,2021-12-02T10:58:31.309Z,,,,,,,,,,,,,,,,54,,,,,,,,,,,,,,648.0929999996151,,response,,,100,,,,,,Space,keypress(Space),,,,,-- the ---- --- ------ ----- ------- ---- -- --- ------- --<br>------- ---------- ------ -- ----- -- ----- -- ---- ------<br>--- ----- --- --- ------ -------- ----- --- ------ ----- --<br>----- ----- ---------- --- --- ------ ------ ---- -- ------<br>------- --- ------ ----- --- ---- ------- -- ---- --- --<br>------- ------,144182,144181.09999999963,143516.335,143526.80000000075,143533.007,144182.962,,1,the
screen,html.Screen,0_2_1_1_2,2021-12-02T10:58:32.141Z,,,,,,,,,,,,,,,,54,,,,,,,,,,,,,,830.238000001118,,response,,,100,,,,,,Space,keypress(Space),,,,,-- --- time --- ------ ----- ------- ---- -- --- ------- --<br>------- ---------- ------ -- ----- -- ----- -- ---- ------<br>--- ----- --- --- ------ -------- ----- --- ------ ----- --<br>----- ----- ---------- --- --- ------ ------ ---- -- ------<br>------- --- ------ ----- --- ---- ------- -- ---- --- --<br>------- ------,145014,145013.20000000112,144166.292,144182.20000000112,144182.962,145016.498,,2,time
screen,html.Screen,0_2_1_1_3,2021-12-02T10:58:33.005Z,,,,,,,,,,,,,,,,54,,,,,,,,,,,,,,860.5020000000077,,response,,,100,,,,,,Space,keypress(Space),,,,,-- --- ---- the ------ ----- ------- ---- -- --- ------- --<br>------- ---------- ------ -- ----- -- ----- -- ---- ------<br>--- ----- --- --- ------ -------- ----- --- ------ ----- --<br>----- ----- ---------- --- --- ------ ------ ---- -- ------<br>------- --- ------ ----- --- ---- ------- -- ---- --- --<br>------- ------,145877.80000000075,145877,144999.828,145014.20000000112,145016.498,145883.601,,3,the
screen,html.Screen,0_2_1_1_4,2021-12-02T10:58:33.838Z,,,,,,,,,,,,,,,,54,,,,,,,,,,,,,,825.8990000000049,,response,,,100,,,,,,Space,keypress(Space),,,,,-- --- ---- --- French ----- ------- ---- -- --- ------- --<br>------- ---------- ------ -- ----- -- ----- -- ---- ------<br>--- ----- --- --- ------ -------- ----- --- ------ ----- --<br>----- ----- ---------- --- --- ------ ------ ---- -- ------<br>------- --- ------ ----- --- ---- ------- -- ---- --- --<br>------- ------,146710.30000000075,146709.5,145866.929,145878.09999999963,145883.601,146716.987,,4,French
screen,html.Screen,0_2_1_1_5,2021-12-02T10:58:34.501Z,,,,,,,,,,,,,,,,54,,,,,,,,,,,,,,656.0130000000063,,response,,,100,,,,,,Space,keypress(Space),,,,,-- --- ---- --- ------ crown ------- ---- -- --- ------- --<br>------- ---------- ------ -- ----- -- ----- -- ---- ------<br>--- ----- --- --- ------ -------- ----- --- ------ ----- --<br>----- ----- ---------- --- --- ------ ------ ---- -- ------<br>------- --- ------ ----- --- ---- ------- -- ---- --- --<br>------- ------,147373.80000000075,147373,146700.317,146710.59999999963,146716.987,147383.833,,5,crown
screen,html.Screen,0_2_1_1_6,2021-12-02T10:58:36.957Z,,,,,,,,,,,,,,,,54,,,,,,,,,,,,,,2445.0670000003593,,response,,,100,,,,,,Space,keypress(Space),,,,,-- --- ---- --- ------ ----- secured ---- -- --- ------- --<br>------- ---------- ------ -- ----- -- ----- -- ---- ------<br>--- ----- --- --- ------ -------- ----- --- ------ ----- --<br>----- ----- ---------- --- --- ------ ------ ---- -- ------<br>------- --- ------ ----- --- ---- ------- -- ---- --- --<br>------- ------,149829.70000000112,149828.90000000037,147367.163,147374,147383.833,149834.362,,6,secured
screen,html.Screen,0_2_1_1_7,2021-12-02T10:58:38.069Z,,,,,,,,,,,,,,,,54,,,,,,,,,,,,,,1106.3380000011239,,response,,,100,,,,,,Space,keypress(Space),,,,,-- --- ---- --- ------ ----- ------- much -- --- ------- --<br>------- ---------- ------ -- ----- -- ----- -- ---- ------<br>--- ----- --- --- ------ -------- ----- --- ------ ----- --<br>----- ----- ---------- --- --- ------ ------ ---- -- ------<br>------- --- ------ ----- --- ---- ------- -- ---- --- --<br>------- ------,150941.5,150940.70000000112,149817.692,149829.90000000037,149834.362,150951.524,,7,much
screen,html.Screen,0_2_1_1_8,2021-12-02T10:58:39.021Z,,,,,,,,,,,,,,,,54,,,,,,,,,,,,,,941.1760000011127,,response,,,100,,,,,,Space,keypress(Space),,,,,-- --- ---- --- ------ ----- ------- ---- of --- ------- --<br>------- ---------- ------ -- ----- -- ----- -- ---- ------<br>--- ----- --- --- ------ -------- ----- --- ------ ----- --<br>----- ----- ---------- --- --- ------ ------ ---- -- ------<br>------- --- ------ ----- --- ---- ------- -- ---- --- --<br>------- ------,151893.5,151892.70000000112,150934.853,150941.80000000075,150951.524,151901.61,,8,of
screen,html.Screen,0_2_1_1_9,2021-12-02T10:58:39.597Z,,,,,,,,,,,,,,,,54,,,,,,,,,,,,,,567.190000000759,,response,,,100,,,,,,Space,keypress(Space),,,,,-- --- ---- --- ------ ----- ------- ---- -- its ------- --<br>------- ---------- ------ -- ----- -- ----- -- ---- ------<br>--- ----- --- --- ------ -------- ----- --- ------ ----- --<br>----- ----- ---------- --- --- ------ ------ ---- -- ------<br>------- --- ------ ----- --- ---- ------- -- ---- --- --<br>------- ------,152469.59999999963,152468.80000000075,151884.94,151893.90000000037,151901.61,152485.07,,9,its
screen,html.Screen,0_2_1_1_10,2021-12-02T10:58:40.317Z,,,,,,,,,,,,,,,,54,,,,,,,,,,,,,,703.5299999996205,,response,,,100,,,,,,Space,keypress(Space),,,,,-- --- ---- --- ------ ----- ------- ---- -- --- revenue --<br>------- ---------- ------ -- ----- -- ----- -- ---- ------<br>--- ----- --- --- ------ -------- ----- --- ------ ----- --<br>----- ----- ---------- --- --- ------ ------ ---- -- ------<br>------- --- ------ ----- --- ---- ------- -- ---- --- --<br>------- ------,153189.40000000037,153188.59999999963,152468.4,152469.80000000075,152485.07,153202.072,,10,revenue
screen,html.Screen,0_2_1_1_11,2021-12-02T10:58:41.213Z,,,,,,,,,,,,,,,,54,,,,,,,,,,,,,,883.0279999996419,,response,,,100,,,,,,Space,keypress(Space),,,,,-- --- ---- --- ------ ----- ------- ---- -- --- ------- by<br>------- ---------- ------ -- ----- -- ----- -- ---- ------<br>--- ----- --- --- ------ -------- ----- --- ------ ----- --<br>----- ----- ---------- --- --- ------ ------ ---- -- ------<br>------- --- ------ ----- --- ---- ------- -- ---- --- --<br>------- ------,154085.90000000037,154085.09999999963,153185.401,153189.70000000112,153202.072,154102.222,,11,by
screen,html.Screen,0_2_1_1_12,2021-12-02T10:58:42.541Z,,,,,,,,,,,,,,,,54,,,,,,,,,,,,,,1310.2779999999912,,response,,,100,,,,,,Space,keypress(Space),,,,,-- --- ---- --- ------ ----- ------- ---- -- --- ------- --<br>issuing ---------- ------ -- ----- -- ----- -- ---- ------<br>--- ----- --- --- ------ -------- ----- --- ------ ----- --<br>----- ----- ---------- --- --- ------ ------ ---- -- ------<br>------- --- ------ ----- --- ---- ------- -- ---- --- --<br>------- ------,155413.40000000037,155412.5,154085.552,154086.09999999963,154102.222,155419.176,,12,issuing
screen,html.Screen,0_2_1_1_13,2021-12-02T10:58:43.517Z,,,,,,,,,,,,,,,,54,,,,,,,,,,,,,,969.3239999999932,,response,,,100,,,,,,Space,keypress(Space),,,,,-- --- ---- --- ------ ----- ------- ---- -- --- ------- --<br>------- government ------ -- ----- -- ----- -- ---- ------<br>--- ----- --- --- ------ -------- ----- --- ------ ----- --<br>----- ----- ---------- --- --- ------ ------ ---- -- ------<br>------- --- ------ ----- --- ---- ------- -- ---- --- --<br>------- ------,156389.30000000075,156388.5,155402.506,155413.70000000112,155419.176,156402.802,,13,government
screen,html.Screen,0_2_1_1_14,2021-12-02T10:58:48.116Z,,,,,,,,,,,,,,,,54,,,,,,,,,,,,,,4585.3980000011215,,response,,,100,,,,,,Space,keypress(Space),,,,,-- --- ---- --- ------ ----- ------- ---- -- --- ------- --<br>------- ---------- bonds. -- ----- -- ----- -- ---- ------<br>--- ----- --- --- ------ -------- ----- --- ------ ----- --<br>----- ----- ---------- --- --- ------ ------ ---- -- ------<br>------- --- ------ ----- --- ---- ------- -- ---- --- --<br>------- ------,160989,160988.20000000112,156386.132,156389.5,156402.802,161003.693,,14,bonds.
screen,html.Screen,0_2_1_1_15,2021-12-02T10:58:48.780Z,,,,,,,,,,,,,,,,54,,,,,,,,,,,,,,648.4069999996282,,response,,,100,,,,,,Space,keypress(Space),,,,,-- --- ---- --- ------ ----- ------- ---- -- --- ------- --<br>------- ---------- ------ In ----- -- ----- -- ---- ------<br>--- ----- --- --- ------ -------- ----- --- ------ ----- --<br>----- ----- ---------- --- --- ------ ------ ---- -- ------<br>------- --- ------ ----- --- ---- ------- -- ---- --- --<br>------- ------,161653.09999999963,161652.09999999963,160987.023,160989.30000000075,161003.693,161654.192,,15,In
screen,html.Screen,0_2_1_1_16,2021-12-02T10:58:50.908Z,,,,,,,,,,,,,,,,54,,,,,,,,,,,,,,2125.80799999999,,response,,,100,,,,,,Space,keypress(Space),,,,,"-- --- ---- --- ------ ----- ------- ---- -- --- ------- --<br>------- ---------- ------ -- 1727, -- ----- -- ---- ------<br>--- ----- --- --- ------ -------- ----- --- ------ ----- --<br>----- ----- ---------- --- --- ------ ------ ---- -- ------<br>------- --- ------ ----- --- ---- ------- -- ---- --- --<br>------- ------",163780.90000000037,163780,161637.521,161653.40000000037,161654.192,163787.913,,16,"1727,"
screen,html.Screen,0_2_1_1_17,2021-12-02T10:58:51.693Z,,,,,,,,,,,,,,,,54,,,,,,,,,,,,,,776.5869999999995,,response,,,100,,,,,,Space,keypress(Space),,,,,-- --- ---- --- ------ ----- ------- ---- -- --- ------- --<br>------- ---------- ------ -- ----- in ----- -- ---- ------<br>--- ----- --- --- ------ -------- ----- --- ------ ----- --<br>----- ----- ---------- --- --- ------ ------ ---- -- ------<br>------- --- ------ ----- --- ---- ------- -- ---- --- --<br>------- ------,164565.20000000112,164564.5,163771.243,163781.09999999963,163787.913,164571.727,,17,in
screen,html.Screen,0_2_1_1_18,2021-12-02T10:58:52.372Z,,,,,,,,,,,,,,,,54,,,,,,,,,,,,,,672.2729999999865,,response,,,100,,,,,,Space,keypress(Space),,,,,-- --- ---- --- ------ ----- ------- ---- -- --- ------- --<br>------- ---------- ------ -- ----- -- order -- ---- ------<br>--- ----- --- --- ------ -------- ----- --- ------ ----- --<br>----- ----- ---------- --- --- ------ ------ ---- -- ------<br>------- --- ------ ----- --- ---- ------- -- ---- --- --<br>------- ------,165244.80000000075,165244,164555.055,164565.59999999963,164571.727,165255.107,,18,order
screen,html.Screen,0_2_1_1_19,2021-12-02T10:58:52.980Z,,,,,,,,,,,,,,,,54,,,,,,,,,,,,,,596.8930000000109,,response,,,100,,,,,,Space,keypress(Space),,,,,-- --- ---- --- ------ ----- ------- ---- -- --- ------- --<br>------- ---------- ------ -- ----- -- ----- to ---- ------<br>--- ----- --- --- ------ -------- ----- --- ------ ----- --<br>----- ----- ---------- --- --- ------ ------ ---- -- ------<br>------- --- ------ ----- --- ---- ------- -- ---- --- --<br>------- ------,165852.70000000112,165852,165238.437,165245.09999999963,165255.107,165855.267,,19,to
screen,html.Screen,0_2_1_1_20,2021-12-02T10:58:53.620Z,,,,,,,,,,,,,,,,54,,,,,,,,,,,,,,636.63300000038,,response,,,100,,,,,,Space,keypress(Space),,,,,-- --- ---- --- ------ ----- ------- ---- -- --- ------- --<br>------- ---------- ------ -- ----- -- ----- -- save ------<br>--- ----- --- --- ------ -------- ----- --- ------ ----- --<br>----- ----- ---------- --- --- ------ ------ ---- -- ------<br>------- --- ------ ----- --- ---- ------- -- ---- --- --<br>------- ------,166492.70000000112,166491.90000000037,165838.597,165852.90000000037,165855.267,166505.411,,20,save
screen,html.Screen,0_2_1_1_21,2021-12-02T10:58:54.196Z,,,,,,,,,,,,,,,,54,,,,,,,,,,,,,,562.4890000003797,,response,,,100,,,,,,Space,keypress(Space),,,,,"-- --- ---- --- ------ ----- ------- ---- -- --- ------- --<br>------- ---------- ------ -- ----- -- ----- -- ---- money,<br>--- ----- --- --- ------ -------- ----- --- ------ ----- --<br>----- ----- ---------- --- --- ------ ------ ---- -- ------<br>------- --- ------ ----- --- ---- ------- -- ---- --- --<br>------- ------",167068.70000000112,167067.90000000037,166488.741,166493,166505.411,167072.123,,21,"money,"
screen,html.Screen,0_2_1_1_22,2021-12-02T10:58:54.604Z,,,,,,,,,,,,,,,,54,,,,,,,,,,,,,,403.7770000003802,,response,,,100,,,,,,Space,keypress(Space),,,,,-- --- ---- --- ------ ----- ------- ---- -- --- ------- --<br>------- ---------- ------ -- ----- -- ----- -- ---- ------<br>the ----- --- --- ------ -------- ----- --- ------ ----- --<br>----- ----- ---------- --- --- ------ ------ ---- -- ------<br>------- --- ------ ----- --- ---- ------- -- ---- --- --<br>------- ------,167476.70000000112,167475.90000000037,167055.454,167068.90000000037,167072.123,167489.076,,22,the
screen,html.Screen,0_2_1_1_23,2021-12-02T10:58:54.996Z,,,,,,,,,,,,,,,,54,,,,,,,,,,,,,,378.8240000003716,,response,,,100,,,,,,Space,keypress(Space),,,,,-- --- ---- --- ------ ----- ------- ---- -- --- ------- --<br>------- ---------- ------ -- ----- -- ----- -- ---- ------<br>--- state --- --- ------ -------- ----- --- ------ ----- --<br>----- ----- ---------- --- --- ------ ------ ---- -- ------<br>------- --- ------ ----- --- ---- ------- -- ---- --- --<br>------- ------,167868.59999999963,167867.90000000037,167472.405,167476.90000000037,167489.076,167872.425,,23,state
screen,html.Screen,0_2_1_1_24,2021-12-02T10:58:55.332Z,,,,,,,,,,,,,,,,54,,,,,,,,,,,,,,331.3750000007567,,response,,,100,,,,,,Space,keypress(Space),,,,,-- --- ---- --- ------ ----- ------- ---- -- --- ------- --<br>------- ---------- ------ -- ----- -- ----- -- ---- ------<br>--- ----- cut --- ------ -------- ----- --- ------ ----- --<br>----- ----- ---------- --- --- ------ ------ ---- -- ------<br>------- --- ------ ----- --- ---- ------- -- ---- --- --<br>------- ------,168204.59999999963,168203.80000000075,167855.755,167868.90000000037,167872.425,168205.907,,24,cut
screen,html.Screen,0_2_1_1_25,2021-12-02T10:58:55.852Z,,,,,,,,,,,,,,,,54,,,,,,,,,,,,,,517.8930000007385,,response,,,100,,,,,,Space,keypress(Space),,,,,-- --- ---- --- ------ ----- ------- ---- -- --- ------- --<br>------- ---------- ------ -- ----- -- ----- -- ---- ------<br>--- ----- --- the ------ -------- ----- --- ------ ----- --<br>----- ----- ---------- --- --- ------ ------ ---- -- ------<br>------- --- ------ ----- --- ---- ------- -- ---- --- --<br>------- ------,168724.59999999963,168723.80000000075,168189.236,168204.90000000037,168205.907,168739.38,,25,the
screen,html.Screen,0_2_1_1_26,2021-12-02T10:58:56.180Z,,,,,,,,,,,,,,,,54,,,,,,,,,,,,,,312.4200000007404,,response,,,100,,,,,,Space,keypress(Space),,,,,-- --- ---- --- ------ ----- ------- ---- -- --- ------- --<br>------- ---------- ------ -- ----- -- ----- -- ---- ------<br>--- ----- --- --- bonds' -------- ----- --- ------ ----- --<br>----- ----- ---------- --- --- ------ ------ ---- -- ------<br>------- --- ------ ----- --- ---- ------- -- ---- --- --<br>------- ------,169052.5,169051.80000000075,168722.709,168724.90000000037,168739.38,169056.137,,26,bonds'
screen,html.Screen,0_2_1_1_27,2021-12-02T10:58:57.092Z,,,,,,,,,,,,,,,,54,,,,,,,,,,,,,,907.6630000007572,,response,,,100,,,,,,Space,keypress(Space),,,,,-- --- ---- --- ------ ----- ------- ---- -- --- ------- --<br>------- ---------- ------ -- ----- -- ----- -- ---- ------<br>--- ----- --- --- ------ interest ----- --- ------ ----- --<br>----- ----- ---------- --- --- ------ ------ ---- -- ------<br>------- --- ------ ----- --- ---- ------- -- ---- --- --<br>------- ------,169964.5,169963.80000000075,169039.466,169052.80000000075,169056.137,169972.967,,27,interest
screen,html.Screen,0_2_1_1_28,2021-12-02T10:58:59.412Z,,,,,,,,,,,,,,,,54,,,,,,,,,,,,,,2310.6329999996233,,response,,,100,,,,,,Space,keypress(Space),,,,,-- --- ---- --- ------ ----- ------- ---- -- --- ------- --<br>------- ---------- ------ -- ----- -- ----- -- ---- ------<br>--- ----- --- --- ------ -------- rate. --- ------ ----- --<br>----- ----- ---------- --- --- ------ ------ ---- -- ------<br>------- --- ------ ----- --- ---- ------- -- ---- --- --<br>------- ------,172284.40000000037,172283.59999999963,169956.297,169964.80000000075,169972.967,172290.149,,28,rate.
screen,html.Screen,0_2_1_1_29,2021-12-02T10:59:00.108Z,,,,,,,,,,,,,,,,54,,,,,,,,,,,,,,689.4509999996226,,response,,,100,,,,,,Space,keypress(Space),,,,,-- --- ---- --- ------ ----- ------- ---- -- --- ------- --<br>------- ---------- ------ -- ----- -- ----- -- ---- ------<br>--- ----- --- --- ------ -------- ----- The ------ ----- --<br>----- ----- ---------- --- --- ------ ------ ---- -- ------<br>------- --- ------ ----- --- ---- ------- -- ---- --- --<br>------- ------,172980.40000000037,172979.59999999963,172273.479,172284.59999999963,172290.149,172990.417,,29,The
screen,html.Screen,0_2_1_1_30,2021-12-02T10:59:01.908Z,,,,,,,,,,,,,,,,54,,,,,,,,,,,,,,1789.4830000003858,,response,,,100,,,,,,Space,keypress(Space),,,,,-- --- ---- --- ------ ----- ------- ---- -- --- ------- --<br>------- ---------- ------ -- ----- -- ----- -- ---- ------<br>--- ----- --- --- ------ -------- ----- --- market ----- --<br>----- ----- ---------- --- --- ------ ------ ---- -- ------<br>------- --- ------ ----- --- ---- ------- -- ---- --- --<br>------- ------,174780.59999999963,174779.90000000037,172973.747,172980.59999999963,172990.417,174790.743,,30,market
screen,html.Screen,0_2_1_1_31,2021-12-02T10:59:02.428Z,,,,,,,,,,,,,,,,54,,,,,,,,,,,,,,508.65700000038487,,response,,,100,,,,,,Space,keypress(Space),,,,,-- --- ---- --- ------ ----- ------- ---- -- --- ------- --<br>------- ---------- ------ -- ----- -- ----- -- ---- ------<br>--- ----- --- --- ------ -------- ----- --- ------ value --<br>----- ----- ---------- --- --- ------ ------ ---- -- ------<br>------- --- ------ ----- --- ---- ------- -- ---- --- --<br>------- ------,175300.20000000112,175299.40000000037,174774.073,174780.90000000037,174790.743,175307.788,,31,value
screen,html.Screen,0_2_1_1_32,2021-12-02T10:59:03.004Z,,,,,,,,,,,,,,,,54,,,,,,,,,,,,,,567.6120000003721,,response,,,100,,,,,,Space,keypress(Space),,,,,-- --- ---- --- ------ ----- ------- ---- -- --- ------- --<br>------- ---------- ------ -- ----- -- ----- -- ---- ------<br>--- ----- --- --- ------ -------- ----- --- ------ ----- of<br>----- ----- ---------- --- --- ------ ------ ---- -- ------<br>------- --- ------ ----- --- ---- ------- -- ---- --- --<br>------- ------,175876.09999999963,175875.40000000037,175291.116,175300.40000000037,175307.788,175891.183,,32,of
screen,html.Screen,0_2_1_1_33,2021-12-02T10:59:03.476Z,,,,,,,,,,,,,,,,54,,,,,,,,,,,,,,456.11700000075507,,response,,,100,,,,,,Space,keypress(Space),,,,,-- --- ---- --- ------ ----- ------- ---- -- --- ------- --<br>------- ---------- ------ -- ----- -- ----- -- ---- ------<br>--- ----- --- --- ------ -------- ----- --- ------ ----- --<br>these ----- ---------- --- --- ------ ------ ---- -- ------<br>------- --- ------ ----- --- ---- ------- -- ---- --- --<br>------- ------,176348.20000000112,176347.30000000075,175874.513,175876.40000000037,175891.183,176357.979,,33,these
screen,html.Screen,0_2_1_1_34,2021-12-02T10:59:03.868Z,,,,,,,,,,,,,,,,54,,,,,,,,,,,,,,381.321000000753,,response,,,100,,,,,,Space,keypress(Space),,,,,-- --- ---- --- ------ ----- ------- ---- -- --- ------- --<br>------- ---------- ------ -- ----- -- ----- -- ---- ------<br>--- ----- --- --- ------ -------- ----- --- ------ ----- --<br>----- bonds ---------- --- --- ------ ------ ---- -- ------<br>------- --- ------ ----- --- ---- ------- -- ---- --- --<br>------- ------,176740.09999999963,176739.30000000075,176341.309,176348.40000000037,176357.979,176741.327,,34,bonds
screen,html.Screen,0_2_1_1_35,2021-12-02T10:59:04.523Z,,,,,,,,,,,,,,,,54,,,,,,,,,,,,,,653.9730000007548,,response,,,100,,,,,,Space,keypress(Space),,,,,"-- --- ---- --- ------ ----- ------- ---- -- --- ------- --<br>------- ---------- ------ -- ----- -- ----- -- ---- ------<br>--- ----- --- --- ------ -------- ----- --- ------ ----- --<br>----- ----- plummeted, --- --- ------ ------ ---- -- ------<br>------- --- ------ ----- --- ---- ------- -- ---- --- --<br>------- ------",177396.09999999963,177395.30000000075,176724.658,176740.40000000037,176741.327,177408.174,,35,"plummeted,"
screen,html.Screen,0_2_1_1_36,2021-12-02T10:59:05.123Z,,,,,,,,,,,,,,,,54,,,,,,,,,,,,,,587.0260000011185,,response,,,100,,,,,,Space,keypress(Space),,,,,-- --- ---- --- ------ ----- ------- ---- -- --- ------- --<br>------- ---------- ------ -- ----- -- ----- -- ---- ------<br>--- ----- --- --- ------ -------- ----- --- ------ ----- --<br>----- ----- ---------- and --- ------ ------ ---- -- ------<br>------- --- ------ ----- --- ---- ------- -- ---- --- --<br>------- ------,177996,177995.20000000112,177391.504,177396.30000000075,177408.174,178008.509,,36,and
screen,html.Screen,0_2_1_1_37,2021-12-02T10:59:05.611Z,,,,,,,,,,,,,,,,54,,,,,,,,,,,,,,474.69100000112667,,response,,,100,,,,,,Space,keypress(Space),,,,,-- --- ---- --- ------ ----- ------- ---- -- --- ------- --<br>------- ---------- ------ -- ----- -- ----- -- ---- ------<br>--- ----- --- --- ------ -------- ----- --- ------ ----- --<br>----- ----- ---------- --- the ------ ------ ---- -- ------<br>------- --- ------ ----- --- ---- ------- -- ---- --- --<br>------- ------,178484,178483.20000000112,177991.837,177996.30000000075,178008.509,178491.896,,37,the
screen,html.Screen,0_2_1_1_38,2021-12-02T10:59:05.963Z,,,,,,,,,,,,,,,,54,,,,,,,,,,,,,,343.30400000110967,,response,,,100,,,,,,Space,keypress(Space),,,,,-- --- ---- --- ------ ----- ------- ---- -- --- ------- --<br>------- ---------- ------ -- ----- -- ----- -- ---- ------<br>--- ----- --- --- ------ -------- ----- --- ------ ----- --<br>----- ----- ---------- --- --- market ------ ---- -- ------<br>------- --- ------ ----- --- ---- ------- -- ---- --- --<br>------- ------,178836,178835.20000000112,178475.225,178484.20000000112,178491.896,178841.939,,38,market
screen,html.Screen,0_2_1_1_39,2021-12-02T10:59:06.403Z,,,,,,,,,,,,,,,,54,,,,,,,,,,,,,,433.26100000110455,,response,,,100,,,,,,Space,keypress(Space),,,,,-- --- ---- --- ------ ----- ------- ---- -- --- ------- --<br>------- ---------- ------ -- ----- -- ----- -- ---- ------<br>--- ----- --- --- ------ -------- ----- --- ------ ----- --<br>----- ----- ---------- --- --- ------ became ---- -- ------<br>------- --- ------ ----- --- ---- ------- -- ---- --- --<br>------- ------,179276,179275.20000000112,178825.269,178836.20000000112,178841.939,179292.063,,39,became
screen,html.Screen,0_2_1_1_40,2021-12-02T10:59:06.811Z,,,,,,,,,,,,,,,,54,,,,,,,,,,,,,,391.0369999996328,,response,,,100,,,,,,Space,keypress(Space),,,,,-- --- ---- --- ------ ----- ------- ---- -- --- ------- --<br>------- ---------- ------ -- ----- -- ----- -- ---- ------<br>--- ----- --- --- ------ -------- ----- --- ------ ----- --<br>----- ----- ---------- --- --- ------ ------ wary -- ------<br>------- --- ------ ----- --- ---- ------- -- ---- --- --<br>------- ------,179684,179683.09999999963,179275.393,179276.20000000112,179292.063,179692.208,,40,wary
screen,html.Screen,0_2_1_1_41,2021-12-02T10:59:07.315Z,,,,,,,,,,,,,,,,54,,,,,,,,,,,,,,494.9920000011043,,response,,,100,,,,,,Space,keypress(Space),,,,,-- --- ---- --- ------ ----- ------- ---- -- --- ------- --<br>------- ---------- ------ -- ----- -- ----- -- ---- ------<br>--- ----- --- --- ------ -------- ----- --- ------ ----- --<br>----- ----- ---------- --- --- ------ ------ ---- of ------<br>------- --- ------ ----- --- ---- ------- -- ---- --- --<br>------- ------,180187.90000000037,180187.20000000112,179675.537,179684.30000000075,179692.208,180192.272,,41,of
screen,html.Screen,0_2_1_1_42,2021-12-02T10:59:07.796Z,,,,,,,,,,,,,,,,54,,,,,,,,,,,,,,475.1280000003753,,response,,,100,,,,,,Space,keypress(Space),,,,,-- --- ---- --- ------ ----- ------- ---- -- --- ------- --<br>------- ---------- ------ -- ----- -- ----- -- ---- ------<br>--- ----- --- --- ------ -------- ----- --- ------ ----- --<br>----- ----- ---------- --- --- ------ ------ ---- -- French<br>------- --- ------ ----- --- ---- ------- -- ---- --- --<br>------- ------,180668.20000000112,180667.40000000037,180175.602,180188.20000000112,180192.272,180675.745,,42,French
screen,html.Screen,0_2_1_1_43,2021-12-02T10:59:08.595Z,,,,,,,,,,,,,,,,54,,,,,,,,,,,,,,791.3549999996321,,response,,,100,,,,,,Space,keypress(Space),,,,,-- --- ---- --- ------ ----- ------- ---- -- --- ------- --<br>------- ---------- ------ -- ----- -- ----- -- ---- ------<br>--- ----- --- --- ------ -------- ----- --- ------ ----- --<br>----- ----- ---------- --- --- ------ ------ ---- -- ------<br>credit. --- ------ ----- --- ---- ------- -- ---- --- --<br>------- ------,181467.80000000075,181467.09999999963,180659.075,180668.40000000037,180675.745,181475.822,,43,credit.
screen,html.Screen,0_2_1_1_44,2021-12-02T10:59:09.183Z,,,,,,,,,,,,,,,,54,,,,,,,,,,,,,,575.2779999996419,,response,,,100,,,,,,Space,keypress(Space),,,,,-- --- ---- --- ------ ----- ------- ---- -- --- ------- --<br>------- ---------- ------ -- ----- -- ----- -- ---- ------<br>--- ----- --- --- ------ -------- ----- --- ------ ----- --<br>----- ----- ---------- --- --- ------ ------ ---- -- ------<br>------- The ------ ----- --- ---- ------- -- ---- --- --<br>------- ------,182051.80000000075,182051.09999999963,181459.153,181468.20000000112,181475.822,182059.54,,44,The
screen,html.Screen,0_2_1_1_45,2021-12-02T10:59:09.623Z,,,,,,,,,,,,,,,,54,,,,,,,,,,,,,,431.3600000003644,,response,,,100,,,,,,Space,keypress(Space),,,,,-- --- ---- --- ------ ----- ------- ---- -- --- ------- --<br>------- ---------- ------ -- ----- -- ----- -- ---- ------<br>--- ----- --- --- ------ -------- ----- --- ------ ----- --<br>----- ----- ---------- --- --- ------ ------ ---- -- ------<br>------- --- French ----- --- ---- ------- -- ---- --- --<br>------- ------,182491.70000000112,182490.90000000037,182042.868,182052.09999999963,182059.54,182492.882,,45,French
screen,html.Screen,0_2_1_1_46,2021-12-02T10:59:10.039Z,,,,,,,,,,,,,,,,54,,,,,,,,,,,,,,414.11799999998766,,response,,,100,,,,,,Space,keypress(Space),,,,,-- --- ---- --- ------ ----- ------- ---- -- --- ------- --<br>------- ---------- ------ -- ----- -- ----- -- ---- ------<br>--- ----- --- --- ------ -------- ----- --- ------ ----- --<br>----- ----- ---------- --- --- ------ ------ ---- -- ------<br>------- --- ------ state --- ---- ------- -- ---- --- --<br>------- ------,182907.80000000075,182907,182476.212,182491.90000000037,182492.882,182909.657,,46,state
screen,html.Screen,0_2_1_1_47,2021-12-02T10:59:10.511Z,,,,,,,,,,,,,,,,54,,,,,,,,,,,,,,469.3429999999935,,response,,,100,,,,,,Space,keypress(Space),,,,,-- --- ---- --- ------ ----- ------- ---- -- --- ------- --<br>------- ---------- ------ -- ----- -- ----- -- ---- ------<br>--- ----- --- --- ------ -------- ----- --- ------ ----- --<br>----- ----- ---------- --- --- ------ ------ ---- -- ------<br>------- --- ------ ----- was ---- ------- -- ---- --- --<br>------- ------,183379.80000000075,183379,182892.987,182908.09999999963,182909.657,183393.115,,47,was
screen,html.Screen,0_2_1_1_48,2021-12-02T10:59:10.943Z,,,,,,,,,,,,,,,,54,,,,,,,,,,,,,,417.78500000038184,,response,,,100,,,,,,Space,keypress(Space),,,,,-- --- ---- --- ------ ----- ------- ---- -- --- ------- --<br>------- ---------- ------ -- ----- -- ----- -- ---- ------<br>--- ----- --- --- ------ -------- ----- --- ------ ----- --<br>----- ----- ---------- --- --- ------ ------ ---- -- ------<br>------- --- ------ ----- --- left ------- -- ---- --- --<br>------- ------,183811.80000000075,183810.90000000037,183376.445,183380.09999999963,183393.115,183826.562,,48,left
screen,html.Screen,0_2_1_1_49,2021-12-02T10:59:11.615Z,,,,,,,,,,,,,,,,54,,,,,,,,,,,,,,656.3380000003672,,response,,,100,,,,,,Space,keypress(Space),,,,,-- --- ---- --- ------ ----- ------- ---- -- --- ------- --<br>------- ---------- ------ -- ----- -- ----- -- ---- ------<br>--- ----- --- --- ------ -------- ----- --- ------ ----- --<br>----- ----- ---------- --- --- ------ ------ ---- -- ------<br>------- --- ------ ----- --- ---- without -- ---- --- --<br>------- ------,184483.70000000112,184482.90000000037,183809.892,183812,183826.562,184493.376,,49,without
screen,html.Screen,0_2_1_1_50,2021-12-02T10:59:12.039Z,,,,,,,,,,,,,,,,54,,,,,,,,,,,,,,414.02400000038324,,response,,,100,,,,,,Space,keypress(Space),,,,,-- --- ---- --- ------ ----- ------- ---- -- --- ------- --<br>------- ---------- ------ -- ----- -- ----- -- ---- ------<br>--- ----- --- --- ------ -------- ----- --- ------ ----- --<br>----- ----- ---------- --- --- ------ ------ ---- -- ------<br>------- --- ------ ----- --- ---- ------- an ---- --- --<br>------- ------,184908.09999999963,184907.40000000037,184476.706,184484,184493.376,184910.211,,50,an
screen,html.Screen,0_2_1_1_51,2021-12-02T10:59:12.487Z,,,,,,,,,,,,,,,,54,,,,,,,,,,,,,,444.6890000003623,,response,,,100,,,,,,Space,keypress(Space),,,,,-- --- ---- --- ------ ----- ------- ---- -- --- ------- --<br>------- ---------- ------ -- ----- -- ----- -- ---- ------<br>--- ----- --- --- ------ -------- ----- --- ------ ----- --<br>----- ----- ---------- --- --- ------ ------ ---- -- ------<br>------- --- ------ ----- --- ---- ------- -- easy --- --<br>------- ------,185355.80000000075,185354.90000000037,184893.54,184908.30000000075,184910.211,185360.29,,51,easy
screen,html.Screen,0_2_1_1_52,2021-12-02T10:59:12.895Z,,,,,,,,,,,,,,,,54,,,,,,,,,,,,,,402.6100000003644,,response,,,100,,,,,,Space,keypress(Space),,,,,-- --- ---- --- ------ ----- ------- ---- -- --- ------- --<br>------- ---------- ------ -- ----- -- ----- -- ---- ------<br>--- ----- --- --- ------ -------- ----- --- ------ ----- --<br>----- ----- ---------- --- --- ------ ------ ---- -- ------<br>------- --- ------ ----- --- ---- ------- -- ---- way --<br>------- ------,185763.70000000112,185762.90000000037,185343.62,185356.09999999963,185360.29,185777.12,,52,way
screen,html.Screen,0_2_1_1_53,2021-12-02T10:59:13.391Z,,,,,,,,,,,,,,,,54,,,,,,,,,,,,,,481.6800000007497,,response,,,100,,,,,,Space,keypress(Space),,,,,-- --- ---- --- ------ ----- ------- ---- -- --- ------- --<br>------- ---------- ------ -- ----- -- ----- -- ---- ------<br>--- ----- --- --- ------ -------- ----- --- ------ ----- --<br>----- ----- ---------- --- --- ------ ------ ---- -- ------<br>------- --- ------ ----- --- ---- ------- -- ---- --- of<br>------- ------,186259.59999999963,186258.80000000075,185760.449,185763.90000000037,185777.12,186277.099,,53,of
screen,html.Screen,0_2_1_1_54,2021-12-02T10:59:14.239Z,,,,,,,,,,,,,,,,54,,,,,,,,,,,,,,829.7010000007576,,response,,,100,,,,,,Space,keypress(Space),,,,,-- --- ---- --- ------ ----- ------- ---- -- --- ------- --<br>------- ---------- ------ -- ----- -- ----- -- ---- ------<br>--- ----- --- --- ------ -------- ----- --- ------ ----- --<br>----- ----- ---------- --- --- ------ ------ ---- -- ------<br>------- --- ------ ----- --- ---- ------- -- ---- --- --<br>raising ------,187107.59999999963,187106.80000000075,186260.43,186259.80000000075,186277.099,187110.853,,54,raising
screen,html.Screen,0_2_1_1_55,2021-12-02T10:59:15.039Z,,,,,,,,,,,,,,,,54,,,,,,,,,,,,,,795.9470000007423,,response,,,100,,,,,,Space,keypress(Space),,,,,-- --- ---- --- ------ ----- ------- ---- -- --- ------- --<br>------- ---------- ------ -- ----- -- ----- -- ---- ------<br>--- ----- --- --- ------ -------- ----- --- ------ ----- --<br>----- ----- ---------- --- --- ------ ------ ---- -- ------<br>------- --- ------ ----- --- ---- ------- -- ---- --- --<br>------- money.,187907.5,187906.80000000075,187094.181,187107.80000000075,187110.853,187910.76,,55,money.
Item 100,flow.Loop,0_2_1_1,2021-12-02T10:59:15.039Z,,,,,,,,,,,,,,,,,,,,,,,,,,,,,,45941.10900000075,,completion,,,,C,,,,,,,,,,silence,,187907.90000000037,187906.80000000075,141949.021,141950.90000000037,141965.691,187910.76,,,
Question 1,html.Screen,0_2_1_2,2021-12-02T10:59:20.161Z,,,,,,,,,,,,,,,,,,,,,,,,,,,true,TRUE,,5118.239999999991,,response,,,100,C,,,,,TRUE,click #choice-1,,,,silence,,193030.20000000112,193029,187894.091,187908.20000000112,187910.76,193045.346,,,
Question 2,html.Screen,0_2_1_3,2021-12-02T10:59:24.709Z,,,,,,,,,,,,,,,,,,,,,,,,,,,true,FALSE,,4530.954000000755,,response,,,100,C,,,,,FALSE,click #choice-2,,,,silence,,197577.5,197576.30000000075,193028.68,193030.5,193045.346,197580.009,,,
Item 100,flow.Sequence,0_2_1,2021-12-02T10:59:24.709Z,,,,,,,,,,,,,,,,,,,,,,,,,,,,,,65613.10000000073,,completion,,,,,,,,,,,,,,,,197577.90000000037,197576.30000000075,131946.529,131952.90000000037,131963.2,197580.009,,,
End of Practice,html.Page,0_2_2,2021-12-02T10:59:31.105Z,,,,,,,,,,,,,,,,,,,,,,,,,,,,,,6393.691000001127,,form submission,,,,,,,,,,,,,,,,203974.09999999963,203973.70000000112,197563.34,197578.20000000112,197580.009,203981.772,,,
Practice,flow.Sequence,0_2,2021-12-02T10:59:31.106Z,,,,,,,,,,,,,,,,,,,,,,,,,,,,,,156915.65100000112,,completion,,,,,,,,,,,,,,,,203974.70000000112,203973.70000000112,47041.378,47045.59999999963,47058.049,203981.772,,,
Trap_instruction,html.Page,0_3_0,2021-12-02T10:59:37.758Z,,,,,,,,,,,,,,,,,,,,,,,,,,,,,,6644.528000000748,,form submission,,,,,,,,,,,,,,,,210626.70000000112,210626.30000000075,203965.1,203975,203981.772,210649.704,,,
trap_trial,html.Screen,0_3_1,2021-12-02T10:59:40.558Z,,,,,,,,,,,,,,,,,,,,,,,,,,,true,1,,2775.796000000002,,response,,,,,,,,,1,click #choice-1,,,,,,213426.70000000112,213425.5,210616.364,210626.90000000037,210649.704,213433.519,,,
end of trap trial,html.Page,0_3_2,2021-12-02T10:59:43.053Z,,,,,,,,,,,,,,,,,,,,,,,,,,,,,,2487.9809999999998,,form submission,,,,,,,,,,,,,,,,215921.90000000037,215921.5,213416.852,213426.90000000037,213433.519,215934.779,,,
Trap 1,flow.Sequence,0_3,2021-12-02T10:59:43.054Z,,,,,,,,,,,,,,,,,,,,,,,,,,,,,,11939.728000000003,,completion,,,,,,,,,,,,,,,,215922.40000000037,215921.5,203965.1,203975,203981.772,215934.779,,,
Standby,html.Page,0_4_0,2021-12-02T10:59:51.053Z,,,,,,,,,,,,,,,,,,,,,,,,,,,,,,8001.599999999977,,timeout,,,,,,,,,,,,,,,,223921.5,223919.709,215918.109,215922.70000000112,215934.779,223936.379,,,
Holding screen,html.Screen,0_4_1_0_0,2021-12-02T10:59:58.054Z,,,,,,,,,,,,,,,,,,,,,,,,,,,,,,7002.27800000002,,timeout,,,,,,,,,,,,,,,,230923,230921.987,223919.709,223921.90000000037,223936.379,230938.657,,,
screen,html.Screen,0_4_1_0_1_0,2021-12-02T10:59:59.309Z,,,,,,,,,,,,,,,,51,,,,,,,,,,,,,,1238.1430000007385,,response,,,13,C,,,,,Space,keypress(Space),,,,instrumental,American -------- --- --- ---- --- --- ------ -- --------<br>---- --------- --- ------- ------------ ---------- ---------<br>--- ---------- ------- ---------- ------- -- -------- ----<br>---- --- ------ ----- ------ -- ---- --- ----- -- - -------<br>-------- -- --- --- -- ----- ----------- ----- -----------<br>---- --- ---------- --- ---- --- -- ----------,232177.80000000075,232176.80000000075,230921.987,230923.5,230938.657,232188.756,,0,American
screen,html.Screen,0_4_1_0_1_1,2021-12-02T10:59:59.780Z,,,,,,,,,,,,,,,,51,,,,,,,,,,,,,,459.44400000112364,,response,,,13,C,,,,,Space,keypress(Space),,,,instrumental,-------- industry --- --- ---- --- --- ------ -- --------<br>---- --------- --- ------- ------------ ---------- ---------<br>--- ---------- ------- ---------- ------- -- -------- ----<br>---- --- ------ ----- ------ -- ---- --- ----- -- - -------<br>-------- -- --- --- -- ----- ----------- ----- -----------<br>---- --- ---------- --- ---- --- -- ----------,232648.90000000037,232648.20000000112,232172.087,232178.20000000112,232188.756,232655.871,,1,industry
screen,html.Screen,0_4_1_0_1_2,2021-12-02T11:00:00.284Z,,,,,,,,,,,,,,,,51,,,,,,,,,,,,,,496.4290000007313,,response,,,13,C,,,,,Space,keypress(Space),,,,instrumental,-------- -------- may --- ---- --- --- ------ -- --------<br>---- --------- --- ------- ------------ ---------- ---------<br>--- ---------- ------- ---------- ------- -- -------- ----<br>---- --- ------ ----- ------ -- ---- --- ----- -- - -------<br>-------- -- --- --- -- ----- ----------- ----- -----------<br>---- --- ---------- --- ---- --- -- ----------,233153.09999999963,233152.30000000075,232639.2,232649.20000000112,232655.871,233155.925,,2,may
screen,html.Screen,0_4_1_0_1_3,2021-12-02T11:00:00.644Z,,,,,,,,,,,,,,,,51,,,,,,,,,,,,,,356.27500000112923,,response,,,13,C,,,,,Space,keypress(Space),,,,instrumental,-------- -------- --- not ---- --- --- ------ -- --------<br>---- --------- --- ------- ------------ ---------- ---------<br>--- ---------- ------- ---------- ------- -- -------- ----<br>---- --- ------ ----- ------ -- ---- --- ----- -- - -------<br>-------- -- --- --- -- ----- ----------- ----- -----------<br>---- --- ---------- --- ---- --- -- ----------,233513.09999999963,233512.20000000112,233139.255,233153.40000000037,233155.925,233522.59,,3,not
screen,html.Screen,0_4_1_0_1_4,2021-12-02T11:00:00.948Z,,,,,,,,,,,,,,,,51,,,,,,,,,,,,,,293.6100000011211,,response,,,13,C,,,,,Space,keypress(Space),,,,instrumental,-------- -------- --- --- know --- --- ------ -- --------<br>---- --------- --- ------- ------------ ---------- ---------<br>--- ---------- ------- ---------- ------- -- -------- ----<br>---- --- ------ ----- ------ -- ---- --- ----- -- - -------<br>-------- -- --- --- -- ----- ----------- ----- -----------<br>---- --- ---------- --- ---- --- -- ----------,233817,233816.20000000112,233505.921,233513.30000000075,233522.59,233822.8,,4,know
screen,html.Screen,0_4_1_0_1_5,2021-12-02T11:00:01.212Z,,,,,,,,,,,,,,,,51,,,,,,,,,,,,,,257.2999999996391,,response,,,13,C,,,,,Space,keypress(Space),,,,instrumental,"-------- -------- --- --- ---- it, --- ------ -- --------<br>---- --------- --- ------- ------------ ---------- ---------<br>--- ---------- ------- ---------- ------- -- -------- ----<br>---- --- ------ ----- ------ -- ---- --- ----- -- - -------<br>-------- -- --- --- -- ----- ----------- ----- -----------<br>---- --- ---------- --- ---- --- -- ----------",234081,234080.09999999963,233806.129,233817.30000000075,233822.8,234089.53,,5,"it,"
screen,html.Screen,0_4_1_0_1_6,2021-12-02T11:00:01.660Z,,,,,,,,,,,,,,,,51,,,,,,,,,,,,,,438.56999999962864,,response,,,13,C,,,,,Space,keypress(Space),,,,instrumental,-------- -------- --- --- ---- --- but ------ -- --------<br>---- --------- --- ------- ------------ ---------- ---------<br>--- ---------- ------- ---------- ------- -- -------- ----<br>---- --- ------ ----- ------ -- ---- --- ----- -- - -------<br>-------- -- --- --- -- ----- ----------- ----- -----------<br>---- --- ---------- --- ---- --- -- ----------,234528.80000000075,234528.09999999963,234072.859,234081.20000000112,234089.53,234539.539,,6,but
screen,html.Screen,0_4_1_0_1_7,2021-12-02T11:00:02.444Z,,,,,,,,,,,,,,,,51,,,,,,,,,,,,,,772.5609999996377,,response,,,13,C,,,,,Space,keypress(Space),,,,instrumental,-------- -------- --- --- ---- --- --- debate -- --------<br>---- --------- --- ------- ------------ ---------- ---------<br>--- ---------- ------- ---------- ------- -- -------- ----<br>---- --- ------ ----- ------ -- ---- --- ----- -- - -------<br>-------- -- --- --- -- ----- ----------- ----- -----------<br>---- --- ---------- --- ---- --- -- ----------,235313,235312.09999999963,234522.87,234529.09999999963,234539.539,235323.256,,7,debate
screen,html.Screen,0_4_1_0_1_8,2021-12-02T11:00:03.092Z,,,,,,,,,,,,,,,,51,,,,,,,,,,,,,,636.8439999996335,,response,,,13,C,,,,,Space,keypress(Space),,,,instrumental,-------- -------- --- --- ---- --- --- ------ in --------<br>---- --------- --- ------- ------------ ---------- ---------<br>--- ---------- ------- ---------- ------- -- -------- ----<br>---- --- ------ ----- ------ -- ---- --- ----- -- - -------<br>-------- -- --- --- -- ----- ----------- ----- -----------<br>---- --- ---------- --- ---- --- -- ----------,235960.90000000037,235960.09999999963,235306.584,235313.30000000075,235323.256,235973.157,,8,in
screen,html.Screen,0_4_1_0_1_9,2021-12-02T11:00:03.948Z,,,,,,,,,,,,,,,,51,,,,,,,,,,,,,,842.942999999621,,response,,,13,C,,,,,Space,keypress(Space),,,,instrumental,-------- -------- --- --- ---- --- --- ------ -- Congress<br>---- --------- --- ------- ------------ ---------- ---------<br>--- ---------- ------- ---------- ------- -- -------- ----<br>---- --- ------ ----- ------ -- ---- --- ----- -- - -------<br>-------- -- --- --- -- ----- ----------- ----- -----------<br>---- --- ---------- --- ---- --- -- ----------,236816.90000000037,236816.09999999963,235956.488,235961.20000000112,235973.157,236823.578,,9,Congress
screen,html.Screen,0_4_1_0_1_10,2021-12-02T11:00:04.548Z,,,,,,,,,,,,,,,,51,,,,,,,,,,,,,,592.4219999999914,,response,,,13,C,,,,,Space,keypress(Space),,,,instrumental,-------- -------- --- --- ---- --- --- ------ -- --------<br>over --------- --- ------- ------------ ---------- ---------<br>--- ---------- ------- ---------- ------- -- -------- ----<br>---- --- ------ ----- ------ -- ---- --- ----- -- - -------<br>-------- -- --- --- -- ----- ----------- ----- -----------<br>---- --- ---------- --- ---- --- -- ----------,237416.90000000037,237416,236806.907,236817.20000000112,236823.578,237423.536,,10,over
screen,html.Screen,0_4_1_0_1_11,2021-12-02T11:00:05.340Z,,,,,,,,,,,,,,,,51,,,,,,,,,,,,,,784.2640000007523,,response,,,13,C,,,,,Space,keypress(Space),,,,instrumental,-------- -------- --- --- ---- --- --- ------ -- --------<br>---- reforming --- ------- ------------ ---------- ---------<br>--- ---------- ------- ---------- ------- -- -------- ----<br>---- --- ------ ----- ------ -- ---- --- ----- -- - -------<br>-------- -- --- --- -- ----- ----------- ----- -----------<br>---- --- ---------- --- ---- --- -- ----------,238208.59999999963,238207.80000000075,237406.867,237417.09999999963,237423.536,238223.9,,11,reforming
screen,html.Screen,0_4_1_0_1_12,2021-12-02T11:00:05.836Z,,,,,,,,,,,,,,,,51,,,,,,,,,,,,,,480.00000000037835,,response,,,13,C,,,,,Space,keypress(Space),,,,instrumental,-------- -------- --- --- ---- --- --- ------ -- --------<br>---- --------- the ------- ------------ ---------- ---------<br>--- ---------- ------- ---------- ------- -- -------- ----<br>---- --- ------ ----- ------ -- ---- --- ----- -- - -------<br>-------- -- --- --- -- ----- ----------- ----- -----------<br>---- --- ---------- --- ---- --- -- ----------,238704.70000000112,238703.90000000037,238207.229,238208.90000000037,238223.9,238707.275,,12,the
screen,html.Screen,0_4_1_0_1_13,2021-12-02T11:00:06.452Z,,,,,,,,,,,,,,,,51,,,,,,,,,,,,,,612.6250000003783,,response,,,13,C,,,,,Space,keypress(Space),,,,instrumental,-------- -------- --- --- ---- --- --- ------ -- --------<br>---- --------- --- federal ------------ ---------- ---------<br>--- ---------- ------- ---------- ------- -- -------- ----<br>---- --- ------ ----- ------ -- ---- --- ----- -- - -------<br>-------- -- --- --- -- ----- ----------- ----- -----------<br>---- --- ---------- --- ---- --- -- ----------,239320.70000000112,239319.90000000037,238690.605,238705,238707.275,239324.224,,13,federal
screen,html.Screen,0_4_1_0_1_14,2021-12-02T11:00:07.132Z,,,,,,,,,,,,,,,,51,,,,,,,,,,,,,,675.6760000003851,,response,,,13,C,,,,,Space,keypress(Space),,,,instrumental,-------- -------- --- --- ---- --- --- ------ -- --------<br>---- --------- --- ------- government's ---------- ---------<br>--- ---------- ------- ---------- ------- -- -------- ----<br>---- --- ------ ----- ------ -- ---- --- ----- -- - -------<br>-------- -- --- --- -- ----- ----------- ----- -----------<br>---- --- ---------- --- ---- --- -- ----------,240000.70000000112,239999.90000000037,239307.553,239320.90000000037,239324.224,240007.726,,14,government's
screen,html.Screen,0_4_1_0_1_15,2021-12-02T11:00:07.908Z,,,,,,,,,,,,,,,,51,,,,,,,,,,,,,,768.07400000075,,response,,,13,C,,,,,Space,keypress(Space),,,,instrumental,-------- -------- --- --- ---- --- --- ------ -- --------<br>---- --------- --- ------- ------------ regulatory ---------<br>--- ---------- ------- ---------- ------- -- -------- ----<br>---- --- ------ ----- ------ -- ---- --- ----- -- - -------<br>-------- -- --- --- -- ----- ----------- ----- -----------<br>---- --- ---------- --- ---- --- -- ----------,240776.70000000112,240775.80000000075,239991.055,240000.80000000075,240007.726,240791.069,,15,regulatory
screen,html.Screen,0_4_1_0_1_16,2021-12-02T11:00:08.492Z,,,,,,,,,,,,,,,,51,,,,,,,,,,,,,,568.7310000007565,,response,,,13,C,,,,,Space,keypress(Space),,,,instrumental,-------- -------- --- --- ---- --- --- ------ -- --------<br>---- --------- --- ------- ------------ ---------- apparatus<br>--- ---------- ------- ---------- ------- -- -------- ----<br>---- --- ------ ----- ------ -- ---- --- ----- -- - -------<br>-------- -- --- --- -- ----- ----------- ----- -----------<br>---- --- ---------- --- ---- --- -- ----------,241360.70000000112,241359.80000000075,240774.4,240776.90000000037,240791.069,241374.764,,16,apparatus
screen,html.Screen,0_4_1_0_1_17,2021-12-02T11:00:09.182Z,,,,,,,,,,,,,,,,51,,,,,,,,,,,,,,681.0360000007495,,response,,,13,C,,,,,Space,keypress(Space),,,,instrumental,-------- -------- --- --- ---- --- --- ------ -- --------<br>---- --------- --- ------- ------------ ---------- ---------<br>may ---------- ------- ---------- ------- -- -------- ----<br>---- --- ------ ----- ------ -- ---- --- ----- -- - -------<br>-------- -- --- --- -- ----- ----------- ----- -----------<br>---- --- ---------- --- ---- --- -- ----------,242056.59999999963,242055.80000000075,241358.093,241360.90000000037,241374.764,242058.081,,17,may
screen,html.Screen,0_4_1_0_1_18,2021-12-02T11:00:10.239Z,,,,,,,,,,,,,,,,51,,,,,,,,,,,,,,1054.0189999996219,,response,,,13,C,,,,,Space,keypress(Space),,,,instrumental,-------- -------- --- --- ---- --- --- ------ -- --------<br>---- --------- --- ------- ------------ ---------- ---------<br>--- profoundly ------- ---------- ------- -- -------- ----<br>---- --- ------ ----- ------ -- ---- --- ----- -- - -------<br>-------- -- --- --- -- ----- ----------- ----- -----------<br>---- --- ---------- --- ---- --- -- ----------,243112.90000000037,243112.09999999963,242041.412,242056.80000000075,242058.081,243125.292,,18,profoundly
screen,html.Screen,0_4_1_0_1_19,2021-12-02T11:00:10.894Z,,,,,,,,,,,,,,,,51,,,,,,,,,,,,,,642.3079999996407,,response,,,13,C,,,,,Space,keypress(Space),,,,instrumental,-------- -------- --- --- ---- --- --- ------ -- --------<br>---- --------- --- ------- ------------ ---------- ---------<br>--- ---------- improve ---------- ------- -- -------- ----<br>---- --- ------ ----- ------ -- ---- --- ----- -- - -------<br>-------- -- --- --- -- ----- ----------- ----- -----------<br>---- --- ---------- --- ---- --- -- ----------,243768.5,243767.59999999963,243108.62,243113.20000000112,243125.292,243775.29,,19,improve
screen,html.Screen,0_4_1_0_1_20,2021-12-02T11:00:11.574Z,,,,,,,,,,,,,,,,51,,,,,,,,,,,,,,672.3099999996193,,response,,,13,C,,,,,Space,keypress(Space),,,,instrumental,-------- -------- --- --- ---- --- --- ------ -- --------<br>---- --------- --- ------- ------------ ---------- ---------<br>--- ---------- ------- companies' ------- -- -------- ----<br>---- --- ------ ----- ------ -- ---- --- ----- -- - -------<br>-------- -- --- --- -- ----- ----------- ----- -----------<br>---- --- ---------- --- ---- --- -- ----------,244448.5,244447.59999999963,243758.62,243768.80000000075,243775.29,244458.692,,20,companies'
screen,html.Screen,0_4_1_0_1_21,2021-12-02T11:00:12.262Z,,,,,,,,,,,,,,,,51,,,,,,,,,,,,,,676.9079999996175,,response,,,13,C,,,,,Space,keypress(Space),,,,instrumental,-------- -------- --- --- ---- --- --- ------ -- --------<br>---- --------- --- ------- ------------ ---------- ---------<br>--- ---------- ------- ---------- ability -- -------- ----<br>---- --- ------ ----- ------ -- ---- --- ----- -- - -------<br>-------- -- --- --- -- ----- ----------- ----- -----------<br>---- --- ---------- --- ---- --- -- ----------,245136.59999999963,245135.59999999963,244442.023,244448.90000000037,244458.692,245142.441,,21,ability
screen,html.Screen,0_4_1_0_1_22,2021-12-02T11:00:12.886Z,,,,,,,,,,,,,,,,51,,,,,,,,,,,,,,617.1589999996359,,response,,,13,C,,,,,Space,keypress(Space),,,,instrumental,-------- -------- --- --- ---- --- --- ------ -- --------<br>---- --------- --- ------- ------------ ---------- ---------<br>--- ---------- ------- ---------- ------- to -------- ----<br>---- --- ------ ----- ------ -- ---- --- ----- -- - -------<br>-------- -- --- --- -- ----- ----------- ----- -----------<br>---- --- ---------- --- ---- --- -- ----------,245760.5,245759.59999999963,245125.769,245136.90000000037,245142.441,245775.79,,22,to
screen,html.Screen,0_4_1_0_1_23,2021-12-02T11:00:13.846Z,,,,,,,,,,,,,,,,51,,,,,,,,,,,,,,943.7099999999919,,response,,,13,C,,,,,Space,keypress(Space),,,,instrumental,-------- -------- --- --- ---- --- --- ------ -- --------<br>---- --------- --- ------- ------------ ---------- ---------<br>--- ---------- ------- ---------- ------- -- survive. ----<br>---- --- ------ ----- ------ -- ---- --- ----- -- - -------<br>-------- -- --- --- -- ----- ----------- ----- -----------<br>---- --- ---------- --- ---- --- -- ----------,246720.30000000075,246719.5,245759.12,245760.80000000075,245775.79,246725.985,,23,survive.
screen,html.Screen,0_4_1_0_1_24,2021-12-02T11:00:14.630Z,,,,,,,,,,,,,,,,51,,,,,,,,,,,,,,777.515000000014,,response,,,13,C,,,,,Space,keypress(Space),,,,instrumental,-------- -------- --- --- ---- --- --- ------ -- --------<br>---- --------- --- ------- ------------ ---------- ---------<br>--- ---------- ------- ---------- ------- -- -------- This<br>---- --- ------ ----- ------ -- ---- --- ----- -- - -------<br>-------- -- --- --- -- ----- ----------- ----- -----------<br>---- --- ---------- --- ---- --- -- ----------,247504.20000000112,247503.5,246709.315,246720.59999999963,246725.985,247509.624,,24,This
screen,html.Screen,0_4_1_0_1_25,2021-12-02T11:00:15.374Z,,,,,,,,,,,,,,,,51,,,,,,,,,,,,,,737.6760000007343,,response,,,13,C,,,,,Space,keypress(Space),,,,instrumental,-------- -------- --- --- ---- --- --- ------ -- --------<br>---- --------- --- ------- ------------ ---------- ---------<br>--- ---------- ------- ---------- ------- -- -------- ----<br>week --- ------ ----- ------ -- ---- --- ----- -- - -------<br>-------- -- --- --- -- ----- ----------- ----- -----------<br>---- --- ---------- --- ---- --- -- ----------,248248.20000000112,248247.30000000075,247492.953,247504.59999999963,247509.624,248259.732,,25,week
screen,html.Screen,0_4_1_0_1_26,2021-12-02T11:00:15.806Z,,,,,,,,,,,,,,,,51,,,,,,,,,,,,,,419.6680000003835,,response,,,13,C,,,,,Space,keypress(Space),,,,instrumental,-------- -------- --- --- ---- --- --- ------ -- --------<br>---- --------- --- ------- ------------ ---------- ---------<br>--- ---------- ------- ---------- ------- -- -------- ----<br>---- the ------ ----- ------ -- ---- --- ----- -- - -------<br>-------- -- --- --- -- ----- ----------- ----- -----------<br>---- --- ---------- --- ---- --- -- ----------,248680.20000000112,248679.40000000037,248243.062,248248.40000000037,248259.732,248693.317,,26,the
screen,html.Screen,0_4_1_0_1_27,2021-12-02T11:00:16.582Z,,,,,,,,,,,,,,,,51,,,,,,,,,,,,,,762.18299999999,,response,,,13,C,,,,,Space,keypress(Space),,,,instrumental,-------- -------- --- --- ---- --- --- ------ -- --------<br>---- --------- --- ------- ------------ ---------- ---------<br>--- ---------- ------- ---------- ------- -- -------- ----<br>---- --- Senate ----- ------ -- ---- --- ----- -- - -------<br>-------- -- --- --- -- ----- ----------- ----- -----------<br>---- --- ---------- --- ---- --- -- ----------,249456.40000000037,249455.5,248676.646,248680.40000000037,248693.317,249459.979,,27,Senate
screen,html.Screen,0_4_1_0_1_28,2021-12-02T11:00:17.094Z,,,,,,,,,,,,,,,,51,,,,,,,,,,,,,,507.2210000011255,,response,,,13,C,,,,,Space,keypress(Space),,,,instrumental,-------- -------- --- --- ---- --- --- ------ -- --------<br>---- --------- --- ------- ------------ ---------- ---------<br>--- ---------- ------- ---------- ------- -- -------- ----<br>---- --- ------ seems ------ -- ---- --- ----- -- - -------<br>-------- -- --- --- -- ----- ----------- ----- -----------<br>---- --- ---------- --- ---- --- -- ----------,249968,249967.20000000112,249443.31,249456.70000000112,249459.979,249977.016,,28,seems
screen,html.Screen,0_4_1_0_1_29,2021-12-02T11:00:17.542Z,,,,,,,,,,,,,,,,51,,,,,,,,,,,,,,438.2840000007418,,response,,,13,C,,,,,Space,keypress(Space),,,,instrumental,-------- -------- --- --- ---- --- --- ------ -- --------<br>---- --------- --- ------- ------------ ---------- ---------<br>--- ---------- ------- ---------- ------- -- -------- ----<br>---- --- ------ ----- poised -- ---- --- ----- -- - -------<br>-------- -- --- --- -- ----- ----------- ----- -----------<br>---- --- ---------- --- ---- --- -- ----------,250416.09999999963,250415.30000000075,249960.344,249968.30000000075,249977.016,250427.038,,29,poised
screen,html.Screen,0_4_1_0_1_30,2021-12-02T11:00:18.062Z,,,,,,,,,,,,,,,,51,,,,,,,,,,,,,,508.2620000007446,,response,,,13,C,,,,,Space,keypress(Space),,,,instrumental,-------- -------- --- --- ---- --- --- ------ -- --------<br>---- --------- --- ------- ------------ ---------- ---------<br>--- ---------- ------- ---------- ------- -- -------- ----<br>---- --- ------ ----- ------ to ---- --- ----- -- - -------<br>-------- -- --- --- -- ----- ----------- ----- -----------<br>---- --- ---------- --- ---- --- -- ----------,250936.09999999963,250935.30000000075,250410.368,250416.40000000037,250427.038,250943.707,,30,to
screen,html.Screen,0_4_1_0_1_31,2021-12-02T11:00:18.510Z,,,,,,,,,,,,,,,,51,,,,,,,,,,,,,,439.5930000007502,,response,,,13,C,,,,,Space,keypress(Space),,,,instrumental,-------- -------- --- --- ---- --- --- ------ -- --------<br>---- --------- --- ------- ------------ ---------- ---------<br>--- ---------- ------- ---------- ------- -- -------- ----<br>---- --- ------ ----- ------ -- join --- ----- -- - -------<br>-------- -- --- --- -- ----- ----------- ----- -----------<br>---- --- ---------- --- ---- --- -- ----------,251384,251383.30000000075,250927.038,250936.40000000037,250943.707,251394.04,,31,join
screen,html.Screen,0_4_1_0_1_32,2021-12-02T11:00:19.014Z,,,,,,,,,,,,,,,,51,,,,,,,,,,,,,,493.0599999996193,,response,,,13,C,,,,,Space,keypress(Space),,,,instrumental,-------- -------- --- --- ---- --- --- ------ -- --------<br>---- --------- --- ------- ------------ ---------- ---------<br>--- ---------- ------- ---------- ------- -- -------- ----<br>---- --- ------ ----- ------ -- ---- the ----- -- - -------<br>-------- -- --- --- -- ----- ----------- ----- -----------<br>---- --- ---------- --- ---- --- -- ----------,251888,251887.09999999963,251377.368,251384.30000000075,251394.04,251893.954,,32,the
screen,html.Screen,0_4_1_0_1_33,2021-12-02T11:00:19.454Z,,,,,,,,,,,,,,,,51,,,,,,,,,,,,,,433.14599999962957,,response,,,13,C,,,,,Space,keypress(Space),,,,instrumental,-------- -------- --- --- ---- --- --- ------ -- --------<br>---- --------- --- ------- ------------ ---------- ---------<br>--- ---------- ------- ---------- ------- -- -------- ----<br>---- --- ------ ----- ------ -- ---- --- House -- - -------<br>-------- -- --- --- -- ----- ----------- ----- -----------<br>---- --- ---------- --- ---- --- -- ----------,252328,252327.09999999963,251877.285,251888.20000000112,251893.954,252344.295,,33,House
screen,html.Screen,0_4_1_0_1_34,2021-12-02T11:00:19.862Z,,,,,,,,,,,,,,,,51,,,,,,,,,,,,,,390.9050000011048,,response,,,13,C,,,,,Space,keypress(Space),,,,instrumental,-------- -------- --- --- ---- --- --- ------ -- --------<br>---- --------- --- ------- ------------ ---------- ---------<br>--- ---------- ------- ---------- ------- -- -------- ----<br>---- --- ------ ----- ------ -- ---- --- ----- in - -------<br>-------- -- --- --- -- ----- ----------- ----- -----------<br>---- --- ---------- --- ---- --- -- ----------,252736,252735.20000000112,252327.623,252328.30000000075,252344.295,252744.192,,34,in
screen,html.Screen,0_4_1_0_1_35,2021-12-02T11:00:20.286Z,,,,,,,,,,,,,,,,51,,,,,,,,,,,,,,415.40799999961746,,response,,,13,C,,,,,Space,keypress(Space),,,,instrumental,-------- -------- --- --- ---- --- --- ------ -- --------<br>---- --------- --- ------- ------------ ---------- ---------<br>--- ---------- ------- ---------- ------- -- -------- ----<br>---- --- ------ ----- ------ -- ---- --- ----- -- a -------<br>-------- -- --- --- -- ----- ----------- ----- -----------<br>---- --- ---------- --- ---- --- -- ----------,253160.40000000037,253159.59999999963,252727.523,252736.20000000112,252744.192,253177.835,,35,a
screen,html.Screen,0_4_1_0_1_36,2021-12-02T11:00:20.982Z,,,,,,,,,,,,,,,,51,,,,,,,,,,,,,,677.2649999996356,,response,,,13,C,,,,,Space,keypress(Space),,,,instrumental,-------- -------- --- --- ---- --- --- ------ -- --------<br>---- --------- --- ------- ------------ ---------- ---------<br>--- ---------- ------- ---------- ------- -- -------- ----<br>---- --- ------ ----- ------ -- ---- --- ----- -- - massive<br>-------- -- --- --- -- ----- ----------- ----- -----------<br>---- --- ---------- --- ---- --- -- ----------,253856,253855.09999999963,253161.163,253160.59999999963,253177.835,253861.211,,36,massive
screen,html.Screen,0_4_1_0_1_37,2021-12-02T11:00:21.694Z,,,,,,,,,,,,,,,,51,,,,,,,,,,,,,,705.6890000003623,,response,,,13,C,,,,,Space,keypress(Space),,,,instrumental,-------- -------- --- --- ---- --- --- ------ -- --------<br>---- --------- --- ------- ------------ ---------- ---------<br>--- ---------- ------- ---------- ------- -- -------- ----<br>---- --- ------ ----- ------ -- ---- --- ----- -- - -------<br>overhaul -- --- --- -- ----- ----------- ----- -----------<br>---- --- ---------- --- ---- --- -- ----------,254567.90000000037,254566.90000000037,253844.541,253856.30000000075,253861.211,254578.153,,37,overhaul
screen,html.Screen,0_4_1_0_1_38,2021-12-02T11:00:22.206Z,,,,,,,,,,,,,,,,51,,,,,,,,,,,,,,500.84700000000885,,response,,,13,C,,,,,Space,keypress(Space),,,,instrumental,-------- -------- --- --- ---- --- --- ------ -- --------<br>---- --------- --- ------- ------------ ---------- ---------<br>--- ---------- ------- ---------- ------- -- -------- ----<br>---- --- ------ ----- ------ -- ---- --- ----- -- - -------<br>-------- of --- --- -- ----- ----------- ----- -----------<br>---- --- ---------- --- ---- --- -- ----------,255079.70000000112,255079,254561.482,254568.09999999963,254578.153,255094.894,,38,of
screen,html.Screen,0_4_1_0_1_39,2021-12-02T11:00:22.614Z,,,,,,,,,,,,,,,,51,,,,,,,,,,,,,,392.0060000003723,,response,,,13,C,,,,,Space,keypress(Space),,,,instrumental,-------- -------- --- --- ---- --- --- ------ -- --------<br>---- --------- --- ------- ------------ ---------- ---------<br>--- ---------- ------- ---------- ------- -- -------- ----<br>---- --- ------ ----- ------ -- ---- --- ----- -- - -------<br>-------- -- the --- -- ----- ----------- ----- -----------<br>---- --- ---------- --- ---- --- -- ----------,255487.80000000075,255486.90000000037,255078.224,255079.90000000037,255094.894,255495.01,,39,the
screen,html.Screen,0_4_1_0_1_40,2021-12-02T11:00:22.998Z,,,,,,,,,,,,,,,,51,,,,,,,,,,,,,,375.8900000003632,,response,,,13,C,,,,,Space,keypress(Space),,,,instrumental,-------- -------- --- --- ---- --- --- ------ -- --------<br>---- --------- --- ------- ------------ ---------- ---------<br>--- ---------- ------- ---------- ------- -- -------- ----<br>---- --- ------ ----- ------ -- ---- --- ----- -- - -------<br>-------- -- --- way -- ----- ----------- ----- -----------<br>---- --- ---------- --- ---- --- -- ----------,255871.70000000112,255870.90000000037,255478.34,255488,255495.01,255878.428,,40,way
screen,html.Screen,0_4_1_0_1_41,2021-12-02T11:00:23.670Z,,,,,,,,,,,,,,,,51,,,,,,,,,,,,,,664.4720000003581,,response,,,13,C,,,,,Space,keypress(Space),,,,instrumental,-------- -------- --- --- ---- --- --- ------ -- --------<br>---- --------- --- ------- ------------ ---------- ---------<br>--- ---------- ------- ---------- ------- -- -------- ----<br>---- --- ------ ----- ------ -- ---- --- ----- -- - -------<br>-------- -- --- --- in ----- ----------- ----- -----------<br>---- --- ---------- --- ---- --- -- ----------,256543.90000000037,256542.90000000037,255861.758,255871.90000000037,255878.428,256545.257,,41,in
screen,html.Screen,0_4_1_0_1_42,2021-12-02T11:00:24.302Z,,,,,,,,,,,,,,,,51,,,,,,,,,,,,,,629.7429999999877,,response,,,13,C,,,,,Space,keypress(Space),,,,instrumental,-------- -------- --- --- ---- --- --- ------ -- --------<br>---- --------- --- ------- ------------ ---------- ---------<br>--- ---------- ------- ---------- ------- -- -------- ----<br>---- --- ------ ----- ------ -- ---- --- ----- -- - -------<br>-------- -- --- --- -- which ----------- ----- -----------<br>---- --- ---------- --- ---- --- -- ----------,257175.80000000075,257175,256528.587,256544.09999999963,256545.257,257178.754,,42,which
screen,html.Screen,0_4_1_0_1_43,2021-12-02T11:00:25.246Z,,,,,,,,,,,,,,,,51,,,,,,,,,,,,,,940.1460000003863,,response,,,13,C,,,,,Space,keypress(Space),,,,instrumental,-------- -------- --- --- ---- --- --- ------ -- --------<br>---- --------- --- ------- ------------ ---------- ---------<br>--- ---------- ------- ---------- ------- -- -------- ----<br>---- --- ------ ----- ------ -- ---- --- ----- -- - -------<br>-------- -- --- --- -- ----- bureaucrats ----- -----------<br>---- --- ---------- --- ---- --- -- ----------,258119.70000000112,258118.90000000037,257162.084,257176.09999999963,257178.754,258128.985,,43,bureaucrats
screen,html.Screen,0_4_1_0_1_44,2021-12-02T11:00:26.158Z,,,,,,,,,,,,,,,,51,,,,,,,,,,,,,,901.9150000003865,,response,,,13,C,,,,,Space,keypress(Space),,,,instrumental,-------- -------- --- --- ---- --- --- ------ -- --------<br>---- --------- --- ------- ------------ ---------- ---------<br>--- ---------- ------- ---------- ------- -- -------- ----<br>---- --- ------ ----- ------ -- ---- --- ----- -- - -------<br>-------- -- --- --- -- ----- ----------- enact -----------<br>---- --- ---------- --- ---- --- -- ----------,259031.59999999963,259030.90000000037,258112.315,258119.90000000037,258128.985,259045.866,,44,enact
screen,html.Screen,0_4_1_0_1_45,2021-12-02T11:00:27.302Z,,,,,,,,,,,,,,,,51,,,,,,,,,,,,,,1128.934000000736,,response,,,13,C,,,,,Space,keypress(Space),,,,instrumental,-------- -------- --- --- ---- --- --- ------ -- --------<br>---- --------- --- ------- ------------ ---------- ---------<br>--- ---------- ------- ---------- ------- -- -------- ----<br>---- --- ------ ----- ------ -- ---- --- ----- -- - -------<br>-------- -- --- --- -- ----- ----------- ----- regulations<br>---- --- ---------- --- ---- --- -- ----------,260175.80000000075,260174.80000000075,259029.196,259032,259045.866,260179.497,,45,regulations
screen,html.Screen,0_4_1_0_1_46,2021-12-02T11:00:28.006Z,,,,,,,,,,,,,,,,51,,,,,,,,,,,,,,699.2030000011146,,response,,,13,C,,,,,Space,keypress(Space),,,,instrumental,-------- -------- --- --- ---- --- --- ------ -- --------<br>---- --------- --- ------- ------------ ---------- ---------<br>--- ---------- ------- ---------- ------- -- -------- ----<br>---- --- ------ ----- ------ -- ---- --- ----- -- - -------<br>-------- -- --- --- -- ----- ----------- ----- -----------<br>that --- ---------- --- ---- --- -- ----------,260879.80000000075,260878.70000000112,260162.827,260176.09999999963,260179.497,260896.372,,46,that
screen,html.Screen,0_4_1_0_1_47,2021-12-02T11:00:28.949Z,,,,,,,,,,,,,,,,51,,,,,,,,,,,,,,926.3280000011146,,response,,,13,C,,,,,Space,keypress(Space),,,,instrumental,-------- -------- --- --- ---- --- --- ------ -- --------<br>---- --------- --- ------- ------------ ---------- ---------<br>--- ---------- ------- ---------- ------- -- -------- ----<br>---- --- ------ ----- ------ -- ---- --- ----- -- - -------<br>-------- -- --- --- -- ----- ----------- ----- -----------<br>---- are ---------- --- ---- --- -- ----------,261823.5,261822.70000000112,260879.702,260880.20000000112,260896.372,261829.877,,47,are
screen,html.Screen,0_4_1_0_1_48,2021-12-02T11:00:30.053Z,,,,,,,,,,,,,,,,51,,,,,,,,,,,,,,1096.6229999999923,,response,,,13,C,,,,,Space,keypress(Space),,,,instrumental,-------- -------- --- --- ---- --- --- ------ -- --------<br>---- --------- --- ------- ------------ ---------- ---------<br>--- ---------- ------- ---------- ------- -- -------- ----<br>---- --- ------ ----- ------ -- ---- --- ----- -- - -------<br>-------- -- --- --- -- ----- ----------- ----- -----------<br>---- --- strangling --- ---- --- -- ----------,262927.5,262926.5,261813.207,261823.80000000075,261829.877,262930.324,,48,strangling
screen,html.Screen,0_4_1_0_1_49,2021-12-02T11:00:31.150Z,,,,,,,,,,,,,,,,51,,,,,,,,,,,,,,1092.6759999999776,,response,,,13,C,,,,,Space,keypress(Space),,,,instrumental,-------- -------- --- --- ---- --- --- ------ -- --------<br>---- --------- --- ------- ------------ ---------- ---------<br>--- ---------- ------- ---------- ------- -- -------- ----<br>---- --- ------ ----- ------ -- ---- --- ----- -- - -------<br>-------- -- --- --- -- ----- ----------- ----- -----------<br>---- --- ---------- the ---- --- -- ----------,264024,264023,262913.653,262927.7000000011,262930.324,264030.493,,49,the
