sender,sender_type,sender_id,timestamp,meta,,Blues,Classical,Country,Dance,Electronic,Folk,Gospel,Hip-Hop,Jazz,Latin,Musical/Film,New-age,Pop,Provo_ID,R&B,Rap,Reggae,Religious,Rock,Soul,Swing,Traditional,age,artist_name,correct,correctResponse,distraction,duration,education,ended_on,familiarity,gender,item,list,music_frequency,offensiveness,pleasantness,preference,response,response_action,snippet_file,song_name,song_rating,sound,text,time_commit,time_end,time_render,time_run,time_show,time_switch,url,word,word_ID
Instructions,html.Page,0_0,2021-12-03T11:24:26.687Z,"{""labjs_version"":""20.2.3"",""labjs_build"":{""flavor"":""production"",""commit"":""7ea907d66ca8aeef8054924ca5d82ffbe11e34e5""},""location"":""https://run.pavlovia.org/mvasilev/lab_music_a/"",""userAgent"":""Mozilla/5.0 (Windows NT 6.1; Win64; x64) AppleWebKit/537.36 (KHTML, like Gecko) Chrome/96.0.4664.45 Safari/537.36"",""platform"":""Win32"",""language"":""en-US"",""locale"":""en-US"",""timeZone"":""Europe/London"",""timezoneOffset"":0,""screen_width"":1920,""screen_height"":1080,""scroll_width"":1920,""scroll_height"":959,""window_innerWidth"":1920,""window_innerHeight"":1007,""devicePixelRatio"":1}",,,,,,,,,,,,,,,,,,,,,,,,,,,,,42685.26800000298,,form submission,,,,,,,,,,,,,,,,53533.70000000298,53532.20000000298,10763.582,10781.29999999702,10846.932,53525.809,{},,
Headphones,html.Page,0_1,2021-12-03T11:24:31.113Z,,,,,,,,,,,,,,,,,,,,,,,,,,,,,,4433.091000005959,,form submission,,,,,,,,,,,,,,,,57959.5,57958.90000000596,53509.091,53534.40000000596,53525.809,57975.316,,,
Holding screen,html.Screen,0_2_0_0,2021-12-03T11:24:41.124Z,,,,,,,,,,,,,,,,,,,,,,,,,,,,,,10003.273000000008,,timeout,,,,,,,,,,,,,,,,67967.29999999702,67961.919,57941.982,57960,57975.316,67978.589,,,
screen,html.Screen,0_2_0_1_0,2021-12-03T11:24:43.067Z,,,,,,,,,,,,,,,,53,,,,,,,,,,,,,,1930.111000002973,,response,,,99,,,,,,Space,keypress(Space),,,,,When -- ----- -- ------ - ------- --- ----------<br>------------- ------ ------ ---- ---- ------- ----- -- ----<br>-------- ------- -- ---------- --- - --- ----- ----- ----<br>---- --- --- ----- --- ---- ---- ------- ----- ---- -------<br>--- --- -- ----- -- --- ---- -- --- ---- -- ------ ------<br>--- ----- -- ----,69910.40000000596,69908.70000000298,67961.919,67967.70000000298,67978.589,69912.634,,0,When
screen,html.Screen,0_2_0_1_1,2021-12-03T11:24:43.610Z,,,,,,,,,,,,,,,,53,,,,,,,,,,,,,,539.4659999940341,,response,,,99,,,,,,Space,keypress(Space),,,,,---- it ----- -- ------ - ------- --- ----------<br>------------- ------ ------ ---- ---- ------- ----- -- ----<br>-------- ------- -- ---------- --- - --- ----- ----- ----<br>---- --- --- ----- --- ---- ---- ------- ----- ---- -------<br>--- --- -- ----- -- --- ---- -- --- ---- -- ------ ------<br>--- ----- -- ----,70452.90000000596,70452.09999999404,69895.963,69910.70000000298,69912.634,70462.679,,1,it
screen,html.Screen,0_2_0_1_2,2021-12-03T11:24:44.129Z,,,,,,,,,,,,,,,,53,,,,,,,,,,,,,,509.12099999701604,,response,,,99,,,,,,Space,keypress(Space),,,,,---- -- comes -- ------ - ------- --- ----------<br>------------- ------ ------ ---- ---- ------- ----- -- ----<br>-------- ------- -- ---------- --- - --- ----- ----- ----<br>---- --- --- ----- --- ---- ---- ------- ----- ---- -------<br>--- --- -- ----- -- --- ---- -- --- ---- -- ------ ------<br>--- ----- -- ----,70972.29999999702,70971.79999999702,70446.009,70453.20000000298,70462.679,70979.502,,2,comes
screen,html.Screen,0_2_0_1_3,2021-12-03T11:24:44.578Z,,,,,,,,,,,,,,,,53,,,,,,,,,,,,,,440.49800000000687,,response,,,99,,,,,,Space,keypress(Space),,,,,---- -- ----- to ------ - ------- --- ----------<br>------------- ------ ------ ---- ---- ------- ----- -- ----<br>-------- ------- -- ---------- --- - --- ----- ----- ----<br>---- --- --- ----- --- ---- ---- ------- ----- ---- -------<br>--- --- -- ----- -- --- ---- -- --- ---- -- ------ ------<br>--- ----- -- ----,71421,71420,70962.832,70972.40000000596,70979.502,71429.602,,3,to
screen,html.Screen,0_2_0_1_4,2021-12-03T11:24:45.066Z,,,,,,,,,,,,,,,,53,,,,,,,,,,,,,,478.39800000000105,,response,,,99,,,,,,Space,keypress(Space),,,,,---- -- ----- -- having - ------- --- ----------<br>------------- ------ ------ ---- ---- ------- ----- -- ----<br>-------- ------- -- ---------- --- - --- ----- ----- ----<br>---- --- --- ----- --- ---- ---- ------- ----- ---- -------<br>--- --- -- ----- -- --- ---- -- --- ---- -- ------ ------<br>--- ----- -- ----,71909.09999999404,71908,71412.932,71421.5,71429.602,71912.986,,4,having
screen,html.Screen,0_2_0_1_5,2021-12-03T11:24:45.394Z,,,,,,,,,,,,,,,,53,,,,,,,,,,,,,,322.81399999701534,,response,,,99,,,,,,Space,keypress(Space),,,,,---- -- ----- -- ------ a ------- --- ----------<br>------------- ------ ------ ---- ---- ------- ----- -- ----<br>-------- ------- -- ---------- --- - --- ----- ----- ----<br>---- --- --- ----- --- ---- ---- ------- ----- ---- -------<br>--- --- -- ----- -- --- ---- -- --- ---- -- ------ ------<br>--- ----- -- ----,72236.70000000298,72235.79999999702,71896.317,71909.40000000596,71912.986,72246.538,,5,a
screen,html.Screen,0_2_0_1_6,2021-12-03T11:24:45.842Z,,,,,,,,,,,,,,,,53,,,,,,,,,,,,,,437.36200000596,,response,,,99,,,,,,Space,keypress(Space),,,,,---- -- ----- -- ------ - lasting --- ----------<br>------------- ------ ------ ---- ---- ------- ----- -- ----<br>-------- ------- -- ---------- --- - --- ----- ----- ----<br>---- --- --- ----- --- ---- ---- ------- ----- ---- -------<br>--- --- -- ----- -- --- ---- -- --- ---- -- ------ ------<br>--- ----- -- ----,72684.90000000596,72683.90000000596,72229.867,72237.20000000298,72246.538,72696.606,,6,lasting
screen,html.Screen,0_2_0_1_7,2021-12-03T11:24:46.170Z,,,,,,,,,,,,,,,,53,,,,,,,,,,,,,,315.19399999702,,response,,,99,,,,,,Space,keypress(Space),,,,,---- -- ----- -- ------ - ------- and ----------<br>------------- ------ ------ ---- ---- ------- ----- -- ----<br>-------- ------- -- ---------- --- - --- ----- ----- ----<br>---- --- --- ----- --- ---- ---- ------- ----- ---- -------<br>--- --- -- ----- -- --- ---- -- --- ---- -- ------ ------<br>--- ----- -- ----,73012.79999999702,73011.79999999702,72679.936,72685.09999999404,72696.606,73030.063,,7,and
screen,html.Screen,0_2_0_1_8,2021-12-03T11:24:46.666Z,,,,,,,,,,,,,,,,53,,,,,,,,,,,,,,477.7369999970251,,response,,,99,,,,,,Space,keypress(Space),,,,,---- -- ----- -- ------ - ------- --- fulfilling<br>------------- ------ ------ ---- ---- ------- ----- -- ----<br>-------- ------- -- ---------- --- - --- ----- ----- ----<br>---- --- --- ----- --- ---- ---- ------- ----- ---- -------<br>--- --- -- ----- -- --- ---- -- --- ---- -- ------ ------<br>--- ----- -- ----,73508.90000000596,73507.79999999702,73013.392,73013.09999999404,73030.063,73513.375,,8,fulfilling
screen,html.Screen,0_2_0_1_9,2021-12-03T11:24:47.066Z,,,,,,,,,,,,,,,,53,,,,,,,,,,,,,,394.42499999701977,,response,,,99,,,,,,Space,keypress(Space),,,,,"---- -- ----- -- ------ - ------- --- ----------<br>relationship, ------ ------ ---- ---- ------- ----- -- ----<br>-------- ------- -- ---------- --- - --- ----- ----- ----<br>---- --- --- ----- --- ---- ---- ------- ----- ---- -------<br>--- --- -- ----- -- --- ---- -- --- ---- -- ------ ------<br>--- ----- -- ----",73908.79999999702,73907.79999999702,73496.706,73509.20000000298,73513.375,73913.702,,9,"relationship,"
screen,html.Screen,0_2_0_1_10,2021-12-03T11:24:47.466Z,,,,,,,,,,,,,,,,53,,,,,,,,,,,,,,394.097999997015,,response,,,99,,,,,,Space,keypress(Space),,,,,---- -- ----- -- ------ - ------- --- ----------<br>------------- common ------ ---- ---- ------- ----- -- ----<br>-------- ------- -- ---------- --- - --- ----- ----- ----<br>---- --- --- ----- --- ---- ---- ------- ----- ---- -------<br>--- --- -- ----- -- --- ---- -- --- ---- -- ------ ------<br>--- ----- -- ----,74308.70000000298,74307.79999999702,73897.029,73909.09999999404,73913.702,74313.69,,10,common
screen,html.Screen,0_2_0_1_11,2021-12-03T11:24:47.842Z,,,,,,,,,,,,,,,,53,,,,,,,,,,,,,,370.21000000595814,,response,,,99,,,,,,Space,keypress(Space),,,,,---- -- ----- -- ------ - ------- --- ----------<br>------------- ------ wisdom ---- ---- ------- ----- -- ----<br>-------- ------- -- ---------- --- - --- ----- ----- ----<br>---- --- --- ----- --- ---- ---- ------- ----- ---- -------<br>--- --- -- ----- -- --- ---- -- --- ---- -- ------ ------<br>--- ----- -- ----,74684.70000000298,74683.90000000596,74297.02,74309,74313.69,74697.165,,11,wisdom
screen,html.Screen,0_2_0_1_12,2021-12-03T11:24:48.442Z,,,,,,,,,,,,,,,,53,,,,,,,,,,,,,,586.6349999970262,,response,,,99,,,,,,Space,keypress(Space),,,,,---- -- ----- -- ------ - ------- --- ----------<br>------------- ------ ------ says ---- ------- ----- -- ----<br>-------- ------- -- ---------- --- - --- ----- ----- ----<br>---- --- --- ----- --- ---- ---- ------- ----- ---- -------<br>--- --- -- ----- -- --- ---- -- --- ---- -- ------ ------<br>--- ----- -- ----,75284.70000000298,75283.79999999702,74680.494,74685,74697.165,75297.254,,12,says
screen,html.Screen,0_2_0_1_13,2021-12-03T11:24:48.682Z,,,,,,,,,,,,,,,,53,,,,,,,,,,,,,,226.54599999701895,,response,,,99,,,,,,Space,keypress(Space),,,,,---- -- ----- -- ------ - ------- --- ----------<br>------------- ------ ------ ---- that ------- ----- -- ----<br>-------- ------- -- ---------- --- - --- ----- ----- ----<br>---- --- --- ----- --- ---- ---- ------- ----- ---- -------<br>--- --- -- ----- -- --- ---- -- --- ---- -- ------ ------<br>--- ----- -- ----,75524.59999999404,75523.79999999702,75280.584,75284.90000000596,75297.254,75530.712,,13,that
screen,html.Screen,0_2_0_1_14,2021-12-03T11:24:49.242Z,,,,,,,,,,,,,,,,53,,,,,,,,,,,,,,552.9880000029807,,response,,,99,,,,,,Space,keypress(Space),,,,,---- -- ----- -- ------ - ------- --- ----------<br>------------- ------ ------ ---- ---- feeling ----- -- ----<br>-------- ------- -- ---------- --- - --- ----- ----- ----<br>---- --- --- ----- --- ---- ---- ------- ----- ---- -------<br>--- --- -- ----- -- --- ---- -- --- ---- -- ------ ------<br>--- ----- -- ----,76084.59999999404,76083.70000000298,75514.041,75524.90000000596,75530.712,76097.485,,14,feeling
screen,html.Screen,0_2_0_1_15,2021-12-03T11:24:49.514Z,,,,,,,,,,,,,,,,53,,,,,,,,,,,,,,258.21500000297965,,response,,,99,,,,,,Space,keypress(Space),,,,,---- -- ----- -- ------ - ------- --- ----------<br>------------- ------ ------ ---- ---- ------- close -- ----<br>-------- ------- -- ---------- --- - --- ----- ----- ----<br>---- --- --- ----- --- ---- ---- ------- ----- ---- -------<br>--- --- -- ----- -- --- ---- -- --- ---- -- ------ ------<br>--- ----- -- ----,76356.59999999404,76355.70000000298,76080.815,76084.90000000596,76097.485,76364.206,,15,close
screen,html.Screen,0_2_0_1_16,2021-12-03T11:24:49.929Z,,,,,,,,,,,,,,,,53,,,,,,,,,,,,,,407.49400000297464,,response,,,99,,,,,,Space,keypress(Space),,,,,---- -- ----- -- ------ - ------- --- ----------<br>------------- ------ ------ ---- ---- ------- ----- to ----<br>-------- ------- -- ---------- --- - --- ----- ----- ----<br>---- --- --- ----- --- ---- ---- ------- ----- ---- -------<br>--- --- -- ----- -- --- ---- -- --- ---- -- ------ ------<br>--- ----- -- ----,76772.5,76771.70000000298,76347.536,76356.90000000596,76364.206,76780.992,,16,to
screen,html.Screen,0_2_0_1_17,2021-12-03T11:24:50.722Z,,,,,,,,,,,,,,,,53,,,,,,,,,,,,,,782.7080000029819,,response,,,99,,,,,,Space,keypress(Space),,,,,---- -- ----- -- ------ - ------- --- ----------<br>------------- ------ ------ ---- ---- ------- ----- -- your<br>-------- ------- -- ---------- --- - --- ----- ----- ----<br>---- --- --- ----- --- ---- ---- ------- ----- ---- -------<br>--- --- -- ----- -- --- ---- -- --- ---- -- ------ ------<br>--- ----- -- ----,77564.59999999404,77563.70000000298,76764.322,76772.79999999702,76780.992,77581.238,,17,your
screen,html.Screen,0_2_0_1_18,2021-12-03T11:24:51.209Z,,,,,,,,,,,,,,,,53,,,,,,,,,,,,,,470.361999994042,,response,,,99,,,,,,Space,keypress(Space),,,,,---- -- ----- -- ------ - ------- --- ----------<br>------------- ------ ------ ---- ---- ------- ----- -- ----<br>romantic ------- -- ---------- --- - --- ----- ----- ----<br>---- --- --- ----- --- ---- ---- ------- ----- ---- -------<br>--- --- -- ----- -- --- ---- -- --- ---- -- ------ ------<br>--- ----- -- ----,78052.40000000596,78051.59999999404,77564.567,77564.90000000596,77581.238,78064.618,,18,romantic
screen,html.Screen,0_2_0_1_19,2021-12-03T11:24:51.537Z,,,,,,,,,,,,,,,,53,,,,,,,,,,,,,,314.9819999940373,,response,,,99,,,,,,Space,keypress(Space),,,,,---- -- ----- -- ------ - ------- --- ----------<br>------------- ------ ------ ---- ---- ------- ----- -- ----<br>-------- partner -- ---------- --- - --- ----- ----- ----<br>---- --- --- ----- --- ---- ---- ------- ----- ---- -------<br>--- --- -- ----- -- --- ---- -- --- ---- -- ------ ------<br>--- ----- -- ----,78380.5,78379.59999999404,78047.948,78052.59999999404,78064.618,78398.075,,19,partner
screen,html.Screen,0_2_0_1_20,2021-12-03T11:24:52.105Z,,,,,,,,,,,,,,,,53,,,,,,,,,,,,,,549.5249999940424,,response,,,99,,,,,,Space,keypress(Space),,,,,---- -- ----- -- ------ - ------- --- ----------<br>------------- ------ ------ ---- ---- ------- ----- -- ----<br>-------- ------- is ---------- --- - --- ----- ----- ----<br>---- --- --- ----- --- ---- ---- ------- ----- ---- -------<br>--- --- -- ----- -- --- ---- -- --- ---- -- ------ ------<br>--- ----- -- ----,78948.40000000596,78947.59999999404,78381.405,78380.70000000298,78398.075,78964.874,,20,is
screen,html.Screen,0_2_0_1_21,2021-12-03T11:24:52.449Z,,,,,,,,,,,,,,,,53,,,,,,,,,,,,,,326.62600000000384,,response,,,99,,,,,,Space,keypress(Space),,,,,---- -- ----- -- ------ - ------- --- ----------<br>------------- ------ ------ ---- ---- ------- ----- -- ----<br>-------- ------- -- paramount. --- - --- ----- ----- ----<br>---- --- --- ----- --- ---- ---- ------- ----- ---- -------<br>--- --- -- ----- -- --- ---- -- --- ---- -- ------ ------<br>--- ----- -- ----,79292.29999999702,79291.5,78948.204,78948.70000000298,78964.874,79298.309,,21,paramount.
screen,html.Screen,0_2_0_1_22,2021-12-03T11:24:53.818Z,,,,,,,,,,,,,,,,53,,,,,,,,,,,,,,1361.5910000059666,,response,,,99,,,,,,Space,keypress(Space),,,,,---- -- ----- -- ------ - ------- --- ----------<br>------------- ------ ------ ---- ---- ------- ----- -- ----<br>-------- ------- -- ---------- But - --- ----- ----- ----<br>---- --- --- ----- --- ---- ---- ------- ----- ---- -------<br>--- --- -- ----- -- --- ---- -- --- ---- -- ------ ------<br>--- ----- -- ----,80660.70000000298,80659.90000000596,79281.639,79292.90000000596,79298.309,80665.268,,22,But
screen,html.Screen,0_2_0_1_23,2021-12-03T11:24:54.145Z,,,,,,,,,,,,,,,,53,,,,,,,,,,,,,,322.1320000059641,,response,,,99,,,,,,Space,keypress(Space),,,,,---- -- ----- -- ------ - ------- --- ----------<br>------------- ------ ------ ---- ---- ------- ----- -- ----<br>-------- ------- -- ---------- --- a --- ----- ----- ----<br>---- --- --- ----- --- ---- ---- ------- ----- ---- -------<br>--- --- -- ----- -- --- ---- -- --- ---- -- ------ ------<br>--- ----- -- ----,80988.29999999702,80987.40000000596,80648.598,80661,80665.268,80998.751,,23,a
screen,html.Screen,0_2_0_1_24,2021-12-03T11:24:54.505Z,,,,,,,,,,,,,,,,53,,,,,,,,,,,,,,348.6490000059566,,response,,,99,,,,,,Space,keypress(Space),,,,,---- -- ----- -- ------ - ------- --- ----------<br>------------- ------ ------ ---- ---- ------- ----- -- ----<br>-------- ------- -- ---------- --- - new ----- ----- ----<br>---- --- --- ----- --- ---- ---- ------- ----- ---- -------<br>--- --- -- ----- -- --- ---- -- --- ---- -- ------ ------<br>--- ----- -- ----,81348.20000000298,81347.40000000596,80982.08,80988.59999999404,80998.751,81365.405,,24,new
screen,html.Screen,0_2_0_1_25,2021-12-03T11:24:55.057Z,,,,,,,,,,,,,,,,53,,,,,,,,,,,,,,534.0950000000012,,response,,,99,,,,,,Space,keypress(Space),,,,,---- -- ----- -- ------ - ------- --- ----------<br>------------- ------ ------ ---- ---- ------- ----- -- ----<br>-------- ------- -- ---------- --- - --- study ----- ----<br>---- --- --- ----- --- ---- ---- ------- ----- ---- -------<br>--- --- -- ----- -- --- ---- -- --- ---- -- ------ ------<br>--- ----- -- ----,81900.20000000298,81899.5,81348.736,81348.40000000596,81365.405,81915.894,,25,study
screen,html.Screen,0_2_0_1_26,2021-12-03T11:24:55.369Z,,,,,,,,,,,,,,,,53,,,,,,,,,,,,,,295.50600000596023,,response,,,99,,,,,,Space,keypress(Space),,,,,---- -- ----- -- ------ - ------- --- ----------<br>------------- ------ ------ ---- ---- ------- ----- -- ----<br>-------- ------- -- ---------- --- - --- ----- finds ----<br>---- --- --- ----- --- ---- ---- ------- ----- ---- -------<br>--- --- -- ----- -- --- ---- -- --- ---- -- ------ ------<br>--- ----- -- ----,82212.20000000298,82211.40000000596,81899.219,81900.5,81915.894,82215.694,,26,finds
screen,html.Screen,0_2_0_1_27,2021-12-03T11:24:55.641Z,,,,,,,,,,,,,,,,53,,,,,,,,,,,,,,267.6059999970166,,response,,,99,,,,,,Space,keypress(Space),,,,,---- -- ----- -- ------ - ------- --- ----------<br>------------- ------ ------ ---- ---- ------- ----- -- ----<br>-------- ------- -- ---------- --- - --- ----- ----- that<br>---- --- --- ----- --- ---- ---- ------- ----- ---- -------<br>--- --- -- ----- -- --- ---- -- --- ---- -- ------ ------<br>--- ----- -- ----,82484.09999999404,82483.29999999702,82199.024,82212.5,82215.694,82499.156,,27,that
screen,html.Screen,0_2_0_1_28,2021-12-03T11:24:56.409Z,,,,,,,,,,,,,,,,53,,,,,,,,,,,,,,752.1439999970171,,response,,,99,,,,,,Space,keypress(Space),,,,,---- -- ----- -- ------ - ------- --- ----------<br>------------- ------ ------ ---- ---- ------- ----- -- ----<br>-------- ------- -- ---------- --- - --- ----- ----- ----<br>it's --- --- ----- --- ---- ---- ------- ----- ---- -------<br>--- --- -- ----- -- --- ---- -- --- ---- -- ------ ------<br>--- ----- -- ----,83252.20000000298,83251.29999999702,82482.485,82484.29999999702,82499.156,83266.029,,28,it's
screen,html.Screen,0_2_0_1_29,2021-12-03T11:24:56.753Z,,,,,,,,,,,,,,,,53,,,,,,,,,,,,,,329.37100000596547,,response,,,99,,,,,,Space,keypress(Space),,,,,---- -- ----- -- ------ - ------- --- ----------<br>------------- ------ ------ ---- ---- ------- ----- -- ----<br>-------- ------- -- ---------- --- - --- ----- ----- ----<br>---- not --- ----- --- ---- ---- ------- ----- ---- -------<br>--- --- -- ----- -- --- ---- -- --- ---- -- ------ ------<br>--- ----- -- ----,83596.09999999404,83595.40000000596,83249.358,83252.40000000596,83266.029,83599.421,,29,not
screen,html.Screen,0_2_0_1_30,2021-12-03T11:24:57.017Z,,,,,,,,,,,,,,,,53,,,,,,,,,,,,,,259.97900000595837,,response,,,99,,,,,,Space,keypress(Space),,,,,---- -- ----- -- ------ - ------- --- ----------<br>------------- ------ ------ ---- ---- ------- ----- -- ----<br>-------- ------- -- ---------- --- - --- ----- ----- ----<br>---- --- how ----- --- ---- ---- ------- ----- ---- -------<br>--- --- -- ----- -- --- ---- -- --- ---- -- ------ ------<br>--- ----- -- ----,83860.09999999404,83859.40000000596,83582.751,83596.40000000596,83599.421,83866.161,,30,how
screen,html.Screen,0_2_0_1_31,2021-12-03T11:24:57.289Z,,,,,,,,,,,,,,,,53,,,,,,,,,,,,,,265.138999997027,,response,,,99,,,,,,Space,keypress(Space),,,,,---- -- ----- -- ------ - ------- --- ----------<br>------------- ------ ------ ---- ---- ------- ----- -- ----<br>-------- ------- -- ---------- --- - --- ----- ----- ----<br>---- --- --- close --- ---- ---- ------- ----- ---- -------<br>--- --- -- ----- -- --- ---- -- --- ---- -- ------ ------<br>--- ----- -- ----,84132.09999999404,84131.29999999702,83849.491,83860.29999999702,83866.161,84149.593,,31,close
screen,html.Screen,0_2_0_1_32,2021-12-03T11:24:57.937Z,,,,,,,,,,,,,,,,53,,,,,,,,,,,,,,629.7069999970263,,response,,,99,,,,,,Space,keypress(Space),,,,,---- -- ----- -- ------ - ------- --- ----------<br>------------- ------ ------ ---- ---- ------- ----- -- ----<br>-------- ------- -- ---------- --- - --- ----- ----- ----<br>---- --- --- ----- you ---- ---- ------- ----- ---- -------<br>--- --- -- ----- -- --- ---- -- --- ---- -- ------ ------<br>--- ----- -- ----,84780.09999999404,84779.29999999702,84132.922,84132.29999999702,84149.593,84783.041,,32,you
screen,html.Screen,0_2_0_1_33,2021-12-03T11:24:58.177Z,,,,,,,,,,,,,,,,53,,,,,,,,,,,,,,236.1590000029828,,response,,,99,,,,,,Space,keypress(Space),,,,,---- -- ----- -- ------ - ------- --- ----------<br>------------- ------ ------ ---- ---- ------- ----- -- ----<br>-------- ------- -- ---------- --- - --- ----- ----- ----<br>---- --- --- ----- --- feel ---- ------- ----- ---- -------<br>--- --- -- ----- -- --- ---- -- --- ---- -- ------ ------<br>--- ----- -- ----,85020,85019.20000000298,84766.371,84780.29999999702,84783.041,85032.916,,33,feel
screen,html.Screen,0_2_0_1_34,2021-12-03T11:24:58.521Z,,,,,,,,,,,,,,,,53,,,,,,,,,,,,,,330.2840000029828,,response,,,99,,,,,,Space,keypress(Space),,,,,---- -- ----- -- ------ - ------- --- ----------<br>------------- ------ ------ ---- ---- ------- ----- -- ----<br>-------- ------- -- ---------- --- - --- ----- ----- ----<br>---- --- --- ----- --- ---- that ------- ----- ---- -------<br>--- --- -- ----- -- --- ---- -- --- ---- -- ------ ------<br>--- ----- -- ----,85363.90000000596,85363.20000000298,85016.249,85020.20000000298,85032.916,85366.564,,34,that
screen,html.Screen,0_2_0_1_35,2021-12-03T11:24:58.897Z,,,,,,,,,,,,,,,,53,,,,,,,,,,,,,,372.53599999404105,,response,,,99,,,,,,Space,keypress(Space),,,,,---- -- ----- -- ------ - ------- --- ----------<br>------------- ------ ------ ---- ---- ------- ----- -- ----<br>-------- ------- -- ---------- --- - --- ----- ----- ----<br>---- --- --- ----- --- ---- ---- matters ----- ---- -------<br>--- --- -- ----- -- --- ---- -- --- ---- -- ------ ------<br>--- ----- -- ----,85739.90000000596,85739.09999999404,85349.893,85364.20000000298,85366.564,85749.994,,35,matters
screen,html.Screen,0_2_0_1_36,2021-12-03T11:24:59.873Z,,,,,,,,,,,,,,,,53,,,,,,,,,,,,,,965.1059999940335,,response,,,99,,,,,,Space,keypress(Space),,,,,"---- -- ----- -- ------ - ------- --- ----------<br>------------- ------ ------ ---- ---- ------- ----- -- ----<br>-------- ------- -- ---------- --- - --- ----- ----- ----<br>---- --- --- ----- --- ---- ---- ------- most, ---- -------<br>--- --- -- ----- -- --- ---- -- --- ---- -- ------ ------<br>--- ----- -- ----",86716.09999999404,86715.09999999404,85733.323,85740.09999999404,85749.994,86733.516,,36,"most,"
screen,html.Screen,0_2_0_1_37,2021-12-03T11:25:00.209Z,,,,,,,,,,,,,,,,53,,,,,,,,,,,,,,317.5839999940363,,response,,,99,,,,,,Space,keypress(Space),,,,,---- -- ----- -- ------ - ------- --- ----------<br>------------- ------ ------ ---- ---- ------- ----- -- ----<br>-------- ------- -- ---------- --- - --- ----- ----- ----<br>---- --- --- ----- --- ---- ---- ------- ----- it's -------<br>--- --- -- ----- -- --- ---- -- --- ---- -- ------ ------<br>--- ----- -- ----,87052.09999999404,87051.09999999404,86716.846,86716.40000000596,86733.516,87066.741,,37,it's
screen,html.Screen,0_2_0_1_38,2021-12-03T11:25:00.872Z,,,,,,,,,,,,,,,,53,,,,,,,,,,,,,,648.0589999970252,,response,,,99,,,,,,Space,keypress(Space),,,,,---- -- ----- -- ------ - ------- --- ----------<br>------------- ------ ------ ---- ---- ------- ----- -- ----<br>-------- ------- -- ---------- --- - --- ----- ----- ----<br>---- --- --- ----- --- ---- ---- ------- ----- ---- whether<br>--- --- -- ----- -- --- ---- -- --- ---- -- ------ ------<br>--- ----- -- ----,87715.09999999404,87714.79999999702,87050.073,87052.29999999702,87066.741,87717.188,,38,whether
screen,html.Screen,0_2_0_1_39,2021-12-03T11:25:01.368Z,,,,,,,,,,,,,,,,53,,,,,,,,,,,,,,493.4119999940449,,response,,,99,,,,,,Space,keypress(Space),,,,,---- -- ----- -- ------ - ------- --- ----------<br>------------- ------ ------ ---- ---- ------- ----- -- ----<br>-------- ------- -- ---------- --- - --- ----- ----- ----<br>---- --- --- ----- --- ---- ---- ------- ----- ---- -------<br>you --- -- ----- -- --- ---- -- --- ---- -- ------ ------<br>--- ----- -- ----,88210.90000000596,88210.59999999404,87700.517,87715.29999999702,87717.188,88217.058,,39,you
screen,html.Screen,0_2_0_1_40,2021-12-03T11:25:01.656Z,,,,,,,,,,,,,,,,53,,,,,,,,,,,,,,281.6420000029757,,response,,,99,,,,,,Space,keypress(Space),,,,,---- -- ----- -- ------ - ------- --- ----------<br>------------- ------ ------ ---- ---- ------- ----- -- ----<br>-------- ------- -- ---------- --- - --- ----- ----- ----<br>---- --- --- ----- --- ---- ---- ------- ----- ---- -------<br>--- are -- ----- -- --- ---- -- --- ---- -- ------ ------<br>--- ----- -- ----,88499,88498.70000000298,88200.39,88211,88217.058,88500.603,,40,are
screen,html.Screen,0_2_0_1_41,2021-12-03T11:25:02.025Z,,,,,,,,,,,,,,,,53,,,,,,,,,,,,,,366.49699999403674,,response,,,99,,,,,,Space,keypress(Space),,,,,---- -- ----- -- ------ - ------- --- ----------<br>------------- ------ ------ ---- ---- ------- ----- -- ----<br>-------- ------- -- ---------- --- - --- ----- ----- ----<br>---- --- --- ----- --- ---- ---- ------- ----- ---- -------<br>--- --- as ----- -- --- ---- -- --- ---- -- ------ ------<br>--- ----- -- ----,88867.90000000596,88867.09999999404,88483.933,88499.09999999404,88500.603,88884.05,,41,as
screen,html.Screen,0_2_0_1_42,2021-12-03T11:25:02.281Z,,,,,,,,,,,,,,,,53,,,,,,,,,,,,,,238.9499999999971,,response,,,99,,,,,,Space,keypress(Space),,,,,---- -- ----- -- ------ - ------- --- ----------<br>------------- ------ ------ ---- ---- ------- ----- -- ----<br>-------- ------- -- ---------- --- - --- ----- ----- ----<br>---- --- --- ----- --- ---- ---- ------- ----- ---- -------<br>--- --- -- close -- --- ---- -- --- ---- -- ------ ------<br>--- ----- -- ----,89123.79999999702,89123,88867.38,88868.09999999404,88884.05,89134.319,,42,close
screen,html.Screen,0_2_0_1_43,2021-12-03T11:25:02.577Z,,,,,,,,,,,,,,,,53,,,,,,,,,,,,,,284.68099999999686,,response,,,99,,,,,,Space,keypress(Space),,,,,---- -- ----- -- ------ - ------- --- ----------<br>------------- ------ ------ ---- ---- ------- ----- -- ----<br>-------- ------- -- ---------- --- - --- ----- ----- ----<br>---- --- --- ----- --- ---- ---- ------- ----- ---- -------<br>--- --- -- ----- as --- ---- -- --- ---- -- ------ ------<br>--- ----- -- ----,89419.90000000596,89419,89117.645,89124,89134.319,89434.25,,43,as
screen,html.Screen,0_2_0_1_44,2021-12-03T11:25:02.889Z,,,,,,,,,,,,,,,,53,,,,,,,,,,,,,,296.75,,response,,,99,,,,,,Space,keypress(Space),,,,,---- -- ----- -- ------ - ------- --- ----------<br>------------- ------ ------ ---- ---- ------- ----- -- ----<br>-------- ------- -- ---------- --- - --- ----- ----- ----<br>---- --- --- ----- --- ---- ---- ------- ----- ---- -------<br>--- --- -- ----- -- you ---- -- --- ---- -- ------ ------<br>--- ----- -- ----,89731.79999999702,89731,89417.58,89420.09999999404,89434.25,89734.369,,44,you
screen,html.Screen,0_2_0_1_45,2021-12-03T11:25:03.120Z,,,,,,,,,,,,,,,,53,,,,,,,,,,,,,,228.13099999999395,,response,,,99,,,,,,Space,keypress(Space),,,,,---- -- ----- -- ------ - ------- --- ----------<br>------------- ------ ------ ---- ---- ------- ----- -- ----<br>-------- ------- -- ---------- --- - --- ----- ----- ----<br>---- --- --- ----- --- ---- ---- ------- ----- ---- -------<br>--- --- -- ----- -- --- want -- --- ---- -- ------ ------<br>--- ----- -- ----,89962.90000000596,89962.5,89717.698,89732,89734.369,89967.726,,45,want
screen,html.Screen,0_2_0_1_46,2021-12-03T11:25:03.369Z,,,,,,,,,,,,,,,,53,,,,,,,,,,,,,,243.2740000000049,,response,,,99,,,,,,Space,keypress(Space),,,,,---- -- ----- -- ------ - ------- --- ----------<br>------------- ------ ------ ---- ---- ------- ----- -- ----<br>-------- ------- -- ---------- --- - --- ----- ----- ----<br>---- --- --- ----- --- ---- ---- ------- ----- ---- -------<br>--- --- -- ----- -- --- ---- to --- ---- -- ------ ------<br>--- ----- -- ----,90211.70000000298,90211,89951.056,89962.90000000596,89967.726,90217.785,,46,to
screen,html.Screen,0_2_0_1_47,2021-12-03T11:25:03.761Z,,,,,,,,,,,,,,,,53,,,,,,,,,,,,,,385.115000005957,,response,,,99,,,,,,Space,keypress(Space),,,,,"---- -- ----- -- ------ - ------- --- ----------<br>------------- ------ ------ ---- ---- ------- ----- -- ----<br>-------- ------- -- ---------- --- - --- ----- ----- ----<br>---- --- --- ----- --- ---- ---- ------- ----- ---- -------<br>--- --- -- ----- -- --- ---- -- be, ---- -- ------ ------<br>--- ----- -- ----",90603.70000000298,90602.90000000596,90201.115,90211.90000000596,90217.785,90617.668,,47,"be,"
screen,html.Screen,0_2_0_1_48,2021-12-03T11:25:04.105Z,,,,,,,,,,,,,,,,53,,,,,,,,,,,,,,329.63199999701465,,response,,,99,,,,,,Space,keypress(Space),,,,,---- -- ----- -- ------ - ------- --- ----------<br>------------- ------ ------ ---- ---- ------- ----- -- ----<br>-------- ------- -- ---------- --- - --- ----- ----- ----<br>---- --- --- ----- --- ---- ---- ------- ----- ---- -------<br>--- --- -- ----- -- --- ---- -- --- even -- ------ ------<br>--- ----- -- ----,90948.09999999404,90947.29999999702,90601.002,90604,90617.668,90951.493,,48,even
screen,html.Screen,0_2_0_1_49,2021-12-03T11:25:04.416Z,,,,,,,,,,,,,,,,53,,,,,,,,,,,,,,307.30699999701756,,response,,,99,,,,,,Space,keypress(Space),,,,,---- -- ----- -- ------ - ------- --- ----------<br>------------- ------ ------ ---- ---- ------- ----- -- ----<br>-------- ------- -- ---------- --- - --- ----- ----- ----<br>---- --- --- ----- --- ---- ---- ------- ----- ---- -------<br>--- --- -- ----- -- --- ---- -- --- ---- if ------ ------<br>--- ----- -- ----,91259.59999999404,91258.79999999702,90934.818,90948.40000000596,90951.493,91267.985,,49,if
screen,html.Screen,0_2_0_1_50,2021-12-03T11:25:04.640Z,,,,,,,,,,,,,,,,53,,,,,,,,,,,,,,214.71500000297965,,response,,,99,,,,,,Space,keypress(Space),,,,,---- -- ----- -- ------ - ------- --- ----------<br>------------- ------ ------ ---- ---- ------- ----- -- ----<br>-------- ------- -- ---------- --- - --- ----- ----- ----<br>---- --- --- ----- --- ---- ---- ------- ----- ---- -------<br>--- --- -- ----- -- --- ---- -- --- ---- -- that's ------<br>--- ----- -- ----,91483.59999999404,91482.70000000298,91251.316,91259.70000000298,91267.985,91501.503,,50,that's
screen,html.Screen,0_2_0_1_51,2021-12-03T11:25:05.088Z,,,,,,,,,,,,,,,,53,,,,,,,,,,,,,,428.8970000059635,,response,,,99,,,,,,Space,keypress(Space),,,,,---- -- ----- -- ------ - ------- --- ----------<br>------------- ------ ------ ---- ---- ------- ----- -- ----<br>-------- ------- -- ---------- --- - --- ----- ----- ----<br>---- --- --- ----- --- ---- ---- ------- ----- ---- -------<br>--- --- -- ----- -- --- ---- -- --- ---- -- ------ really<br>--- ----- -- ----,91930.70000000298,91930.40000000596,91484.831,91483.70000000298,91501.503,91934.766,,51,really
screen,html.Screen,0_2_0_1_52,2021-12-03T11:25:05.489Z,,,,,,,,,,,,,,,,53,,,,,,,,,,,,,,396.1340000059572,,response,,,99,,,,,,Space,keypress(Space),,,,,---- -- ----- -- ------ - ------- --- ----------<br>------------- ------ ------ ---- ---- ------- ----- -- ----<br>-------- ------- -- ---------- --- - --- ----- ----- ----<br>---- --- --- ----- --- ---- ---- ------- ----- ---- -------<br>--- --- -- ----- -- --- ---- -- --- ---- -- ------ ------<br>not ----- -- ----,92331.59999999404,92330.90000000596,91918.098,91930.70000000298,91934.766,92335.078,,52,not
screen,html.Screen,0_2_0_1_53,2021-12-03T11:25:05.720Z,,,,,,,,,,,,,,,,53,,,,,,,,,,,,,,227.3220000059664,,response,,,99,,,,,,Space,keypress(Space),,,,,---- -- ----- -- ------ - ------- --- ----------<br>------------- ------ ------ ---- ---- ------- ----- -- ----<br>-------- ------- -- ---------- --- - --- ----- ----- ----<br>---- --- --- ----- --- ---- ---- ------- ----- ---- -------<br>--- --- -- ----- -- --- ---- -- --- ---- -- ------ ------<br>--- close -- ----,92562.79999999702,92562.40000000596,92318.404,92331.90000000596,92335.078,92568.3,,53,close
screen,html.Screen,0_2_0_1_54,2021-12-03T11:25:06.120Z,,,,,,,,,,,,,,,,53,,,,,,,,,,,,,,394.1999999999971,,response,,,99,,,,,,Space,keypress(Space),,,,,---- -- ----- -- ------ - ------- --- ----------<br>------------- ------ ------ ---- ---- ------- ----- -- ----<br>-------- ------- -- ---------- --- - --- ----- ----- ----<br>---- --- --- ----- --- ---- ---- ------- ----- ---- -------<br>--- --- -- ----- -- --- ---- -- --- ---- -- ------ ------<br>--- ----- at ----,92962.79999999702,92962.5,92551.631,92562.90000000596,92568.3,92968.572,,54,at
screen,html.Screen,0_2_0_1_55,2021-12-03T11:25:06.584Z,,,,,,,,,,,,,,,,53,,,,,,,,,,,,,,457.82800000596035,,response,,,99,,,,,,Space,keypress(Space),,,,,---- -- ----- -- ------ - ------- --- ----------<br>------------- ------ ------ ---- ---- ------- ----- -- ----<br>-------- ------- -- ---------- --- - --- ----- ----- ----<br>---- --- --- ----- --- ---- ---- ------- ----- ---- -------<br>--- --- -- ----- -- --- ---- -- --- ---- -- ------ ------<br>--- ----- -- all.,93426.59999999404,93426.40000000596,92951.9,92962.79999999702,92968.572,93434.954,,55,all.
Item 99,flow.Loop,0_2_0_1,2021-12-03T11:25:06.585Z,,,,,,,,,,,,,,,,,,,,,,,,,,,,,,25447.811000005953,,completion,,,,A,,,,,,,,,,silence,,93427.79999999702,93426.40000000596,67961.919,67967.59999999404,67978.589,93434.954,,,
Question 1,html.Screen,0_2_0_2,2021-12-03T11:25:12.039Z,,,,,,,,,,,,,,,,,,,,,,,,,,,false,FALSE,,5445.645999994042,,response,,,99,A,,,,,TRUE,click #choice-1,,,,silence,,98882.20000000298,98880.59999999404,93418.289,93427.79999999702,93434.954,98886.558,,,
Question 2,html.Screen,0_2_0_3,2021-12-03T11:25:20.347Z,,,,,,,,,,,,,,,,,,,,,,,,,,,true,TRUE,,8302.541999994035,,response,,,99,A,,,,,TRUE,click #choice-1,,,,silence,,107190.29999999702,107189.09999999404,98869.893,98882.70000000298,98886.558,107205.853,,,
Item 99,flow.Sequence,0_2_0,2021-12-03T11:25:20.348Z,,,,,,,,,,,,,,,,,,,,,,,,,,,,,,49213.78399999404,,completion,,,,,,,,,,,,,,,,107190.90000000596,107189.09999999404,57941.982,57960,57975.316,107205.853,,,
Holding screen,html.Screen,0_2_1_0,2021-12-03T11:25:30.350Z,,,,,,,,,,,,,,,,,,,,,,,,,,,,,,10002.088000000003,,timeout,,,,,,,,,,,,,,,,117193.20000000298,117191.271,107189.163,107191.40000000596,107205.853,117207.941,,,
screen,html.Screen,0_2_1_1_0,2021-12-03T11:25:31.664Z,,,,,,,,,,,,,,,,54,,,,,,,,,,,,,,1297.8589999970136,,response,,,100,,,,,,Space,keypress(Space),,,,,At --- ---- --- ------ ----- ------- ---- -- --- ------- --<br>------- ---------- ------ -- ----- -- ----- -- ---- ------<br>--- ----- --- --- ------ -------- ----- --- ------ ----- --<br>----- ----- ---------- --- --- ------ ------ ---- -- ------<br>------- --- ------ ----- --- ---- ------- -- ---- --- --<br>------- ------,118506.79999999702,118505.79999999702,117191.271,117193.59999999404,117207.941,118508.55,,0,At
screen,html.Screen,0_2_1_1_1,2021-12-03T11:25:32.055Z,,,,,,,,,,,,,,,,54,,,,,,,,,,,,,,388.74999999701686,,response,,,100,,,,,,Space,keypress(Space),,,,,-- the ---- --- ------ ----- ------- ---- -- --- ------- --<br>------- ---------- ------ -- ----- -- ----- -- ---- ------<br>--- ----- --- --- ------ -------- ----- --- ------ ----- --<br>----- ----- ---------- --- --- ------ ------ ---- -- ------<br>------- --- ------ ----- --- ---- ------- -- ---- --- --<br>------- ------,118898.09999999404,118897.29999999702,118491.878,118507,118508.55,118908.359,,1,the
screen,html.Screen,0_2_1_1_2,2021-12-03T11:25:32.359Z,,,,,,,,,,,,,,,,54,,,,,,,,,,,,,,292.940999997023,,response,,,100,,,,,,Space,keypress(Space),,,,,-- --- time --- ------ ----- ------- ---- -- --- ------- --<br>------- ---------- ------ -- ----- -- ----- -- ---- ------<br>--- ----- --- --- ------ -------- ----- --- ------ ----- --<br>----- ----- ---------- --- --- ------ ------ ---- -- ------<br>------- --- ------ ----- --- ---- ------- -- ---- --- --<br>------- ------,119202,119201.29999999702,118891.69,118898.29999999702,118908.359,119208.621,,2,time
screen,html.Screen,0_2_1_1_3,2021-12-03T11:25:32.855Z,,,,,,,,,,,,,,,,54,,,,,,,,,,,,,,488.6789999970206,,response,,,100,,,,,,Space,keypress(Space),,,,,-- --- ---- the ------ ----- ------- ---- -- --- ------- --<br>------- ---------- ------ -- ----- -- ----- -- ---- ------<br>--- ----- --- --- ------ -------- ----- --- ------ ----- --<br>----- ----- ---------- --- --- ------ ------ ---- -- ------<br>------- --- ------ ----- --- ---- ------- -- ---- --- --<br>------- ------,119698.09999999404,119697.29999999702,119191.95,119202.20000000298,119208.621,119708.558,,3,the
screen,html.Screen,0_2_1_1_4,2021-12-03T11:25:33.087Z,,,,,,,,,,,,,,,,54,,,,,,,,,,,,,,220.74199999701523,,response,,,100,,,,,,Space,keypress(Space),,,,,-- --- ---- --- French ----- ------- ---- -- --- ------- --<br>------- ---------- ------ -- ----- -- ----- -- ---- ------<br>--- ----- --- --- ------ -------- ----- --- ------ ----- --<br>----- ----- ---------- --- --- ------ ------ ---- -- ------<br>------- --- ------ ----- --- ---- ------- -- ---- --- --<br>------- ------,119930.09999999404,119929.29999999702,119691.89,119698.29999999702,119708.558,119942.228,,4,French
screen,html.Screen,0_2_1_1_5,2021-12-03T11:25:33.527Z,,,,,,,,,,,,,,,,54,,,,,,,,,,,,,,427.071999997017,,response,,,100,,,,,,Space,keypress(Space),,,,,-- --- ---- --- ------ crown ------- ---- -- --- ------- --<br>------- ---------- ------ -- ----- -- ----- -- ---- ------<br>--- ----- --- --- ------ -------- ----- --- ------ ----- --<br>----- ----- ---------- --- --- ------ ------ ---- -- ------<br>------- --- ------ ----- --- ---- ------- -- ---- --- --<br>------- ------,120370.20000000298,120369.29999999702,119925.555,119930.40000000596,119942.228,120375.542,,5,crown
screen,html.Screen,0_2_1_1_6,2021-12-03T11:25:34.491Z,,,,,,,,,,,,,,,,54,,,,,,,,,,,,,,953.7579999970185,,response,,,100,,,,,,Space,keypress(Space),,,,,-- --- ---- --- ------ ----- secured ---- -- --- ------- --<br>------- ---------- ------ -- ----- -- ----- -- ---- ------<br>--- ----- --- --- ------ -------- ----- --- ------ ----- --<br>----- ----- ---------- --- --- ------ ------ ---- -- ------<br>------- --- ------ ----- --- ---- ------- -- ---- --- --<br>------- ------,121330,121329.29999999702,120358.872,120370.40000000596,120375.542,121342.315,,6,secured
screen,html.Screen,0_2_1_1_7,2021-12-03T11:25:34.755Z,,,,,,,,,,,,,,,,54,,,,,,,,,,,,,,250.8850000029779,,response,,,100,,,,,,Space,keypress(Space),,,,,-- --- ---- --- ------ ----- ------- much -- --- ------- --<br>------- ---------- ------ -- ----- -- ----- -- ---- ------<br>--- ----- --- --- ------ -------- ----- --- ------ ----- --<br>----- ----- ---------- --- --- ------ ------ ---- -- ------<br>------- --- ------ ----- --- ---- ------- -- ---- --- --<br>------- ------,121594,121593.20000000298,121325.646,121330.20000000298,121342.315,121609.25,,7,much
screen,html.Screen,0_2_1_1_8,2021-12-03T11:25:36.019Z,,,,,,,,,,,,,,,,54,,,,,,,,,,,,,,1247.9500000029802,,response,,,100,,,,,,Space,keypress(Space),,,,,-- --- ---- --- ------ ----- ------- ---- of --- ------- --<br>------- ---------- ------ -- ----- -- ----- -- ---- ------<br>--- ----- --- --- ------ -------- ----- --- ------ ----- --<br>----- ----- ---------- --- --- ------ ------ ---- -- ------<br>------- --- ------ ----- --- ---- ------- -- ---- --- --<br>------- ------,122858,122857.20000000298,121592.579,121594.20000000298,121609.25,122859.336,,8,of
screen,html.Screen,0_2_1_1_9,2021-12-03T11:25:36.427Z,,,,,,,,,,,,,,,,54,,,,,,,,,,,,,,405.76399999404384,,response,,,100,,,,,,Space,keypress(Space),,,,,-- --- ---- --- ------ ----- ------- ---- -- its ------- --<br>------- ---------- ------ -- ----- -- ----- -- ---- ------<br>--- ----- --- --- ------ -------- ----- --- ------ ----- --<br>----- ----- ---------- --- --- ------ ------ ---- -- ------<br>------- --- ------ ----- --- ---- ------- -- ---- --- --<br>------- ------,123265.90000000596,123265.09999999404,122842.667,122858.20000000298,122859.336,123276.351,,9,its
screen,html.Screen,0_2_1_1_10,2021-12-03T11:25:37.627Z,,,,,,,,,,,,,,,,54,,,,,,,,,,,,,,1188.7489999940444,,response,,,100,,,,,,Space,keypress(Space),,,,,-- --- ---- --- ------ ----- ------- ---- -- --- revenue --<br>------- ---------- ------ -- ----- -- ----- -- ---- ------<br>--- ----- --- --- ------ -------- ----- --- ------ ----- --<br>----- ----- ---------- --- --- ------ ------ ---- -- ------<br>------- --- ------ ----- --- ---- ------- -- ---- --- --<br>------- ------,124465.90000000596,124465.09999999404,123259.677,123266.09999999404,123276.351,124476.39,,10,revenue
screen,html.Screen,0_2_1_1_11,2021-12-03T11:25:37.963Z,,,,,,,,,,,,,,,,54,,,,,,,,,,,,,,324.6100000000006,,response,,,100,,,,,,Space,keypress(Space),,,,,-- --- ---- --- ------ ----- ------- ---- -- --- ------- by<br>------- ---------- ------ -- ----- -- ----- -- ---- ------<br>--- ----- --- --- ------ -------- ----- --- ------ ----- --<br>----- ----- ---------- --- --- ------ ------ ---- -- ------<br>------- --- ------ ----- --- ---- ------- -- ---- --- --<br>------- ------,124801.79999999702,124801,124459.721,124466,124476.39,124810.208,,11,by
screen,html.Screen,0_2_1_1_12,2021-12-03T11:25:38.859Z,,,,,,,,,,,,,,,,54,,,,,,,,,,,,,,886.7920000000013,,response,,,100,,,,,,Space,keypress(Space),,,,,-- --- ---- --- ------ ----- ------- ---- -- --- ------- --<br>issuing ---------- ------ -- ----- -- ----- -- ---- ------<br>--- ----- --- --- ------ -------- ----- --- ------ ----- --<br>----- ----- ---------- --- --- ------ ------ ---- -- ------<br>------- --- ------ ----- --- ---- ------- -- ---- --- --<br>------- ------,125697.79999999702,125697,124793.533,124802,124810.208,125710.106,,12,issuing
screen,html.Screen,0_2_1_1_13,2021-12-03T11:25:39.179Z,,,,,,,,,,,,,,,,54,,,,,,,,,,,,,,306.7940000059607,,response,,,100,,,,,,Space,keypress(Space),,,,,-- --- ---- --- ------ ----- ------- ---- -- --- ------- --<br>------- government ------ -- ----- -- ----- -- ---- ------<br>--- ----- --- --- ------ -------- ----- --- ------ ----- --<br>----- ----- ---------- --- --- ------ ------ ---- -- ------<br>------- --- ------ ----- --- ---- ------- -- ---- --- --<br>------- ------,126017.79999999702,126016.90000000596,125693.437,125698.20000000298,125710.106,126026.955,,13,government
screen,html.Screen,0_2_1_1_14,2021-12-03T11:25:43.611Z,,,,,,,,,,,,,,,,54,,,,,,,,,,,,,,4421.844999997018,,response,,,100,,,,,,Space,keypress(Space),,,,,-- --- ---- --- ------ ----- ------- ---- -- --- ------- --<br>------- ---------- bonds. -- ----- -- ----- -- ---- ------<br>--- ----- --- --- ------ -------- ----- --- ------ ----- --<br>----- ----- ---------- --- --- ------ ------ ---- -- ------<br>------- --- ------ ----- --- ---- ------- -- ---- --- --<br>------- ------,130449.5,130448.79999999702,126010.285,126018.09999999404,126026.955,130461.527,,14,bonds.
screen,html.Screen,0_2_1_1_15,2021-12-03T11:25:44.067Z,,,,,,,,,,,,,,,,54,,,,,,,,,,,,,,443.0729999940377,,response,,,100,,,,,,Space,keypress(Space),,,,,-- --- ---- --- ------ ----- ------- ---- -- --- ------- --<br>------- ---------- ------ In ----- -- ----- -- ---- ------<br>--- ----- --- --- ------ -------- ----- --- ------ ----- --<br>----- ----- ---------- --- --- ------ ------ ---- -- ------<br>------- --- ------ ----- --- ---- ------- -- ---- --- --<br>------- ------,130905.40000000596,130904.59999999404,130444.856,130449.79999999702,130461.527,130910.933,,15,In
screen,html.Screen,0_2_1_1_16,2021-12-03T11:25:45.395Z,,,,,,,,,,,,,,,,54,,,,,,,,,,,,,,1321.666999994035,,response,,,100,,,,,,Space,keypress(Space),,,,,"-- --- ---- --- ------ ----- ------- ---- -- --- ------- --<br>------- ---------- ------ -- 1727, -- ----- -- ---- ------<br>--- ----- --- --- ------ -------- ----- --- ------ ----- --<br>----- ----- ---------- --- --- ------ ------ ---- -- ------<br>------- --- ------ ----- --- ---- ------- -- ---- --- --<br>------- ------",132233.40000000596,132232.59999999404,130894.265,130905.70000000298,130910.933,132245.158,,16,"1727,"
screen,html.Screen,0_2_1_1_17,2021-12-03T11:25:45.746Z,,,,,,,,,,,,,,,,54,,,,,,,,,,,,,,339.3420000000042,,response,,,100,,,,,,Space,keypress(Space),,,,,-- --- ---- --- ------ ----- ------- ---- -- --- ------- --<br>------- ---------- ------ -- ----- in ----- -- ---- ------<br>--- ----- --- --- ------ -------- ----- --- ------ ----- --<br>----- ----- ---------- --- --- ------ ------ ---- -- ------<br>------- --- ------ ----- --- ---- ------- -- ---- --- --<br>------- ------,132585.29999999702,132584.5,132228.488,132233.59999999404,132245.158,132595.351,,17,in
screen,html.Screen,0_2_1_1_18,2021-12-03T11:25:46.314Z,,,,,,,,,,,,,,,,54,,,,,,,,,,,,,,557.1490000000049,,response,,,100,,,,,,Space,keypress(Space),,,,,-- --- ---- --- ------ ----- ------- ---- -- --- ------- --<br>------- ---------- ------ -- ----- -- order -- ---- ------<br>--- ----- --- --- ------ -------- ----- --- ------ ----- --<br>----- ----- ---------- --- --- ------ ------ ---- -- ------<br>------- --- ------ ----- --- ---- ------- -- ---- --- --<br>------- ------,133153.29999999702,133152.5,132578.68,132585.59999999404,132595.351,133162.235,,18,order
screen,html.Screen,0_2_1_1_19,2021-12-03T11:25:46.587Z,,,,,,,,,,,,,,,,54,,,,,,,,,,,,,,262.4650000029942,,response,,,100,,,,,,Space,keypress(Space),,,,,-- --- ---- --- ------ ----- ------- ---- -- --- ------- --<br>------- ---------- ------ -- ----- -- ----- to ---- ------<br>--- ----- --- --- ------ -------- ----- --- ------ ----- --<br>----- ----- ---------- --- --- ------ ------ ---- -- ------<br>------- --- ------ ----- --- ---- ------- -- ---- --- --<br>------- ------,133425.59999999404,133424.70000000298,133145.564,133153.59999999404,133162.235,133428.792,,19,to
screen,html.Screen,0_2_1_1_20,2021-12-03T11:25:46.930Z,,,,,,,,,,,,,,,,54,,,,,,,,,,,,,,339.70800000001327,,response,,,100,,,,,,Space,keypress(Space),,,,,-- --- ---- --- ------ ----- ------- ---- -- --- ------- --<br>------- ---------- ------ -- ----- -- ----- -- save ------<br>--- ----- --- --- ------ -------- ----- --- ------ ----- --<br>----- ----- ---------- --- --- ------ ------ ---- -- ------<br>------- --- ------ ----- --- ---- ------- -- ---- --- --<br>------- ------,133769.29999999702,133768.5,133412.124,133425.70000000298,133428.792,133779.028,,20,save
screen,html.Screen,0_2_1_1_21,2021-12-03T11:25:47.274Z,,,,,,,,,,,,,,,,54,,,,,,,,,,,,,,333.47200000000885,,response,,,100,,,,,,Space,keypress(Space),,,,,"-- --- ---- --- ------ ----- ------- ---- -- --- ------- --<br>------- ---------- ------ -- ----- -- ----- -- ---- money,<br>--- ----- --- --- ------ -------- ----- --- ------ ----- --<br>----- ----- ---------- --- --- ------ ------ ---- -- ------<br>------- --- ------ ----- --- ---- ------- -- ---- --- --<br>------- ------",134113.20000000298,134112.5,133762.357,133769.5,133779.028,134129.088,,21,"money,"
screen,html.Screen,0_2_1_1_22,2021-12-03T11:25:47.690Z,,,,,,,,,,,,,,,,54,,,,,,,,,,,,,,399.31200000597164,,response,,,100,,,,,,Space,keypress(Space),,,,,-- --- ---- --- ------ ----- ------- ---- -- --- ------- --<br>------- ---------- ------ -- ----- -- ----- -- ---- ------<br>the ----- --- --- ------ -------- ----- --- ------ ----- --<br>----- ----- ---------- --- --- ------ ------ ---- -- ------<br>------- --- ------ ----- --- ---- ------- -- ---- --- --<br>------- ------,134529.40000000596,134528.40000000596,134112.418,134113.5,134129.088,134545.893,,22,the
screen,html.Screen,0_2_1_1_23,2021-12-03T11:25:47.986Z,,,,,,,,,,,,,,,,54,,,,,,,,,,,,,,278.5070000059495,,response,,,100,,,,,,Space,keypress(Space),,,,,-- --- ---- --- ------ ----- ------- ---- -- --- ------- --<br>------- ---------- ------ -- ----- -- ----- -- ---- ------<br>--- state --- --- ------ -------- ----- --- ------ ----- --<br>----- ----- ---------- --- --- ------ ------ ---- -- ------<br>------- --- ------ ----- --- ---- ------- -- ---- --- --<br>------- ------,134825.20000000298,134824.40000000596,134529.222,134529.59999999404,134545.893,134829.264,,23,state
screen,html.Screen,0_2_1_1_24,2021-12-03T11:25:48.322Z,,,,,,,,,,,,,,,,54,,,,,,,,,,,,,,331.2360000000044,,response,,,100,,,,,,Space,keypress(Space),,,,,-- --- ---- --- ------ ----- ------- ---- -- --- ------- --<br>------- ---------- ------ -- ----- -- ----- -- ---- ------<br>--- ----- cut --- ------ -------- ----- --- ------ ----- --<br>----- ----- ---------- --- --- ------ ------ ---- -- ------<br>------- --- ------ ----- --- ---- ------- -- ---- --- --<br>------- ------,135161.29999999702,135160.5,134812.594,134825.40000000596,134829.264,135162.691,,24,cut
screen,html.Screen,0_2_1_1_25,2021-12-03T11:25:48.642Z,,,,,,,,,,,,,,,,54,,,,,,,,,,,,,,317.8090000000084,,response,,,100,,,,,,Space,keypress(Space),,,,,-- --- ---- --- ------ ----- ------- ---- -- --- ------- --<br>------- ---------- ------ -- ----- -- ----- -- ---- ------<br>--- ----- --- the ------ -------- ----- --- ------ ----- --<br>----- ----- ---------- --- --- ------ ------ ---- -- ------<br>------- --- ------ ----- --- ---- ------- -- ---- --- --<br>------- ------,135481.29999999702,135480.5,135146.021,135161.5,135162.691,135496.091,,25,the
screen,html.Screen,0_2_1_1_26,2021-12-03T11:25:48.930Z,,,,,,,,,,,,,,,,54,,,,,,,,,,,,,,272.4090000000142,,response,,,100,,,,,,Space,keypress(Space),,,,,-- --- ---- --- ------ ----- ------- ---- -- --- ------- --<br>------- ---------- ------ -- ----- -- ----- -- ---- ------<br>--- ----- --- --- bonds' -------- ----- --- ------ ----- --<br>----- ----- ---------- --- --- ------ ------ ---- -- ------<br>------- --- ------ ----- --- ---- ------- -- ---- --- --<br>------- ------,135769.29999999702,135768.5,135479.421,135481.5,135496.091,135779.509,,26,bonds'
screen,html.Screen,0_2_1_1_27,2021-12-03T11:25:49.474Z,,,,,,,,,,,,,,,,54,,,,,,,,,,,,,,532.8910000059695,,response,,,100,,,,,,Space,keypress(Space),,,,,-- --- ---- --- ------ ----- ------- ---- -- --- ------- --<br>------- ---------- ------ -- ----- -- ----- -- ---- ------<br>--- ----- --- --- ------ interest ----- --- ------ ----- --<br>----- ----- ---------- --- --- ------ ------ ---- -- ------<br>------- --- ------ ----- --- ---- ------- -- ---- --- --<br>------- ------,136313.29999999702,136312.40000000596,135762.839,135769.5,135779.509,136329.7,,27,interest
screen,html.Screen,0_2_1_1_28,2021-12-03T11:25:49.803Z,,,,,,,,,,,,,,,,54,,,,,,,,,,,,,,310.7000000059488,,response,,,100,,,,,,Space,keypress(Space),,,,,-- --- ---- --- ------ ----- ------- ---- -- --- ------- --<br>------- ---------- ------ -- ----- -- ----- -- ---- ------<br>--- ----- --- --- ------ -------- rate. --- ------ ----- --<br>----- ----- ---------- --- --- ------ ------ ---- -- ------<br>------- --- ------ ----- --- ---- ------- -- ---- --- --<br>------- ------,136641.40000000596,136640.40000000596,136313.029,136313.5,136329.7,136646.352,,28,rate.
screen,html.Screen,0_2_1_1_29,2021-12-03T11:25:50.434Z,,,,,,,,,,,,,,,,54,,,,,,,,,,,,,,626.048000005947,,response,,,100,,,,,,Space,keypress(Space),,,,,-- --- ---- --- ------ ----- ------- ---- -- --- ------- --<br>------- ---------- ------ -- ----- -- ----- -- ---- ------<br>--- ----- --- --- ------ -------- ----- The ------ ----- --<br>----- ----- ---------- --- --- ------ ------ ---- -- ------<br>------- --- ------ ----- --- ---- ------- -- ---- --- --<br>------- ------,137273.20000000298,137272.40000000596,136629.683,136641.59999999404,136646.352,137279.883,,29,The
screen,html.Screen,0_2_1_1_30,2021-12-03T11:25:50.682Z,,,,,,,,,,,,,,,,54,,,,,,,,,,,,,,240.41699999701814,,response,,,100,,,,,,Space,keypress(Space),,,,,-- --- ---- --- ------ ----- ------- ---- -- --- ------- --<br>------- ---------- ------ -- ----- -- ----- -- ---- ------<br>--- ----- --- --- ------ -------- ----- --- market ----- --<br>----- ----- ---------- --- --- ------ ------ ---- -- ------<br>------- --- ------ ----- --- ---- ------- -- ---- --- --<br>------- ------,137521.20000000298,137520.29999999702,137263.213,137273.29999999702,137279.883,137529.999,,30,market
screen,html.Screen,0_2_1_1_31,2021-12-03T11:25:51.242Z,,,,,,,,,,,,,,,,54,,,,,,,,,,,,,,550.4010000059498,,response,,,100,,,,,,Space,keypress(Space),,,,,-- --- ---- --- ------ ----- ------- ---- -- --- ------- --<br>------- ---------- ------ -- ----- -- ----- -- ---- ------<br>--- ----- --- --- ------ -------- ----- --- ------ value --<br>----- ----- ---------- --- --- ------ ------ ---- -- ------<br>------- --- ------ ----- --- ---- ------- -- ---- --- --<br>------- ------,138081.20000000298,138080.40000000596,137513.328,137521.40000000596,137529.999,138096.762,,31,value
screen,html.Screen,0_2_1_1_32,2021-12-03T11:25:51.698Z,,,,,,,,,,,,,,,,54,,,,,,,,,,,,,,439.43800000299234,,response,,,100,,,,,,Space,keypress(Space),,,,,-- --- ---- --- ------ ----- ------- ---- -- --- ------- --<br>------- ---------- ------ -- ----- -- ----- -- ---- ------<br>--- ----- --- --- ------ -------- ----- --- ------ ----- of<br>----- ----- ---------- --- --- ------ ------ ---- -- ------<br>------- --- ------ ----- --- ---- ------- -- ---- --- --<br>------- ------,138537.20000000298,138536.20000000298,138080.092,138081.5,138096.762,138546.873,,32,of
screen,html.Screen,0_2_1_1_33,2021-12-03T11:25:52.043Z,,,,,,,,,,,,,,,,54,,,,,,,,,,,,,,333.92699999702745,,response,,,100,,,,,,Space,keypress(Space),,,,,-- --- ---- --- ------ ----- ------- ---- -- --- ------- --<br>------- ---------- ------ -- ----- -- ----- -- ---- ------<br>--- ----- --- --- ------ -------- ----- --- ------ ----- --<br>these ----- ---------- --- --- ------ ------ ---- -- ------<br>------- --- ------ ----- --- ---- ------- -- ---- --- --<br>------- ------,138881.5,138880.79999999702,138530.203,138537.5,138546.873,138897.014,,33,these
screen,html.Screen,0_2_1_1_34,2021-12-03T11:25:52.267Z,,,,,,,,,,,,,,,,54,,,,,,,,,,,,,,207.68600000298466,,response,,,100,,,,,,Space,keypress(Space),,,,,-- --- ---- --- ------ ----- ------- ---- -- --- ------- --<br>------- ---------- ------ -- ----- -- ----- -- ---- ------<br>--- ----- --- --- ------ -------- ----- --- ------ ----- --<br>----- bonds ---------- --- --- ------ ------ ---- -- ------<br>------- --- ------ ----- --- ---- ------- -- ---- --- --<br>------- ------,139105.5,139104.70000000298,138880.343,138881.79999999702,138897.014,139113.705,,34,bonds
screen,html.Screen,0_2_1_1_35,2021-12-03T11:25:52.514Z,,,,,,,,,,,,,,,,54,,,,,,,,,,,,,,238.49500000299304,,response,,,100,,,,,,Space,keypress(Space),,,,,"-- --- ---- --- ------ ----- ------- ---- -- --- ------- --<br>------- ---------- ------ -- ----- -- ----- -- ---- ------<br>--- ----- --- --- ------ -------- ----- --- ------ ----- --<br>----- ----- plummeted, --- --- ------ ------ ---- -- ------<br>------- --- ------ ----- --- ---- ------- -- ---- --- --<br>------- ------",139353.09999999404,139352.20000000298,139097.035,139105.79999999702,139113.705,139363.796,,35,"plummeted,"
screen,html.Screen,0_2_1_1_36,2021-12-03T11:25:53.394Z,,,,,,,,,,,,,,,,54,,,,,,,,,,,,,,868.4040000029781,,response,,,100,,,,,,Space,keypress(Space),,,,,-- --- ---- --- ------ ----- ------- ---- -- --- ------- --<br>------- ---------- ------ -- ----- -- ----- -- ---- ------<br>--- ----- --- --- ------ -------- ----- --- ------ ----- --<br>----- ----- ---------- and --- ------ ------ ---- -- ------<br>------- --- ------ ----- --- ---- ------- -- ---- --- --<br>------- ------,140233.09999999404,140232.20000000298,139347.125,139353.29999999702,139363.796,140247.226,,36,and
screen,html.Screen,0_2_1_1_37,2021-12-03T11:25:53.602Z,,,,,,,,,,,,,,,,54,,,,,,,,,,,,,,192.97400000298512,,response,,,100,,,,,,Space,keypress(Space),,,,,-- --- ---- --- ------ ----- ------- ---- -- --- ------- --<br>------- ---------- ------ -- ----- -- ----- -- ---- ------<br>--- ----- --- --- ------ -------- ----- --- ------ ----- --<br>----- ----- ---------- --- the ------ ------ ---- -- ------<br>------- --- ------ ----- --- ---- ------- -- ---- --- --<br>------- ------,140441,140440.20000000298,140230.557,140233.29999999702,140247.226,140447.38,,37,the
screen,html.Screen,0_2_1_1_38,2021-12-03T11:25:53.866Z,,,,,,,,,,,,,,,,54,,,,,,,,,,,,,,256.7199999940349,,response,,,100,,,,,,Space,keypress(Space),,,,,-- --- ---- --- ------ ----- ------- ---- -- --- ------- --<br>------- ---------- ------ -- ----- -- ----- -- ---- ------<br>--- ----- --- --- ------ -------- ----- --- ------ ----- --<br>----- ----- ---------- --- --- market ------ ---- -- ------<br>------- --- ------ ----- --- ---- ------- -- ---- --- --<br>------- ------,140705.09999999404,140704.09999999404,140430.71,140441.09999999404,140447.38,140714.106,,38,market
screen,html.Screen,0_2_1_1_39,2021-12-03T11:25:54.610Z,,,,,,,,,,,,,,,,54,,,,,,,,,,,,,,734.0940000029805,,response,,,100,,,,,,Space,keypress(Space),,,,,-- --- ---- --- ------ ----- ------- ---- -- --- ------- --<br>------- ---------- ------ -- ----- -- ----- -- ---- ------<br>--- ----- --- --- ------ -------- ----- --- ------ ----- --<br>----- ----- ---------- --- --- ------ became ---- -- ------<br>------- --- ------ ----- --- ---- ------- -- ---- --- --<br>------- ------,141448.90000000596,141448.20000000298,140697.436,140705.20000000298,140714.106,141464.397,,39,became
screen,html.Screen,0_2_1_1_40,2021-12-03T11:25:54.850Z,,,,,,,,,,,,,,,,54,,,,,,,,,,,,,,223.70299999404233,,response,,,100,,,,,,Space,keypress(Space),,,,,-- --- ---- --- ------ ----- ------- ---- -- --- ------- --<br>------- ---------- ------ -- ----- -- ----- -- ---- ------<br>--- ----- --- --- ------ -------- ----- --- ------ ----- --<br>----- ----- ---------- --- --- ------ ------ wary -- ------<br>------- --- ------ ----- --- ---- ------- -- ---- --- --<br>------- ------,141689,141688.09999999404,141447.725,141449.20000000298,141464.397,141697.713,,40,wary
screen,html.Screen,0_2_1_1_41,2021-12-03T11:25:55.498Z,,,,,,,,,,,,,,,,54,,,,,,,,,,,,,,638.4870000029914,,response,,,100,,,,,,Space,keypress(Space),,,,,-- --- ---- --- ------ ----- ------- ---- -- --- ------- --<br>------- ---------- ------ -- ----- -- ----- -- ---- ------<br>--- ----- --- --- ------ -------- ----- --- ------ ----- --<br>----- ----- ---------- --- --- ------ ------ ---- of ------<br>------- --- ------ ----- --- ---- ------- -- ---- --- --<br>------- ------,142337,142336.20000000298,141681.043,141689.20000000298,141697.713,142347.84,,41,of
screen,html.Screen,0_2_1_1_42,2021-12-03T11:25:55.722Z,,,,,,,,,,,,,,,,54,,,,,,,,,,,,,,212.1600000000035,,response,,,100,,,,,,Space,keypress(Space),,,,,-- --- ---- --- ------ ----- ------- ---- -- --- ------- --<br>------- ---------- ------ -- ----- -- ----- -- ---- ------<br>--- ----- --- --- ------ -------- ----- --- ------ ----- --<br>----- ----- ---------- --- --- ------ ------ ---- -- French<br>------- --- ------ ----- --- ---- ------- -- ---- --- --<br>------- ------,142561,142560,142331.17,142337.20000000298,142347.84,142564.591,,42,French
screen,html.Screen,0_2_1_1_43,2021-12-03T11:25:56.786Z,,,,,,,,,,,,,,,,54,,,,,,,,,,,,,,1059.4090000000142,,response,,,100,,,,,,Space,keypress(Space),,,,,-- --- ---- --- ------ ----- ------- ---- -- --- ------- --<br>------- ---------- ------ -- ----- -- ----- -- ---- ------<br>--- ----- --- --- ------ -------- ----- --- ------ ----- --<br>----- ----- ---------- --- --- ------ ------ ---- -- ------<br>credit. --- ------ ----- --- ---- ------- -- ---- --- --<br>------- ------,143624.90000000596,143624,142547.921,142561.20000000298,142564.591,143631.568,,43,credit.
screen,html.Screen,0_2_1_1_44,2021-12-03T11:25:57.042Z,,,,,,,,,,,,,,,,54,,,,,,,,,,,,,,248.4320000000007,,response,,,100,,,,,,Space,keypress(Space),,,,,-- --- ---- --- ------ ----- ------- ---- -- --- ------- --<br>------- ---------- ------ -- ----- -- ----- -- ---- ------<br>--- ----- --- --- ------ -------- ----- --- ------ ----- --<br>----- ----- ---------- --- --- ------ ------ ---- -- ------<br>------- The ------ ----- --- ---- ------- -- ---- --- --<br>------- ------,143880.79999999702,143880,143614.897,143625.09999999404,143631.568,143898.092,,44,The
screen,html.Screen,0_2_1_1_45,2021-12-03T11:25:57.642Z,,,,,,,,,,,,,,,,54,,,,,,,,,,,,,,581.8080000059563,,response,,,100,,,,,,Space,keypress(Space),,,,,-- --- ---- --- ------ ----- ------- ---- -- --- ------- --<br>------- ---------- ------ -- ----- -- ----- -- ---- ------<br>--- ----- --- --- ------ -------- ----- --- ------ ----- --<br>----- ----- ---------- --- --- ------ ------ ---- -- ------<br>------- --- French ----- --- ---- ------- -- ---- --- --<br>------- ------,144480.70000000298,144479.90000000596,143881.424,143881,143898.092,144481.701,,45,French
screen,html.Screen,0_2_1_1_46,2021-12-03T11:25:57.866Z,,,,,,,,,,,,,,,,54,,,,,,,,,,,,,,222.19900000595953,,response,,,100,,,,,,Space,keypress(Space),,,,,-- --- ---- --- ------ ----- ------- ---- -- --- ------- --<br>------- ---------- ------ -- ----- -- ----- -- ---- ------<br>--- ----- --- --- ------ -------- ----- --- ------ ----- --<br>----- ----- ---------- --- --- ------ ------ ---- -- ------<br>------- --- ------ state --- ---- ------- -- ---- --- --<br>------- ------,144704.79999999702,144703.90000000596,144465.031,144480.90000000596,144481.701,144715.062,,46,state
screen,html.Screen,0_2_1_1_47,2021-12-03T11:25:58.410Z,,,,,,,,,,,,,,,,54,,,,,,,,,,,,,,532.8380000059551,,response,,,100,,,,,,Space,keypress(Space),,,,,-- --- ---- --- ------ ----- ------- ---- -- --- ------- --<br>------- ---------- ------ -- ----- -- ----- -- ---- ------<br>--- ----- --- --- ------ -------- ----- --- ------ ----- --<br>----- ----- ---------- --- --- ------ ------ ---- -- ------<br>------- --- ------ ----- was ---- ------- -- ---- --- --<br>------- ------,145248.70000000298,145247.90000000596,144698.393,144705.09999999404,144715.062,145265.357,,47,was
screen,html.Screen,0_2_1_1_48,2021-12-03T11:25:58.618Z,,,,,,,,,,,,,,,,54,,,,,,,,,,,,,,190.5430000059714,,response,,,100,,,,,,Space,keypress(Space),,,,,-- --- ---- --- ------ ----- ------- ---- -- --- ------- --<br>------- ---------- ------ -- ----- -- ----- -- ---- ------<br>--- ----- --- --- ------ -------- ----- --- ------ ----- --<br>----- ----- ---------- --- --- ------ ------ ---- -- ------<br>------- --- ------ ----- --- left ------- -- ---- --- --<br>------- ------,145456.70000000298,145455.90000000596,145248.685,145249,145265.357,145465.347,,48,left
screen,html.Screen,0_2_1_1_49,2021-12-03T11:25:59.010Z,,,,,,,,,,,,,,,,54,,,,,,,,,,,,,,382.5530000059516,,response,,,100,,,,,,Space,keypress(Space),,,,,-- --- ---- --- ------ ----- ------- ---- -- --- ------- --<br>------- ---------- ------ -- ----- -- ----- -- ---- ------<br>--- ----- --- --- ------ -------- ----- --- ------ ----- --<br>----- ----- ---------- --- --- ------ ------ ---- -- ------<br>------- --- ------ ----- --- ---- without -- ---- --- --<br>------- ------,145848.70000000298,145847.90000000596,145448.677,145456.90000000596,145465.347,145865.414,,49,without
screen,html.Screen,0_2_1_1_50,2021-12-03T11:25:59.322Z,,,,,,,,,,,,,,,,54,,,,,,,,,,,,,,294.38599999703,,response,,,100,,,,,,Space,keypress(Space),,,,,-- --- ---- --- ------ ----- ------- ---- -- --- ------- --<br>------- ---------- ------ -- ----- -- ----- -- ---- ------<br>--- ----- --- --- ------ -------- ----- --- ------ ----- --<br>----- ----- ---------- --- --- ------ ------ ---- -- ------<br>------- --- ------ ----- --- ---- ------- an ---- --- --<br>------- ------,146160.70000000298,146159.79999999702,145848.744,145848.90000000596,145865.414,146165.58,,50,an
screen,html.Screen,0_2_1_1_51,2021-12-03T11:25:59.890Z,,,,,,,,,,,,,,,,54,,,,,,,,,,,,,,562.2199999970326,,response,,,100,,,,,,Space,keypress(Space),,,,,-- --- ---- --- ------ ----- ------- ---- -- --- ------- --<br>------- ---------- ------ -- ----- -- ----- -- ---- ------<br>--- ----- --- --- ------ -------- ----- --- ------ ----- --<br>----- ----- ---------- --- --- ------ ------ ---- -- ------<br>------- --- ------ ----- --- ---- ------- -- easy --- --<br>------- ------,146728.70000000298,146727.79999999702,146148.908,146160.90000000596,146165.58,146732.309,,51,easy
screen,html.Screen,0_2_1_1_52,2021-12-03T11:26:00.098Z,,,,,,,,,,,,,,,,54,,,,,,,,,,,,,,203.4909999970114,,response,,,100,,,,,,Space,keypress(Space),,,,,-- --- ---- --- ------ ----- ------- ---- -- --- ------- --<br>------- ---------- ------ -- ----- -- ----- -- ---- ------<br>--- ----- --- --- ------ -------- ----- --- ------ ----- --<br>----- ----- ---------- --- --- ------ ------ ---- -- ------<br>------- --- ------ ----- --- ---- ------- -- ---- way --<br>------- ------,146936.70000000298,146935.79999999702,146715.639,146728.90000000596,146732.309,146949,,52,way
screen,html.Screen,0_2_1_1_53,2021-12-03T11:26:00.714Z,,,,,,,,,,,,,,,,54,,,,,,,,,,,,,,602.7999999970198,,response,,,100,,,,,,Space,keypress(Space),,,,,-- --- ---- --- ------ ----- ------- ---- -- --- ------- --<br>------- ---------- ------ -- ----- -- ----- -- ---- ------<br>--- ----- --- --- ------ -------- ----- --- ------ ----- --<br>----- ----- ---------- --- --- ------ ------ ---- -- ------<br>------- --- ------ ----- --- ---- ------- -- ---- --- of<br>------- ------,147552.70000000298,147551.79999999702,146932.331,146936.90000000596,146949,147565.91,,53,of
screen,html.Screen,0_2_1_1_54,2021-12-03T11:26:01.202Z,,,,,,,,,,,,,,,,54,,,,,,,,,,,,,,473.8899999970163,,response,,,100,,,,,,Space,keypress(Space),,,,,-- --- ---- --- ------ ----- ------- ---- -- --- ------- --<br>------- ---------- ------ -- ----- -- ----- -- ---- ------<br>--- ----- --- --- ------ -------- ----- --- ------ ----- --<br>----- ----- ---------- --- --- ------ ------ ---- -- ------<br>------- --- ------ ----- --- ---- ------- -- ---- --- --<br>raising ------,148040.59999999404,148039.79999999702,147549.239,147552.90000000596,147565.91,148049.329,,54,raising
screen,html.Screen,0_2_1_1_55,2021-12-03T11:26:01.882Z,,,,,,,,,,,,,,,,54,,,,,,,,,,,,,,670.3710000029823,,response,,,100,,,,,,Space,keypress(Space),,,,,-- --- ---- --- ------ ----- ------- ---- -- --- ------- --<br>------- ---------- ------ -- ----- -- ----- -- ---- ------<br>--- ----- --- --- ------ -------- ----- --- ------ ----- --<br>----- ----- ---------- --- --- ------ ------ ---- -- ------<br>------- --- ------ ----- --- ---- ------- -- ---- --- --<br>------- money.,148720.59999999404,148719.70000000298,148032.659,148040.90000000596,148049.329,148732.831,,55,money.
Item 100,flow.Loop,0_2_1_1,2021-12-03T11:26:01.882Z,,,,,,,,,,,,,,,,,,,,,,,,,,,,,,31511.759000002974,,completion,,,,A,,,,,,,,,,silence,,148721,148719.70000000298,117191.271,117193.5,117207.941,148732.831,,,
Question 1,html.Screen,0_2_1_2,2021-12-03T11:26:05.372Z,,,,,,,,,,,,,,,,,,,,,,,,,,,true,TRUE,,3476.3690000029746,,response,,,100,A,,,,,TRUE,click #choice-1,,,,silence,,152210.5,152209.20000000298,148716.161,148721.09999999404,148732.831,152217.143,,,
Question 2,html.Screen,0_2_1_3,2021-12-03T11:26:08.266Z,,,,,,,,,,,,,,,,,,,,,,,,,,,true,FALSE,,2886.356999999989,,response,,,100,A,,,,,FALSE,click #choice-2,,,,silence,,155104.70000000298,155103.5,152200.471,152210.70000000298,152217.143,155117.763,,,
Item 100,flow.Sequence,0_2_1,2021-12-03T11:26:08.266Z,,,,,,,,,,,,,,,,,,,,,,,,,,,,,,47897.647,,completion,,,,,,,,,,,,,,,,155105.09999999404,155103.5,107189.163,107191.20000000298,107205.853,155117.763,,,
End of Practice,html.Page,0_2_2,2021-12-03T11:26:14.422Z,,,,,,,,,,,,,,,,,,,,,,,,,,,,,,6142.5369999970135,,form submission,,,,,,,,,,,,,,,,161260.70000000298,161260.29999999702,155101.093,155105.40000000596,155117.763,161269.269,,,
Practice,flow.Sequence,0_2,2021-12-03T11:26:14.422Z,,,,,,,,,,,,,,,,,,,,,,,,,,,,,,103284.98399999703,,completion,,,,,,,,,,,,,,,,161260.90000000596,161260.29999999702,57941.982,57959.79999999702,57975.316,161269.269,,,
Trap_instruction,html.Page,0_3_0,2021-12-03T11:26:20.263Z,,,,,,,,,,,,,,,,,,,,,,,,,,,,,,5832.13100000596,,form submission,,,,,,,,,,,,,,,,167102,167101.40000000596,161252.599,161261,161269.269,167137.592,,,
trap_trial,html.Screen,0_3_1,2021-12-03T11:26:28.535Z,,,,,,,,,,,,,,,,,,,,,,,,,,,true,1,,8234.707999997016,,response,,,,,,,,,1,click #choice-1,,,,,,175373.5,175372.29999999702,167087.576,167102.29999999702,167137.592,175389.683,,,
end of trap trial,html.Page,0_3_2,2021-12-03T11:26:30.747Z,,,,,,,,,,,,,,,,,,,,,,,,,,,,,,2195.5170000029902,,form submission,,,,,,,,,,,,,,,,177585.59999999404,177585.20000000298,175373.012,175373.70000000298,175389.683,177590.192,,,
Trap 1,flow.Sequence,0_3,2021-12-03T11:26:30.747Z,,,,,,,,,,,,,,,,,,,,,,,,,,,,,,16315.93100000298,,completion,,,,,,,,,,,,,,,,177586,177585.20000000298,161252.599,161261,161269.269,177590.192,,,
Standby,html.Page,0_4_0,2021-12-03T11:26:38.740Z,,,,,,,,,,,,,,,,,,,,,,,,,,,,,,8002.138999999996,,timeout,,,,,,,,,,,,,,,,185576.70000000298,185575.66,177573.522,177586.29999999702,177590.192,185592.331,,,
Holding screen,html.Screen,0_4_1_0_0,2021-12-03T11:26:45.742Z,,,,,,,,,,,,,,,,,,,,,,,,,,,,,,7001.608000000007,,timeout,,,,,,,,,,,,,,,,192578.70000000298,192577.27,185575.66,185577.09999999404,185592.331,192593.939,,,
screen,html.Screen,0_4_1_0_1_0,2021-12-03T11:26:47.387Z,,,,,,,,,,,,,,,,51,,,,,,,,,,,,,,1628.060999999987,,response,,,13,A,,,,,Space,keypress(Space),,,,silence,American -------- --- --- ---- --- --- ------ -- --------<br>---- --------- --- ------- ------------ ---------- ---------<br>--- ---------- ------- ---------- ------- -- -------- ----<br>---- --- ------ ----- ------ -- ---- --- ----- -- - -------<br>-------- -- --- --- -- ----- ----------- ----- -----------<br>---- --- ---------- --- ---- --- -- ----------,194223.20000000298,194222,192577.27,192579.09999999404,192593.939,194244.571,,0,American
screen,html.Screen,0_4_1_0_1_1,2021-12-03T11:26:48.162Z,,,,,,,,,,,,,,,,51,,,,,,,,,,,,,,752.629000002984,,response,,,13,A,,,,,Space,keypress(Space),,,,silence,-------- industry --- --- ---- --- --- ------ -- --------<br>---- --------- --- ------- ------------ ---------- ---------<br>--- ---------- ------- ---------- ------- -- -------- ----<br>---- --- ------ ----- ------ -- ---- --- ----- -- - -------<br>-------- -- --- --- -- ----- ----------- ----- -----------<br>---- --- ---------- --- ---- --- -- ----------,194997.90000000596,194997.20000000298,194227.9,194223.40000000596,194244.571,195011.158,,1,industry
screen,html.Screen,0_4_1_0_1_2,2021-12-03T11:26:49.529Z,,,,,,,,,,,,,,,,51,,,,,,,,,,,,,,1353.9419999940437,,response,,,13,A,,,,,Space,keypress(Space),,,,silence,-------- -------- may --- ---- --- --- ------ -- --------<br>---- --------- --- ------- ------------ ---------- ---------<br>--- ---------- ------- ---------- ------- -- -------- ----<br>---- --- ------ ----- ------ -- ---- --- ----- -- - -------<br>-------- -- --- --- -- ----- ----------- ----- -----------<br>---- --- ---------- --- ---- --- -- ----------,196365.90000000596,196365.09999999404,194994.489,194998.20000000298,195011.158,196378.424,,2,may
screen,html.Screen,0_4_1_0_1_3,2021-12-03T11:26:49.841Z,,,,,,,,,,,,,,,,51,,,,,,,,,,,,,,298.67599999404047,,response,,,13,A,,,,,Space,keypress(Space),,,,silence,-------- -------- --- not ---- --- --- ------ -- --------<br>---- --------- --- ------- ------------ ---------- ---------<br>--- ---------- ------- ---------- ------- -- -------- ----<br>---- --- ------ ----- ------ -- ---- --- ----- -- - -------<br>-------- -- --- --- -- ----- ----------- ----- -----------<br>---- --- ---------- --- ---- --- -- ----------,196677.79999999702,196677.09999999404,196361.753,196366.09999999404,196378.424,196695.194,,3,not
screen,html.Screen,0_4_1_0_1_4,2021-12-03T11:26:50.889Z,,,,,,,,,,,,,,,,51,,,,,,,,,,,,,,1029.8060000000114,,response,,,13,A,,,,,Space,keypress(Space),,,,silence,-------- -------- --- --- know --- --- ------ -- --------<br>---- --------- --- ------- ------------ ---------- ---------<br>--- ---------- ------- ---------- ------- -- -------- ----<br>---- --- ------ ----- ------ -- ---- --- ----- -- - -------<br>-------- -- --- --- -- ----- ----------- ----- -----------<br>---- --- ---------- --- ---- --- -- ----------,197725.90000000596,197725,196678.523,196678.09999999404,196695.194,197728.807,,4,know
screen,html.Screen,0_4_1_0_1_5,2021-12-03T11:26:51.185Z,,,,,,,,,,,,,,,,51,,,,,,,,,,,,,,292.1929999999993,,response,,,13,A,,,,,Space,keypress(Space),,,,silence,"-------- -------- --- --- ---- it, --- ------ -- --------<br>---- --------- --- ------- ------------ ---------- ---------<br>--- ---------- ------- ---------- ------- -- -------- ----<br>---- --- ------ ----- ------ -- ---- --- ----- -- - -------<br>-------- -- --- --- -- ----- ----------- ----- -----------<br>---- --- ---------- --- ---- --- -- ----------",198021.79999999702,198021,197712.136,197726.09999999404,197728.807,198028.947,,5,"it,"
screen,html.Screen,0_4_1_0_1_6,2021-12-03T11:26:52.481Z,,,,,,,,,,,,,,,,51,,,,,,,,,,,,,,1287.953000005975,,response,,,13,A,,,,,Space,keypress(Space),,,,silence,-------- -------- --- --- ---- --- but ------ -- --------<br>---- --------- --- ------- ------------ ---------- ---------<br>--- ---------- ------- ---------- ------- -- -------- ----<br>---- --- ------ ----- ------ -- ---- --- ----- -- - -------<br>-------- -- --- --- -- ----- ----------- ----- -----------<br>---- --- ---------- --- ---- --- -- ----------,199317.70000000298,199316.90000000596,198012.276,198022,198028.947,199329.131,,6,but
screen,html.Screen,0_4_1_0_1_7,2021-12-03T11:26:52.841Z,,,,,,,,,,,,,,,,51,,,,,,,,,,,,,,347.86900000000605,,response,,,13,A,,,,,Space,keypress(Space),,,,silence,-------- -------- --- --- ---- --- --- debate -- --------<br>---- --------- --- ------- ------------ ---------- ---------<br>--- ---------- ------- ---------- ------- -- -------- ----<br>---- --- ------ ----- ------ -- ---- --- ----- -- - -------<br>-------- -- --- --- -- ----- ----------- ----- -----------<br>---- --- ---------- --- ---- --- -- ----------,199677.79999999702,199677,199312.461,199317.90000000596,199329.131,199679.325,,7,debate
screen,html.Screen,0_4_1_0_1_8,2021-12-03T11:26:53.569Z,,,,,,,,,,,,,,,,51,,,,,,,,,,,,,,725.5750000059488,,response,,,13,A,,,,,Space,keypress(Space),,,,silence,-------- -------- --- --- ---- --- --- ------ in --------<br>---- --------- --- ------- ------------ ---------- ---------<br>--- ---------- ------- ---------- ------- -- -------- ----<br>---- --- ------ ----- ------ -- ---- --- ----- -- - -------<br>-------- -- --- --- -- ----- ----------- ----- -----------<br>---- --- ---------- --- ---- --- -- ----------,200405.59999999404,200404.90000000596,199662.654,199678,199679.325,200412.795,,8,in
screen,html.Screen,0_4_1_0_1_9,2021-12-03T11:26:54.193Z,,,,,,,,,,,,,,,,51,,,,,,,,,,,,,,616.004999997007,,response,,,13,A,,,,,Space,keypress(Space),,,,silence,-------- -------- --- --- ---- --- --- ------ -- Congress<br>---- --------- --- ------- ------------ ---------- ---------<br>--- ---------- ------- ---------- ------- -- -------- ----<br>---- --- ------ ----- ------ -- ---- --- ----- -- - -------<br>-------- -- --- --- -- ----- ----------- ----- -----------<br>---- --- ---------- --- ---- --- -- ----------,201029.79999999702,201028.79999999702,200396.125,200405.90000000596,200412.795,201046.296,,9,Congress
screen,html.Screen,0_4_1_0_1_10,2021-12-03T11:26:54.785Z,,,,,,,,,,,,,,,,51,,,,,,,,,,,,,,574.5039999970177,,response,,,13,A,,,,,Space,keypress(Space),,,,silence,-------- -------- --- --- ---- --- --- ------ -- --------<br>over --------- --- ------- ------------ ---------- ---------<br>--- ---------- ------- ---------- ------- -- -------- ----<br>---- --- ------ ----- ------ -- ---- --- ----- -- - -------<br>-------- -- --- --- -- ----- ----------- ----- -----------<br>---- --- ---------- --- ---- --- -- ----------,201621.59999999404,201620.79999999702,201029.626,201030,201046.296,201629.758,,10,over
screen,html.Screen,0_4_1_0_1_11,2021-12-03T11:26:55.137Z,,,,,,,,,,,,,,,,51,,,,,,,,,,,,,,342.9420000029786,,response,,,13,A,,,,,Space,keypress(Space),,,,silence,-------- -------- --- --- ---- --- --- ------ -- --------<br>---- reforming --- ------- ------------ ---------- ---------<br>--- ---------- ------- ---------- ------- -- -------- ----<br>---- --- ------ ----- ------ -- ---- --- ----- -- - -------<br>-------- -- --- --- -- ----- ----------- ----- -----------<br>---- --- ---------- --- ---- --- -- ----------,201973.59999999404,201972.70000000298,201613.088,201621.79999999702,201629.758,201979.771,,11,reforming
screen,html.Screen,0_4_1_0_1_12,2021-12-03T11:26:55.761Z,,,,,,,,,,,,,,,,51,,,,,,,,,,,,,,617.0289999970119,,response,,,13,A,,,,,Space,keypress(Space),,,,silence,-------- -------- --- --- ---- --- --- ------ -- --------<br>---- --------- the ------- ------------ ---------- ---------<br>--- ---------- ------- ---------- ------- -- -------- ----<br>---- --- ------ ----- ------ -- ---- --- ----- -- - -------<br>-------- -- --- --- -- ----- ----------- ----- -----------<br>---- --- ---------- --- ---- --- -- ----------,202597.59999999404,202596.79999999702,201963.102,201973.90000000596,201979.771,202613.321,,12,the
screen,html.Screen,0_4_1_0_1_13,2021-12-03T11:26:56.257Z,,,,,,,,,,,,,,,,51,,,,,,,,,,,,,,479.27899999404326,,response,,,13,A,,,,,Space,keypress(Space),,,,silence,-------- -------- --- --- ---- --- --- ------ -- --------<br>---- --------- --- federal ------------ ---------- ---------<br>--- ---------- ------- ---------- ------- -- -------- ----<br>---- --- ------ ----- ------ -- ---- --- ----- -- - -------<br>-------- -- --- --- -- ----- ----------- ----- -----------<br>---- --- ---------- --- ---- --- -- ----------,203093.5,203092.59999999404,202596.651,202597.90000000596,202613.321,203096.866,,13,federal
screen,html.Screen,0_4_1_0_1_14,2021-12-03T11:26:57.049Z,,,,,,,,,,,,,,,,51,,,,,,,,,,,,,,787.7339999940305,,response,,,13,A,,,,,Space,keypress(Space),,,,silence,-------- -------- --- --- ---- --- --- ------ -- --------<br>---- --------- --- ------- government's ---------- ---------<br>--- ---------- ------- ---------- ------- -- -------- ----<br>---- --- ------ ----- ------ -- ---- --- ----- -- - -------<br>-------- -- --- --- -- ----- ----------- ----- -----------<br>---- --- ---------- --- ---- --- -- ----------,203885.40000000596,203884.59999999404,203080.195,203093.70000000298,203096.866,203896.997,,14,government's
screen,html.Screen,0_4_1_0_1_15,2021-12-03T11:26:57.777Z,,,,,,,,,,,,,,,,51,,,,,,,,,,,,,,716.002999999997,,response,,,13,A,,,,,Space,keypress(Space),,,,silence,-------- -------- --- --- ---- --- --- ------ -- --------<br>---- --------- --- ------- ------------ regulatory ---------<br>--- ---------- ------- ---------- ------- -- -------- ----<br>---- --- ------ ----- ------ -- ---- --- ----- -- - -------<br>-------- -- --- --- -- ----- ----------- ----- -----------<br>---- --- ---------- --- ---- --- -- ----------,204613.79999999702,204613,203880.327,203885.59999999404,203896.997,204630.61,,15,regulatory
screen,html.Screen,0_4_1_0_1_16,2021-12-03T11:26:58.337Z,,,,,,,,,,,,,,,,51,,,,,,,,,,,,,,541.9899999940535,,response,,,13,A,,,,,Space,keypress(Space),,,,silence,-------- -------- --- --- ---- --- --- ------ -- --------<br>---- --------- --- ------- ------------ ---------- apparatus<br>--- ---------- ------- ---------- ------- -- -------- ----<br>---- --- ------ ----- ------ -- ---- --- ----- -- - -------<br>-------- -- --- --- -- ----- ----------- ----- -----------<br>---- --- ---------- --- ---- --- -- ----------,205173.29999999702,205172.59999999404,204613.939,204614,204630.61,205180.695,,16,apparatus
screen,html.Screen,0_4_1_0_1_17,2021-12-03T11:26:59.073Z,,,,,,,,,,,,,,,,51,,,,,,,,,,,,,,727.9049999940326,,response,,,13,A,,,,,Space,keypress(Space),,,,silence,-------- -------- --- --- ---- --- --- ------ -- --------<br>---- --------- --- ------- ------------ ---------- ---------<br>may ---------- ------- ---------- ------- -- -------- ----<br>---- --- ------ ----- ------ -- ---- --- ----- -- - -------<br>-------- -- --- --- -- ----- ----------- ----- -----------<br>---- --- ---------- --- ---- --- -- ----------,205909.29999999702,205908.59999999404,205164.025,205173.59999999404,205180.695,205914.187,,17,may
screen,html.Screen,0_4_1_0_1_18,2021-12-03T11:26:59.417Z,,,,,,,,,,,,,,,,51,,,,,,,,,,,,,,338.4129999940342,,response,,,13,A,,,,,Space,keypress(Space),,,,silence,-------- -------- --- --- ---- --- --- ------ -- --------<br>---- --------- --- ------- ------------ ---------- ---------<br>--- profoundly ------- ---------- ------- -- -------- ----<br>---- --- ------ ----- ------ -- ---- --- ----- -- - -------<br>-------- -- --- --- -- ----- ----------- ----- -----------<br>---- --- ---------- --- ---- --- -- ----------,206253.40000000596,206252.59999999404,205897.517,205909.59999999404,205914.187,206264.285,,18,profoundly
screen,html.Screen,0_4_1_0_1_19,2021-12-03T11:27:00.081Z,,,,,,,,,,,,,,,,51,,,,,,,,,,,,,,652.2149999999965,,response,,,13,A,,,,,Space,keypress(Space),,,,silence,-------- -------- --- --- ---- --- --- ------ -- --------<br>---- --------- --- ------- ------------ ---------- ---------<br>--- ---------- improve ---------- ------- -- -------- ----<br>---- --- ------ ----- ------ -- ---- --- ----- -- - -------<br>-------- -- --- --- -- ----- ----------- ----- -----------<br>---- --- ---------- --- ---- --- -- ----------,206917.20000000298,206916.5,206247.615,206253.59999999404,206264.285,206931.179,,19,improve
screen,html.Screen,0_4_1_0_1_20,2021-12-03T11:27:01.369Z,,,,,,,,,,,,,,,,51,,,,,,,,,,,,,,1273.3209999999963,,response,,,13,A,,,,,Space,keypress(Space),,,,silence,-------- -------- --- --- ---- --- --- ------ -- --------<br>---- --------- --- ------- ------------ ---------- ---------<br>--- ---------- ------- companies' ------- -- -------- ----<br>---- --- ------ ----- ------ -- ---- --- ----- -- - -------<br>-------- -- --- --- -- ----- ----------- ----- -----------<br>---- --- ---------- --- ---- --- -- ----------,208205.20000000298,208204.5,206914.508,206917.5,206931.179,208214.47,,20,companies'
screen,html.Screen,0_4_1_0_1_21,2021-12-03T11:27:01.769Z,,,,,,,,,,,,,,,,51,,,,,,,,,,,,,,389.9300000059593,,response,,,13,A,,,,,Space,keypress(Space),,,,silence,-------- -------- --- --- ---- --- --- ------ -- --------<br>---- --------- --- ------- ------------ ---------- ---------<br>--- ---------- ------- ---------- ability -- -------- ----<br>---- --- ------ ----- ------ -- ---- --- ----- -- - -------<br>-------- -- --- --- -- ----- ----------- ----- -----------<br>---- --- ---------- --- ---- --- -- ----------,208605.20000000298,208604.40000000596,208197.802,208205.5,208214.47,208615.05,,21,ability
screen,html.Screen,0_4_1_0_1_22,2021-12-03T11:27:02.249Z,,,,,,,,,,,,,,,,51,,,,,,,,,,,,,,469.3500000059721,,response,,,13,A,,,,,Space,keypress(Space),,,,silence,-------- -------- --- --- ---- --- --- ------ -- --------<br>---- --------- --- ------- ------------ ---------- ---------<br>--- ---------- ------- ---------- ------- to -------- ----<br>---- --- ------ ----- ------ -- ---- --- ----- -- - -------<br>-------- -- --- --- -- ----- ----------- ----- -----------<br>---- --- ---------- --- ---- --- -- ----------,209085.40000000596,209084.40000000596,208598.378,208605.40000000596,208615.05,209098.369,,22,to
screen,html.Screen,0_4_1_0_1_23,2021-12-03T11:27:05.769Z,,,,,,,,,,,,,,,,51,,,,,,,,,,,,,,3505.9309999970137,,response,,,13,A,,,,,Space,keypress(Space),,,,silence,-------- -------- --- --- ---- --- --- ------ -- --------<br>---- --------- --- ------- ------------ ---------- ---------<br>--- ---------- ------- ---------- ------- -- survive. ----<br>---- --- ------ ----- ------ -- ---- --- ----- -- - -------<br>-------- -- --- --- -- ----- ----------- ----- -----------<br>---- --- ---------- --- ---- --- -- ----------,212605.09999999404,212604.29999999702,209081.699,209085.5,209098.369,212615.991,,23,survive.
screen,html.Screen,0_4_1_0_1_24,2021-12-03T11:27:06.225Z,,,,,,,,,,,,,,,,51,,,,,,,,,,,,,,444.20900000297115,,response,,,13,A,,,,,Space,keypress(Space),,,,silence,-------- -------- --- --- ---- --- --- ------ -- --------<br>---- --------- --- ------- ------------ ---------- ---------<br>--- ---------- ------- ---------- ------- -- -------- This<br>---- --- ------ ----- ------ -- ---- --- ----- -- - -------<br>-------- -- --- --- -- ----- ----------- ----- -----------<br>---- --- ---------- --- ---- --- -- ----------,213061,213060.20000000298,212599.32,212605.20000000298,212615.991,213065.815,,24,This
screen,html.Screen,0_4_1_0_1_25,2021-12-03T11:27:06.928Z,,,,,,,,,,,,,,,,51,,,,,,,,,,,,,,698.3850000029779,,response,,,13,A,,,,,Space,keypress(Space),,,,silence,-------- -------- --- --- ---- --- --- ------ -- --------<br>---- --------- --- ------- ------------ ---------- ---------<br>--- ---------- ------- ---------- ------- -- -------- ----<br>week --- ------ ----- ------ -- ---- --- ----- -- - -------<br>-------- -- --- --- -- ----- ----------- ----- -----------<br>---- --- ---------- --- ---- --- -- ----------,213764.90000000596,213764.20000000298,213049.146,213061.20000000298,213065.815,213766.148,,25,week
screen,html.Screen,0_4_1_0_1_26,2021-12-03T11:27:07.385Z,,,,,,,,,,,,,,,,51,,,,,,,,,,,,,,454.05200000299374,,response,,,13,A,,,,,Space,keypress(Space),,,,silence,-------- -------- --- --- ---- --- --- ------ -- --------<br>---- --------- --- ------- ------------ ---------- ---------<br>--- ---------- ------- ---------- ------- -- -------- ----<br>---- the ------ ----- ------ -- ---- --- ----- -- - -------<br>-------- -- --- --- -- ----- ----------- ----- -----------<br>---- --- ---------- --- ---- --- -- ----------,214221,214220.20000000298,213749.478,213765.20000000298,213766.148,214233.182,,26,the
screen,html.Screen,0_4_1_0_1_27,2021-12-03T11:27:08.345Z,,,,,,,,,,,,,,,,51,,,,,,,,,,,,,,947.3179999999993,,response,,,13,A,,,,,Space,keypress(Space),,,,silence,-------- -------- --- --- ---- --- --- ------ -- --------<br>---- --------- --- ------- ------------ ---------- ---------<br>--- ---------- ------- ---------- ------- -- -------- ----<br>---- --- Senate ----- ------ -- ---- --- ----- -- - -------<br>-------- -- --- --- -- ----- ----------- ----- -----------<br>---- --- ---------- --- ---- --- -- ----------,215181.29999999702,215180.5,214216.509,214221.29999999702,214233.182,215183.314,,27,Senate
screen,html.Screen,0_4_1_0_1_28,2021-12-03T11:27:08.705Z,,,,,,,,,,,,,,,,51,,,,,,,,,,,,,,356.8860000029672,,response,,,13,A,,,,,Space,keypress(Space),,,,silence,-------- -------- --- --- ---- --- --- ------ -- --------<br>---- --------- --- ------- ------------ ---------- ---------<br>--- ---------- ------- ---------- ------- -- -------- ----<br>---- --- ------ seems ------ -- ---- --- ----- -- - -------<br>-------- -- --- --- -- ----- ----------- ----- -----------<br>---- --- ---------- --- ---- --- -- ----------,215540.90000000596,215540.20000000298,215166.643,215181.59999999404,215183.314,215549.996,,28,seems
screen,html.Screen,0_4_1_0_1_29,2021-12-03T11:27:09.776Z,,,,,,,,,,,,,,,,51,,,,,,,,,,,,,,1062.0039999999863,,response,,,13,A,,,,,Space,keypress(Space),,,,silence,-------- -------- --- --- ---- --- --- ------ -- --------<br>---- --------- --- ------- ------------ ---------- ---------<br>--- ---------- ------- ---------- ------- -- -------- ----<br>---- --- ------ ----- poised -- ---- --- ----- -- - -------<br>-------- -- --- --- -- ----- ----------- ----- -----------<br>---- --- ---------- --- ---- --- -- ----------,216612.90000000596,216612,215533.326,215541.29999999702,215549.996,216616.935,,29,poised
screen,html.Screen,0_4_1_0_1_30,2021-12-03T11:27:10.088Z,,,,,,,,,,,,,,,,51,,,,,,,,,,,,,,307.0650000000023,,response,,,13,A,,,,,Space,keypress(Space),,,,silence,-------- -------- --- --- ---- --- --- ------ -- --------<br>---- --------- --- ------- ------------ ---------- ---------<br>--- ---------- ------- ---------- ------- -- -------- ----<br>---- --- ------ ----- ------ to ---- --- ----- -- - -------<br>-------- -- --- --- -- ----- ----------- ----- -----------<br>---- --- ---------- --- ---- --- -- ----------,216924.79999999702,216924,216600.265,216613.20000000298,216616.935,216933.721,,30,to
screen,html.Screen,0_4_1_0_1_31,2021-12-03T11:27:11.176Z,,,,,,,,,,,,,,,,51,,,,,,,,,,,,,,1078.17900000597,,response,,,13,A,,,,,Space,keypress(Space),,,,silence,-------- -------- --- --- ---- --- --- ------ -- --------<br>---- --------- --- ------- ------------ ---------- ---------<br>--- ---------- ------- ---------- ------- -- -------- ----<br>---- --- ------ ----- ------ -- join --- ----- -- - -------<br>-------- -- --- --- -- ----- ----------- ----- -----------<br>---- --- ---------- --- ---- --- -- ----------,218012.79999999702,218011.90000000596,216917.051,216926.90000000596,216933.721,218017.305,,31,join
screen,html.Screen,0_4_1_0_1_32,2021-12-03T11:27:11.448Z,,,,,,,,,,,,,,,,51,,,,,,,,,,,,,,266.59500000596745,,response,,,13,A,,,,,Space,keypress(Space),,,,silence,-------- -------- --- --- ---- --- --- ------ -- --------<br>---- --------- --- ------- ------------ ---------- ---------<br>--- ---------- ------- ---------- ------- -- -------- ----<br>---- --- ------ ----- ------ -- ---- the ----- -- - -------<br>-------- -- --- --- -- ----- ----------- ----- -----------<br>---- --- ---------- --- ---- --- -- ----------,218284.79999999702,218283.90000000596,218000.635,218013.09999999404,218017.305,218300.728,,32,the
screen,html.Screen,0_4_1_0_1_33,2021-12-03T11:27:11.768Z,,,,,,,,,,,,,,,,51,,,,,,,,,,,,,,303.17200000595767,,response,,,13,A,,,,,Space,keypress(Space),,,,silence,-------- -------- --- --- ---- --- --- ------ -- --------<br>---- --------- --- ------- ------------ ---------- ---------<br>--- ---------- ------- ---------- ------- -- -------- ----<br>---- --- ------ ----- ------ -- ---- --- House -- - -------<br>-------- -- --- --- -- ----- ----------- ----- -----------<br>---- --- ---------- --- ---- --- -- ----------,218604.59999999404,218603.90000000596,218284.058,218285.09999999404,218300.728,218617.479,,33,House
screen,html.Screen,0_4_1_0_1_34,2021-12-03T11:27:12.272Z,,,,,,,,,,,,,,,,51,,,,,,,,,,,,,,490.4210000059684,,response,,,13,A,,,,,Space,keypress(Space),,,,silence,-------- -------- --- --- ---- --- --- ------ -- --------<br>---- --------- --- ------- ------------ ---------- ---------<br>--- ---------- ------- ---------- ------- -- -------- ----<br>---- --- ------ ----- ------ -- ---- --- ----- in - -------<br>-------- -- --- --- -- ----- ----------- ----- -----------<br>---- --- ---------- --- ---- --- -- ----------,219108.59999999404,219107.90000000596,218600.809,218604.79999999702,218617.479,219117.702,,34,in
screen,html.Screen,0_4_1_0_1_35,2021-12-03T11:27:12.728Z,,,,,,,,,,,,,,,,51,,,,,,,,,,,,,,446.09799999702955,,response,,,13,A,,,,,Space,keypress(Space),,,,silence,-------- -------- --- --- ---- --- --- ------ -- --------<br>---- --------- --- ------- ------------ ---------- ---------<br>--- ---------- ------- ---------- ------- -- -------- ----<br>---- --- ------ ----- ------ -- ---- --- ----- -- a -------<br>-------- -- --- --- -- ----- ----------- ----- -----------<br>---- --- ---------- --- ---- --- -- ----------,219564.59999999404,219563.79999999702,219101.03,219108.79999999702,219117.702,219567.726,,35,a
screen,html.Screen,0_4_1_0_1_36,2021-12-03T11:27:13.064Z,,,,,,,,,,,,,,,,51,,,,,,,,,,,,,,332.07399999702466,,response,,,13,A,,,,,Space,keypress(Space),,,,silence,-------- -------- --- --- ---- --- --- ------ -- --------<br>---- --------- --- ------- ------------ ---------- ---------<br>--- ---------- ------- ---------- ------- -- -------- ----<br>---- --- ------ ----- ------ -- ---- --- ----- -- - massive<br>-------- -- --- --- -- ----- ----------- ----- -----------<br>---- --- ---------- --- ---- --- -- ----------,219900.59999999404,219899.79999999702,219551.056,219564.90000000596,219567.726,219917.832,,36,massive
screen,html.Screen,0_4_1_0_1_37,2021-12-03T11:27:13.760Z,,,,,,,,,,,,,,,,51,,,,,,,,,,,,,,677.9679999970249,,response,,,13,A,,,,,Space,keypress(Space),,,,silence,-------- -------- --- --- ---- --- --- ------ -- --------<br>---- --------- --- ------- ------------ ---------- ---------<br>--- ---------- ------- ---------- ------- -- -------- ----<br>---- --- ------ ----- ------ -- ---- --- ----- -- - -------<br>overhaul -- --- --- -- ----- ----------- ----- -----------<br>---- --- ---------- --- ---- --- -- ----------,220596.59999999404,220595.79999999702,219901.162,219900.79999999702,219917.832,220601.307,,37,overhaul
screen,html.Screen,0_4_1_0_1_38,2021-12-03T11:27:14.144Z,,,,,,,,,,,,,,,,51,,,,,,,,,,,,,,378.39300000297953,,response,,,13,A,,,,,Space,keypress(Space),,,,silence,-------- -------- --- --- ---- --- --- ------ -- --------<br>---- --------- --- ------- ------------ ---------- ---------<br>--- ---------- ------- ---------- ------- -- -------- ----<br>---- --- ------ ----- ------ -- ---- --- ----- -- - -------<br>-------- of --- --- -- ----- ----------- ----- -----------<br>---- --- ---------- --- ---- --- -- ----------,220980.5,220979.70000000298,220584.637,220596.79999999702,220601.307,220984.803,,38,of
screen,html.Screen,0_4_1_0_1_39,2021-12-03T11:27:14.408Z,,,,,,,,,,,,,,,,51,,,,,,,,,,,,,,258.8970000029658,,response,,,13,A,,,,,Space,keypress(Space),,,,silence,-------- -------- --- --- ---- --- --- ------ -- --------<br>---- --------- --- ------- ------------ ---------- ---------<br>--- ---------- ------- ---------- ------- -- -------- ----<br>---- --- ------ ----- ------ -- ---- --- ----- -- - -------<br>-------- -- the --- -- ----- ----------- ----- -----------<br>---- --- ---------- --- ---- --- -- ----------,221244.59999999404,221243.70000000298,220968.132,220980.70000000298,220984.803,221251.492,,39,the
screen,html.Screen,0_4_1_0_1_40,2021-12-03T11:27:14.752Z,,,,,,,,,,,,,,,,51,,,,,,,,,,,,,,336.20800000298186,,response,,,13,A,,,,,Space,keypress(Space),,,,silence,-------- -------- --- --- ---- --- --- ------ -- --------<br>---- --------- --- ------- ------------ ---------- ---------<br>--- ---------- ------- ---------- ------- -- -------- ----<br>---- --- ------ ----- ------ -- ---- --- ----- -- - -------<br>-------- -- --- way -- ----- ----------- ----- -----------<br>---- --- ---------- --- ---- --- -- ----------,221588.59999999404,221587.70000000298,221234.822,221244.70000000298,221251.492,221601.617,,40,way
screen,html.Screen,0_4_1_0_1_41,2021-12-03T11:27:15.152Z,,,,,,,,,,,,,,,,51,,,,,,,,,,,,,,386.08300000298186,,response,,,13,A,,,,,Space,keypress(Space),,,,silence,-------- -------- --- --- ---- --- --- ------ -- --------<br>---- --------- --- ------- ------------ ---------- ---------<br>--- ---------- ------- ---------- ------- -- -------- ----<br>---- --- ------ ----- ------ -- ---- --- ----- -- - -------<br>-------- -- --- --- in ----- ----------- ----- -----------<br>---- --- ---------- --- ---- --- -- ----------,221988.5,221987.70000000298,221584.946,221588.70000000298,221601.617,222001.734,,41,in
screen,html.Screen,0_4_1_0_1_42,2021-12-03T11:27:15.504Z,,,,,,,,,,,,,,,,51,,,,,,,,,,,,,,337.9660000029835,,response,,,13,A,,,,,Space,keypress(Space),,,,silence,-------- -------- --- --- ---- --- --- ------ -- --------<br>---- --------- --- ------- ------------ ---------- ---------<br>--- ---------- ------- ---------- ------- -- -------- ----<br>---- --- ------ ----- ------ -- ---- --- ----- -- - -------<br>-------- -- --- --- -- which ----------- ----- -----------<br>---- --- ---------- --- ---- --- -- ----------,222340.5,222339.70000000298,221985.063,221988.79999999702,222001.734,222351.782,,42,which
screen,html.Screen,0_4_1_0_1_43,2021-12-03T11:27:17.160Z,,,,,,,,,,,,,,,,51,,,,,,,,,,,,,,1643.817999994033,,response,,,13,A,,,,,Space,keypress(Space),,,,silence,-------- -------- --- --- ---- --- --- ------ -- --------<br>---- --------- --- ------- ------------ ---------- ---------<br>--- ---------- ------- ---------- ------- -- -------- ----<br>---- --- ------ ----- ------ -- ---- --- ----- -- - -------<br>-------- -- --- --- -- ----- bureaucrats ----- -----------<br>---- --- ---------- --- ---- --- -- ----------,223996.5,223995.59999999404,222335.112,222340.70000000298,222351.782,224002.127,,43,bureaucrats
screen,html.Screen,0_4_1_0_1_44,2021-12-03T11:27:17.456Z,,,,,,,,,,,,,,,,51,,,,,,,,,,,,,,289.3729999999923,,response,,,13,A,,,,,Space,keypress(Space),,,,silence,-------- -------- --- --- ---- --- --- ------ -- --------<br>---- --------- --- ------- ------------ ---------- ---------<br>--- ---------- ------- ---------- ------- -- -------- ----<br>---- --- ------ ----- ------ -- ---- --- ----- -- - -------<br>-------- -- --- --- -- ----- ----------- enact -----------<br>---- --- ---------- --- ---- --- -- ----------,224292.29999999702,224291.5,223985.457,223996.79999999702,224002.127,224302.353,,44,enact
screen,html.Screen,0_4_1_0_1_45,2021-12-03T11:27:18.160Z,,,,,,,,,,,,,,,,51,,,,,,,,,,,,,,693.2469999940367,,response,,,13,A,,,,,Space,keypress(Space),,,,silence,-------- -------- --- --- ---- --- --- ------ -- --------<br>---- --------- --- ------- ------------ ---------- ---------<br>--- ---------- ------- ---------- ------- -- -------- ----<br>---- --- ------ ----- ------ -- ---- --- ----- -- - -------<br>-------- -- --- --- -- ----- ----------- ----- regulations<br>---- --- ---------- --- ---- --- -- ----------,224996.29999999702,224995.59999999404,224285.682,224292.70000000298,224302.353,225002.423,,45,regulations
screen,html.Screen,0_4_1_0_1_46,2021-12-03T11:27:18.992Z,,,,,,,,,,,,,,,,51,,,,,,,,,,,,,,825.37699999701,,response,,,13,A,,,,,Space,keypress(Space),,,,silence,-------- -------- --- --- ---- --- --- ------ -- --------<br>---- --------- --- ------- ------------ ---------- ---------<br>--- ---------- ------- ---------- ------- -- -------- ----<br>---- --- ------ ----- ------ -- ---- --- ----- -- - -------<br>-------- -- --- --- -- ----- ----------- ----- -----------<br>that --- ---------- --- ---- --- -- ----------,225828.70000000298,225827.79999999702,224985.753,224996.70000000298,225002.423,225836.153,,46,that
screen,html.Screen,0_4_1_0_1_47,2021-12-03T11:27:19.248Z,,,,,,,,,,,,,,,,51,,,,,,,,,,,,,,247.14699999702862,,response,,,13,A,,,,,Space,keypress(Space),,,,silence,-------- -------- --- --- ---- --- --- ------ -- --------<br>---- --------- --- ------- ------------ ---------- ---------<br>--- ---------- ------- ---------- ------- -- -------- ----<br>---- --- ------ ----- ------ -- ---- --- ----- -- - -------<br>-------- -- --- --- -- ----- ----------- ----- -----------<br>---- are ---------- --- ---- --- -- ----------,226084.09999999404,226083.29999999702,225819.481,225828.90000000596,225836.153,226086.066,,47,are
screen,html.Screen,0_4_1_0_1_48,2021-12-03T11:27:20.288Z,,,,,,,,,,,,,,,,51,,,,,,,,,,,,,,1037.2339999970281,,response,,,13,A,,,,,Space,keypress(Space),,,,silence,-------- -------- --- --- ---- --- --- ------ -- --------<br>---- --------- --- ------- ------------ ---------- ---------<br>--- ---------- ------- ---------- ------- -- -------- ----<br>---- --- ------ ----- ------ -- ---- --- ----- -- - -------<br>-------- -- --- --- -- ----- ----------- ----- -----------<br>---- --- strangling --- ---- --- -- ----------,227124.09999999404,227123.29999999702,226069.396,226084.5,226086.066,227136.314,,48,strangling
screen,html.Screen,0_4_1_0_1_49,2021-12-03T11:27:20.576Z,,,,,,,,,,,,,,,,51,,,,,,,,,,,,,,275.0860000059474,,response,,,13,A,,,,,Space,keypress(Space),,,,silence,-------- -------- --- --- ---- --- --- ------ -- --------<br>---- --------- --- ------- ------------ ---------- ---------<br>--- ---------- ------- ---------- ------- -- -------- ----<br>---- --- ------ ----- ------ -- ---- --- ----- -- - -------<br>-------- -- --- --- -- ----- ----------- ----- -----------<br>---- --- ---------- the ---- --- -- ----------,227412.20000000298,227411.40000000596,227119.644,227124.5,227136.314,227419.76,,49,the
screen,html.Screen,0_4_1_0_1_50,2021-12-03T11:27:20.952Z,,,,,,,,,,,,,,,,51,,,,,,,,,,,,,,367.53999999701045,,response,,,13,A,,,,,Space,keypress(Space),,,,silence,-------- -------- --- --- ---- --- --- ------ -- --------<br>---- --------- --- ------- ------------ ---------- ---------<br>--- ---------- ------- ---------- ------- -- -------- ----<br>---- --- ------ ----- ------ -- ---- --- ----- -- - -------<br>-------- -- --- --- -- ----- ----------- ----- -----------<br>---- --- ---------- --- life --- -- ----------,227788.09999999404,227787.29999999702,227403.09,227412.40000000596,227419.76,227803.188,,50,life
