sender,sender_type,sender_id,timestamp,meta,,Blues,Classical,Country,Dance,Electronic,Folk,Gospel,Hip-Hop,Jazz,Latin,Musical/Film,New-age,Pop,Provo_ID,R&B,Rap,Reggae,Religious,Rock,Soul,Swing,Traditional,age,artist_name,correct,correctResponse,distraction,duration,education,ended_on,familiarity,gender,item,list,music_frequency,offensiveness,pleasantness,preference,response,response_action,snippet_file,song_name,song_rating,sound,text,time_commit,time_end,time_render,time_run,time_show,time_switch,url,word,word_ID
Instructions,html.Page,0_0,2021-12-10T12:05:18.418Z,"{""labjs_version"":""20.2.3"",""labjs_build"":{""flavor"":""production"",""commit"":""7ea907d66ca8aeef8054924ca5d82ffbe11e34e5""},""location"":""https://run.pavlovia.org/mvasilev/lab_music_e/"",""userAgent"":""Mozilla/5.0 (Windows NT 6.1; Win64; x64) AppleWebKit/537.36 (KHTML, like Gecko) Chrome/96.0.4664.93 Safari/537.36"",""platform"":""Win32"",""language"":""en-US"",""locale"":""en-US"",""timeZone"":""Europe/London"",""timezoneOffset"":0,""screen_width"":1920,""screen_height"":1080,""scroll_width"":1920,""scroll_height"":959,""window_innerWidth"":1920,""window_innerHeight"":1007,""devicePixelRatio"":1}",,,,,,,,,,,,,,,,,,,,,,,,,,,,,30886.251999976157,,form submission,,,,,,,,,,,,,,,,46751.59999996424,46750.39999997616,15830.808,15845.099999964237,15864.148,46752.298,{},,
Headphones,html.Page,0_1,2021-12-10T12:05:21.371Z,,,,,,,,,,,,,,,,,,,,,,,,,,,,,,2951.8019999642347,,form submission,,,,,,,,,,,,,,,,49704.59999996424,49704.09999996424,46735.64,46752.39999997616,46752.298,49703.749,,,
Holding screen,html.Screen,0_2_0_0,2021-12-10T12:05:31.365Z,,,,,,,,,,,,,,,,,,,,,,,,,,,,,,10021.330999999998,,timeout,,,,,,,,,,,,,,,,59698.59999996424,59691.742,49687.09,49705.09999996424,49703.749,59725.08,,,
screen,html.Screen,0_2_0_1_0,2021-12-10T12:05:32.498Z,,,,,,,,,,,,,,,,53,,,,,,,,,,,,,,1100.1199999880773,,response,,,99,,,,,,Space,keypress(Space),,,,,When -- ----- -- ------ - ------- --- ----------<br>------------- ------ ------ ---- ---- ------- ----- -- ----<br>-------- ------- -- ---------- --- - --- ----- ----- ----<br>---- --- --- ----- --- ---- ---- ------- ----- ---- -------<br>--- --- -- ----- -- --- ---- -- --- ---- -- ------ ------<br>--- ----- -- ----,60826.59999996424,60825.19999998808,59691.742,59699,59725.08,60842.293,,0,When
screen,html.Screen,0_2_0_1_1,2021-12-10T12:05:32.849Z,,,,,,,,,,,,,,,,53,,,,,,,,,,,,,,334.5070000119231,,response,,,99,,,,,,Space,keypress(Space),,,,,---- it ----- -- ------ - ------- --- ----------<br>------------- ------ ------ ---- ---- ------- ----- -- ----<br>-------- ------- -- ---------- --- - --- ----- ----- ----<br>---- --- --- ----- --- ---- ---- ------- ----- ---- -------<br>--- --- -- ----- -- --- ---- -- --- ---- -- ------ ------<br>--- ----- -- ----,61177.80000001192,61176.80000001192,60825.622,60827,60842.293,61192.308,,1,it
screen,html.Screen,0_2_0_1_2,2021-12-10T12:05:33.249Z,,,,,,,,,,,,,,,,53,,,,,,,,,,,,,,384.49200001192366,,response,,,99,,,,,,Space,keypress(Space),,,,,---- -- comes -- ------ - ------- --- ----------<br>------------- ------ ------ ---- ---- ------- ----- -- ----<br>-------- ------- -- ---------- --- - --- ----- ----- ----<br>---- --- --- ----- --- ---- ---- ------- ----- ---- -------<br>--- --- -- ----- -- --- ---- -- --- ---- -- ------ ------<br>--- ----- -- ----,61577.80000001192,61576.80000001192,61175.638,61178,61192.308,61592.373,,2,comes
screen,html.Screen,0_2_0_1_3,2021-12-10T12:05:33.585Z,,,,,,,,,,,,,,,,53,,,,,,,,,,,,,,320.42700001192134,,response,,,99,,,,,,Space,keypress(Space),,,,,---- -- ----- to ------ - ------- --- ----------<br>------------- ------ ------ ---- ---- ------- ----- -- ----<br>-------- ------- -- ---------- --- - --- ----- ----- ----<br>---- --- --- ----- --- ---- ---- ------- ----- ---- -------<br>--- --- -- ----- -- --- ---- -- --- ---- -- ------ ------<br>--- ----- -- ----,61913.89999997616,61912.80000001192,61575.703,61578.09999996424,61592.373,61925.93,,3,to
screen,html.Screen,0_2_0_1_4,2021-12-10T12:05:33.985Z,,,,,,,,,,,,,,,,53,,,,,,,,,,,,,,386.7699999880788,,response,,,99,,,,,,Space,keypress(Space),,,,,---- -- ----- -- having - ------- --- ----------<br>------------- ------ ------ ---- ---- ------- ----- -- ----<br>-------- ------- -- ---------- --- - --- ----- ----- ----<br>---- --- --- ----- --- ---- ---- ------- ----- ---- -------<br>--- --- -- ----- -- --- ---- -- --- ---- -- ------ ------<br>--- ----- -- ----,62314,62312.69999998808,61909.258,61914.5,61925.93,62325.981,,4,having
screen,html.Screen,0_2_0_1_5,2021-12-10T12:05:34.337Z,,,,,,,,,,,,,,,,53,,,,,,,,,,,,,,338.61899996423745,,response,,,99,,,,,,Space,keypress(Space),,,,,---- -- ----- -- ------ a ------- --- ----------<br>------------- ------ ------ ---- ---- ------- ----- -- ----<br>-------- ------- -- ---------- --- - --- ----- ----- ----<br>---- --- --- ----- --- ---- ---- ------- ----- ---- -------<br>--- --- -- ----- -- --- ---- -- --- ---- -- ------ ------<br>--- ----- -- ----,62665.59999996424,62664.59999996424,62309.31,62314.30000001192,62325.981,62676.035,,5,a
screen,html.Screen,0_2_0_1_6,2021-12-10T12:05:34.681Z,,,,,,,,,,,,,,,,53,,,,,,,,,,,,,,332.6649999880756,,response,,,99,,,,,,Space,keypress(Space),,,,,---- -- ----- -- ------ - lasting --- ----------<br>------------- ------ ------ ---- ---- ------- ----- -- ----<br>-------- ------- -- ---------- --- - --- ----- ----- ----<br>---- --- --- ----- --- ---- ---- ------- ----- ---- -------<br>--- --- -- ----- -- --- ---- -- --- ---- -- ------ ------<br>--- ----- -- ----,63009.59999996424,63008.69999998808,62659.365,62666.19999998808,62676.035,63026.11,,6,lasting
screen,html.Screen,0_2_0_1_7,2021-12-10T12:05:35.065Z,,,,,,,,,,,,,,,,53,,,,,,,,,,,,,,366.5899999880785,,response,,,99,,,,,,Space,keypress(Space),,,,,---- -- ----- -- ------ - ------- and ----------<br>------------- ------ ------ ---- ---- ------- ----- -- ----<br>-------- ------- -- ---------- --- - --- ----- ----- ----<br>---- --- --- ----- --- ---- ---- ------- ----- ---- -------<br>--- --- -- ----- -- --- ---- -- --- ---- -- ------ ------<br>--- ----- -- ----,63393.59999996424,63392.69999998808,63009.44,63009.89999997616,63026.11,63409.558,,7,and
screen,html.Screen,0_2_0_1_8,2021-12-10T12:05:35.433Z,,,,,,,,,,,,,,,,53,,,,,,,,,,,,,,351.04199996423995,,response,,,99,,,,,,Space,keypress(Space),,,,,---- -- ----- -- ------ - ------- --- fulfilling<br>------------- ------ ------ ---- ---- ------- ----- -- ----<br>-------- ------- -- ---------- --- - --- ----- ----- ----<br>---- --- --- ----- --- ---- ---- ------- ----- ---- -------<br>--- --- -- ----- -- --- ---- -- --- ---- -- ------ ------<br>--- ----- -- ----,63761.80000001192,63760.59999996424,63392.888,63393.89999997616,63409.558,63776.353,,8,fulfilling
screen,html.Screen,0_2_0_1_9,2021-12-10T12:05:35.848Z,,,,,,,,,,,,,,,,53,,,,,,,,,,,,,,400.2469999642344,,response,,,99,,,,,,Space,keypress(Space),,,,,"---- -- ----- -- ------ - ------- --- ----------<br>relationship, ------ ------ ---- ---- ------- ----- -- ----<br>-------- ------- -- ---------- --- - --- ----- ----- ----<br>---- --- --- ----- --- ---- ---- ------- ----- ---- -------<br>--- --- -- ----- -- --- ---- -- --- ---- -- ------ ------<br>--- ----- -- ----",64177.59999996424,64176.59999996424,63759.682,63762.09999996424,63776.353,64193.023,,9,"relationship,"
screen,html.Screen,0_2_0_1_10,2021-12-10T12:05:36.224Z,,,,,,,,,,,,,,,,53,,,,,,,,,,,,,,359.57699996423617,,response,,,99,,,,,,Space,keypress(Space),,,,,---- -- ----- -- ------ - ------- --- ----------<br>------------- common ------ ---- ---- ------- ----- -- ----<br>-------- ------- -- ---------- --- - --- ----- ----- ----<br>---- --- --- ----- --- ---- ---- ------- ----- ---- -------<br>--- --- -- ----- -- --- ---- -- --- ---- -- ------ ------<br>--- ----- -- ----,64553.59999996424,64552.59999996424,64176.354,64177.80000001192,64193.023,64559.81,,10,common
screen,html.Screen,0_2_0_1_11,2021-12-10T12:05:36.632Z,,,,,,,,,,,,,,,,53,,,,,,,,,,,,,,400.6900000000023,,response,,,99,,,,,,Space,keypress(Space),,,,,---- -- ----- -- ------ - ------- --- ----------<br>------------- ------ wisdom ---- ---- ------- ----- -- ----<br>-------- ------- -- ---------- --- - --- ----- ----- ----<br>---- --- --- ----- --- ---- ---- ------- ----- ---- -------<br>--- --- -- ----- -- --- ---- -- --- ---- -- ------ ------<br>--- ----- -- ----,64961.5,64960.5,64543.14,64553.80000001192,64559.81,64976.647,,11,wisdom
screen,html.Screen,0_2_0_1_12,2021-12-10T12:05:37.040Z,,,,,,,,,,,,,,,,53,,,,,,,,,,,,,,391.8530000000028,,response,,,99,,,,,,Space,keypress(Space),,,,,---- -- ----- -- ------ - ------- --- ----------<br>------------- ------ ------ says ---- ------- ----- -- ----<br>-------- ------- -- ---------- --- - --- ----- ----- ----<br>---- --- --- ----- --- ---- ---- ------- ----- ---- -------<br>--- --- -- ----- -- --- ---- -- --- ---- -- ------ ------<br>--- ----- -- ----,65369.39999997616,65368.5,64959.976,64961.80000001192,64976.647,65376.691,,12,says
screen,html.Screen,0_2_0_1_13,2021-12-10T12:05:37.424Z,,,,,,,,,,,,,,,,53,,,,,,,,,,,,,,375.8090000000011,,response,,,99,,,,,,Space,keypress(Space),,,,,---- -- ----- -- ------ - ------- --- ----------<br>------------- ------ ------ ---- that ------- ----- -- ----<br>-------- ------- -- ---------- --- - --- ----- ----- ----<br>---- --- --- ----- --- ---- ---- ------- ----- ---- -------<br>--- --- -- ----- -- --- ---- -- --- ---- -- ------ ------<br>--- ----- -- ----,65753.30000001192,65752.5,65360.021,65369.59999996424,65376.691,65760.116,,13,that
screen,html.Screen,0_2_0_1_14,2021-12-10T12:05:38.360Z,,,,,,,,,,,,,,,,53,,,,,,,,,,,,,,928.3840000000055,,response,,,99,,,,,,Space,keypress(Space),,,,,---- -- ----- -- ------ - ------- --- ----------<br>------------- ------ ------ ---- ---- feeling ----- -- ----<br>-------- ------- -- ---------- --- - --- ----- ----- ----<br>---- --- --- ----- --- ---- ---- ------- ----- ---- -------<br>--- --- -- ----- -- --- ---- -- --- ---- -- ------ ------<br>--- ----- -- ----,66689.39999997616,66688.5,65743.446,65753.69999998808,65760.116,66693.648,,14,feeling
screen,html.Screen,0_2_0_1_15,2021-12-10T12:05:40.200Z,,,,,,,,,,,,,,,,53,,,,,,,,,,,,,,1834.751999976157,,response,,,99,,,,,,Space,keypress(Space),,,,,---- -- ----- -- ------ - ------- --- ----------<br>------------- ------ ------ ---- ---- ------- close -- ----<br>-------- ------- -- ---------- --- - --- ----- ----- ----<br>---- --- --- ----- --- ---- ---- ------- ----- ---- -------<br>--- --- -- ----- -- --- ---- -- --- ---- -- ------ ------<br>--- ----- -- ----,68529.19999998808,68528.39999997616,66676.978,66689.59999996424,66693.648,68544.062,,15,close
screen,html.Screen,0_2_0_1_16,2021-12-10T12:05:40.688Z,,,,,,,,,,,,,,,,53,,,,,,,,,,,,,,472.3379999761528,,response,,,99,,,,,,Space,keypress(Space),,,,,---- -- ----- -- ------ - ------- --- ----------<br>------------- ------ ------ ---- ---- ------- ----- to ----<br>-------- ------- -- ---------- --- - --- ----- ----- ----<br>---- --- --- ----- --- ---- ---- ------- ----- ---- -------<br>--- --- -- ----- -- --- ---- -- --- ---- -- ------ ------<br>--- ----- -- ----,69017.39999997616,69016.39999997616,68527.392,68529.5,68544.062,69027.557,,16,to
screen,html.Screen,0_2_0_1_17,2021-12-10T12:05:41.112Z,,,,,,,,,,,,,,,,53,,,,,,,,,,,,,,412.6429999880784,,response,,,99,,,,,,Space,keypress(Space),,,,,---- -- ----- -- ------ - ------- --- ----------<br>------------- ------ ------ ---- ---- ------- ----- -- your<br>-------- ------- -- ---------- --- - --- ----- ----- ----<br>---- --- --- ----- --- ---- ---- ------- ----- ---- -------<br>--- --- -- ----- -- --- ---- -- --- ---- -- ------ ------<br>--- ----- -- ----,69441.19999998808,69440.19999998808,69010.887,69017.59999996424,69027.557,69444.279,,17,your
screen,html.Screen,0_2_0_1_18,2021-12-10T12:05:41.696Z,,,,,,,,,,,,,,,,53,,,,,,,,,,,,,,579.9209999880841,,response,,,99,,,,,,Space,keypress(Space),,,,,---- -- ----- -- ------ - ------- --- ----------<br>------------- ------ ------ ---- ---- ------- ----- -- ----<br>romantic ------- -- ---------- --- - --- ----- ----- ----<br>---- --- --- ----- --- ---- ---- ------- ----- ---- -------<br>--- --- -- ----- -- --- ---- -- --- ---- -- ------ ------<br>--- ----- -- ----,70025.09999996424,70024.19999998808,69427.609,69441.5,69444.279,70027.93,,18,romantic
screen,html.Screen,0_2_0_1_19,2021-12-10T12:05:42.128Z,,,,,,,,,,,,,,,,53,,,,,,,,,,,,,,428.26999998808606,,response,,,99,,,,,,Space,keypress(Space),,,,,---- -- ----- -- ------ - ------- --- ----------<br>------------- ------ ------ ---- ---- ------- ----- -- ----<br>-------- partner -- ---------- --- - --- ----- ----- ----<br>---- --- --- ----- --- ---- ---- ------- ----- ---- -------<br>--- --- -- ----- -- --- ---- -- --- ---- -- ------ ------<br>--- ----- -- ----,70457,70456.19999998808,70011.258,70025.5,70027.93,70461.271,,19,partner
screen,html.Screen,0_2_0_1_20,2021-12-10T12:05:42.568Z,,,,,,,,,,,,,,,,53,,,,,,,,,,,,,,435.32899996424385,,response,,,99,,,,,,Space,keypress(Space),,,,,---- -- ----- -- ------ - ------- --- ----------<br>------------- ------ ------ ---- ---- ------- ----- -- ----<br>-------- ------- is ---------- --- - --- ----- ----- ----<br>---- --- --- ----- --- ---- ---- ------- ----- ---- -------<br>--- --- -- ----- -- --- ---- -- --- ---- -- ------ ------<br>--- ----- -- ----,70897.39999997616,70896.59999996424,70444.601,70457.19999998808,70461.271,70911.372,,20,is
screen,html.Screen,0_2_0_1_21,2021-12-10T12:05:43.128Z,,,,,,,,,,,,,,,,53,,,,,,,,,,,,,,544.827999988076,,response,,,99,,,,,,Space,keypress(Space),,,,,---- -- ----- -- ------ - ------- --- ----------<br>------------- ------ ------ ---- ---- ------- ----- -- ----<br>-------- ------- -- paramount. --- - --- ----- ----- ----<br>---- --- --- ----- --- ---- ---- ------- ----- ---- -------<br>--- --- -- ----- -- --- ---- -- --- ---- -- ------ ------<br>--- ----- -- ----,71457,71456.19999998808,70894.702,70897.69999998808,70911.372,71461.487,,21,paramount.
screen,html.Screen,0_2_0_1_22,2021-12-10T12:05:43.744Z,,,,,,,,,,,,,,,,53,,,,,,,,,,,,,,610.6129999642435,,response,,,99,,,,,,Space,keypress(Space),,,,,---- -- ----- -- ------ - ------- --- ----------<br>------------- ------ ------ ---- ---- ------- ----- -- ----<br>-------- ------- -- ---------- But - --- ----- ----- ----<br>---- --- --- ----- --- ---- ---- ------- ----- ---- -------<br>--- --- -- ----- -- --- ---- -- --- ---- -- ------ ------<br>--- ----- -- ----,72072.89999997616,72072.09999996424,71444.817,71457.5,71461.487,72078.324,,22,But
screen,html.Screen,0_2_0_1_23,2021-12-10T12:05:44.248Z,,,,,,,,,,,,,,,,53,,,,,,,,,,,,,,497.67600000000675,,response,,,99,,,,,,Space,keypress(Space),,,,,---- -- ----- -- ------ - ------- --- ----------<br>------------- ------ ------ ---- ---- ------- ----- -- ----<br>-------- ------- -- ---------- --- a --- ----- ----- ----<br>---- --- --- ----- --- ---- ---- ------- ----- ---- -------<br>--- --- -- ----- -- --- ---- -- --- ---- -- ------ ------<br>--- ----- -- ----,72576.80000001192,72576,72061.654,72073.19999998808,72078.324,72578.348,,23,a
screen,html.Screen,0_2_0_1_24,2021-12-10T12:05:44.680Z,,,,,,,,,,,,,,,,53,,,,,,,,,,,,,,429.65200000000186,,response,,,99,,,,,,Space,keypress(Space),,,,,---- -- ----- -- ------ - ------- --- ----------<br>------------- ------ ------ ---- ---- ------- ----- -- ----<br>-------- ------- -- ---------- --- - new ----- ----- ----<br>---- --- --- ----- --- ---- ---- ------- ----- ---- -------<br>--- --- -- ----- -- --- ---- -- --- ---- -- ------ ------<br>--- ----- -- ----,73008.89999997616,73008,72561.679,72577.09999996424,72578.348,73011.938,,24,new
screen,html.Screen,0_2_0_1_25,2021-12-10T12:05:45.112Z,,,,,,,,,,,,,,,,53,,,,,,,,,,,,,,428.06200000000536,,response,,,99,,,,,,Space,keypress(Space),,,,,---- -- ----- -- ------ - ------- --- ----------<br>------------- ------ ------ ---- ---- ------- ----- -- ----<br>-------- ------- -- ---------- --- - --- study ----- ----<br>---- --- --- ----- --- ---- ---- ------- ----- ---- -------<br>--- --- -- ----- -- --- ---- -- --- ---- -- ------ ------<br>--- ----- -- ----,73440.80000001192,73440,72995.267,73009.19999998808,73011.938,73445.18,,25,study
screen,html.Screen,0_2_0_1_26,2021-12-10T12:05:45.552Z,,,,,,,,,,,,,,,,53,,,,,,,,,,,,,,434.7199999761651,,response,,,99,,,,,,Space,keypress(Space),,,,,---- -- ----- -- ------ - ------- --- ----------<br>------------- ------ ------ ---- ---- ------- ----- -- ----<br>-------- ------- -- ---------- --- - --- ----- finds ----<br>---- --- --- ----- --- ---- ---- ------- ----- ---- -------<br>--- --- -- ----- -- --- ---- -- --- ---- -- ------ ------<br>--- ----- -- ----,73880.80000001192,73879.89999997616,73428.512,73441.09999996424,73445.18,73895.522,,26,finds
screen,html.Screen,0_2_0_1_27,2021-12-10T12:05:46.080Z,,,,,,,,,,,,,,,,53,,,,,,,,,,,,,,512.3779999761609,,response,,,99,,,,,,Space,keypress(Space),,,,,---- -- ----- -- ------ - ------- --- ----------<br>------------- ------ ------ ---- ---- ------- ----- -- ----<br>-------- ------- -- ---------- --- - --- ----- ----- that<br>---- --- --- ----- --- ---- ---- ------- ----- ---- -------<br>--- --- -- ----- -- --- ---- -- --- ---- -- ------ ------<br>--- ----- -- ----,74408.69999998808,74407.89999997616,73878.85,73881,73895.522,74412.218,,27,that
screen,html.Screen,0_2_0_1_28,2021-12-10T12:05:46.544Z,,,,,,,,,,,,,,,,53,,,,,,,,,,,,,,459.68199997616466,,response,,,99,,,,,,Space,keypress(Space),,,,,---- -- ----- -- ------ - ------- --- ----------<br>------------- ------ ------ ---- ---- ------- ----- -- ----<br>-------- ------- -- ---------- --- - --- ----- ----- ----<br>it's --- --- ----- --- ---- ---- ------- ----- ---- -------<br>--- --- -- ----- -- --- ---- -- --- ---- -- ------ ------<br>--- ----- -- ----,74872.80000001192,74871.89999997616,74395.548,74408.89999997616,74412.218,74879.001,,28,it's
screen,html.Screen,0_2_0_1_29,2021-12-10T12:05:46.984Z,,,,,,,,,,,,,,,,53,,,,,,,,,,,,,,432.7990000119171,,response,,,99,,,,,,Space,keypress(Space),,,,,---- -- ----- -- ------ - ------- --- ----------<br>------------- ------ ------ ---- ---- ------- ----- -- ----<br>-------- ------- -- ---------- --- - --- ----- ----- ----<br>---- not --- ----- --- ---- ---- ------- ----- ---- -------<br>--- --- -- ----- -- --- ---- -- --- ---- -- ------ ------<br>--- ----- -- ----,75312.69999998808,75311.80000001192,74862.331,74873,74879.001,75329.098,,29,not
screen,html.Screen,0_2_0_1_30,2021-12-10T12:05:47.416Z,,,,,,,,,,,,,,,,53,,,,,,,,,,,,,,414.7020000119228,,response,,,99,,,,,,Space,keypress(Space),,,,,---- -- ----- -- ------ - ------- --- ----------<br>------------- ------ ------ ---- ---- ------- ----- -- ----<br>-------- ------- -- ---------- --- - --- ----- ----- ----<br>---- --- how ----- --- ---- ---- ------- ----- ---- -------<br>--- --- -- ----- -- --- ---- -- --- ---- -- ------ ------<br>--- ----- -- ----,75744.69999998808,75743.80000001192,75312.428,75312.89999997616,75329.098,75745.882,,30,how
screen,html.Screen,0_2_0_1_31,2021-12-10T12:05:47.880Z,,,,,,,,,,,,,,,,53,,,,,,,,,,,,,,461.91800001192314,,response,,,99,,,,,,Space,keypress(Space),,,,,---- -- ----- -- ------ - ------- --- ----------<br>------------- ------ ------ ---- ---- ------- ----- -- ----<br>-------- ------- -- ---------- --- - --- ----- ----- ----<br>---- --- --- close --- ---- ---- ------- ----- ---- -------<br>--- --- -- ----- -- --- ---- -- --- ---- -- ------ ------<br>--- ----- -- ----,76208.69999998808,76207.80000001192,75729.212,75745,75745.882,76212.587,,31,close
screen,html.Screen,0_2_0_1_32,2021-12-10T12:05:48.288Z,,,,,,,,,,,,,,,,53,,,,,,,,,,,,,,403.2130000119214,,response,,,99,,,,,,Space,keypress(Space),,,,,---- -- ----- -- ------ - ------- --- ----------<br>------------- ------ ------ ---- ---- ------- ----- -- ----<br>-------- ------- -- ---------- --- - --- ----- ----- ----<br>---- --- --- ----- you ---- ---- ------- ----- ---- -------<br>--- --- -- ----- -- --- ---- -- --- ---- -- ------ ------<br>--- ----- -- ----,76616.89999997616,76615.80000001192,76195.918,76208.80000001192,76212.587,76629.464,,32,you
screen,html.Screen,0_2_0_1_33,2021-12-10T12:05:48.719Z,,,,,,,,,,,,,,,,53,,,,,,,,,,,,,,418.23599998807185,,response,,,99,,,,,,Space,keypress(Space),,,,,---- -- ----- -- ------ - ------- --- ----------<br>------------- ------ ------ ---- ---- ------- ----- -- ----<br>-------- ------- -- ---------- --- - --- ----- ----- ----<br>---- --- --- ----- --- feel ---- ------- ----- ---- -------<br>--- --- -- ----- -- --- ---- -- --- ---- -- ------ ------<br>--- ----- -- ----,77048.59999996424,77047.69999998808,76612.793,76617.19999998808,76629.464,77062.866,,33,feel
screen,html.Screen,0_2_0_1_34,2021-12-10T12:05:49.135Z,,,,,,,,,,,,,,,,53,,,,,,,,,,,,,,400.83399998808454,,response,,,99,,,,,,Space,keypress(Space),,,,,---- -- ----- -- ------ - ------- --- ----------<br>------------- ------ ------ ---- ---- ------- ----- -- ----<br>-------- ------- -- ---------- --- - --- ----- ----- ----<br>---- --- --- ----- --- ---- that ------- ----- ---- -------<br>--- --- -- ----- -- --- ---- -- --- ---- -- ------ ------<br>--- ----- -- ----,77464.5,77463.69999998808,77046.196,77048.80000001192,77062.866,77479.633,,34,that
screen,html.Screen,0_2_0_1_35,2021-12-10T12:05:49.535Z,,,,,,,,,,,,,,,,53,,,,,,,,,,,,,,384.06699998807744,,response,,,99,,,,,,Space,keypress(Space),,,,,---- -- ----- -- ------ - ------- --- ----------<br>------------- ------ ------ ---- ---- ------- ----- -- ----<br>-------- ------- -- ---------- --- - --- ----- ----- ----<br>---- --- --- ----- --- ---- ---- matters ----- ---- -------<br>--- --- -- ----- -- --- ---- -- --- ---- -- ------ ------<br>--- ----- -- ----,77864.59999996424,77863.69999998808,77462.963,77464.80000001192,77479.633,77879.724,,35,matters
screen,html.Screen,0_2_0_1_36,2021-12-10T12:05:49.976Z,,,,,,,,,,,,,,,,53,,,,,,,,,,,,,,423.9759999880771,,response,,,99,,,,,,Space,keypress(Space),,,,,"---- -- ----- -- ------ - ------- --- ----------<br>------------- ------ ------ ---- ---- ------- ----- -- ----<br>-------- ------- -- ---------- --- - --- ----- ----- ----<br>---- --- --- ----- --- ---- ---- ------- most, ---- -------<br>--- --- -- ----- -- --- ---- -- --- ---- -- ------ ------<br>--- ----- -- ----",78304.69999998808,78303.69999998808,77863.054,77864.69999998808,77879.724,78313.174,,36,"most,"
screen,html.Screen,0_2_0_1_37,2021-12-10T12:05:50.431Z,,,,,,,,,,,,,,,,53,,,,,,,,,,,,,,446.42599996423814,,response,,,99,,,,,,Space,keypress(Space),,,,,---- -- ----- -- ------ - ------- --- ----------<br>------------- ------ ------ ---- ---- ------- ----- -- ----<br>-------- ------- -- ---------- --- - --- ----- ----- ----<br>---- --- --- ----- --- ---- ---- ------- ----- it's -------<br>--- --- -- ----- -- --- ---- -- --- ---- -- ------ ------<br>--- ----- -- ----,78760.39999997616,78759.59999996424,78296.504,78305,78313.174,78763.051,,37,it's
screen,html.Screen,0_2_0_1_38,2021-12-10T12:05:50.927Z,,,,,,,,,,,,,,,,53,,,,,,,,,,,,,,492.54899996423046,,response,,,99,,,,,,Space,keypress(Space),,,,,---- -- ----- -- ------ - ------- --- ----------<br>------------- ------ ------ ---- ---- ------- ----- -- ----<br>-------- ------- -- ---------- --- - --- ----- ----- ----<br>---- --- --- ----- --- ---- ---- ------- ----- ---- whether<br>--- --- -- ----- -- --- ---- -- --- ---- -- ------ ------<br>--- ----- -- ----,79256.39999997616,79255.59999996424,78746.384,78760.69999998808,78763.051,79263.498,,38,whether
screen,html.Screen,0_2_0_1_39,2021-12-10T12:05:51.391Z,,,,,,,,,,,,,,,,53,,,,,,,,,,,,,,456.00199999999313,,response,,,99,,,,,,Space,keypress(Space),,,,,---- -- ----- -- ------ - ------- --- ----------<br>------------- ------ ------ ---- ---- ------- ----- -- ----<br>-------- ------- -- ---------- --- - --- ----- ----- ----<br>---- --- --- ----- --- ---- ---- ------- ----- ---- -------<br>you --- -- ----- -- --- ---- -- --- ---- -- ------ ------<br>--- ----- -- ----,79720.39999997616,79719.5,79246.826,79256.69999998808,79263.498,79730.192,,39,you
screen,html.Screen,0_2_0_1_40,2021-12-10T12:05:51.855Z,,,,,,,,,,,,,,,,53,,,,,,,,,,,,,,453.2079999761627,,response,,,99,,,,,,Space,keypress(Space),,,,,---- -- ----- -- ------ - ------- --- ----------<br>------------- ------ ------ ---- ---- ------- ----- -- ----<br>-------- ------- -- ---------- --- - --- ----- ----- ----<br>---- --- --- ----- --- ---- ---- ------- ----- ---- -------<br>--- are -- ----- -- --- ---- -- --- ---- -- ------ ------<br>--- ----- -- ----,80184.30000001192,80183.39999997616,79713.522,79720.59999996424,79730.192,80196.851,,40,are
screen,html.Screen,0_2_0_1_41,2021-12-10T12:05:52.255Z,,,,,,,,,,,,,,,,53,,,,,,,,,,,,,,386.6490000000049,,response,,,99,,,,,,Space,keypress(Space),,,,,---- -- ----- -- ------ - ------- --- ----------<br>------------- ------ ------ ---- ---- ------- ----- -- ----<br>-------- ------- -- ---------- --- - --- ----- ----- ----<br>---- --- --- ----- --- ---- ---- ------- ----- ---- -------<br>--- --- as ----- -- --- ---- -- --- ---- -- ------ ------<br>--- ----- -- ----,80584.30000001192,80583.5,80180.182,80184.59999996424,80196.851,80597.111,,41,as
screen,html.Screen,0_2_0_1_42,2021-12-10T12:05:52.664Z,,,,,,,,,,,,,,,,53,,,,,,,,,,,,,,394.7889999761537,,response,,,99,,,,,,Space,keypress(Space),,,,,---- -- ----- -- ------ - ------- --- ----------<br>------------- ------ ------ ---- ---- ------- ----- -- ----<br>-------- ------- -- ---------- --- - --- ----- ----- ----<br>---- --- --- ----- --- ---- ---- ------- ----- ---- -------<br>--- --- -- close -- --- ---- -- --- ---- -- ------ ------<br>--- ----- -- ----,80992.69999998808,80991.89999997616,80580.44,80584.5,80597.111,80997.172,,42,close
screen,html.Screen,0_2_0_1_43,2021-12-10T12:05:53.127Z,,,,,,,,,,,,,,,,53,,,,,,,,,,,,,,458.2279999761522,,response,,,99,,,,,,Space,keypress(Space),,,,,---- -- ----- -- ------ - ------- --- ----------<br>------------- ------ ------ ---- ---- ------- ----- -- ----<br>-------- ------- -- ---------- --- - --- ----- ----- ----<br>---- --- --- ----- --- ---- ---- ------- ----- ---- -------<br>--- --- -- ----- as --- ---- -- --- ---- -- ------ ------<br>--- ----- -- ----,81456.19999998808,81455.39999997616,80980.502,80992.89999997616,80997.172,81463.777,,43,as
screen,html.Screen,0_2_0_1_44,2021-12-10T12:05:53.559Z,,,,,,,,,,,,,,,,53,,,,,,,,,,,,,,423.52300001191907,,response,,,99,,,,,,Space,keypress(Space),,,,,---- -- ----- -- ------ - ------- --- ----------<br>------------- ------ ------ ---- ---- ------- ----- -- ----<br>-------- ------- -- ---------- --- - --- ----- ----- ----<br>---- --- --- ----- --- ---- ---- ------- ----- ---- -------<br>--- --- -- ----- -- you ---- -- --- ---- -- ------ ------<br>--- ----- -- ----,81888.19999998808,81887.30000001192,81447.109,81456.39999997616,81463.777,81897.458,,44,you
screen,html.Screen,0_2_0_1_45,2021-12-10T12:05:54.015Z,,,,,,,,,,,,,,,,53,,,,,,,,,,,,,,445.9419999761594,,response,,,99,,,,,,Space,keypress(Space),,,,,---- -- ----- -- ------ - ------- --- ----------<br>------------- ------ ------ ---- ---- ------- ----- -- ----<br>-------- ------- -- ---------- --- - --- ----- ----- ----<br>---- --- --- ----- --- ---- ---- ------- ----- ---- -------<br>--- --- -- ----- -- --- want -- --- ---- -- ------ ------<br>--- ----- -- ----,82344.19999998808,82343.39999997616,81880.786,81888.39999997616,81897.458,82347.462,,45,want
screen,html.Screen,0_2_0_1_46,2021-12-10T12:05:54.431Z,,,,,,,,,,,,,,,,53,,,,,,,,,,,,,,411.8380000119214,,response,,,99,,,,,,Space,keypress(Space),,,,,---- -- ----- -- ------ - ------- --- ----------<br>------------- ------ ------ ---- ---- ------- ----- -- ----<br>-------- ------- -- ---------- --- - --- ----- ----- ----<br>---- --- --- ----- --- ---- ---- ------- ----- ---- -------<br>--- --- -- ----- -- --- ---- to --- ---- -- ------ ------<br>--- ----- -- ----,82760.09999996424,82759.30000001192,82330.792,82344.39999997616,82347.462,82764.18,,46,to
screen,html.Screen,0_2_0_1_47,2021-12-10T12:05:54.863Z,,,,,,,,,,,,,,,,53,,,,,,,,,,,,,,427.1200000119279,,response,,,99,,,,,,Space,keypress(Space),,,,,"---- -- ----- -- ------ - ------- --- ----------<br>------------- ------ ------ ---- ---- ------- ----- -- ----<br>-------- ------- -- ---------- --- - --- ----- ----- ----<br>---- --- --- ----- --- ---- ---- ------- ----- ---- -------<br>--- --- -- ----- -- --- ---- -- be, ---- -- ------ ------<br>--- ----- -- ----",83192.09999996424,83191.30000001192,82747.511,82760.39999997616,82764.18,83197.733,,47,"be,"
screen,html.Screen,0_2_0_1_48,2021-12-10T12:05:55.303Z,,,,,,,,,,,,,,,,53,,,,,,,,,,,,,,433.56700001192803,,response,,,99,,,,,,Space,keypress(Space),,,,,---- -- ----- -- ------ - ------- --- ----------<br>------------- ------ ------ ---- ---- ------- ----- -- ----<br>-------- ------- -- ---------- --- - --- ----- ----- ----<br>---- --- --- ----- --- ---- ---- ------- ----- ---- -------<br>--- --- -- ----- -- --- ---- -- --- even -- ------ ------<br>--- ----- -- ----,83632,83631.30000001192,83181.062,83192.30000001192,83197.733,83647.799,,48,even
screen,html.Screen,0_2_0_1_49,2021-12-10T12:05:55.727Z,,,,,,,,,,,,,,,,53,,,,,,,,,,,,,,407.40099998808,,response,,,99,,,,,,Space,keypress(Space),,,,,---- -- ----- -- ------ - ------- --- ----------<br>------------- ------ ------ ---- ---- ------- ----- -- ----<br>-------- ------- -- ---------- --- - --- ----- ----- ----<br>---- --- --- ----- --- ---- ---- ------- ----- ---- -------<br>--- --- -- ----- -- --- ---- -- --- ---- if ------ ------<br>--- ----- -- ----,84056,84055.19999998808,83631.129,83632.30000001192,83647.799,84064.555,,49,if
screen,html.Screen,0_2_0_1_50,2021-12-10T12:05:56.191Z,,,,,,,,,,,,,,,,53,,,,,,,,,,,,,,454.64499998808606,,response,,,99,,,,,,Space,keypress(Space),,,,,---- -- ----- -- ------ - ------- --- ----------<br>------------- ------ ------ ---- ---- ------- ----- -- ----<br>-------- ------- -- ---------- --- - --- ----- ----- ----<br>---- --- --- ----- --- ---- ---- ------- ----- ---- -------<br>--- --- -- ----- -- --- ---- -- --- ---- -- that's ------<br>--- ----- -- ----,84520,84519.19999998808,84047.885,84056.30000001192,84064.555,84531.335,,50,that's
screen,html.Screen,0_2_0_1_51,2021-12-10T12:05:56.631Z,,,,,,,,,,,,,,,,53,,,,,,,,,,,,,,427.86499998807267,,response,,,99,,,,,,Space,keypress(Space),,,,,---- -- ----- -- ------ - ------- --- ----------<br>------------- ------ ------ ---- ---- ------- ----- -- ----<br>-------- ------- -- ---------- --- - --- ----- ----- ----<br>---- --- --- ----- --- ---- ---- ------- ----- ---- -------<br>--- --- -- ----- -- --- ---- -- --- ---- -- ------ really<br>--- ----- -- ----,84960,84959.19999998808,84514.665,84520.30000001192,84531.335,84964.779,,51,really
screen,html.Screen,0_2_0_1_52,2021-12-10T12:05:57.095Z,,,,,,,,,,,,,,,,53,,,,,,,,,,,,,,458.3209999642422,,response,,,99,,,,,,Space,keypress(Space),,,,,---- -- ----- -- ------ - ------- --- ----------<br>------------- ------ ------ ---- ---- ------- ----- -- ----<br>-------- ------- -- ---------- --- - --- ----- ----- ----<br>---- --- --- ----- --- ---- ---- ------- ----- ---- -------<br>--- --- -- ----- -- --- ---- -- --- ---- -- ------ ------<br>not ----- -- ----,85423.89999997616,85423.09999996424,84948.109,84960.19999998808,84964.779,85431.552,,52,not
screen,html.Screen,0_2_0_1_53,2021-12-10T12:05:57.575Z,,,,,,,,,,,,,,,,53,,,,,,,,,,,,,,471.54799996424117,,response,,,99,,,,,,Space,keypress(Space),,,,,---- -- ----- -- ------ - ------- --- ----------<br>------------- ------ ------ ---- ---- ------- ----- -- ----<br>-------- ------- -- ---------- --- - --- ----- ----- ----<br>---- --- --- ----- --- ---- ---- ------- ----- ---- -------<br>--- --- -- ----- -- --- ---- -- --- ---- -- ------ ------<br>--- close -- ----,85903.89999997616,85903.09999996424,85414.882,85424.19999998808,85431.552,85915.009,,53,close
screen,html.Screen,0_2_0_1_54,2021-12-10T12:05:58.671Z,,,,,,,,,,,,,,,,53,,,,,,,,,,,,,,1083.9909999999945,,response,,,99,,,,,,Space,keypress(Space),,,,,---- -- ----- -- ------ - ------- --- ----------<br>------------- ------ ------ ---- ---- ------- ----- -- ----<br>-------- ------- -- ---------- --- - --- ----- ----- ----<br>---- --- --- ----- --- ---- ---- ------- ----- ---- -------<br>--- --- -- ----- -- --- ---- -- --- ---- -- ------ ------<br>--- ----- at ----,86999.89999997616,86999,85898.339,85904.19999998808,85915.009,87015.253,,54,at
screen,html.Screen,0_2_0_1_55,2021-12-10T12:05:59.407Z,,,,,,,,,,,,,,,,53,,,,,,,,,,,,,,719.747000000003,,response,,,99,,,,,,Space,keypress(Space),,,,,---- -- ----- -- ------ - ------- --- ----------<br>------------- ------ ------ ---- ---- ------- ----- -- ----<br>-------- ------- -- ---------- --- - --- ----- ----- ----<br>---- --- --- ----- --- ---- ---- ------- ----- ---- -------<br>--- --- -- ----- -- --- ---- -- --- ---- -- ------ ------<br>--- ----- -- all.,87735.80000001192,87735,86998.583,87000.09999996424,87015.253,87748.722,,55,all.
Item 99,flow.Loop,0_2_0_1,2021-12-10T12:05:59.411Z,,,,,,,,,,,,,,,,,,,,,,,,,,,,,,28009.92,,completion,,,,E,,,,,,,,,,silence,,87740.5,87735,59691.742,59698.89999997616,59725.08,87748.722,,,
Question 1,html.Screen,0_2_0_2,2021-12-10T12:06:09.372Z,,,,,,,,,,,,,,,,,,,,,,,,,,,true,FALSE,,9950.477999988085,,response,,,99,E,,,,,FALSE,click #choice-2,,,,silence,,97700.80000001192,97699.19999998808,87732.052,87740.89999997616,87748.722,97717.891,,,
Question 2,html.Screen,0_2_0_3,2021-12-10T12:06:26.751Z,,,,,,,,,,,,,,,,,,,,,,,,,,,true,TRUE,,17361.208999964234,,response,,,99,E,,,,,TRUE,click #choice-1,,,,silence,,115080.30000001192,115079.09999996424,97684.549,97701.19999998808,97717.891,115088.799,,,
Item 99,flow.Sequence,0_2_0,2021-12-10T12:06:26.752Z,,,,,,,,,,,,,,,,,,,,,,,,,,,,,,65375.350999964234,,completion,,,,,,,,,,,,,,,,115080.69999998808,115079.09999996424,49687.09,49705,49703.749,115088.799,,,
Holding screen,html.Screen,0_2_1_0,2021-12-10T12:06:36.750Z,,,,,,,,,,,,,,,,,,,,,,,,,,,,,,10002.150999999998,,timeout,,,,,,,,,,,,,,,,125075.80000001192,125074.281,115072.128,115081.09999996424,115088.799,125090.95,,,
screen,html.Screen,0_2_1_1_0,2021-12-10T12:06:38.072Z,,,,,,,,,,,,,,,,54,,,,,,,,,,,,,,1305.949999976161,,response,,,100,,,,,,Space,keypress(Space),,,,,At --- ---- --- ------ ----- ------- ---- -- --- ------- --<br>------- ---------- ------ -- ----- -- ----- -- ---- ------<br>--- ----- --- --- ------ -------- ----- --- ------ ----- --<br>----- ----- ---------- --- --- ------ ------ ---- -- ------<br>------- --- ------ ----- --- ---- ------- -- ---- --- --<br>------- ------,126397.89999997616,126396.89999997616,125074.281,125076.09999996424,125090.95,126408.208,,0,At
screen,html.Screen,0_2_1_1_1,2021-12-10T12:06:38.880Z,,,,,,,,,,,,,,,,54,,,,,,,,,,,,,,795.9919999880804,,response,,,100,,,,,,Space,keypress(Space),,,,,-- the ---- --- ------ ----- ------- ---- -- --- ------- --<br>------- ---------- ------ -- ----- -- ----- -- ---- ------<br>--- ----- --- --- ------ -------- ----- --- ------ ----- --<br>----- ----- ---------- --- --- ------ ------ ---- -- ------<br>------- --- ------ ----- --- ---- ------- -- ---- --- --<br>------- ------,127205,127204.19999998808,126391.537,126398.09999996424,126408.208,127208.279,,1,the
screen,html.Screen,0_2_1_1_2,2021-12-10T12:06:39.512Z,,,,,,,,,,,,,,,,54,,,,,,,,,,,,,,627.9209999880841,,response,,,100,,,,,,Space,keypress(Space),,,,,-- --- time --- ------ ----- ------- ---- -- --- ------- --<br>------- ---------- ------ -- ----- -- ----- -- ---- ------<br>--- ----- --- --- ------ -------- ----- --- ------ ----- --<br>----- ----- ---------- --- --- ------ ------ ---- -- ------<br>------- --- ------ ----- --- ---- ------- -- ---- --- --<br>------- ------,127837,127836.19999998808,127191.609,127205.30000001192,127208.279,127841.842,,2,time
screen,html.Screen,0_2_1_1_3,2021-12-10T12:06:40.064Z,,,,,,,,,,,,,,,,54,,,,,,,,,,,,,,546.257999964233,,response,,,100,,,,,,Space,keypress(Space),,,,,-- --- ---- the ------ ----- ------- ---- -- --- ------- --<br>------- ---------- ------ -- ----- -- ----- -- ---- ------<br>--- ----- --- --- ------ -------- ----- --- ------ ----- --<br>----- ----- ---------- --- --- ------ ------ ---- -- ------<br>------- --- ------ ----- --- ---- ------- -- ---- --- --<br>------- ------,128389,128388.09999996424,127825.172,127837.30000001192,127841.842,128392.07,,3,the
screen,html.Screen,0_2_1_1_4,2021-12-10T12:06:40.648Z,,,,,,,,,,,,,,,,54,,,,,,,,,,,,,,580.0299999642302,,response,,,100,,,,,,Space,keypress(Space),,,,,-- --- ---- --- French ----- ------- ---- -- --- ------- --<br>------- ---------- ------ -- ----- -- ----- -- ---- ------<br>--- ----- --- --- ------ -------- ----- --- ------ ----- --<br>----- ----- ---------- --- --- ------ ------ ---- -- ------<br>------- --- ------ ----- --- ---- ------- -- ---- --- --<br>------- ------,128972.89999997616,128972.09999996424,128375.399,128389.19999998808,128392.07,128975.456,,4,French
screen,html.Screen,0_2_1_1_5,2021-12-10T12:06:41.312Z,,,,,,,,,,,,,,,,54,,,,,,,,,,,,,,660.6439999642316,,response,,,100,,,,,,Space,keypress(Space),,,,,-- --- ---- --- ------ crown ------- ---- -- --- ------- --<br>------- ---------- ------ -- ----- -- ----- -- ---- ------<br>--- ----- --- --- ------ -------- ----- --- ------ ----- --<br>----- ----- ---------- --- --- ------ ------ ---- -- ------<br>------- --- ------ ----- --- ---- ------- -- ---- --- --<br>------- ------,129637,129636.09999996424,128958.786,128973.30000001192,128975.456,129642.31,,5,crown
screen,html.Screen,0_2_1_1_6,2021-12-10T12:06:41.999Z,,,,,,,,,,,,,,,,54,,,,,,,,,,,,,,681.7899999642395,,response,,,100,,,,,,Space,keypress(Space),,,,,-- --- ---- --- ------ ----- secured ---- -- --- ------- --<br>------- ---------- ------ -- ----- -- ----- -- ---- ------<br>--- ----- --- --- ------ -------- ----- --- ------ ----- --<br>----- ----- ---------- --- --- ------ ------ ---- -- ------<br>------- --- ------ ----- --- ---- ------- -- ---- --- --<br>------- ------,130324.89999997616,130324.09999996424,129625.64,129637.30000001192,129642.31,130342.365,,6,secured
screen,html.Screen,0_2_1_1_7,2021-12-10T12:06:42.688Z,,,,,,,,,,,,,,,,54,,,,,,,,,,,,,,669.734999964232,,response,,,100,,,,,,Space,keypress(Space),,,,,-- --- ---- --- ------ ----- ------- much -- --- ------- --<br>------- ---------- ------ -- ----- -- ----- -- ---- ------<br>--- ----- --- --- ------ -------- ----- --- ------ ----- --<br>----- ----- ---------- --- --- ------ ------ ---- -- ------<br>------- --- ------ ----- --- ---- ------- -- ---- --- --<br>------- ------,131013,131012.09999996424,130325.696,130325.19999998808,130342.365,131026.033,,7,much
screen,html.Screen,0_2_1_1_8,2021-12-10T12:06:43.263Z,,,,,,,,,,,,,,,,54,,,,,,,,,,,,,,561.9670000000042,,response,,,100,,,,,,Space,keypress(Space),,,,,-- --- ---- --- ------ ----- ------- ---- of --- ------- --<br>------- ---------- ------ -- ----- -- ----- -- ---- ------<br>--- ----- --- --- ------ -------- ----- --- ------ ----- --<br>----- ----- ---------- --- --- ------ ------ ---- -- ------<br>------- --- ------ ----- --- ---- ------- -- ---- --- --<br>------- ------,131588.69999998808,131588,131009.362,131013.30000001192,131026.033,131592.761,,8,of
screen,html.Screen,0_2_1_1_9,2021-12-10T12:06:43.879Z,,,,,,,,,,,,,,,,54,,,,,,,,,,,,,,611.1389999761595,,response,,,100,,,,,,Space,keypress(Space),,,,,-- --- ---- --- ------ ----- ------- ---- -- its ------- --<br>------- ---------- ------ -- ----- -- ----- -- ---- ------<br>--- ----- --- --- ------ -------- ----- --- ------ ----- --<br>----- ----- ---------- --- --- ------ ------ ---- -- ------<br>------- --- ------ ----- --- ---- ------- -- ---- --- --<br>------- ------,132204.69999998808,132203.89999997616,131576.091,131589,131592.761,132209.596,,9,its
screen,html.Screen,0_2_1_1_10,2021-12-10T12:06:44.583Z,,,,,,,,,,,,,,,,54,,,,,,,,,,,,,,698.3039999761677,,response,,,100,,,,,,Space,keypress(Space),,,,,-- --- ---- --- ------ ----- ------- ---- -- --- revenue --<br>------- ---------- ------ -- ----- -- ----- -- ---- ------<br>--- ----- --- --- ------ -------- ----- --- ------ ----- --<br>----- ----- ---------- --- --- ------ ------ ---- -- ------<br>------- --- ------ ----- --- ---- ------- -- ---- --- --<br>------- ------,132908.69999998808,132907.89999997616,132192.926,132204.89999997616,132209.596,132909.759,,10,revenue
screen,html.Screen,0_2_1_1_11,2021-12-10T12:06:45.263Z,,,,,,,,,,,,,,,,54,,,,,,,,,,,,,,678.04100001193,,response,,,100,,,,,,Space,keypress(Space),,,,,-- --- ---- --- ------ ----- ------- ---- -- --- ------- by<br>------- ---------- ------ -- ----- -- ----- -- ---- ------<br>--- ----- --- --- ------ -------- ----- --- ------ ----- --<br>----- ----- ---------- --- --- ------ ------ ---- -- ------<br>------- --- ------ ----- --- ---- ------- -- ---- --- --<br>------- ------,133588.69999998808,133587.80000001192,132893.089,132908.89999997616,132909.759,133593.218,,11,by
screen,html.Screen,0_2_1_1_12,2021-12-10T12:06:46.047Z,,,,,,,,,,,,,,,,54,,,,,,,,,,,,,,778.5820000119274,,response,,,100,,,,,,Space,keypress(Space),,,,,-- --- ---- --- ------ ----- ------- ---- -- --- ------- --<br>issuing ---------- ------ -- ----- -- ----- -- ---- ------<br>--- ----- --- --- ------ -------- ----- --- ------ ----- --<br>----- ----- ---------- --- --- ------ ------ ---- -- ------<br>------- --- ------ ----- --- ---- ------- -- ---- --- --<br>------- ------,134372.69999998808,134371.80000001192,133576.548,133588.89999997616,133593.218,134376.768,,12,issuing
screen,html.Screen,0_2_1_1_13,2021-12-10T12:06:46.759Z,,,,,,,,,,,,,,,,54,,,,,,,,,,,,,,707.03200001191,,response,,,100,,,,,,Space,keypress(Space),,,,,-- --- ---- --- ------ ----- ------- ---- -- --- ------- --<br>------- government ------ -- ----- -- ----- -- ---- ------<br>--- ----- --- --- ------ -------- ----- --- ------ ----- --<br>----- ----- ---------- --- --- ------ ------ ---- -- ------<br>------- --- ------ ----- --- ---- ------- -- ---- --- --<br>------- ------,135084.69999998808,135083.80000001192,134360.098,134372.89999997616,134376.768,135093.633,,13,government
screen,html.Screen,0_2_1_1_14,2021-12-10T12:06:47.623Z,,,,,,,,,,,,,,,,54,,,,,,,,,,,,,,853.9669999642356,,response,,,100,,,,,,Space,keypress(Space),,,,,-- --- ---- --- ------ ----- ------- ---- -- --- ------- --<br>------- ---------- bonds. -- ----- -- ----- -- ---- ------<br>--- ----- --- --- ------ -------- ----- --- ------ ----- --<br>----- ----- ---------- --- --- ------ ------ ---- -- ------<br>------- --- ------ ----- --- ---- ------- -- ---- --- --<br>------- ------,135948.5,135947.59999996424,135076.963,135084.89999997616,135093.633,135960.456,,14,bonds.
screen,html.Screen,0_2_1_1_15,2021-12-10T12:06:48.287Z,,,,,,,,,,,,,,,,54,,,,,,,,,,,,,,651.5439999999944,,response,,,100,,,,,,Space,keypress(Space),,,,,-- --- ---- --- ------ ----- ------- ---- -- --- ------- --<br>------- ---------- ------ In ----- -- ----- -- ---- ------<br>--- ----- --- --- ------ -------- ----- --- ------ ----- --<br>----- ----- ---------- --- --- ------ ------ ---- -- ------<br>------- --- ------ ----- --- ---- ------- -- ---- --- --<br>------- ------,136612.89999997616,136612,135943.786,135948.69999998808,135960.456,136627.318,,15,In
screen,html.Screen,0_2_1_1_16,2021-12-10T12:06:49.415Z,,,,,,,,,,,,,,,,54,,,,,,,,,,,,,,1112.0819999761588,,response,,,100,,,,,,Space,keypress(Space),,,,,"-- --- ---- --- ------ ----- ------- ---- -- --- ------- --<br>------- ---------- ------ -- 1727, -- ----- -- ---- ------<br>--- ----- --- --- ------ -------- ----- --- ------ ----- --<br>----- ----- ---------- --- --- ------ ------ ---- -- ------<br>------- --- ------ ----- --- ---- ------- -- ---- --- --<br>------- ------",137740.39999997616,137739.39999997616,136610.648,136613.09999996424,136627.318,137744.237,,16,"1727,"
screen,html.Screen,0_2_1_1_17,2021-12-10T12:06:50.215Z,,,,,,,,,,,,,,,,54,,,,,,,,,,,,,,795.1629999761644,,response,,,100,,,,,,Space,keypress(Space),,,,,-- --- ---- --- ------ ----- ------- ---- -- --- ------- --<br>------- ---------- ------ -- ----- in ----- -- ---- ------<br>--- ----- --- --- ------ -------- ----- --- ------ ----- --<br>----- ----- ---------- --- --- ------ ------ ---- -- ------<br>------- --- ------ ----- --- ---- ------- -- ---- --- --<br>------- ------,138540.19999998808,138539.39999997616,137727.567,137740.59999996424,137744.237,138544.277,,17,in
screen,html.Screen,0_2_1_1_18,2021-12-10T12:06:50.855Z,,,,,,,,,,,,,,,,54,,,,,,,,,,,,,,635.0230000119191,,response,,,100,,,,,,Space,keypress(Space),,,,,-- --- ---- --- ------ ----- ------- ---- -- --- ------- --<br>------- ---------- ------ -- ----- -- order -- ---- ------<br>--- ----- --- --- ------ -------- ----- --- ------ ----- --<br>----- ----- ---------- --- --- ------ ------ ---- -- ------<br>------- --- ------ ----- --- ---- ------- -- ---- --- --<br>------- ------,139180.19999998808,139179.30000001192,138527.608,138540.5,138544.277,139194.686,,18,order
screen,html.Screen,0_2_1_1_19,2021-12-10T12:06:51.415Z,,,,,,,,,,,,,,,,54,,,,,,,,,,,,,,544.7139999761712,,response,,,100,,,,,,Space,keypress(Space),,,,,-- --- ---- --- ------ ----- ------- ---- -- --- ------- --<br>------- ---------- ------ -- ----- -- ----- to ---- ------<br>--- ----- --- --- ------ -------- ----- --- ------ ----- --<br>----- ----- ---------- --- --- ------ ------ ---- -- ------<br>------- --- ------ ----- --- ---- ------- -- ---- --- --<br>------- ------,139740.19999998808,139739.39999997616,139178.015,139180.5,139194.686,139744.632,,19,to
screen,html.Screen,0_2_1_1_20,2021-12-10T12:06:51.983Z,,,,,,,,,,,,,,,,54,,,,,,,,,,,,,,562.6680000119086,,response,,,100,,,,,,Space,keypress(Space),,,,,-- --- ---- --- ------ ----- ------- ---- -- --- ------- --<br>------- ---------- ------ -- ----- -- ----- -- save ------<br>--- ----- --- --- ------ -------- ----- --- ------ ----- --<br>----- ----- ---------- --- --- ------ ------ ---- -- ------<br>------- --- ------ ----- --- ---- ------- -- ---- --- --<br>------- ------,140308.19999998808,140307.30000001192,139727.963,139740.39999997616,139744.632,140311.626,,20,save
screen,html.Screen,0_2_1_1_21,2021-12-10T12:06:52.647Z,,,,,,,,,,,,,,,,54,,,,,,,,,,,,,,659.6740000119316,,response,,,100,,,,,,Space,keypress(Space),,,,,"-- --- ---- --- ------ ----- ------- ---- -- --- ------- --<br>------- ---------- ------ -- ----- -- ----- -- ---- money,<br>--- ----- --- --- ------ -------- ----- --- ------ ----- --<br>----- ----- ---------- --- --- ------ ------ ---- -- ------<br>------- --- ------ ----- --- ---- ------- -- ---- --- --<br>------- ------",140972.09999996424,140971.30000001192,140294.955,140308.5,140311.626,140978.378,,21,"money,"
screen,html.Screen,0_2_1_1_22,2021-12-10T12:06:53.391Z,,,,,,,,,,,,,,,,54,,,,,,,,,,,,,,736.8219999880821,,response,,,100,,,,,,Space,keypress(Space),,,,,-- --- ---- --- ------ ----- ------- ---- -- --- ------- --<br>------- ---------- ------ -- ----- -- ----- -- ---- ------<br>the ----- --- --- ------ -------- ----- --- ------ ----- --<br>----- ----- ---------- --- --- ------ ------ ---- -- ------<br>------- --- ------ ----- --- ---- ------- -- ---- --- --<br>------- ------,141716.09999996424,141715.19999998808,140961.708,140972.39999997616,140978.378,141728.41,,22,the
screen,html.Screen,0_2_1_1_23,2021-12-10T12:06:53.935Z,,,,,,,,,,,,,,,,54,,,,,,,,,,,,,,530.7899999880756,,response,,,100,,,,,,Space,keypress(Space),,,,,-- --- ---- --- ------ ----- ------- ---- -- --- ------- --<br>------- ---------- ------ -- ----- -- ----- -- ---- ------<br>--- state --- --- ------ -------- ----- --- ------ ----- --<br>----- ----- ---------- --- --- ------ ------ ---- -- ------<br>------- --- ------ ----- --- ---- ------- -- ---- --- --<br>------- ------,142260.09999996424,142259.19999998808,141711.741,141716.30000001192,141728.41,142262.061,,23,state
screen,html.Screen,0_2_1_1_24,2021-12-10T12:06:54.551Z,,,,,,,,,,,,,,,,54,,,,,,,,,,,,,,613.0389999642503,,response,,,100,,,,,,Space,keypress(Space),,,,,-- --- ---- --- ------ ----- ------- ---- -- --- ------- --<br>------- ---------- ------ -- ----- -- ----- -- ---- ------<br>--- ----- cut --- ------ -------- ----- --- ------ ----- --<br>----- ----- ---------- --- --- ------ ------ ---- -- ------<br>------- --- ------ ----- --- ---- ------- -- ---- --- --<br>------- ------,142875.89999997616,142875.09999996424,142245.39,142260.30000001192,142262.061,142878.854,,24,cut
screen,html.Screen,0_2_1_1_25,2021-12-10T12:06:55.071Z,,,,,,,,,,,,,,,,54,,,,,,,,,,,,,,516.345999988087,,response,,,100,,,,,,Space,keypress(Space),,,,,-- --- ---- --- ------ ----- ------- ---- -- --- ------- --<br>------- ---------- ------ -- ----- -- ----- -- ---- ------<br>--- ----- --- the ------ -------- ----- --- ------ ----- --<br>----- ----- ---------- --- --- ------ ------ ---- -- ------<br>------- --- ------ ----- --- ---- ------- -- ---- --- --<br>------- ------,143396,143395.19999998808,142862.184,142876.19999998808,142878.854,143412.308,,25,the
screen,html.Screen,0_2_1_1_26,2021-12-10T12:06:55.687Z,,,,,,,,,,,,,,,,54,,,,,,,,,,,,,,598.8919999880891,,response,,,100,,,,,,Space,keypress(Space),,,,,-- --- ---- --- ------ ----- ------- ---- -- --- ------- --<br>------- ---------- ------ -- ----- -- ----- -- ---- ------<br>--- ----- --- --- bonds' -------- ----- --- ------ ----- --<br>----- ----- ---------- --- --- ------ ------ ---- -- ------<br>------- --- ------ ----- --- ---- ------- -- ---- --- --<br>------- ------,144012.19999998808,144011.19999998808,143395.638,143396.39999997616,143412.308,144029.138,,26,bonds'
screen,html.Screen,0_2_1_1_27,2021-12-10T12:06:56.414Z,,,,,,,,,,,,,,,,54,,,,,,,,,,,,,,709.8619999999937,,response,,,100,,,,,,Space,keypress(Space),,,,,-- --- ---- --- ------ ----- ------- ---- -- --- ------- --<br>------- ---------- ------ -- ----- -- ----- -- ---- ------<br>--- ----- --- --- ------ interest ----- --- ------ ----- --<br>----- ----- ---------- --- --- ------ ------ ---- -- ------<br>------- --- ------ ----- --- ---- ------- -- ---- --- --<br>------- ------,144739.89999997616,144739,144012.468,144012.39999997616,144029.138,144745.966,,27,interest
screen,html.Screen,0_2_1_1_28,2021-12-10T12:06:57.558Z,,,,,,,,,,,,,,,,54,,,,,,,,,,,,,,1136.9339999761723,,response,,,100,,,,,,Space,keypress(Space),,,,,-- --- ---- --- ------ ----- ------- ---- -- --- ------- --<br>------- ---------- ------ -- ----- -- ----- -- ---- ------<br>--- ----- --- --- ------ -------- rate. --- ------ ----- --<br>----- ----- ---------- --- --- ------ ------ ---- -- ------<br>------- --- ------ ----- --- ---- ------- -- ---- --- --<br>------- ------,145883.89999997616,145882.89999997616,144729.296,144740.09999996424,144745.966,145896.204,,28,rate.
screen,html.Screen,0_2_1_1_29,2021-12-10T12:06:58.238Z,,,,,,,,,,,,,,,,54,,,,,,,,,,,,,,666.6959999761602,,response,,,100,,,,,,Space,keypress(Space),,,,,-- --- ---- --- ------ ----- ------- ---- -- --- ------- --<br>------- ---------- ------ -- ----- -- ----- -- ---- ------<br>--- ----- --- --- ------ -------- ----- The ------ ----- --<br>----- ----- ---------- --- --- ------ ------ ---- -- ------<br>------- --- ------ ----- --- ---- ------- -- ---- --- --<br>------- ------,146563.80000001192,146562.89999997616,145879.534,145884,145896.204,146579.739,,29,The
screen,html.Screen,0_2_1_1_30,2021-12-10T12:06:58.831Z,,,,,,,,,,,,,,,,54,,,,,,,,,,,,,,575.6609999761567,,response,,,100,,,,,,Space,keypress(Space),,,,,-- --- ---- --- ------ ----- ------- ---- -- --- ------- --<br>------- ---------- ------ -- ----- -- ----- -- ---- ------<br>--- ----- --- --- ------ -------- ----- --- market ----- --<br>----- ----- ---------- --- --- ------ ------ ---- -- ------<br>------- --- ------ ----- --- ---- ------- -- ---- --- --<br>------- ------,147156.09999996424,147155.39999997616,146563.069,146564,146579.739,147163.226,,30,market
screen,html.Screen,0_2_1_1_31,2021-12-10T12:06:59.462Z,,,,,,,,,,,,,,,,54,,,,,,,,,,,,,,623.5740000119258,,response,,,100,,,,,,Space,keypress(Space),,,,,-- --- ---- --- ------ ----- ------- ---- -- --- ------- --<br>------- ---------- ------ -- ----- -- ----- -- ---- ------<br>--- ----- --- --- ------ -------- ----- --- ------ value --<br>----- ----- ---------- --- --- ------ ------ ---- -- ------<br>------- --- ------ ----- --- ---- ------- -- ---- --- --<br>------- ------,147787.69999998808,147786.80000001192,147146.556,147156.39999997616,147163.226,147796.717,,31,value
screen,html.Screen,0_2_1_1_32,2021-12-10T12:07:00.366Z,,,,,,,,,,,,,,,,54,,,,,,,,,,,,,,893.9829999880749,,response,,,100,,,,,,Space,keypress(Space),,,,,-- --- ---- --- ------ ----- ------- ---- -- --- ------- --<br>------- ---------- ------ -- ----- -- ----- -- ---- ------<br>--- ----- --- --- ------ -------- ----- --- ------ ----- of<br>----- ----- ---------- --- --- ------ ------ ---- -- ------<br>------- --- ------ ----- --- ---- ------- -- ---- --- --<br>------- ------,148691.59999996424,148690.69999998808,147780.047,147787.89999997616,147796.717,148696.877,,32,of
screen,html.Screen,0_2_1_1_33,2021-12-10T12:07:00.918Z,,,,,,,,,,,,,,,,54,,,,,,,,,,,,,,545.7229999642295,,response,,,100,,,,,,Space,keypress(Space),,,,,-- --- ---- --- ------ ----- ------- ---- -- --- ------- --<br>------- ---------- ------ -- ----- -- ----- -- ---- ------<br>--- ----- --- --- ------ -------- ----- --- ------ ----- --<br>these ----- ---------- --- --- ------ ------ ---- -- ------<br>------- --- ------ ----- --- ---- ------- -- ---- --- --<br>------- ------,149243.39999997616,149242.59999996424,148680.207,148691.89999997616,148696.877,149247.128,,33,these
screen,html.Screen,0_2_1_1_34,2021-12-10T12:07:01.614Z,,,,,,,,,,,,,,,,54,,,,,,,,,,,,,,691.5719999880821,,response,,,100,,,,,,Space,keypress(Space),,,,,-- --- ---- --- ------ ----- ------- ---- -- --- ------- --<br>------- ---------- ------ -- ----- -- ----- -- ---- ------<br>--- ----- --- --- ------ -------- ----- --- ------ ----- --<br>----- bonds ---------- --- --- ------ ------ ---- -- ------<br>------- --- ------ ----- --- ---- ------- -- ---- --- --<br>------- ------,149939.5,149938.69999998808,149230.457,149243.69999998808,149247.128,149947.214,,34,bonds
screen,html.Screen,0_2_1_1_35,2021-12-10T12:07:02.397Z,,,,,,,,,,,,,,,,54,,,,,,,,,,,,,,775.1859999761509,,response,,,100,,,,,,Space,keypress(Space),,,,,"-- --- ---- --- ------ ----- ------- ---- -- --- ------- --<br>------- ---------- ------ -- ----- -- ----- -- ---- ------<br>--- ----- --- --- ------ -------- ----- --- ------ ----- --<br>----- ----- plummeted, --- --- ------ ------ ---- -- ------<br>------- --- ------ ----- --- ---- ------- -- ---- --- --<br>------- ------",150722.80000001192,150722.39999997616,149930.544,149939.80000001192,149947.214,150730.726,,35,"plummeted,"
screen,html.Screen,0_2_1_1_36,2021-12-10T12:07:02.958Z,,,,,,,,,,,,,,,,54,,,,,,,,,,,,,,551.7740000000049,,response,,,100,,,,,,Space,keypress(Space),,,,,-- --- ---- --- ------ ----- ------- ---- -- --- ------- --<br>------- ---------- ------ -- ----- -- ----- -- ---- ------<br>--- ----- --- --- ------ -------- ----- --- ------ ----- --<br>----- ----- ---------- and --- ------ ------ ---- -- ------<br>------- --- ------ ----- --- ---- ------- -- ---- --- --<br>------- ------,151283.30000001192,151282.5,150714.056,150722.89999997616,150730.726,151297.44,,36,and
screen,html.Screen,0_2_1_1_37,2021-12-10T12:07:03.526Z,,,,,,,,,,,,,,,,54,,,,,,,,,,,,,,553.0599999999977,,response,,,100,,,,,,Space,keypress(Space),,,,,-- --- ---- --- ------ ----- ------- ---- -- --- ------- --<br>------- ---------- ------ -- ----- -- ----- -- ---- ------<br>--- ----- --- --- ------ -------- ----- --- ------ ----- --<br>----- ----- ---------- --- the ------ ------ ---- -- ------<br>------- --- ------ ----- --- ---- ------- -- ---- --- --<br>------- ------,151851.39999997616,151850.5,151280.771,151283.5,151297.44,151864.407,,37,the
screen,html.Screen,0_2_1_1_38,2021-12-10T12:07:04.110Z,,,,,,,,,,,,,,,,54,,,,,,,,,,,,,,570.0929999999935,,response,,,100,,,,,,Space,keypress(Space),,,,,-- --- ---- --- ------ ----- ------- ---- -- --- ------- --<br>------- ---------- ------ -- ----- -- ----- -- ---- ------<br>--- ----- --- --- ------ -------- ----- --- ------ ----- --<br>----- ----- ---------- --- --- market ------ ---- -- ------<br>------- --- ------ ----- --- ---- ------- -- ---- --- --<br>------- ------,152435.30000001192,152434.5,151847.736,151851.59999996424,151864.407,152447.79,,38,market
screen,html.Screen,0_2_1_1_39,2021-12-10T12:07:04.677Z,,,,,,,,,,,,,,,,54,,,,,,,,,,,,,,554.10999997615,,response,,,100,,,,,,Space,keypress(Space),,,,,-- --- ---- --- ------ ----- ------- ---- -- --- ------- --<br>------- ---------- ------ -- ----- -- ----- -- ---- ------<br>--- ----- --- --- ------ -------- ----- --- ------ ----- --<br>----- ----- ---------- --- --- ------ became ---- -- ------<br>------- --- ------ ----- --- ---- ------- -- ---- --- --<br>------- ------,153002.30000001192,153001.89999997616,152431.12,152435.59999996424,152447.79,153014.692,,39,became
screen,html.Screen,0_2_1_1_40,2021-12-10T12:07:05.366Z,,,,,,,,,,,,,,,,54,,,,,,,,,,,,,,675.7079999761481,,response,,,100,,,,,,Space,keypress(Space),,,,,-- --- ---- --- ------ ----- ------- ---- -- --- ------- --<br>------- ---------- ------ -- ----- -- ----- -- ---- ------<br>--- ----- --- --- ------ -------- ----- --- ------ ----- --<br>----- ----- ---------- --- --- ------ ------ wary -- ------<br>------- --- ------ ----- --- ---- ------- -- ---- --- --<br>------- ------,153691.30000001192,153690.39999997616,152998.021,153002.39999997616,153014.692,153698.12,,40,wary
screen,html.Screen,0_2_1_1_41,2021-12-10T12:07:05.885Z,,,,,,,,,,,,,,,,54,,,,,,,,,,,,,,511.7799999761628,,response,,,100,,,,,,Space,keypress(Space),,,,,-- --- ---- --- ------ ----- ------- ---- -- --- ------- --<br>------- ---------- ------ -- ----- -- ----- -- ---- ------<br>--- ----- --- --- ------ -------- ----- --- ------ ----- --<br>----- ----- ---------- --- --- ------ ------ ---- of ------<br>------- --- ------ ----- --- ---- ------- -- ---- --- --<br>------- ------,154210.39999997616,154209.89999997616,153681.45,153691.5,153698.12,154214.726,,41,of
screen,html.Screen,0_2_1_1_42,2021-12-10T12:07:06.557Z,,,,,,,,,,,,,,,,54,,,,,,,,,,,,,,667.173999976163,,response,,,100,,,,,,Space,keypress(Space),,,,,-- --- ---- --- ------ ----- ------- ---- -- --- ------- --<br>------- ---------- ------ -- ----- -- ----- -- ---- ------<br>--- ----- --- --- ------ -------- ----- --- ------ ----- --<br>----- ----- ---------- --- --- ------ ------ ---- -- French<br>------- --- ------ ----- --- ---- ------- -- ---- --- --<br>------- ------,154882.30000001192,154881.89999997616,154198.058,154210.39999997616,154214.726,154898.555,,42,French
screen,html.Screen,0_2_1_1_43,2021-12-10T12:07:07.254Z,,,,,,,,,,,,,,,,54,,,,,,,,,,,,,,679.7450000119279,,response,,,100,,,,,,Space,keypress(Space),,,,,-- --- ---- --- ------ ----- ------- ---- -- --- ------- --<br>------- ---------- ------ -- ----- -- ----- -- ---- ------<br>--- ----- --- --- ------ -------- ----- --- ------ ----- --<br>----- ----- ---------- --- --- ------ ------ ---- -- ------<br>credit. --- ------ ----- --- ---- ------- -- ---- --- --<br>------- ------,155579.09999996424,155578.30000001192,154881.883,154882.39999997616,154898.555,155581.708,,43,credit.
screen,html.Screen,0_2_1_1_44,2021-12-10T12:07:08.406Z,,,,,,,,,,,,,,,,54,,,,,,,,,,,,,,1148.4919999880658,,response,,,100,,,,,,Space,keypress(Space),,,,,-- --- ---- --- ------ ----- ------- ---- -- --- ------- --<br>------- ---------- ------ -- ----- -- ----- -- ---- ------<br>--- ----- --- --- ------ -------- ----- --- ------ ----- --<br>----- ----- ---------- --- --- ------ ------ ---- -- ------<br>------- The ------ ----- --- ---- ------- -- ---- --- --<br>------- ------,156731,156730.19999998808,155565.04,155579.39999997616,155581.708,156732.137,,44,The
screen,html.Screen,0_2_1_1_45,2021-12-10T12:07:08.974Z,,,,,,,,,,,,,,,,54,,,,,,,,,,,,,,566.4629999642493,,response,,,100,,,,,,Space,keypress(Space),,,,,-- --- ---- --- ------ ----- ------- ---- -- --- ------- --<br>------- ---------- ------ -- ----- -- ----- -- ---- ------<br>--- ----- --- --- ------ -------- ----- --- ------ ----- --<br>----- ----- ---------- --- --- ------ ------ ---- -- ------<br>------- --- French ----- --- ---- ------- -- ---- --- --<br>------- ------,157299.30000001192,157298.59999996424,156715.467,156731.30000001192,156732.137,157315.672,,45,French
screen,html.Screen,0_2_1_1_46,2021-12-10T12:07:09.550Z,,,,,,,,,,,,,,,,54,,,,,,,,,,,,,,558.4279999642458,,response,,,100,,,,,,Space,keypress(Space),,,,,-- --- ---- --- ------ ----- ------- ---- -- --- ------- --<br>------- ---------- ------ -- ----- -- ----- -- ---- ------<br>--- ----- --- --- ------ -------- ----- --- ------ ----- --<br>----- ----- ---------- --- --- ------ ------ ---- -- ------<br>------- --- ------ state --- ---- ------- -- ---- --- --<br>------- ------,157874.89999997616,157874.09999996424,157299.002,157299.59999996424,157315.672,157882.496,,46,state
screen,html.Screen,0_2_1_1_47,2021-12-10T12:07:10.325Z,,,,,,,,,,,,,,,,54,,,,,,,,,,,,,,767.5039999999863,,response,,,100,,,,,,Space,keypress(Space),,,,,-- --- ---- --- ------ ----- ------- ---- -- --- ------- --<br>------- ---------- ------ -- ----- -- ----- -- ---- ------<br>--- ----- --- --- ------ -------- ----- --- ------ ----- --<br>----- ----- ---------- --- --- ------ ------ ---- -- ------<br>------- --- ------ ----- was ---- ------- -- ---- --- --<br>------- ------,158650.80000001192,158650,157865.826,157875.19999998808,157882.496,158665.977,,47,was
screen,html.Screen,0_2_1_1_48,2021-12-10T12:07:10.885Z,,,,,,,,,,,,,,,,54,,,,,,,,,,,,,,544.0229999999865,,response,,,100,,,,,,Space,keypress(Space),,,,,-- --- ---- --- ------ ----- ------- ---- -- --- ------- --<br>------- ---------- ------ -- ----- -- ----- -- ---- ------<br>--- ----- --- --- ------ -------- ----- --- ------ ----- --<br>----- ----- ---------- --- --- ------ ------ ---- -- ------<br>------- --- ------ ----- --- left ------- -- ---- --- --<br>------- ------,159210.80000001192,159210,158649.307,158651.09999996424,158665.977,159216.16,,48,left
screen,html.Screen,0_2_1_1_49,2021-12-10T12:07:11.485Z,,,,,,,,,,,,,,,,54,,,,,,,,,,,,,,593.7399999761546,,response,,,100,,,,,,Space,keypress(Space),,,,,-- --- ---- --- ------ ----- ------- ---- -- --- ------- --<br>------- ---------- ------ -- ----- -- ----- -- ---- ------<br>--- ----- --- --- ------ -------- ----- --- ------ ----- --<br>----- ----- ---------- --- --- ------ ------ ---- -- ------<br>------- --- ------ ----- --- ---- without -- ---- --- --<br>------- ------,159810.69999998808,159809.89999997616,159199.49,159211.09999996424,159216.16,159816.29,,49,without
screen,html.Screen,0_2_1_1_50,2021-12-10T12:07:12.013Z,,,,,,,,,,,,,,,,54,,,,,,,,,,,,,,521.60999997615,,response,,,100,,,,,,Space,keypress(Space),,,,,-- --- ---- --- ------ ----- ------- ---- -- --- ------- --<br>------- ---------- ------ -- ----- -- ----- -- ---- ------<br>--- ----- --- --- ------ -------- ----- --- ------ ----- --<br>----- ----- ---------- --- --- ------ ------ ---- -- ------<br>------- --- ------ ----- --- ---- ------- an ---- --- --<br>------- ------,160338.69999998808,160337.89999997616,159799.62,159810.89999997616,159816.29,160349.76,,50,an
screen,html.Screen,0_2_1_1_51,2021-12-10T12:07:12.621Z,,,,,,,,,,,,,,,,54,,,,,,,,,,,,,,596.1399999761488,,response,,,100,,,,,,Space,keypress(Space),,,,,-- --- ---- --- ------ ----- ------- ---- -- --- ------- --<br>------- ---------- ------ -- ----- -- ----- -- ---- ------<br>--- ----- --- --- ------ -------- ----- --- ------ ----- --<br>----- ----- ---------- --- --- ------ ------ ---- -- ------<br>------- --- ------ ----- --- ---- ------- -- easy --- --<br>------- ------,160946.69999998808,160945.89999997616,160333.09,160338.89999997616,160349.76,160949.901,,51,easy
screen,html.Screen,0_2_1_1_52,2021-12-10T12:07:13.149Z,,,,,,,,,,,,,,,,54,,,,,,,,,,,,,,523.6989999642246,,response,,,100,,,,,,Space,keypress(Space),,,,,-- --- ---- --- ------ ----- ------- ---- -- --- ------- --<br>------- ---------- ------ -- ----- -- ----- -- ---- ------<br>--- ----- --- --- ------ -------- ----- --- ------ ----- --<br>----- ----- ---------- --- --- ------ ------ ---- -- ------<br>------- --- ------ ----- --- ---- ------- -- ---- way --<br>------- ------,161474.09999996424,161473.59999996424,160933.231,160946.89999997616,160949.901,161483.364,,52,way
screen,html.Screen,0_2_1_1_53,2021-12-10T12:07:13.773Z,,,,,,,,,,,,,,,,54,,,,,,,,,,,,,,614.4360000119195,,response,,,100,,,,,,Space,keypress(Space),,,,,-- --- ---- --- ------ ----- ------- ---- -- --- ------- --<br>------- ---------- ------ -- ----- -- ----- -- ---- ------<br>--- ----- --- --- ------ -------- ----- --- ------ ----- --<br>----- ----- ---------- --- --- ------ ------ ---- -- ------<br>------- --- ------ ----- --- ---- ------- -- ---- --- of<br>------- ------,162098.69999998808,162097.80000001192,161466.694,161474.19999998808,161483.364,162100.083,,53,of
screen,html.Screen,0_2_1_1_54,2021-12-10T12:07:14.341Z,,,,,,,,,,,,,,,,54,,,,,,,,,,,,,,565.6169999880658,,response,,,100,,,,,,Space,keypress(Space),,,,,-- --- ---- --- ------ ----- ------- ---- -- --- ------- --<br>------- ---------- ------ -- ----- -- ----- -- ---- ------<br>--- ----- --- --- ------ -------- ----- --- ------ ----- --<br>----- ----- ---------- --- --- ------ ------ ---- -- ------<br>------- --- ------ ----- --- ---- ------- -- ---- --- --<br>raising ------,162666.59999996424,162665.69999998808,162083.414,162098.80000001192,162100.083,162683.702,,54,raising
screen,html.Screen,0_2_1_1_55,2021-12-10T12:07:14.869Z,,,,,,,,,,,,,,,,54,,,,,,,,,,,,,,510.0980000119307,,response,,,100,,,,,,Space,keypress(Space),,,,,-- --- ---- --- ------ ----- ------- ---- -- --- ------- --<br>------- ---------- ------ -- ----- -- ----- -- ---- ------<br>--- ----- --- --- ------ -------- ----- --- ------ ----- --<br>----- ----- ---------- --- --- ------ ------ ---- -- ------<br>------- --- ------ ----- --- ---- ------- -- ---- --- --<br>------- money.,163194.59999996424,163193.80000001192,162667.031,162666.80000001192,162683.702,163200.466,,55,money.
Item 100,flow.Loop,0_2_1_1,2021-12-10T12:07:14.870Z,,,,,,,,,,,,,,,,,,,,,,,,,,,,,,38102.850000011924,,completion,,,,E,,,,,,,,,,silence,,163195.09999996424,163193.80000001192,125074.281,125076,125090.95,163200.466,,,
Question 1,html.Screen,0_2_1_2,2021-12-10T12:07:27.923Z,,,,,,,,,,,,,,,,,,,,,,,,,,,false,TRUE,,13046.633999964251,,response,,,100,E,,,,,FALSE,click #choice-2,,,,silence,,176248.39999997616,176247.09999996424,163183.796,163195.19999998808,163200.466,176270.272,,,
Question 2,html.Screen,0_2_1_3,2021-12-10T12:07:30.974Z,,,,,,,,,,,,,,,,,,,,,,,,,,,true,FALSE,,3027.627999976161,,response,,,100,E,,,,,FALSE,click #choice-2,,,,silence,,179299.19999998808,179297.89999997616,176236.932,176248.59999996424,176270.272,179320.912,,,
Item 100,flow.Sequence,0_2_1,2021-12-10T12:07:30.974Z,,,,,,,,,,,,,,,,,,,,,,,,,,,,,,64209.10099997616,,completion,,,,,,,,,,,,,,,,179299.5,179297.89999997616,115072.128,115081,115088.799,179320.912,,,
End of Practice,html.Page,0_2_2,2021-12-10T12:07:37.954Z,,,,,,,,,,,,,,,,,,,,,,,,,,,,,,6952.38800001191,,form submission,,,,,,,,,,,,,,,,186273.89999997616,186273.30000001192,179304.243,179299.69999998808,179320.912,186272.622,,,
Practice,flow.Sequence,0_2,2021-12-10T12:07:37.954Z,,,,,,,,,,,,,,,,,,,,,,,,,,,,,,136569.5510000119,,completion,,,,,,,,,,,,,,,,186274.30000001192,186273.30000001192,49687.09,49704.89999997616,49703.749,186272.622,,,
Trap_instruction,html.Page,0_3_0,2021-12-10T12:07:43.745Z,,,,,,,,,,,,,,,,,,,,,,,,,,,,,,5792.277999976155,,form submission,,,,,,,,,,,,,,,,192065.5,192064.89999997616,186255.952,186274.80000001192,186272.622,192090.465,,,
trap_trial,html.Screen,0_3_1,2021-12-10T12:07:48.331Z,,,,,,,,,,,,,,,,,,,,,,,,,,,true,1,,4559.335000011924,,response,,,,,,,,,1,click #choice-1,,,,,,196651.09999996424,196649.80000001192,192057.125,192065.69999998808,192090.465,196658.356,,,
end of trap trial,html.Page,0_3_2,2021-12-10T12:07:51.180Z,,,,,,,,,,,,,,,,,,,,,,,,,,,,,,2841.0439999761584,,form submission,,,,,,,,,,,,,,,,199499.89999997616,199499.39999997616,196641.686,196651.30000001192,196658.356,199509.127,,,
Trap 1,flow.Sequence,0_3,2021-12-10T12:07:51.180Z,,,,,,,,,,,,,,,,,,,,,,,,,,,,,,13226.777999976155,,completion,,,,,,,,,,,,,,,,199500.30000001192,199499.39999997616,186255.952,186274.59999996424,186272.622,199509.127,,,
Standby,html.Page,0_4_0,2021-12-10T12:07:59.175Z,,,,,,,,,,,,,,,,,,,,,,,,,,,,,,8001.720000000001,,timeout,,,,,,,,,,,,,,,,207494.89999997616,207494.177,199492.457,199500.5,199509.127,207510.847,,,
Holding screen,html.Screen,0_4_1_0_0,2021-12-10T12:08:06.178Z,,,,,,,,,,,,,,,,,,,,,,,,,,,,,,7001.979999999981,,timeout,,,,,,,,,,,,,,,,214498.59999996424,214496.157,207494.177,207495.19999998808,207510.847,214512.827,,,
screen,html.Screen,0_4_1_0_1_0,2021-12-10T12:08:07.214Z,,,,,,,,,,,,,,,,2,,,,,,,,,,,,,,1021.0729999761679,,response,,,1,E,,,,,Space,keypress(Space),,,,lyrical,Two ---- ------ --- ------- ---------- ------- ----------<br>--- --------- --- ----------- ------- ----- ------- ---<br>--------- ---- -- --- ---- -- --------- -- ---- -------<br>-- --------- ------ --- ----- ------ ---- --- --------- --<br>------ - ---- -- --- ----------- ------- ---- ----- -----<br>--- -------- - ------ ---- -- ----- ---- --- --- -----------<br>-- -------,215534.30000001192,215533.89999997616,214496.157,214498.80000001192,214512.827,215546.413,,0,Two
screen,html.Screen,0_4_1_0_1_1,2021-12-10T12:08:07.710Z,,,,,,,,,,,,,,,,2,,,,,,,,,,,,,,483.18699996423675,,response,,,1,E,,,,,Space,keypress(Space),,,,lyrical,--- days ------ --- ------- ---------- ------- ----------<br>--- --------- --- ----------- ------- ----- ------- ---<br>--------- ---- -- --- ---- -- --------- -- ---- -------<br>-- --------- ------ --- ----- ------ ---- --- --------- --<br>------ - ---- -- --- ----------- ------- ---- ----- -----<br>--- -------- - ------ ---- -- ----- ---- --- --- -----------<br>-- -------,216030,216029.59999996424,215529.743,215534.5,215546.413,216046.555,,1,days
screen,html.Screen,0_4_1_0_1_2,2021-12-10T12:08:08.382Z,,,,,,,,,,,,,,,,2,,,,,,,,,,,,,,655.0449999642442,,response,,,1,E,,,,,Space,keypress(Space),,,,lyrical,"--- ---- later, --- ------- ---------- ------- ----------<br>--- --------- --- ----------- ------- ----- ------- ---<br>--------- ---- -- --- ---- -- --------- -- ---- -------<br>-- --------- ------ --- ----- ------ ---- --- --------- --<br>------ - ---- -- --- ----------- ------- ---- ----- -----<br>--- -------- - ------ ---- -- ----- ---- --- --- -----------<br>-- -------",216702,216701.59999996424,216029.885,216030.09999996424,216046.555,216713.38,,2,"later,"
screen,html.Screen,0_4_1_0_1_3,2021-12-10T12:08:09.030Z,,,,,,,,,,,,,,,,2,,,,,,,,,,,,,,636.2199999642326,,response,,,1,E,,,,,Space,keypress(Space),,,,lyrical,--- ---- ------ the ------- ---------- ------- ----------<br>--- --------- --- ----------- ------- ----- ------- ---<br>--------- ---- -- --- ---- -- --------- -- ---- -------<br>-- --------- ------ --- ----- ------ ---- --- --------- --<br>------ - ---- -- --- ----------- ------- ---- ----- -----<br>--- -------- - ------ ---- -- ----- ---- --- --- -----------<br>-- -------,217350.19999998808,217349.59999996424,216696.71,216702.19999998808,216713.38,217363.54,,3,the
screen,html.Screen,0_4_1_0_1_4,2021-12-10T12:08:09.550Z,,,,,,,,,,,,,,,,2,,,,,,,,,,,,,,505.95999999999185,,response,,,1,E,,,,,Space,keypress(Space),,,,lyrical,--- ---- ------ --- British ---------- ------- ----------<br>--- --------- --- ----------- ------- ----- ------- ---<br>--------- ---- -- --- ---- -- --------- -- ---- -------<br>-- --------- ------ --- ----- ------ ---- --- --------- --<br>------ - ---- -- --- ----------- ------- ---- ----- -----<br>--- -------- - ------ ---- -- ----- ---- --- --- -----------<br>-- -------,217869.89999997616,217869.5,217346.87,217350.19999998808,217363.54,217880.338,,4,British
screen,html.Screen,0_4_1_0_1_5,2021-12-10T12:08:10.302Z,,,,,,,,,,,,,,,,2,,,,,,,,,,,,,,741.1620000000112,,response,,,1,E,,,,,Space,keypress(Space),,,,lyrical,--- ---- ------ --- ------- astronomer ------- ----------<br>--- --------- --- ----------- ------- ----- ------- ---<br>--------- ---- -- --- ---- -- --------- -- ---- -------<br>-- --------- ------ --- ----- ------ ---- --- --------- --<br>------ - ---- -- --- ----------- ------- ---- ----- -----<br>--- -------- - ------ ---- -- ----- ---- --- --- -----------<br>-- -------,218621.89999997616,218621.5,217863.668,217870,217880.338,218630.515,,5,astronomer
screen,html.Screen,0_4_1_0_1_6,2021-12-10T12:08:10.870Z,,,,,,,,,,,,,,,,2,,,,,,,,,,,,,,558.8849999761442,,response,,,1,E,,,,,Space,keypress(Space),,,,lyrical,--- ---- ------ --- ------- ---------- Richard ----------<br>--- --------- --- ----------- ------- ----- ------- ---<br>--------- ---- -- --- ---- -- --------- -- ---- -------<br>-- --------- ------ --- ----- ------ ---- --- --------- --<br>------ - ---- -- --- ----------- ------- ---- ----- -----<br>--- -------- - ------ ---- -- ----- ---- --- --- -----------<br>-- -------,219189.69999998808,219189.39999997616,218613.845,218622.09999996424,218630.515,219197.305,,6,Richard
screen,html.Screen,0_4_1_0_1_7,2021-12-10T12:08:11.606Z,,,,,,,,,,,,,,,,2,,,,,,,,,,,,,,728.0949999761651,,response,,,1,E,,,,,Space,keypress(Space),,,,lyrical,--- ---- ------ --- ------- ---------- ------- Carrington<br>--- --------- --- ----------- ------- ----- ------- ---<br>--------- ---- -- --- ---- -- --------- -- ---- -------<br>-- --------- ------ --- ----- ------ ---- --- --------- --<br>------ - ---- -- --- ----------- ------- ---- ----- -----<br>--- -------- - ------ ---- -- ----- ---- --- --- -----------<br>-- -------,219925.80000001192,219925.39999997616,219180.635,219189.80000001192,219197.305,219930.83,,7,Carrington
screen,html.Screen,0_4_1_0_1_8,2021-12-10T12:08:12.102Z,,,,,,,,,,,,,,,,2,,,,,,,,,,,,,,490.47000001193373,,response,,,1,E,,,,,Space,keypress(Space),,,,lyrical,--- ---- ------ --- ------- ---------- ------- ----------<br>was --------- --- ----------- ------- ----- ------- ---<br>--------- ---- -- --- ---- -- --------- -- ---- -------<br>-- --------- ------ --- ----- ------ ---- --- --------- --<br>------ - ---- -- --- ----------- ------- ---- ----- -----<br>--- -------- - ------ ---- -- ----- ---- --- --- -----------<br>-- -------,220421.69999998808,220421.30000001192,219914.16,219925.89999997616,219930.83,220430.928,,8,was
screen,html.Screen,0_4_1_0_1_9,2021-12-10T12:08:12.797Z,,,,,,,,,,,,,,,,2,,,,,,,,,,,,,,686.2719999880646,,response,,,1,E,,,,,Space,keypress(Space),,,,lyrical,--- ---- ------ --- ------- ---------- ------- ----------<br>--- observing --- ----------- ------- ----- ------- ---<br>--------- ---- -- --- ---- -- --------- -- ---- -------<br>-- --------- ------ --- ----- ------ ---- --- --------- --<br>------ - ---- -- --- ----------- ------- ---- ----- -----<br>--- -------- - ------ ---- -- ----- ---- --- --- -----------<br>-- -------,221117.69999998808,221117.19999998808,220414.258,220421.89999997616,220430.928,221131.122,,9,observing
screen,html.Screen,0_4_1_0_1_10,2021-12-10T12:08:13.477Z,,,,,,,,,,,,,,,,2,,,,,,,,,,,,,,665.9779999642342,,response,,,1,E,,,,,Space,keypress(Space),,,,lyrical,--- ---- ------ --- ------- ---------- ------- ----------<br>--- --------- the ----------- ------- ----- ------- ---<br>--------- ---- -- --- ---- -- --------- -- ---- -------<br>-- --------- ------ --- ----- ------ ---- --- --------- --<br>------ - ---- -- --- ----------- ------- ---- ----- -----<br>--- -------- - ------ ---- -- ----- ---- --- --- -----------<br>-- -------,221797.5,221797.09999996424,221114.452,221117.80000001192,221131.122,221797.95,,10,the
screen,html.Screen,0_4_1_0_1_11,2021-12-10T12:08:14.077Z,,,,,,,,,,,,,,,,2,,,,,,,,,,,,,,599.2499999880674,,response,,,1,E,,,,,Space,keypress(Space),,,,lyrical,--- ---- ------ --- ------- ---------- ------- ----------<br>--- --------- --- interesting ------- ----- ------- ---<br>--------- ---- -- --- ---- -- --------- -- ---- -------<br>-- --------- ------ --- ----- ------ ---- --- --------- --<br>------ - ---- -- --- ----------- ------- ---- ----- -----<br>--- -------- - ------ ---- -- ----- ---- --- --- -----------<br>-- -------,222397.69999998808,222397.19999998808,221781.28,221797.59999996424,221797.95,222398.1,,11,interesting
screen,html.Screen,0_4_1_0_1_12,2021-12-10T12:08:14.925Z,,,,,,,,,,,,,,,,2,,,,,,,,,,,,,,847.0999999880733,,response,,,1,E,,,,,Space,keypress(Space),,,,lyrical,--- ---- ------ --- ------- ---------- ------- ----------<br>--- --------- --- ----------- sunspot ----- ------- ---<br>--------- ---- -- --- ---- -- --------- -- ---- -------<br>-- --------- ------ --- ----- ------ ---- --- --------- --<br>------ - ---- -- --- ----------- ------- ---- ----- -----<br>--- -------- - ------ ---- -- ----- ---- --- --- -----------<br>-- -------,223245.59999996424,223245.19999998808,222381.43,222397.69999998808,222398.1,223248.281,,12,sunspot
screen,html.Screen,0_4_1_0_1_13,2021-12-10T12:08:15.685Z,,,,,,,,,,,,,,,,2,,,,,,,,,,,,,,756.7190000000119,,response,,,1,E,,,,,Space,keypress(Space),,,,lyrical,--- ---- ------ --- ------- ---------- ------- ----------<br>--- --------- --- ----------- ------- group ------- ---<br>--------- ---- -- --- ---- -- --------- -- ---- -------<br>-- --------- ------ --- ----- ------ ---- --- --------- --<br>------ - ---- -- --- ----------- ------- ---- ----- -----<br>--- -------- - ------ ---- -- ----- ---- --- --- -----------<br>-- -------,224005.5,224005,223231.611,223245.59999996424,223248.281,224015.151,,13,group
screen,html.Screen,0_4_1_0_1_14,2021-12-10T12:08:16.381Z,,,,,,,,,,,,,,,,2,,,,,,,,,,,,,,685.8489999999874,,response,,,1,E,,,,,Space,keypress(Space),,,,lyrical,--- ---- ------ --- ------- ---------- ------- ----------<br>--- --------- --- ----------- ------- ----- through ---<br>--------- ---- -- --- ---- -- --------- -- ---- -------<br>-- --------- ------ --- ----- ------ ---- --- --------- --<br>------ - ---- -- --- ----------- ------- ---- ----- -----<br>--- -------- - ------ ---- -- ----- ---- --- --- -----------<br>-- -------,224701.39999997616,224701,223998.481,224005.59999996424,224015.151,224715.326,,14,through
screen,html.Screen,0_4_1_0_1_15,2021-12-10T12:08:17.125Z,,,,,,,,,,,,,,,,2,,,,,,,,,,,,,,729.6739999999991,,response,,,1,E,,,,,Space,keypress(Space),,,,lyrical,--- ---- ------ --- ------- ---------- ------- ----------<br>--- --------- --- ----------- ------- ----- ------- his<br>--------- ---- -- --- ---- -- --------- -- ---- -------<br>-- --------- ------ --- ----- ------ ---- --- --------- --<br>------ - ---- -- --- ----------- ------- ---- ----- -----<br>--- -------- - ------ ---- -- ----- ---- --- --- -----------<br>-- -------,225445.39999997616,225445,224698.656,224701.5,224715.326,225448.834,,15,his
screen,html.Screen,0_4_1_0_1_16,2021-12-10T12:08:17.789Z,,,,,,,,,,,,,,,,2,,,,,,,,,,,,,,660.2659999642347,,response,,,1,E,,,,,Space,keypress(Space),,,,lyrical,--- ---- ------ --- ------- ---------- ------- ----------<br>--- --------- --- ----------- ------- ----- ------- ---<br>telescope ---- -- --- ---- -- --------- -- ---- -------<br>-- --------- ------ --- ----- ------ ---- --- --------- --<br>------ - ---- -- --- ----------- ------- ---- ----- -----<br>--- -------- - ------ ---- -- ----- ---- --- --- -----------<br>-- -------,226109.59999996424,226109.09999996424,225432.164,225445.5,225448.834,226115.638,,16,telescope
screen,html.Screen,0_4_1_0_1_17,2021-12-10T12:08:18.517Z,,,,,,,,,,,,,,,,2,,,,,,,,,,,,,,721.2619999761519,,response,,,1,E,,,,,Space,keypress(Space),,,,lyrical,--- ---- ------ --- ------- ---------- ------- ----------<br>--- --------- --- ----------- ------- ----- ------- ---<br>--------- when -- --- ---- -- --------- -- ---- -------<br>-- --------- ------ --- ----- ------ ---- --- --------- --<br>------ - ---- -- --- ----------- ------- ---- ----- -----<br>--- -------- - ------ ---- -- ----- ---- --- --- -----------<br>-- -------,226837.19999998808,226836.89999997616,226098.968,226109.69999998808,226115.638,226849.173,,17,when
screen,html.Screen,0_4_1_0_1_18,2021-12-10T12:08:19.165Z,,,,,,,,,,,,,,,,2,,,,,,,,,,,,,,635.5269999880693,,response,,,1,E,,,,,Space,keypress(Space),,,,lyrical,--- ---- ------ --- ------- ---------- ------- ----------<br>--- --------- --- ----------- ------- ----- ------- ---<br>--------- ---- he --- ---- -- --------- -- ---- -------<br>-- --------- ------ --- ----- ------ ---- --- --------- --<br>------ - ---- -- --- ----------- ------- ---- ----- -----<br>--- -------- - ------ ---- -- ----- ---- --- --- -----------<br>-- -------,227485.30000001192,227484.69999998808,226832.503,226837.39999997616,226849.173,227499.36,,18,he
screen,html.Screen,0_4_1_0_1_19,2021-12-10T12:08:19.789Z,,,,,,,,,,,,,,,,2,,,,,,,,,,,,,,609.339999988093,,response,,,1,E,,,,,Space,keypress(Space),,,,lyrical,--- ---- ------ --- ------- ---------- ------- ----------<br>--- --------- --- ----------- ------- ----- ------- ---<br>--------- ---- -- saw ---- -- --------- -- ---- -------<br>-- --------- ------ --- ----- ------ ---- --- --------- --<br>------ - ---- -- --- ----------- ------- ---- ----- -----<br>--- -------- - ------ ---- -- ----- ---- --- --- -----------<br>-- -------,228109.09999996424,228108.69999998808,227482.69,227485.30000001192,227499.36,228116.146,,19,saw
screen,html.Screen,0_4_1_0_1_20,2021-12-10T12:08:20.509Z,,,,,,,,,,,,,,,,2,,,,,,,,,,,,,,712.5539999880712,,response,,,1,E,,,,,Space,keypress(Space),,,,lyrical,--- ---- ------ --- ------- ---------- ------- ----------<br>--- --------- --- ----------- ------- ----- ------- ---<br>--------- ---- -- --- what -- --------- -- ---- -------<br>-- --------- ------ --- ----- ------ ---- --- --------- --<br>------ - ---- -- --- ----------- ------- ---- ----- -----<br>--- -------- - ------ ---- -- ----- ---- --- --- -----------<br>-- -------,228829.30000001192,228828.69999998808,228099.476,228109.30000001192,228116.146,228832.993,,20,what
screen,html.Screen,0_4_1_0_1_21,2021-12-10T12:08:21.125Z,,,,,,,,,,,,,,,,2,,,,,,,,,,,,,,611.7069999880914,,response,,,1,E,,,,,Space,keypress(Space),,,,lyrical,--- ---- ------ --- ------- ---------- ------- ----------<br>--- --------- --- ----------- ------- ----- ------- ---<br>--------- ---- -- --- ---- he --------- -- ---- -------<br>-- --------- ------ --- ----- ------ ---- --- --------- --<br>------ - ---- -- --- ----------- ------- ---- ----- -----<br>--- -------- - ------ ---- -- ----- ---- --- --- -----------<br>-- -------,229445,229444.69999998808,228816.323,228829.39999997616,228832.993,229449.791,,21,he
screen,html.Screen,0_4_1_0_1_22,2021-12-10T12:08:21.821Z,,,,,,,,,,,,,,,,2,,,,,,,,,,,,,,690.8089999642398,,response,,,1,E,,,,,Space,keypress(Space),,,,lyrical,--- ---- ------ --- ------- ---------- ------- ----------<br>--- --------- --- ----------- ------- ----- ------- ---<br>--------- ---- -- --- ---- -- described -- ---- -------<br>-- --------- ------ --- ----- ------ ---- --- --------- --<br>------ - ---- -- --- ----------- ------- ---- ----- -----<br>--- -------- - ------ ---- -- ----- ---- --- --- -----------<br>-- -------,230141,230140.59999996424,229433.121,229445.09999996424,229449.791,230149.955,,22,described
screen,html.Screen,0_4_1_0_1_23,2021-12-10T12:08:22.541Z,,,,,,,,,,,,,,,,2,,,,,,,,,,,,,,710.7449999880919,,response,,,1,E,,,,,Space,keypress(Space),,,,lyrical,--- ---- ------ --- ------- ---------- ------- ----------<br>--- --------- --- ----------- ------- ----- ------- ---<br>--------- ---- -- --- ---- -- --------- as ---- -------<br>-- --------- ------ --- ----- ------ ---- --- --------- --<br>------ - ---- -- --- ----------- ------- ---- ----- -----<br>--- -------- - ------ ---- -- ----- ---- --- --- -----------<br>-- -------,230861.09999996424,230860.69999998808,230133.285,230141.09999996424,230149.955,230866.812,,23,as
screen,html.Screen,0_4_1_0_1_24,2021-12-10T12:08:23.245Z,,,,,,,,,,,,,,,,2,,,,,,,,,,,,,,697.7879999642319,,response,,,1,E,,,,,Space,keypress(Space),,,,lyrical,"--- ---- ------ --- ------- ---------- ------- ----------<br>--- --------- --- ----------- ------- ----- ------- ---<br>--------- ---- -- --- ---- -- --------- -- ""two -------<br>-- --------- ------ --- ----- ------ ---- --- --------- --<br>------ - ---- -- --- ----------- ------- ---- ----- -----<br>--- -------- - ------ ---- -- ----- ---- --- --- -----------<br>-- -------",231565,231564.59999996424,230850.142,230861.09999996424,230866.812,231566.976,,24,"""two"
screen,html.Screen,0_4_1_0_1_25,2021-12-10T12:08:23.973Z,,,,,,,,,,,,,,,,2,,,,,,,,,,,,,,725.423999976163,,response,,,1,E,,,,,Space,keypress(Space),,,,lyrical,--- ---- ------ --- ------- ---------- ------- ----------<br>--- --------- --- ----------- ------- ----- ------- ---<br>--------- ---- -- --- ---- -- --------- -- ---- patches<br>-- --------- ------ --- ----- ------ ---- --- --------- --<br>------ - ---- -- --- ----------- ------- ---- ----- -----<br>--- -------- - ------ ---- -- ----- ---- --- --- -----------<br>-- -------,232292.89999997616,232292.39999997616,231550.306,231565.09999996424,231566.976,232300.488,,25,patches
screen,html.Screen,0_4_1_0_1_26,2021-12-10T12:08:24.661Z,,,,,,,,,,,,,,,,2,,,,,,,,,,,,,,679.911999976146,,response,,,1,E,,,,,Space,keypress(Space),,,,lyrical,--- ---- ------ --- ------- ---------- ------- ----------<br>--- --------- --- ----------- ------- ----- ------- ---<br>--------- ---- -- --- ---- -- --------- -- ---- -------<br>of --------- ------ --- ----- ------ ---- --- --------- --<br>------ - ---- -- --- ----------- ------- ---- ----- -----<br>--- -------- - ------ ---- -- ----- ---- --- --- -----------<br>-- -------,232980.80000001192,232980.39999997616,232283.818,232293,232300.488,232983.999,,26,of
screen,html.Screen,0_4_1_0_1_27,2021-12-10T12:08:25.413Z,,,,,,,,,,,,,,,,2,,,,,,,,,,,,,,748.3010000119102,,response,,,1,E,,,,,Space,keypress(Space),,,,lyrical,--- ---- ------ --- ------- ---------- ------- ----------<br>--- --------- --- ----------- ------- ----- ------- ---<br>--------- ---- -- --- ---- -- --------- -- ---- -------<br>-- intensely ------ --- ----- ------ ---- --- --------- --<br>------ - ---- -- --- ----------- ------- ---- ----- -----<br>--- -------- - ------ ---- -- ----- ---- --- --- -----------<br>-- -------,233732.80000001192,233732.30000001192,232967.329,232981,232983.999,233734.158,,27,intensely
screen,html.Screen,0_4_1_0_1_28,2021-12-10T12:08:26.140Z,,,,,,,,,,,,,,,,2,,,,,,,,,,,,,,726.1420000119251,,response,,,1,E,,,,,Space,keypress(Space),,,,lyrical,--- ---- ------ --- ------- ---------- ------- ----------<br>--- --------- --- ----------- ------- ----- ------- ---<br>--------- ---- -- --- ---- -- --------- -- ---- -------<br>-- --------- bright --- ----- ------ ---- --- --------- --<br>------ - ---- -- --- ----------- ------- ---- ----- -----<br>--- -------- - ------ ---- -- ----- ---- --- --- -----------<br>-- -------,234460.59999996424,234460.30000001192,233717.488,233732.80000001192,233734.158,234467.695,,28,bright
screen,html.Screen,0_4_1_0_1_29,2021-12-10T12:08:26.828Z,,,,,,,,,,,,,,,,2,,,,,,,,,,,,,,680.5049999880721,,response,,,1,E,,,,,Space,keypress(Space),,,,lyrical,--- ---- ------ --- ------- ---------- ------- ----------<br>--- --------- --- ----------- ------- ----- ------- ---<br>--------- ---- -- --- ---- -- --------- -- ---- -------<br>-- --------- ------ and ----- ------ ---- --- --------- --<br>------ - ---- -- --- ----------- ------- ---- ----- -----<br>--- -------- - ------ ---- -- ----- ---- --- --- -----------<br>-- -------,235148.59999996424,235148.19999998808,234451.025,234460.59999996424,234467.695,235151.193,,29,and
screen,html.Screen,0_4_1_0_1_30,2021-12-10T12:08:27.517Z,,,,,,,,,,,,,,,,2,,,,,,,,,,,,,,685.5069999880798,,response,,,1,E,,,,,Space,keypress(Space),,,,lyrical,--- ---- ------ --- ------- ---------- ------- ----------<br>--- --------- --- ----------- ------- ----- ------- ---<br>--------- ---- -- --- ---- -- --------- -- ---- -------<br>-- --------- ------ --- white ------ ---- --- --------- --<br>------ - ---- -- --- ----------- ------- ---- ----- -----<br>--- -------- - ------ ---- -- ----- ---- --- --- -----------<br>-- -------,235837.59999996424,235836.69999998808,235134.523,235148.69999998808,235151.193,235851.34,,30,white
screen,html.Screen,0_4_1_0_1_31,2021-12-10T12:08:28.174Z,,,,,,,,,,,,,,,,2,,,,,,,,,,,,,,641.6600000000035,,response,,,1,E,,,,,Space,keypress(Space),,,,lyrical,"--- ---- ------ --- ------- ---------- ------- ----------<br>--- --------- --- ----------- ------- ----- ------- ---<br>--------- ---- -- --- ---- -- --------- -- ---- -------<br>-- --------- ------ --- ----- light"" ---- --- --------- --<br>------ - ---- -- --- ----------- ------- ---- ----- -----<br>--- -------- - ------ ---- -- ----- ---- --- --- -----------<br>-- -------",236493.80000001192,236493,235834.67,235837.80000001192,235851.34,236501.525,,31,"light"""
screen,html.Screen,0_4_1_0_1_32,2021-12-10T12:08:28.861Z,,,,,,,,,,,,,,,,2,,,,,,,,,,,,,,679.074999964243,,response,,,1,E,,,,,Space,keypress(Space),,,,lyrical,--- ---- ------ --- ------- ---------- ------- ----------<br>--- --------- --- ----------- ------- ----- ------- ---<br>--------- ---- -- --- ---- -- --------- -- ---- -------<br>-- --------- ------ --- ----- ------ over --- --------- --<br>------ - ---- -- --- ----------- ------- ---- ----- -----<br>--- -------- - ------ ---- -- ----- ---- --- --- -----------<br>-- -------,237181.39999997616,237180.59999996424,236484.855,236494.09999996424,236501.525,237185.217,,32,over
screen,html.Screen,0_4_1_0_1_33,2021-12-10T12:08:29.525Z,,,,,,,,,,,,,,,,2,,,,,,,,,,,,,,659.2829999999958,,response,,,1,E,,,,,Space,keypress(Space),,,,lyrical,--- ---- ------ --- ------- ---------- ------- ----------<br>--- --------- --- ----------- ------- ----- ------- ---<br>--------- ---- -- --- ---- -- --------- -- ---- -------<br>-- --------- ------ --- ----- ------ ---- the --------- --<br>------ - ---- -- --- ----------- ------- ---- ----- -----<br>--- -------- - ------ ---- -- ----- ---- --- --- -----------<br>-- -------,237845.39999997616,237844.5,237168.545,237181.69999998808,237185.217,237851.918,,33,the
screen,html.Screen,0_4_1_0_1_34,2021-12-10T12:08:30.237Z,,,,,,,,,,,,,,,,2,,,,,,,,,,,,,,704.5819999999949,,response,,,1,E,,,,,Space,keypress(Space),,,,lyrical,--- ---- ------ --- ------- ---------- ------- ----------<br>--- --------- --- ----------- ------- ----- ------- ---<br>--------- ---- -- --- ---- -- --------- -- ---- -------<br>-- --------- ------ --- ----- ------ ---- --- sunspots. --<br>------ - ---- -- --- ----------- ------- ---- ----- -----<br>--- -------- - ------ ---- -- ----- ---- --- --- -----------<br>-- -------,238557.30000001192,238556.5,237835.248,237845.69999998808,237851.918,238568.734,,34,sunspots.
screen,html.Screen,0_4_1_0_1_35,2021-12-10T12:08:30.901Z,,,,,,,,,,,,,,,,2,,,,,,,,,,,,,,651.7660000000033,,response,,,1,E,,,,,Space,keypress(Space),,,,lyrical,--- ---- ------ --- ------- ---------- ------- ----------<br>--- --------- --- ----------- ------- ----- ------- ---<br>--------- ---- -- --- ---- -- --------- -- ---- -------<br>-- --------- ------ --- ----- ------ ---- --- --------- He<br>------ - ---- -- --- ----------- ------- ---- ----- -----<br>--- -------- - ------ ---- -- ----- ---- --- --- -----------<br>-- -------,239221.30000001192,239220.5,238552.064,238557.69999998808,238568.734,239235.525,,35,He
screen,html.Screen,0_4_1_0_1_36,2021-12-10T12:08:31.541Z,,,,,,,,,,,,,,,,2,,,,,,,,,,,,,,624.874999976164,,response,,,1,E,,,,,Space,keypress(Space),,,,lyrical,--- ---- ------ --- ------- ---------- ------- ----------<br>--- --------- --- ----------- ------- ----- ------- ---<br>--------- ---- -- --- ---- -- --------- -- ---- -------<br>-- --------- ------ --- ----- ------ ---- --- --------- --<br>jotted - ---- -- --- ----------- ------- ---- ----- -----<br>--- -------- - ------ ---- -- ----- ---- --- --- -----------<br>-- -------,239861.30000001192,239860.39999997616,239218.855,239221.59999996424,239235.525,239869.129,,36,jotted
screen,html.Screen,0_4_1_0_1_37,2021-12-10T12:08:32.221Z,,,,,,,,,,,,,,,,2,,,,,,,,,,,,,,671.3710000000137,,response,,,1,E,,,,,Space,keypress(Space),,,,lyrical,--- ---- ------ --- ------- ---------- ------- ----------<br>--- --------- --- ----------- ------- ----- ------- ---<br>--------- ---- -- --- ---- -- --------- -- ---- -------<br>-- --------- ------ --- ----- ------ ---- --- --------- --<br>------ a ---- -- --- ----------- ------- ---- ----- -----<br>--- -------- - ------ ---- -- ----- ---- --- --- -----------<br>-- -------,240541.19999998808,240540.5,239852.458,239861.5,239869.129,240552.424,,37,a
screen,html.Screen,0_4_1_0_1_38,2021-12-10T12:08:32.893Z,,,,,,,,,,,,,,,,2,,,,,,,,,,,,,,659.77599998808,,response,,,1,E,,,,,Space,keypress(Space),,,,lyrical,--- ---- ------ --- ------- ---------- ------- ----------<br>--- --------- --- ----------- ------- ----- ------- ---<br>--------- ---- -- --- ---- -- --------- -- ---- -------<br>-- --------- ------ --- ----- ------ ---- --- --------- --<br>------ - note -- --- ----------- ------- ---- ----- -----<br>--- -------- - ------ ---- -- ----- ---- --- --- -----------<br>-- -------,241213.09999996424,241212.19999998808,240535.755,240541.5,240552.424,241219.454,,38,note
screen,html.Screen,0_4_1_0_1_39,2021-12-10T12:08:33.509Z,,,,,,,,,,,,,,,,2,,,,,,,,,,,,,,608.846000011923,,response,,,1,E,,,,,Space,keypress(Space),,,,lyrical,--- ---- ------ --- ------- ---------- ------- ----------<br>--- --------- --- ----------- ------- ----- ------- ---<br>--------- ---- -- --- ---- -- --------- -- ---- -------<br>-- --------- ------ --- ----- ------ ---- --- --------- --<br>------ - ---- in --- ----------- ------- ---- ----- -----<br>--- -------- - ------ ---- -- ----- ---- --- --- -----------<br>-- -------,241829.09999996424,241828.30000001192,241202.783,241213.30000001192,241219.454,241836.216,,39,in
screen,html.Screen,0_4_1_0_1_40,2021-12-10T12:08:34.273Z,,,,,,,,,,,,,,,,2,,,,,,,,,,,,,,752.0840000119351,,response,,,1,E,,,,,Space,keypress(Space),,,,lyrical,--- ---- ------ --- ------- ---------- ------- ----------<br>--- --------- --- ----------- ------- ----- ------- ---<br>--------- ---- -- --- ---- -- --------- -- ---- -------<br>-- --------- ------ --- ----- ------ ---- --- --------- --<br>------ - ---- -- his ----------- ------- ---- ----- -----<br>--- -------- - ------ ---- -- ----- ---- --- --- -----------<br>-- -------,242589.09999996424,242588.30000001192,241819.546,241829.39999997616,241836.216,242603.047,,40,his
screen,html.Screen,0_4_1_0_1_41,2021-12-10T12:08:34.905Z,,,,,,,,,,,,,,,,2,,,,,,,,,,,,,,617.1529999880877,,response,,,1,E,,,,,Space,keypress(Space),,,,lyrical,--- ---- ------ --- ------- ---------- ------- ----------<br>--- --------- --- ----------- ------- ----- ------- ---<br>--------- ---- -- --- ---- -- --------- -- ---- -------<br>-- --------- ------ --- ----- ------ ---- --- --------- --<br>------ - ---- -- --- painstaking ------- ---- ----- -----<br>--- -------- - ------ ---- -- ----- ---- --- --- -----------<br>-- -------,243221.09999996424,243220.19999998808,242586.377,242589.39999997616,242603.047,243236.56,,41,painstaking
screen,html.Screen,0_4_1_0_1_42,2021-12-10T12:08:35.897Z,,,,,,,,,,,,,,,,2,,,,,,,,,,,,,,975.3399999761605,,response,,,1,E,,,,,Space,keypress(Space),,,,lyrical,--- ---- ------ --- ------- ---------- ------- ----------<br>--- --------- --- ----------- ------- ----- ------- ---<br>--------- ---- -- --- ---- -- --------- -- ---- -------<br>-- --------- ------ --- ----- ------ ---- --- --------- --<br>------ - ---- -- --- ----------- record. ---- ----- -----<br>--- -------- - ------ ---- -- ----- ---- --- --- -----------<br>-- -------,244212.80000001192,244211.89999997616,243219.89,243221.39999997616,243236.56,244219.968,,42,record.
screen,html.Screen,0_4_1_0_1_43,2021-12-10T12:08:36.577Z,,,,,,,,,,,,,,,,2,,,,,,,,,,,,,,671.9319999761647,,response,,,1,E,,,,,Space,keypress(Space),,,,lyrical,--- ---- ------ --- ------- ---------- ------- ----------<br>--- --------- --- ----------- ------- ----- ------- ---<br>--------- ---- -- --- ---- -- --------- -- ---- -------<br>-- --------- ------ --- ----- ------ ---- --- --------- --<br>------ - ---- -- --- ----------- ------- That ----- -----<br>--- -------- - ------ ---- -- ----- ---- --- --- -----------<br>-- -------,244892.80000001192,244891.89999997616,244203.299,244213.09999996424,244219.968,244903.687,,43,That
screen,html.Screen,0_4_1_0_1_44,2021-12-10T12:08:37.249Z,,,,,,,,,,,,,,,,2,,,,,,,,,,,,,,660.3129999999946,,response,,,1,E,,,,,Space,keypress(Space),,,,lyrical,--- ---- ------ --- ------- ---------- ------- ----------<br>--- --------- --- ----------- ------- ----- ------- ---<br>--------- ---- -- --- ---- -- --------- -- ---- -------<br>-- --------- ------ --- ----- ------ ---- --- --------- --<br>------ - ---- -- --- ----------- ------- ---- night -----<br>--- -------- - ------ ---- -- ----- ---- --- --- -----------<br>-- -------,245564.89999997616,245564,244887.016,244893.19999998808,244903.687,245570.45,,44,night
screen,html.Screen,0_4_1_0_1_45,2021-12-10T12:08:37.913Z,,,,,,,,,,,,,,,,2,,,,,,,,,,,,,,657.5499999999884,,response,,,1,E,,,,,Space,keypress(Space),,,,lyrical,--- ---- ------ --- ------- ---------- ------- ----------<br>--- --------- --- ----------- ------- ----- ------- ---<br>--------- ---- -- --- ---- -- --------- -- ---- -------<br>-- --------- ------ --- ----- ------ ---- --- --------- --<br>------ - ---- -- --- ----------- ------- ---- ----- there<br>--- -------- - ------ ---- -- ----- ---- --- --- -----------<br>-- -------,246228.80000001192,246228,245553.78,245565.09999996424,245570.45,246237.167,,45,there
screen,html.Screen,0_4_1_0_1_46,2021-12-10T12:08:38.497Z,,,,,,,,,,,,,,,,2,,,,,,,,,,,,,,575.1330000119342,,response,,,1,E,,,,,Space,keypress(Space),,,,lyrical,--- ---- ------ --- ------- ---------- ------- ----------<br>--- --------- --- ----------- ------- ----- ------- ---<br>--------- ---- -- --- ---- -- --------- -- ---- -------<br>-- --------- ------ --- ----- ------ ---- --- --------- --<br>------ - ---- -- --- ----------- ------- ---- ----- -----<br>was -------- - ------ ---- -- ----- ---- --- --- -----------<br>-- -------,246813.09999996424,246812.30000001192,246220.498,246229,246237.167,246820.697,,46,was
screen,html.Screen,0_4_1_0_1_47,2021-12-10T12:08:39.449Z,,,,,,,,,,,,,,,,2,,,,,,,,,,,,,,943.2029999761726,,response,,,1,E,,,,,Space,keypress(Space),,,,lyrical,--- ---- ------ --- ------- ---------- ------- ----------<br>--- --------- --- ----------- ------- ----- ------- ---<br>--------- ---- -- --- ---- -- --------- -- ---- -------<br>-- --------- ------ --- ----- ------ ---- --- --------- --<br>------ - ---- -- --- ----------- ------- ---- ----- -----<br>--- scarcely - ------ ---- -- ----- ---- --- --- -----------<br>-- -------,247764.69999998808,247763.89999997616,246804.027,246813.30000001192,246820.697,247770.914,,47,scarcely
screen,html.Screen,0_4_1_0_1_48,2021-12-10T12:08:40.096Z,,,,,,,,,,,,,,,,2,,,,,,,,,,,,,,640.7859999880893,,response,,,1,E,,,,,Space,keypress(Space),,,,lyrical,--- ---- ------ --- ------- ---------- ------- ----------<br>--- --------- --- ----------- ------- ----- ------- ---<br>--------- ---- -- --- ---- -- --------- -- ---- -------<br>-- --------- ------ --- ----- ------ ---- --- --------- --<br>------ - ---- -- --- ----------- ------- ---- ----- -----<br>--- -------- a ------ ---- -- ----- ---- --- --- -----------<br>-- -------,248412.5,248411.69999998808,247754.244,247764.89999997616,247770.914,248421.209,,48,a
