sender,sender_type,sender_id,timestamp,meta,,Blues,Classical,Country,Dance,Electronic,Folk,Gospel,Hip-Hop,Jazz,Latin,Musical/Film,New-age,Pop,Provo_ID,R&B,Rap,Reggae,Religious,Rock,Soul,Swing,Traditional,age,artist_name,correct,correctResponse,distraction,duration,education,ended_on,familiarity,gender,item,list,music_frequency,offensiveness,pleasantness,preference,response,response_action,snippet_file,song_name,song_rating,sound,text,time_commit,time_end,time_render,time_run,time_show,time_switch,url,word,word_ID
Instructions,html.Page,0_0,2021-11-05T11:03:10.377Z,"{""labjs_version"":""20.2.3"",""labjs_build"":{""flavor"":""production"",""commit"":""7ea907d66ca8aeef8054924ca5d82ffbe11e34e5""},""location"":""https://run.pavlovia.org/mvasilev/lab_music_d/"",""userAgent"":""Mozilla/5.0 (Windows NT 6.1; Win64; x64) AppleWebKit/537.36 (KHTML, like Gecko) Chrome/95.0.4638.54 Safari/537.36"",""platform"":""Win32"",""language"":""en-US"",""locale"":""en-US"",""timeZone"":""Europe/London"",""timezoneOffset"":0,""screen_width"":1920,""screen_height"":1080,""scroll_width"":1920,""scroll_height"":959,""window_innerWidth"":1920,""window_innerHeight"":1007,""devicePixelRatio"":1}",,,,,,,,,,,,,,,,,,,,,,,,,,,,,39310.88100000298,,form submission,,,,,,,,,,,,,,,,50352.5,50351.20000000298,11023.649,11018.20000000298,11040.319,50350.69,{},,
Headphones,html.Page,0_1,2021-11-05T11:03:20.622Z,,,,,,,,,,,,,,,,,,,,,,,,,,,,,,10242.410000008938,,form submission,,,,,,,,,,,,,,,,60593.70000000298,60593.10000000894,50334.024,50353.30000001192,50350.69,60602.886,,,
Holding screen,html.Screen,0_2_0_0,2021-11-05T11:03:30.623Z,,,,,,,,,,,,,,,,,,,,,,,,,,,,,,10052.974000000002,,timeout,,,,,,,,,,,,,,,,70594.80000001192,70589.184,60586.217,60594.30000001192,60602.886,70655.86,,,
screen,html.Screen,0_2_0_1_0,2021-11-05T11:03:31.683Z,,,,,,,,,,,,,,,,53,,,,,,,,,,,,,,996.7400000089401,,response,,,99,,,,,,Space,keypress(Space),,,,,When -- ----- -- ------ - ------- --- ----------<br>------------- ------ ------ ---- ---- ------- ----- -- ----<br>-------- ------- -- ---------- --- - --- ----- ----- ----<br>---- --- --- ----- --- ---- ---- ------- ----- ---- -------<br>--- --- -- ----- -- --- ---- -- --- ---- -- ------ ------<br>--- ----- -- ----,71654,71652.60000000894,70589.184,70595.20000000298,70655.86,71656.393,,0,When
screen,html.Screen,0_2_0_1_1,2021-11-05T11:03:33.386Z,,,,,,,,,,,,,,,,53,,,,,,,,,,,,,,1699.8070000029838,,response,,,99,,,,,,Space,keypress(Space),,,,,---- it ----- -- ------ - ------- --- ----------<br>------------- ------ ------ ---- ---- ------- ----- -- ----<br>-------- ------- -- ---------- --- - --- ----- ----- ----<br>---- --- --- ----- --- ---- ---- ------- ----- ---- -------<br>--- --- -- ----- -- --- ---- -- --- ---- -- ------ ------<br>--- ----- -- ----,73357.10000000894,73356.20000000298,71639.722,71654.5,71656.393,73373.35,,1,it
screen,html.Screen,0_2_0_1_2,2021-11-05T11:03:34.729Z,,,,,,,,,,,,,,,,53,,,,,,,,,,,,,,1326.7500000089349,,response,,,99,,,,,,Space,keypress(Space),,,,,---- -- comes -- ------ - ------- --- ----------<br>------------- ------ ------ ---- ---- ------- ----- -- ----<br>-------- ------- -- ---------- --- - --- ----- ----- ----<br>---- --- --- ----- --- ---- ---- ------- ----- ---- -------<br>--- --- -- ----- -- --- ---- -- --- ---- -- ------ ------<br>--- ----- -- ----,74701,74700.10000000894,73356.68,73357.5,73373.35,74707.184,,2,comes
screen,html.Screen,0_2_0_1_3,2021-11-05T11:03:35.329Z,,,,,,,,,,,,,,,,53,,,,,,,,,,,,,,592.8160000000062,,response,,,99,,,,,,Space,keypress(Space),,,,,---- -- ----- to ------ - ------- --- ----------<br>------------- ------ ------ ---- ---- ------- ----- -- ----<br>-------- ------- -- ---------- --- - --- ----- ----- ----<br>---- --- --- ----- --- ---- ---- ------- ----- ---- -------<br>--- --- -- ----- -- --- ---- -- --- ---- -- ------ ------<br>--- ----- -- ----,75300.90000000596,75300,74690.513,74701.30000001192,74707.184,75307.277,,3,to
screen,html.Screen,0_2_0_1_4,2021-11-05T11:03:36.090Z,,,,,,,,,,,,,,,,53,,,,,,,,,,,,,,752.7229999999981,,response,,,99,,,,,,Space,keypress(Space),,,,,---- -- ----- -- having - ------- --- ----------<br>------------- ------ ------ ---- ---- ------- ----- -- ----<br>-------- ------- -- ---------- --- - --- ----- ----- ----<br>---- --- --- ----- --- ---- ---- ------- ----- ---- -------<br>--- --- -- ----- -- --- ---- -- --- ---- -- ------ ------<br>--- ----- -- ----,76061.30000001192,76060,75290.607,75301.40000000596,75307.277,76074.133,,4,having
screen,html.Screen,0_2_0_1_5,2021-11-05T11:03:36.889Z,,,,,,,,,,,,,,,,53,,,,,,,,,,,,,,785.7670000059588,,response,,,99,,,,,,Space,keypress(Space),,,,,---- -- ----- -- ------ a ------- --- ----------<br>------------- ------ ------ ---- ---- ------- ----- -- ----<br>-------- ------- -- ---------- --- - --- ----- ----- ----<br>---- --- --- ----- --- ---- ---- ------- ----- ---- -------<br>--- --- -- ----- -- --- ---- -- --- ---- -- ------ ------<br>--- ----- -- ----,76860.90000000596,76859.90000000596,76057.463,76061.5,76074.133,76874.336,,5,a
screen,html.Screen,0_2_0_1_6,2021-11-05T11:03:37.593Z,,,,,,,,,,,,,,,,53,,,,,,,,,,,,,,689.5640000059648,,response,,,99,,,,,,Space,keypress(Space),,,,,---- -- ----- -- ------ - lasting --- ----------<br>------------- ------ ------ ---- ---- ------- ----- -- ----<br>-------- ------- -- ---------- --- - --- ----- ----- ----<br>---- --- --- ----- --- ---- ---- ------- ----- ---- -------<br>--- --- -- ----- -- --- ---- -- --- ---- -- ------ ------<br>--- ----- -- ----,77564.90000000596,77563.90000000596,76857.666,76861.40000000596,76874.336,77574.518,,6,lasting
screen,html.Screen,0_2_0_1_7,2021-11-05T11:03:38.217Z,,,,,,,,,,,,,,,,53,,,,,,,,,,,,,,613.2820000119245,,response,,,99,,,,,,Space,keypress(Space),,,,,---- -- ----- -- ------ - ------- and ----------<br>------------- ------ ------ ---- ---- ------- ----- -- ----<br>-------- ------- -- ---------- --- - --- ----- ----- ----<br>---- --- --- ----- --- ---- ---- ------- ----- ---- -------<br>--- --- -- ----- -- --- ---- -- --- ---- -- ------ ------<br>--- ----- -- ----,78188.90000000596,78187.80000001192,77557.848,77565.30000001192,77574.518,78191.346,,7,and
screen,html.Screen,0_2_0_1_8,2021-11-05T11:03:38.954Z,,,,,,,,,,,,,,,,53,,,,,,,,,,,,,,732.4540000119159,,response,,,99,,,,,,Space,keypress(Space),,,,,---- -- ----- -- ------ - ------- --- fulfilling<br>------------- ------ ------ ---- ---- ------- ----- -- ----<br>-------- ------- -- ---------- --- - --- ----- ----- ----<br>---- --- --- ----- --- ---- ---- ------- ----- ---- -------<br>--- --- -- ----- -- --- ---- -- --- ---- -- ------ ------<br>--- ----- -- ----,78925,78923.80000001192,78174.676,78189.10000000894,78191.346,78941.535,,8,fulfilling
screen,html.Screen,0_2_0_1_9,2021-11-05T11:03:39.761Z,,,,,,,,,,,,,,,,53,,,,,,,,,,,,,,790.2650000119174,,response,,,99,,,,,,Space,keypress(Space),,,,,"---- -- ----- -- ------ - ------- --- ----------<br>relationship, ------ ------ ---- ---- ------- ----- -- ----<br>-------- ------- -- ---------- --- - --- ----- ----- ----<br>---- --- --- ----- --- ---- ---- ------- ----- ---- -------<br>--- --- -- ----- -- --- ---- -- --- ---- -- ------ ------<br>--- ----- -- ----",79732.70000000298,79731.80000001192,78924.865,78925.40000000596,78941.535,79741.734,,9,"relationship,"
screen,html.Screen,0_2_0_1_10,2021-11-05T11:03:40.457Z,,,,,,,,,,,,,,,,53,,,,,,,,,,,,,,686.0660000119242,,response,,,99,,,,,,Space,keypress(Space),,,,,---- -- ----- -- ------ - ------- --- ----------<br>------------- common ------ ---- ---- ------- ----- -- ----<br>-------- ------- -- ---------- --- - --- ----- ----- ----<br>---- --- --- ----- --- ---- ---- ------- ----- ---- -------<br>--- --- -- ----- -- --- ---- -- --- ---- -- ------ ------<br>--- ----- -- ----,80428.70000000298,80427.80000001192,79725.064,79733,79741.734,80441.927,,10,common
screen,html.Screen,0_2_0_1_11,2021-11-05T11:03:41.089Z,,,,,,,,,,,,,,,,53,,,,,,,,,,,,,,617.6730000089447,,response,,,99,,,,,,Space,keypress(Space),,,,,---- -- ----- -- ------ - ------- --- ----------<br>------------- ------ wisdom ---- ---- ------- ----- -- ----<br>-------- ------- -- ---------- --- - --- ----- ----- ----<br>---- --- --- ----- --- ---- ---- ------- ----- ---- -------<br>--- --- -- ----- -- --- ---- -- --- ---- -- ------ ------<br>--- ----- -- ----,81060.60000000894,81059.60000000894,80425.257,80429,80441.927,81075.423,,11,wisdom
screen,html.Screen,0_2_0_1_12,2021-11-05T11:03:41.737Z,,,,,,,,,,,,,,,,53,,,,,,,,,,,,,,632.6770000089455,,response,,,99,,,,,,Space,keypress(Space),,,,,---- -- ----- -- ------ - ------- --- ----------<br>------------- ------ ------ says ---- ------- ----- -- ----<br>-------- ------- -- ---------- --- - --- ----- ----- ----<br>---- --- --- ----- --- ---- ---- ------- ----- ---- -------<br>--- --- -- ----- -- --- ---- -- --- ---- -- ------ ------<br>--- ----- -- ----,81709,81708.10000000894,81058.753,81060.90000000596,81075.423,81725.595,,12,says
screen,html.Screen,0_2_0_1_13,2021-11-05T11:03:42.409Z,,,,,,,,,,,,,,,,53,,,,,,,,,,,,,,654.1050000029791,,response,,,99,,,,,,Space,keypress(Space),,,,,---- -- ----- -- ------ - ------- --- ----------<br>------------- ------ ------ ---- that ------- ----- -- ----<br>-------- ------- -- ---------- --- - --- ----- ----- ----<br>---- --- --- ----- --- ---- ---- ------- ----- ---- -------<br>--- --- -- ----- -- --- ---- -- --- ---- -- ------ ------<br>--- ----- -- ----,82380.5,82379.70000000298,81708.925,81709.30000001192,81725.595,82392.413,,13,that
screen,html.Screen,0_2_0_1_14,2021-11-05T11:03:43.545Z,,,,,,,,,,,,,,,,53,,,,,,,,,,,,,,1123.1870000089402,,response,,,99,,,,,,Space,keypress(Space),,,,,---- -- ----- -- ------ - ------- --- ----------<br>------------- ------ ------ ---- ---- feeling ----- -- ----<br>-------- ------- -- ---------- --- - --- ----- ----- ----<br>---- --- --- ----- --- ---- ---- ------- ----- ---- -------<br>--- --- -- ----- -- --- ---- -- --- ---- -- ------ ------<br>--- ----- -- ----,83516.40000000596,83515.60000000894,82375.743,82380.70000000298,82392.413,83526.023,,14,feeling
screen,html.Screen,0_2_0_1_15,2021-11-05T11:03:44.177Z,,,,,,,,,,,,,,,,53,,,,,,,,,,,,,,621.476999999999,,response,,,99,,,,,,Space,keypress(Space),,,,,---- -- ----- -- ------ - ------- --- ----------<br>------------- ------ ------ ---- ---- ------- close -- ----<br>-------- ------- -- ---------- --- - --- ----- ----- ----<br>---- --- --- ----- --- ---- ---- ------- ----- ---- -------<br>--- --- -- ----- -- --- ---- -- --- ---- -- ------ ------<br>--- ----- -- ----,84148.40000000596,84147.5,83509.353,83516.60000000894,83526.023,84159.614,,15,close
screen,html.Screen,0_2_0_1_16,2021-11-05T11:03:44.545Z,,,,,,,,,,,,,,,,53,,,,,,,,,,,,,,355.8859999999986,,response,,,99,,,,,,Space,keypress(Space),,,,,---- -- ----- -- ------ - ------- --- ----------<br>------------- ------ ------ ---- ---- ------- ----- to ----<br>-------- ------- -- ---------- --- - --- ----- ----- ----<br>---- --- --- ----- --- ---- ---- ------- ----- ---- -------<br>--- --- -- ----- -- --- ---- -- --- ---- -- ------ ------<br>--- ----- -- ----,84516.30000001192,84515.5,84142.943,84148.70000000298,84159.614,84526.333,,16,to
screen,html.Screen,0_2_0_1_17,2021-11-05T11:03:45.025Z,,,,,,,,,,,,,,,,53,,,,,,,,,,,,,,469.1670000000013,,response,,,99,,,,,,Space,keypress(Space),,,,,---- -- ----- -- ------ - ------- --- ----------<br>------------- ------ ------ ---- ---- ------- ----- -- your<br>-------- ------- -- ---------- --- - --- ----- ----- ----<br>---- --- --- ----- --- ---- ---- ------- ----- ---- -------<br>--- --- -- ----- -- --- ---- -- --- ---- -- ------ ------<br>--- ----- -- ----,84996.30000001192,84995.5,84509.663,84516.60000000894,84526.333,85009.775,,17,your
screen,html.Screen,0_2_0_1_18,2021-11-05T11:03:45.465Z,,,,,,,,,,,,,,,,53,,,,,,,,,,,,,,425.7250000000058,,response,,,99,,,,,,Space,keypress(Space),,,,,---- -- ----- -- ------ - ------- --- ----------<br>------------- ------ ------ ---- ---- ------- ----- -- ----<br>romantic ------- -- ---------- --- - --- ----- ----- ----<br>---- --- --- ----- --- ---- ---- ------- ----- ---- -------<br>--- --- -- ----- -- --- ---- -- --- ---- -- ------ ------<br>--- ----- -- ----,85436.30000001192,85435.5,84993.105,84996.60000000894,85009.775,85443.228,,18,romantic
screen,html.Screen,0_2_0_1_19,2021-11-05T11:03:46.121Z,,,,,,,,,,,,,,,,53,,,,,,,,,,,,,,648.1720000059577,,response,,,99,,,,,,Space,keypress(Space),,,,,---- -- ----- -- ------ - ------- --- ----------<br>------------- ------ ------ ---- ---- ------- ----- -- ----<br>-------- partner -- ---------- --- - --- ----- ----- ----<br>---- --- --- ----- --- ---- ---- ------- ----- ---- -------<br>--- --- -- ----- -- --- ---- -- --- ---- -- ------ ------<br>--- ----- -- ----,86092.30000001192,86091.40000000596,85426.558,85436.60000000894,85443.228,86093.27,,19,partner
screen,html.Screen,0_2_0_1_20,2021-11-05T11:03:46.577Z,,,,,,,,,,,,,,,,53,,,,,,,,,,,,,,454.2299999999959,,response,,,99,,,,,,Space,keypress(Space),,,,,---- -- ----- -- ------ - ------- --- ----------<br>------------- ------ ------ ---- ---- ------- ----- -- ----<br>-------- ------- is ---------- --- - --- ----- ----- ----<br>---- --- --- ----- --- ---- ---- ------- ----- ---- -------<br>--- --- -- ----- -- --- ---- -- --- ---- -- ------ ------<br>--- ----- -- ----,86548.20000000298,86547.5,86076.601,86092.5,86093.27,86560.23,,20,is
screen,html.Screen,0_2_0_1_21,2021-11-05T11:03:47.353Z,,,,,,,,,,,,,,,,53,,,,,,,,,,,,,,763.1700000059645,,response,,,99,,,,,,Space,keypress(Space),,,,,---- -- ----- -- ------ - ------- --- ----------<br>------------- ------ ------ ---- ---- ------- ----- -- ----<br>-------- ------- -- paramount. --- - --- ----- ----- ----<br>---- --- --- ----- --- ---- ---- ------- ----- ---- -------<br>--- --- -- ----- -- --- ---- -- --- ---- -- ------ ------<br>--- ----- -- ----,87324.20000000298,87323.40000000596,86543.559,86548.5,86560.23,87327.023,,21,paramount.
screen,html.Screen,0_2_0_1_22,2021-11-05T11:03:47.801Z,,,,,,,,,,,,,,,,53,,,,,,,,,,,,,,444.3770000059594,,response,,,99,,,,,,Space,keypress(Space),,,,,---- -- ----- -- ------ - ------- --- ----------<br>------------- ------ ------ ---- ---- ------- ----- -- ----<br>-------- ------- -- ---------- But - --- ----- ----- ----<br>---- --- --- ----- --- ---- ---- ------- ----- ---- -------<br>--- --- -- ----- -- --- ---- -- --- ---- -- ------ ------<br>--- ----- -- ----,87772.20000000298,87771.40000000596,87310.353,87324.80000001192,87327.023,87777.154,,22,But
screen,html.Screen,0_2_0_1_23,2021-11-05T11:03:48.273Z,,,,,,,,,,,,,,,,53,,,,,,,,,,,,,,466.14600001192593,,response,,,99,,,,,,Space,keypress(Space),,,,,---- -- ----- -- ------ - ------- --- ----------<br>------------- ------ ------ ---- ---- ------- ----- -- ----<br>-------- ------- -- ---------- --- a --- ----- ----- ----<br>---- --- --- ----- --- ---- ---- ------- ----- ---- -------<br>--- --- -- ----- -- --- ---- -- --- ---- -- ------ ------<br>--- ----- -- ----,88244.20000000298,88243.30000001192,87760.484,87772.40000000596,87777.154,88260.594,,23,a
screen,html.Screen,0_2_0_1_24,2021-11-05T11:03:48.697Z,,,,,,,,,,,,,,,,53,,,,,,,,,,,,,,406.6060000029829,,response,,,99,,,,,,Space,keypress(Space),,,,,---- -- ----- -- ------ - ------- --- ----------<br>------------- ------ ------ ---- ---- ------- ----- -- ----<br>-------- ------- -- ---------- --- - new ----- ----- ----<br>---- --- --- ----- --- ---- ---- ------- ----- ---- -------<br>--- --- -- ----- -- --- ---- -- --- ---- -- ------ ------<br>--- ----- -- ----,88668.20000000298,88667.20000000298,88243.924,88244.40000000596,88260.594,88677.438,,24,new
screen,html.Screen,0_2_0_1_25,2021-11-05T11:03:49.209Z,,,,,,,,,,,,,,,,53,,,,,,,,,,,,,,501.8620000119263,,response,,,99,,,,,,Space,keypress(Space),,,,,---- -- ----- -- ------ - ------- --- ----------<br>------------- ------ ------ ---- ---- ------- ----- -- ----<br>-------- ------- -- ---------- --- - --- study ----- ----<br>---- --- --- ----- --- ---- ---- ------- ----- ---- -------<br>--- --- -- ----- -- --- ---- -- --- ---- -- ------ ------<br>--- ----- -- ----,89180.10000000894,89179.30000001192,88660.767,88668.40000000596,88677.438,89194.117,,25,study
screen,html.Screen,0_2_0_1_26,2021-11-05T11:03:49.665Z,,,,,,,,,,,,,,,,53,,,,,,,,,,,,,,441.08300000298186,,response,,,99,,,,,,Space,keypress(Space),,,,,---- -- ----- -- ------ - ------- --- ----------<br>------------- ------ ------ ---- ---- ------- ----- -- ----<br>-------- ------- -- ---------- --- - --- ----- finds ----<br>---- --- --- ----- --- ---- ---- ------- ----- ---- -------<br>--- --- -- ----- -- --- ---- -- --- ---- -- ------ ------<br>--- ----- -- ----,89636.10000000894,89635.20000000298,89177.448,89180.40000000596,89194.117,89644.348,,26,finds
screen,html.Screen,0_2_0_1_27,2021-11-05T11:03:50.312Z,,,,,,,,,,,,,,,,53,,,,,,,,,,,,,,638.8520000029821,,response,,,99,,,,,,Space,keypress(Space),,,,,---- -- ----- -- ------ - ------- --- ----------<br>------------- ------ ------ ---- ---- ------- ----- -- ----<br>-------- ------- -- ---------- --- - --- ----- ----- that<br>---- --- --- ----- --- ---- ---- ------- ----- ---- -------<br>--- --- -- ----- -- --- ---- -- --- ---- -- ------ ------<br>--- ----- -- ----,90284,90283.20000000298,89627.677,89636.40000000596,89644.348,90294.461,,27,that
screen,html.Screen,0_2_0_1_28,2021-11-05T11:03:50.800Z,,,,,,,,,,,,,,,,53,,,,,,,,,,,,,,476.73900000298454,,response,,,99,,,,,,Space,keypress(Space),,,,,---- -- ----- -- ------ - ------- --- ----------<br>------------- ------ ------ ---- ---- ------- ----- -- ----<br>-------- ------- -- ---------- --- - --- ----- ----- ----<br>it's --- --- ----- --- ---- ---- ------- ----- ---- -------<br>--- --- -- ----- -- --- ---- -- --- ---- -- ------ ------<br>--- ----- -- ----,90772,90771.20000000298,90277.791,90284.30000001192,90294.461,90777.93,,28,it's
screen,html.Screen,0_2_0_1_29,2021-11-05T11:03:51.152Z,,,,,,,,,,,,,,,,53,,,,,,,,,,,,,,345.2700000029872,,response,,,99,,,,,,Space,keypress(Space),,,,,---- -- ----- -- ------ - ------- --- ----------<br>------------- ------ ------ ---- ---- ------- ----- -- ----<br>-------- ------- -- ---------- --- - --- ----- ----- ----<br>---- not --- ----- --- ---- ---- ------- ----- ---- -------<br>--- --- -- ----- -- --- ---- -- --- ---- -- ------ ------<br>--- ----- -- ----,91124,91123.20000000298,90761.26,90772.30000001192,90777.93,91128.03,,29,not
screen,html.Screen,0_2_0_1_30,2021-11-05T11:03:51.624Z,,,,,,,,,,,,,,,,53,,,,,,,,,,,,,,467.1700000029814,,response,,,99,,,,,,Space,keypress(Space),,,,,---- -- ----- -- ------ - ------- --- ----------<br>------------- ------ ------ ---- ---- ------- ----- -- ----<br>-------- ------- -- ---------- --- - --- ----- ----- ----<br>---- --- how ----- --- ---- ---- ------- ----- ---- -------<br>--- --- -- ----- -- --- ---- -- --- ---- -- ------ ------<br>--- ----- -- ----,91596,91595.20000000298,91111.36,91124.30000001192,91128.03,91611.471,,30,how
screen,html.Screen,0_2_0_1_31,2021-11-05T11:03:52.097Z,,,,,,,,,,,,,,,,53,,,,,,,,,,,,,,456.028999999995,,response,,,99,,,,,,Space,keypress(Space),,,,,---- -- ----- -- ------ - ------- --- ----------<br>------------- ------ ------ ---- ---- ------- ----- -- ----<br>-------- ------- -- ---------- --- - --- ----- ----- ----<br>---- --- --- close --- ---- ---- ------- ----- ---- -------<br>--- --- -- ----- -- --- ---- -- --- ---- -- ------ ------<br>--- ----- -- ----,92068.30000001192,92067.5,91594.801,91596.30000001192,91611.471,92078.109,,31,close
screen,html.Screen,0_2_0_1_32,2021-11-05T11:03:52.417Z,,,,,,,,,,,,,,,,53,,,,,,,,,,,,,,308.99100000894396,,response,,,99,,,,,,Space,keypress(Space),,,,,---- -- ----- -- ------ - ------- --- ----------<br>------------- ------ ------ ---- ---- ------- ----- -- ----<br>-------- ------- -- ---------- --- - --- ----- ----- ----<br>---- --- --- ----- you ---- ---- ------- ----- ---- -------<br>--- --- -- ----- -- --- ---- -- --- ---- -- ------ ------<br>--- ----- -- ----,92388.30000001192,92387.10000000894,92061.441,92068.60000000894,92078.109,92395.097,,32,you
screen,html.Screen,0_2_0_1_33,2021-11-05T11:03:53.200Z,,,,,,,,,,,,,,,,53,,,,,,,,,,,,,,775.8030000059662,,response,,,99,,,,,,Space,keypress(Space),,,,,---- -- ----- -- ------ - ------- --- ----------<br>------------- ------ ------ ---- ---- ------- ----- -- ----<br>-------- ------- -- ---------- --- - --- ----- ----- ----<br>---- --- --- ----- --- feel ---- ------- ----- ---- -------<br>--- --- -- ----- -- --- ---- -- --- ---- -- ------ ------<br>--- ----- -- ----,93171.80000001192,93170.90000000596,92378.425,92388.5,92395.097,93178.534,,33,feel
screen,html.Screen,0_2_0_1_34,2021-11-05T11:03:53.632Z,,,,,,,,,,,,,,,,53,,,,,,,,,,,,,,424.3660000059608,,response,,,99,,,,,,Space,keypress(Space),,,,,---- -- ----- -- ------ - ------- --- ----------<br>------------- ------ ------ ---- ---- ------- ----- -- ----<br>-------- ------- -- ---------- --- - --- ----- ----- ----<br>---- --- --- ----- --- ---- that ------- ----- ---- -------<br>--- --- -- ----- -- --- ---- -- --- ---- -- ------ ------<br>--- ----- -- ----,93603.70000000298,93602.90000000596,93161.864,93172.10000000894,93178.534,93611.792,,34,that
screen,html.Screen,0_2_0_1_35,2021-11-05T11:03:54.112Z,,,,,,,,,,,,,,,,53,,,,,,,,,,,,,,471.2079999999987,,response,,,99,,,,,,Space,keypress(Space),,,,,---- -- ----- -- ------ - ------- --- ----------<br>------------- ------ ------ ---- ---- ------- ----- -- ----<br>-------- ------- -- ---------- --- - --- ----- ----- ----<br>---- --- --- ----- --- ---- ---- matters ----- ---- -------<br>--- --- -- ----- -- --- ---- -- --- ---- -- ------ ------<br>--- ----- -- ----,94083.90000000596,94083,93595.124,93604,93611.792,94095.547,,35,matters
screen,html.Screen,0_2_0_1_36,2021-11-05T11:03:54.745Z,,,,,,,,,,,,,,,,53,,,,,,,,,,,,,,619.3530000059545,,response,,,99,,,,,,Space,keypress(Space),,,,,"---- -- ----- -- ------ - ------- --- ----------<br>------------- ------ ------ ---- ---- ------- ----- -- ----<br>-------- ------- -- ---------- --- - --- ----- ----- ----<br>---- --- --- ----- --- ---- ---- ------- most, ---- -------<br>--- --- -- ----- -- --- ---- -- --- ---- -- ------ ------<br>--- ----- -- ----",94716.20000000298,94714.90000000596,94078.875,94084.10000000894,94095.547,94728.832,,36,"most,"
screen,html.Screen,0_2_0_1_37,2021-11-05T11:03:55.424Z,,,,,,,,,,,,,,,,53,,,,,,,,,,,,,,666.1680000000051,,response,,,99,,,,,,Space,keypress(Space),,,,,---- -- ----- -- ------ - ------- --- ----------<br>------------- ------ ------ ---- ---- ------- ----- -- ----<br>-------- ------- -- ---------- --- - --- ----- ----- ----<br>---- --- --- ----- --- ---- ---- ------- ----- it's -------<br>--- --- -- ----- -- --- ---- -- --- ---- -- ------ ------<br>--- ----- -- ----,95395.70000000298,95395,94712.163,94716.5,94728.832,95412.317,,37,it's
screen,html.Screen,0_2_0_1_38,2021-11-05T11:03:55.824Z,,,,,,,,,,,,,,,,53,,,,,,,,,,,,,,382.583000005965,,response,,,99,,,,,,Space,keypress(Space),,,,,---- -- ----- -- ------ - ------- --- ----------<br>------------- ------ ------ ---- ---- ------- ----- -- ----<br>-------- ------- -- ---------- --- - --- ----- ----- ----<br>---- --- --- ----- --- ---- ---- ------- ----- ---- whether<br>--- --- -- ----- -- --- ---- -- --- ---- -- ------ ------<br>--- ----- -- ----,95795.70000000298,95794.90000000596,95395.648,95396,95412.317,95812.656,,38,whether
screen,html.Screen,0_2_0_1_39,2021-11-05T11:03:56.224Z,,,,,,,,,,,,,,,,53,,,,,,,,,,,,,,382.14400001191825,,response,,,99,,,,,,Space,keypress(Space),,,,,---- -- ----- -- ------ - ------- --- ----------<br>------------- ------ ------ ---- ---- ------- ----- -- ----<br>-------- ------- -- ---------- --- - --- ----- ----- ----<br>---- --- --- ----- --- ---- ---- ------- ----- ---- -------<br>you --- -- ----- -- --- ---- -- --- ---- -- ------ ------<br>--- ----- -- ----,96195.70000000298,96194.80000001192,95795.984,95796,95812.656,96212.705,,39,you
screen,html.Screen,0_2_0_1_40,2021-11-05T11:03:56.648Z,,,,,,,,,,,,,,,,53,,,,,,,,,,,,,,406.1950000059587,,response,,,99,,,,,,Space,keypress(Space),,,,,---- -- ----- -- ------ - ------- --- ----------<br>------------- ------ ------ ---- ---- ------- ----- -- ----<br>-------- ------- -- ---------- --- - --- ----- ----- ----<br>---- --- --- ----- --- ---- ---- ------- ----- ---- -------<br>--- are -- ----- -- --- ---- -- --- ---- -- ------ ------<br>--- ----- -- ----,96619.70000000298,96618.90000000596,96196.034,96196,96212.705,96629.484,,40,are
screen,html.Screen,0_2_0_1_41,2021-11-05T11:03:57.128Z,,,,,,,,,,,,,,,,53,,,,,,,,,,,,,,469.3160000119242,,response,,,99,,,,,,Space,keypress(Space),,,,,---- -- ----- -- ------ - ------- --- ----------<br>------------- ------ ------ ---- ---- ------- ----- -- ----<br>-------- ------- -- ---------- --- - --- ----- ----- ----<br>---- --- --- ----- --- ---- ---- ------- ----- ---- -------<br>--- --- as ----- -- --- ---- -- --- ---- -- ------ ------<br>--- ----- -- ----,97099.60000000894,97098.80000001192,96612.813,96619.90000000596,96629.484,97112.793,,41,as
screen,html.Screen,0_2_0_1_42,2021-11-05T11:03:57.648Z,,,,,,,,,,,,,,,,53,,,,,,,,,,,,,,506.0070000119158,,response,,,99,,,,,,Space,keypress(Space),,,,,---- -- ----- -- ------ - ------- --- ----------<br>------------- ------ ------ ---- ---- ------- ----- -- ----<br>-------- ------- -- ---------- --- - --- ----- ----- ----<br>---- --- --- ----- --- ---- ---- ------- ----- ---- -------<br>--- --- -- close -- --- ---- -- --- ---- -- ------ ------<br>--- ----- -- ----,97619.70000000298,97618.80000001192,97096.124,97099.90000000596,97112.793,97629.785,,42,close
screen,html.Screen,0_2_0_1_43,2021-11-05T11:03:58.000Z,,,,,,,,,,,,,,,,53,,,,,,,,,,,,,,340.91500000297674,,response,,,99,,,,,,Space,keypress(Space),,,,,---- -- ----- -- ------ - ------- --- ----------<br>------------- ------ ------ ---- ---- ------- ----- -- ----<br>-------- ------- -- ---------- --- - --- ----- ----- ----<br>---- --- --- ----- --- ---- ---- ------- ----- ---- -------<br>--- --- -- ----- as --- ---- -- --- ---- -- ------ ------<br>--- ----- -- ----,97971.40000000596,97970.70000000298,97613.113,97619.90000000596,97629.785,97979.788,,43,as
screen,html.Screen,0_2_0_1_44,2021-11-05T11:03:58.512Z,,,,,,,,,,,,,,,,53,,,,,,,,,,,,,,502.91200000297977,,response,,,99,,,,,,Space,keypress(Space),,,,,---- -- ----- -- ------ - ------- --- ----------<br>------------- ------ ------ ---- ---- ------- ----- -- ----<br>-------- ------- -- ---------- --- - --- ----- ----- ----<br>---- --- --- ----- --- ---- ---- ------- ----- ---- -------<br>--- --- -- ----- -- you ---- -- --- ---- -- ------ ------<br>--- ----- -- ----,98483.60000000894,98482.70000000298,97963.118,97971.70000000298,97979.788,98496.477,,44,you
screen,html.Screen,0_2_0_1_45,2021-11-05T11:03:58.960Z,,,,,,,,,,,,,,,,53,,,,,,,,,,,,,,434.2230000029813,,response,,,99,,,,,,Space,keypress(Space),,,,,---- -- ----- -- ------ - ------- --- ----------<br>------------- ------ ------ ---- ---- ------- ----- -- ----<br>-------- ------- -- ---------- --- - --- ----- ----- ----<br>---- --- --- ----- --- ---- ---- ------- ----- ---- -------<br>--- --- -- ----- -- --- want -- --- ---- -- ------ ------<br>--- ----- -- ----,98931.5,98930.70000000298,98479.808,98483.80000001192,98496.477,98946.799,,45,want
screen,html.Screen,0_2_0_1_46,2021-11-05T11:03:59.392Z,,,,,,,,,,,,,,,,53,,,,,,,,,,,,,,415.90100000298116,,response,,,99,,,,,,Space,keypress(Space),,,,,---- -- ----- -- ------ - ------- --- ----------<br>------------- ------ ------ ---- ---- ------- ----- -- ----<br>-------- ------- -- ---------- --- - --- ----- ----- ----<br>---- --- --- ----- --- ---- ---- ------- ----- ---- -------<br>--- --- -- ----- -- --- ---- to --- ---- -- ------ ------<br>--- ----- -- ----,99363.60000000894,99362.70000000298,98930.127,98931.80000001192,98946.799,99380.193,,46,to
screen,html.Screen,0_2_0_1_47,2021-11-05T11:03:59.784Z,,,,,,,,,,,,,,,,53,,,,,,,,,,,,,,374.50700000298093,,response,,,99,,,,,,Space,keypress(Space),,,,,"---- -- ----- -- ------ - ------- --- ----------<br>------------- ------ ------ ---- ---- ------- ----- -- ----<br>-------- ------- -- ---------- --- - --- ----- ----- ----<br>---- --- --- ----- --- ---- ---- ------- ----- ---- -------<br>--- --- -- ----- -- --- ---- -- be, ---- -- ------ ------<br>--- ----- -- ----",99755.5,99754.70000000298,99363.522,99363.90000000596,99380.193,99763.483,,47,"be,"
screen,html.Screen,0_2_0_1_48,2021-11-05T11:04:00.296Z,,,,,,,,,,,,,,,,53,,,,,,,,,,,,,,503.21700000298733,,response,,,99,,,,,,Space,keypress(Space),,,,,---- -- ----- -- ------ - ------- --- ----------<br>------------- ------ ------ ---- ---- ------- ----- -- ----<br>-------- ------- -- ---------- --- - --- ----- ----- ----<br>---- --- --- ----- --- ---- ---- ------- ----- ---- -------<br>--- --- -- ----- -- --- ---- -- --- even -- ------ ------<br>--- ----- -- ----,100267.5,100266.70000000298,99746.814,99755.80000001192,99763.483,100280.464,,48,even
screen,html.Screen,0_2_0_1_49,2021-11-05T11:04:00.712Z,,,,,,,,,,,,,,,,53,,,,,,,,,,,,,,402.1360000089335,,response,,,99,,,,,,Space,keypress(Space),,,,,---- -- ----- -- ------ - ------- --- ----------<br>------------- ------ ------ ---- ---- ------- ----- -- ----<br>-------- ------- -- ---------- --- - --- ----- ----- ----<br>---- --- --- ----- --- ---- ---- ------- ----- ---- -------<br>--- --- -- ----- -- --- ---- -- --- ---- if ------ ------<br>--- ----- -- ----,100683.5,100682.60000000894,100263.792,100267.70000000298,100280.464,100697.141,,49,if
screen,html.Screen,0_2_0_1_50,2021-11-05T11:04:01.544Z,,,,,,,,,,,,,,,,53,,,,,,,,,,,,,,817.4590000089374,,response,,,99,,,,,,Space,keypress(Space),,,,,---- -- ----- -- ------ - ------- --- ----------<br>------------- ------ ------ ---- ---- ------- ----- -- ----<br>-------- ------- -- ---------- --- - --- ----- ----- ----<br>---- --- --- ----- --- ---- ---- ------- ----- ---- -------<br>--- --- -- ----- -- --- ---- -- --- ---- -- that's ------<br>--- ----- -- ----,101515.40000000596,101514.60000000894,100680.471,100683.80000001192,100697.141,101530.679,,50,that's
screen,html.Screen,0_2_0_1_51,2021-11-05T11:04:02.008Z,,,,,,,,,,,,,,,,53,,,,,,,,,,,,,,447.92100000893697,,response,,,99,,,,,,Space,keypress(Space),,,,,---- -- ----- -- ------ - ------- --- ----------<br>------------- ------ ------ ---- ---- ------- ----- -- ----<br>-------- ------- -- ---------- --- - --- ----- ----- ----<br>---- --- --- ----- --- ---- ---- ------- ----- ---- -------<br>--- --- -- ----- -- --- ---- -- --- ---- -- ------ really<br>--- ----- -- ----,101979.5,101978.60000000894,101514.009,101515.70000000298,101530.679,101980.812,,51,really
screen,html.Screen,0_2_0_1_52,2021-11-05T11:04:02.488Z,,,,,,,,,,,,,,,,53,,,,,,,,,,,,,,478.18799999999464,,response,,,99,,,,,,Space,keypress(Space),,,,,---- -- ----- -- ------ - ------- --- ----------<br>------------- ------ ------ ---- ---- ------- ----- -- ----<br>-------- ------- -- ---------- --- - --- ----- ----- ----<br>---- --- --- ----- --- ---- ---- ------- ----- ---- -------<br>--- --- -- ----- -- --- ---- -- --- ---- -- ------ ------<br>not ----- -- ----,102459.90000000596,102459,101964.142,101979.70000000298,101980.812,102464.174,,52,not
screen,html.Screen,0_2_0_1_53,2021-11-05T11:04:02.832Z,,,,,,,,,,,,,,,,53,,,,,,,,,,,,,,338.4260000089416,,response,,,99,,,,,,Space,keypress(Space),,,,,---- -- ----- -- ------ - ------- --- ----------<br>------------- ------ ------ ---- ---- ------- ----- -- ----<br>-------- ------- -- ---------- --- - --- ----- ----- ----<br>---- --- --- ----- --- ---- ---- ------- ----- ---- -------<br>--- --- -- ----- -- --- ---- -- --- ---- -- ------ ------<br>--- close -- ----,102803.30000001192,102802.60000000894,102447.505,102460.10000000894,102464.174,102814.448,,53,close
screen,html.Screen,0_2_0_1_54,2021-11-05T11:04:03.216Z,,,,,,,,,,,,,,,,53,,,,,,,,,,,,,,372.05199999999604,,response,,,99,,,,,,Space,keypress(Space),,,,,---- -- ----- -- ------ - ------- --- ----------<br>------------- ------ ------ ---- ---- ------- ----- -- ----<br>-------- ------- -- ---------- --- - --- ----- ----- ----<br>---- --- --- ----- --- ---- ---- ------- ----- ---- -------<br>--- --- -- ----- -- --- ---- -- --- ---- -- ------ ------<br>--- ----- at ----,103187.30000001192,103186.5,102797.776,102803.60000000894,102814.448,103197.796,,54,at
screen,html.Screen,0_2_0_1_55,2021-11-05T11:04:05.080Z,,,,,,,,,,,,,,,,53,,,,,,,,,,,,,,1852.6040000059584,,response,,,99,,,,,,Space,keypress(Space),,,,,---- -- ----- -- ------ - ------- --- ----------<br>------------- ------ ------ ---- ---- ------- ----- -- ----<br>-------- ------- -- ---------- --- - --- ----- ----- ----<br>---- --- --- ----- --- ---- ---- ------- ----- ---- -------<br>--- --- -- ----- -- --- ---- -- --- ---- -- ------ ------<br>--- ----- -- all.,105051.20000000298,105050.40000000596,103181.126,103187.5,103197.796,105064.983,,55,all.
Item 99,flow.Loop,0_2_0_1,2021-11-05T11:04:05.084Z,,,,,,,,,,,,,,,,,,,,,,,,,,,,,,34394.54000000596,,completion,,,,D,,,,,,,,,,silence,,105055.90000000596,105050.40000000596,70589.184,70595.10000000894,70655.86,105064.983,,,
Question 1,html.Screen,0_2_0_2,2021-11-05T11:04:13.626Z,,,,,,,,,,,,,,,,,,,,,,,,,,,true,FALSE,,8531.317000011928,,response,,,99,D,,,,,FALSE,click #choice-2,,,,silence,,113597.80000001192,113596.30000001192,105048.312,105056.20000000298,105064.983,113600.411,,,
Question 2,html.Screen,0_2_0_3,2021-11-05T11:04:20.673Z,,,,,,,,,,,,,,,,,,,,,,,,,,,true,TRUE,,7039.889000011928,,response,,,99,D,,,,,TRUE,click #choice-1,,,,silence,,120641.60000000894,120640.30000001192,113583.741,113598.10000000894,113600.411,120668.328,,,
Item 99,flow.Sequence,0_2_0,2021-11-05T11:04:20.674Z,,,,,,,,,,,,,,,,,,,,,,,,,,,,,,60037.41400001192,,completion,,,,,,,,,,,,,,,,120642.10000000894,120640.30000001192,60586.217,60594.20000000298,60602.886,120668.328,,,
Holding screen,html.Screen,0_2_1_0,2021-11-05T11:04:30.691Z,,,,,,,,,,,,,,,,,,,,,,,,,,,,,,10003.10100000001,,timeout,,,,,,,,,,,,,,,,130659.20000000298,130654.759,120651.668,120642.40000000596,120668.328,130671.429,,,
screen,html.Screen,0_2_1_1_0,2021-11-05T11:04:32.938Z,,,,,,,,,,,,,,,,54,,,,,,,,,,,,,,2234.0709999999963,,response,,,100,,,,,,Space,keypress(Space),,,,,At --- ---- --- ------ ----- ------- ---- -- --- ------- --<br>------- ---------- ------ -- ----- -- ----- -- ---- ------<br>--- ----- --- --- ------ -------- ----- --- ------ ----- --<br>----- ----- ---------- --- --- ------ ------ ---- -- ------<br>------- --- ------ ----- --- ---- ------- -- ---- --- --<br>------- ------,132906.5,132905.5,130654.759,130659.60000000894,130671.429,132922.165,,0,At
screen,html.Screen,0_2_1_1_1,2021-11-05T11:04:33.425Z,,,,,,,,,,,,,,,,54,,,,,,,,,,,,,,470.6350000119128,,response,,,100,,,,,,Space,keypress(Space),,,,,-- the ---- --- ------ ----- ------- ---- -- --- ------- --<br>------- ---------- ------ -- ----- -- ----- -- ---- ------<br>--- ----- --- --- ------ -------- ----- --- ------ ----- --<br>----- ----- ---------- --- --- ------ ------ ---- -- ------<br>------- --- ------ ----- --- ---- ------- -- ---- --- --<br>------- ------,133393.60000000894,133392.80000001192,132905.494,132906.70000000298,132922.165,133405.505,,1,the
screen,html.Screen,0_2_1_1_2,2021-11-05T11:04:33.769Z,,,,,,,,,,,,,,,,54,,,,,,,,,,,,,,331.2950000119163,,response,,,100,,,,,,Space,keypress(Space),,,,,-- --- time --- ------ ----- ------- ---- -- --- ------- --<br>------- ---------- ------ -- ----- -- ----- -- ---- ------<br>--- ----- --- --- ------ -------- ----- --- ------ ----- --<br>----- ----- ---------- --- --- ------ ------ ---- -- ------<br>------- --- ------ ----- --- ---- ------- -- ---- --- --<br>------- ------,133737.80000001192,133736.80000001192,133388.835,133393.90000000596,133405.505,133738.932,,2,time
screen,html.Screen,0_2_1_1_3,2021-11-05T11:04:34.209Z,,,,,,,,,,,,,,,,54,,,,,,,,,,,,,,437.86800001192023,,response,,,100,,,,,,Space,keypress(Space),,,,,-- --- ---- the ------ ----- ------- ---- -- --- ------- --<br>------- ---------- ------ -- ----- -- ----- -- ---- ------<br>--- ----- --- --- ------ -------- ----- --- ------ ----- --<br>----- ----- ---------- --- --- ------ ------ ---- -- ------<br>------- --- ------ ----- --- ---- ------- -- ---- --- --<br>------- ------,134177.60000000894,134176.80000001192,133722.262,133738.10000000894,133738.932,134189.243,,3,the
screen,html.Screen,0_2_1_1_4,2021-11-05T11:04:34.617Z,,,,,,,,,,,,,,,,54,,,,,,,,,,,,,,395.55700001193327,,response,,,100,,,,,,Space,keypress(Space),,,,,-- --- ---- --- French ----- ------- ---- -- --- ------- --<br>------- ---------- ------ -- ----- -- ----- -- ---- ------<br>--- ----- --- --- ------ -------- ----- --- ------ ----- --<br>----- ----- ---------- --- --- ------ ------ ---- -- ------<br>------- --- ------ ----- --- ---- ------- -- ---- --- --<br>------- ------,134585.70000000298,134584.80000001192,134172.57,134178,134189.243,134589.161,,4,French
screen,html.Screen,0_2_1_1_5,2021-11-05T11:04:35.017Z,,,,,,,,,,,,,,,,54,,,,,,,,,,,,,,395.53900000298745,,response,,,100,,,,,,Space,keypress(Space),,,,,-- --- ---- --- ------ crown ------- ---- -- --- ------- --<br>------- ---------- ------ -- ----- -- ----- -- ---- ------<br>--- ----- --- --- ------ -------- ----- --- ------ ----- --<br>----- ----- ---------- --- --- ------ ------ ---- -- ------<br>------- --- ------ ----- --- ---- ------- -- ---- --- --<br>------- ------,134985.5,134984.70000000298,134572.492,134585.90000000596,134589.161,134989.346,,5,crown
screen,html.Screen,0_2_1_1_6,2021-11-05T11:04:35.625Z,,,,,,,,,,,,,,,,54,,,,,,,,,,,,,,603.3540000029898,,response,,,100,,,,,,Space,keypress(Space),,,,,-- --- ---- --- ------ ----- secured ---- -- --- ------- --<br>------- ---------- ------ -- ----- -- ----- -- ---- ------<br>--- ----- --- --- ------ -------- ----- --- ------ ----- --<br>----- ----- ---------- --- --- ------ ------ ---- -- ------<br>------- --- ------ ----- --- ---- ------- -- ---- --- --<br>------- ------,135593.5,135592.70000000298,134972.675,134985.90000000596,134989.346,135606.109,,6,secured
screen,html.Screen,0_2_1_1_7,2021-11-05T11:04:36.081Z,,,,,,,,,,,,,,,,54,,,,,,,,,,,,,,442.49100000894396,,response,,,100,,,,,,Space,keypress(Space),,,,,-- --- ---- --- ------ ----- ------- much -- --- ------- --<br>------- ---------- ------ -- ----- -- ----- -- ---- ------<br>--- ----- --- --- ------ -------- ----- --- ------ ----- --<br>----- ----- ---------- --- --- ------ ------ ---- -- ------<br>------- --- ------ ----- --- ---- ------- -- ---- --- --<br>------- ------,136049.70000000298,136048.60000000894,135589.439,135593.70000000298,135606.109,136056.247,,7,much
screen,html.Screen,0_2_1_1_8,2021-11-05T11:04:36.713Z,,,,,,,,,,,,,,,,54,,,,,,,,,,,,,,624.4530000029772,,response,,,100,,,,,,Space,keypress(Space),,,,,-- --- ---- --- ------ ----- ------- ---- of --- ------- --<br>------- ---------- ------ -- ----- -- ----- -- ---- ------<br>--- ----- --- --- ------ -------- ----- --- ------ ----- --<br>----- ----- ---------- --- --- ------ ------ ---- -- ------<br>------- --- ------ ----- --- ---- ------- -- ---- --- --<br>------- ------,136681.5,136680.70000000298,136039.577,136049.90000000596,136056.247,136689.739,,8,of
screen,html.Screen,0_2_1_1_9,2021-11-05T11:04:37.201Z,,,,,,,,,,,,,,,,54,,,,,,,,,,,,,,478.8610000089393,,response,,,100,,,,,,Space,keypress(Space),,,,,-- --- ---- --- ------ ----- ------- ---- -- its ------- --<br>------- ---------- ------ -- ----- -- ----- -- ---- ------<br>--- ----- --- --- ------ -------- ----- --- ------ ----- --<br>----- ----- ---------- --- --- ------ ------ ---- -- ------<br>------- --- ------ ----- --- ---- ------- -- ---- --- --<br>------- ------,137169.40000000596,137168.60000000894,136673.069,136681.80000001192,136689.739,137173.202,,9,its
screen,html.Screen,0_2_1_1_10,2021-11-05T11:04:38.129Z,,,,,,,,,,,,,,,,54,,,,,,,,,,,,,,923.3980000089505,,response,,,100,,,,,,Space,keypress(Space),,,,,-- --- ---- --- ------ ----- ------- ---- -- --- revenue --<br>------- ---------- ------ -- ----- -- ----- -- ---- ------<br>--- ----- --- --- ------ -------- ----- --- ------ ----- --<br>----- ----- ---------- --- --- ------ ------ ---- -- ------<br>------- --- ------ ----- --- ---- ------- -- ---- --- --<br>------- ------,138097.40000000596,138096.60000000894,137156.532,137169.70000000298,137173.202,138106.739,,10,revenue
screen,html.Screen,0_2_1_1_11,2021-11-05T11:04:38.641Z,,,,,,,,,,,,,,,,54,,,,,,,,,,,,,,501.8610000089393,,response,,,100,,,,,,Space,keypress(Space),,,,,-- --- ---- --- ------ ----- ------- ---- -- --- ------- by<br>------- ---------- ------ -- ----- -- ----- -- ---- ------<br>--- ----- --- --- ------ -------- ----- --- ------ ----- --<br>----- ----- ---------- --- --- ------ ------ ---- -- ------<br>------- --- ------ ----- --- ---- ------- -- ---- --- --<br>------- ------,138609.40000000596,138608.60000000894,138090.069,138097.70000000298,138106.739,138623.416,,11,by
screen,html.Screen,0_2_1_1_12,2021-11-05T11:04:39.465Z,,,,,,,,,,,,,,,,54,,,,,,,,,,,,,,809.0840000000026,,response,,,100,,,,,,Space,keypress(Space),,,,,-- --- ---- --- ------ ----- ------- ---- -- --- ------- --<br>issuing ---------- ------ -- ----- -- ----- -- ---- ------<br>--- ----- --- --- ------ -------- ----- --- ------ ----- --<br>----- ----- ---------- --- --- ------ ------ ---- -- ------<br>------- --- ------ ----- --- ---- ------- -- ---- --- --<br>------- ------,139433.40000000596,139432.5,138606.747,138609.60000000894,138623.416,139440.509,,12,issuing
screen,html.Screen,0_2_1_1_13,2021-11-05T11:04:40.289Z,,,,,,,,,,,,,,,,54,,,,,,,,,,,,,,815.9910000000091,,response,,,100,,,,,,Space,keypress(Space),,,,,-- --- ---- --- ------ ----- ------- ---- -- --- ------- --<br>------- government ------ -- ----- -- ----- -- ---- ------<br>--- ----- --- --- ------ -------- ----- --- ------ ----- --<br>----- ----- ---------- --- --- ------ ------ ---- -- ------<br>------- --- ------ ----- --- ---- ------- -- ---- --- --<br>------- ------,140257.40000000596,140256.5,139423.838,139433.70000000298,139440.509,140273.986,,13,government
screen,html.Screen,0_2_1_1_14,2021-11-05T11:04:40.985Z,,,,,,,,,,,,,,,,54,,,,,,,,,,,,,,678.5139999999956,,response,,,100,,,,,,Space,keypress(Space),,,,,-- --- ---- --- ------ ----- ------- ---- -- --- ------- --<br>------- ---------- bonds. -- ----- -- ----- -- ---- ------<br>--- ----- --- --- ------ -------- ----- --- ------ ----- --<br>----- ----- ---------- --- --- ------ ------ ---- -- ------<br>------- --- ------ ----- --- ---- ------- -- ---- --- --<br>------- ------,140953.30000001192,140952.5,140257.316,140257.60000000894,140273.986,140957.502,,14,bonds.
screen,html.Screen,0_2_1_1_15,2021-11-05T11:04:41.728Z,,,,,,,,,,,,,,,,54,,,,,,,,,,,,,,738.4979999999923,,response,,,100,,,,,,Space,keypress(Space),,,,,-- --- ---- --- ------ ----- ------- ---- -- --- ------- --<br>------- ---------- ------ In ----- -- ----- -- ---- ------<br>--- ----- --- --- ------ -------- ----- --- ------ ----- --<br>----- ----- ---------- --- --- ------ ------ ---- -- ------<br>------- --- ------ ----- --- ---- ------- -- ---- --- --<br>------- ------,141696.5,141696,140940.832,140953.60000000894,140957.502,141707.669,,15,In
screen,html.Screen,0_2_1_1_16,2021-11-05T11:04:42.673Z,,,,,,,,,,,,,,,,54,,,,,,,,,,,,,,932.731000005966,,response,,,100,,,,,,Space,keypress(Space),,,,,"-- --- ---- --- ------ ----- ------- ---- -- --- ------- --<br>------- ---------- ------ -- 1727, -- ----- -- ---- ------<br>--- ----- --- --- ------ -------- ----- --- ------ ----- --<br>----- ----- ---------- --- --- ------ ------ ---- -- ------<br>------- --- ------ ----- --- ---- ------- -- ---- --- --<br>------- ------",142641.20000000298,142640.40000000596,141690.999,141696.70000000298,141707.669,142657.914,,16,"1727,"
screen,html.Screen,0_2_1_1_17,2021-11-05T11:04:43.129Z,,,,,,,,,,,,,,,,54,,,,,,,,,,,,,,438.7860000029905,,response,,,100,,,,,,Space,keypress(Space),,,,,-- --- ---- --- ------ ----- ------- ---- -- --- ------- --<br>------- ---------- ------ -- ----- in ----- -- ---- ------<br>--- ----- --- --- ------ -------- ----- --- ------ ----- --<br>----- ----- ---------- --- --- ------ ------ ---- -- ------<br>------- --- ------ ----- --- ---- ------- -- ---- --- --<br>------- ------,143097.5,143096.70000000298,142641.244,142641.5,142657.914,143107.917,,17,in
screen,html.Screen,0_2_1_1_18,2021-11-05T11:04:43.945Z,,,,,,,,,,,,,,,,54,,,,,,,,,,,,,,804.2830000029935,,response,,,100,,,,,,Space,keypress(Space),,,,,-- --- ---- --- ------ ----- ------- ---- -- --- ------- --<br>------- ---------- ------ -- ----- -- order -- ---- ------<br>--- ----- --- --- ------ -------- ----- --- ------ ----- --<br>----- ----- ---------- --- --- ------ ------ ---- -- ------<br>------- --- ------ ----- --- ---- ------- -- ---- --- --<br>------- ------,143913.20000000298,143912.20000000298,143091.248,143097.70000000298,143107.917,143924.995,,18,order
screen,html.Screen,0_2_1_1_19,2021-11-05T11:04:44.321Z,,,,,,,,,,,,,,,,54,,,,,,,,,,,,,,363.2050000029849,,response,,,100,,,,,,Space,keypress(Space),,,,,-- --- ---- --- ------ ----- ------- ---- -- --- ------- --<br>------- ---------- ------ -- ----- -- ----- to ---- ------<br>--- ----- --- --- ------ -------- ----- --- ------ ----- --<br>----- ----- ---------- --- --- ------ ------ ---- -- ------<br>------- --- ------ ----- --- ---- ------- -- ---- --- --<br>------- ------,144289,144288.20000000298,143908.324,143913.5,143924.995,144291.688,,19,to
screen,html.Screen,0_2_1_1_20,2021-11-05T11:04:44.937Z,,,,,,,,,,,,,,,,54,,,,,,,,,,,,,,612.5120000029856,,response,,,100,,,,,,Space,keypress(Space),,,,,-- --- ---- --- ------ ----- ------- ---- -- --- ------- --<br>------- ---------- ------ -- ----- -- ----- -- save ------<br>--- ----- --- --- ------ -------- ----- --- ------ ----- --<br>----- ----- ---------- --- --- ------ ------ ---- -- ------<br>------- --- ------ ----- --- ---- ------- -- ---- --- --<br>------- ------,144905,144904.20000000298,144275.018,144289.20000000298,144291.688,144908.517,,20,save
screen,html.Screen,0_2_1_1_21,2021-11-05T11:04:45.432Z,,,,,,,,,,,,,,,,54,,,,,,,,,,,,,,491.58300000894815,,response,,,100,,,,,,Space,keypress(Space),,,,,"-- --- ---- --- ------ ----- ------- ---- -- --- ------- --<br>------- ---------- ------ -- ----- -- ----- -- ---- money,<br>--- ----- --- --- ------ -------- ----- --- ------ ----- --<br>----- ----- ---------- --- --- ------ ------ ---- -- ------<br>------- --- ------ ----- --- ---- ------- -- ---- --- --<br>------- ------",145400.90000000596,145400.10000000894,144891.847,144905.30000001192,144908.517,145408.654,,21,"money,"
screen,html.Screen,0_2_1_1_22,2021-11-05T11:04:46.280Z,,,,,,,,,,,,,,,,54,,,,,,,,,,,,,,839.3459999999905,,response,,,100,,,,,,Space,keypress(Space),,,,,-- --- ---- --- ------ ----- ------- ---- -- --- ------- --<br>------- ---------- ------ -- ----- -- ----- -- ---- ------<br>the ----- --- --- ------ -------- ----- --- ------ ----- --<br>----- ----- ---------- --- --- ------ ------ ---- -- ------<br>------- --- ------ ----- --- ---- ------- -- ---- --- --<br>------- ------,146248.90000000596,146248,145391.984,145401.20000000298,145408.654,146258.849,,22,the
screen,html.Screen,0_2_1_1_23,2021-11-05T11:04:46.848Z,,,,,,,,,,,,,,,,54,,,,,,,,,,,,,,557.1510000000126,,response,,,100,,,,,,Space,keypress(Space),,,,,-- --- ---- --- ------ ----- ------- ---- -- --- ------- --<br>------- ---------- ------ -- ----- -- ----- -- ---- ------<br>--- state --- --- ------ -------- ----- --- ------ ----- --<br>----- ----- ---------- --- --- ------ ------ ---- -- ------<br>------- --- ------ ----- --- ---- ------- -- ---- --- --<br>------- ------,146817,146816,146242.179,146249.20000000298,146258.849,146825.674,,23,state
screen,html.Screen,0_2_1_1_24,2021-11-05T11:04:47.936Z,,,,,,,,,,,,,,,,54,,,,,,,,,,,,,,1078.4260000089416,,response,,,100,,,,,,Space,keypress(Space),,,,,-- --- ---- --- ------ ----- ------- ---- -- --- ------- --<br>------- ---------- ------ -- ----- -- ----- -- ---- ------<br>--- ----- cut --- ------ -------- ----- --- ------ ----- --<br>----- ----- ---------- --- --- ------ ------ ---- -- ------<br>------- --- ------ ----- --- ---- ------- -- ---- --- --<br>------- ------,147904.90000000596,147904.10000000894,146809.004,146817.30000001192,146825.674,147909.256,,24,cut
screen,html.Screen,0_2_1_1_25,2021-11-05T11:04:48.544Z,,,,,,,,,,,,,,,,54,,,,,,,,,,,,,,602.8440000089468,,response,,,100,,,,,,Space,keypress(Space),,,,,-- --- ---- --- ------ ----- ------- ---- -- --- ------- --<br>------- ---------- ------ -- ----- -- ----- -- ---- ------<br>--- ----- --- the ------ -------- ----- --- ------ ----- --<br>----- ----- ---------- --- --- ------ ------ ---- -- ------<br>------- --- ------ ----- --- ---- ------- -- ---- --- --<br>------- ------,148512.80000001192,148512.10000000894,147892.586,147905,147909.256,148526.11,,25,the
screen,html.Screen,0_2_1_1_26,2021-11-05T11:04:49.400Z,,,,,,,,,,,,,,,,54,,,,,,,,,,,,,,841.890000000014,,response,,,100,,,,,,Space,keypress(Space),,,,,-- --- ---- --- ------ ----- ------- ---- -- --- ------- --<br>------- ---------- ------ -- ----- -- ----- -- ---- ------<br>--- ----- --- --- bonds' -------- ----- --- ------ ----- --<br>----- ----- ---------- --- --- ------ ------ ---- -- ------<br>------- --- ------ ----- --- ---- ------- -- ---- --- --<br>------- ------,149368.80000001192,149368,148509.44,148513,148526.11,149376.253,,26,bonds'
screen,html.Screen,0_2_1_1_27,2021-11-05T11:04:50.304Z,,,,,,,,,,,,,,,,54,,,,,,,,,,,,,,895.6470000059635,,response,,,100,,,,,,Space,keypress(Space),,,,,-- --- ---- --- ------ ----- ------- ---- -- --- ------- --<br>------- ---------- ------ -- ----- -- ----- -- ---- ------<br>--- ----- --- --- ------ interest ----- --- ------ ----- --<br>----- ----- ---------- --- --- ------ ------ ---- -- ------<br>------- --- ------ ----- --- ---- ------- -- ---- --- --<br>------- ------,150272.80000001192,150271.90000000596,149359.583,149369.10000000894,149376.253,150276.718,,27,interest
screen,html.Screen,0_2_1_1_28,2021-11-05T11:04:51.144Z,,,,,,,,,,,,,,,,54,,,,,,,,,,,,,,835.0820000119274,,response,,,100,,,,,,Space,keypress(Space),,,,,-- --- ---- --- ------ ----- ------- ---- -- --- ------- --<br>------- ---------- ------ -- ----- -- ----- -- ---- ------<br>--- ----- --- --- ------ -------- rate. --- ------ ----- --<br>----- ----- ---------- --- --- ------ ------ ---- -- ------<br>------- --- ------ ----- --- ---- ------- -- ---- --- --<br>------- ------,151112.70000000298,151111.80000001192,150260.046,150273.10000000894,150276.718,151126.752,,28,rate.
screen,html.Screen,0_2_1_1_29,2021-11-05T11:04:52.200Z,,,,,,,,,,,,,,,,54,,,,,,,,,,,,,,1041.0480000119132,,response,,,100,,,,,,Space,keypress(Space),,,,,-- --- ---- --- ------ ----- ------- ---- -- --- ------- --<br>------- ---------- ------ -- ----- -- ----- -- ---- ------<br>--- ----- --- --- ------ -------- ----- The ------ ----- --<br>----- ----- ---------- --- --- ------ ------ ---- -- ------<br>------- --- ------ ----- --- ---- ------- -- ---- --- --<br>------- ------,152168.60000000894,152167.80000001192,151110.082,151112.90000000596,151126.752,152177.023,,29,The
screen,html.Screen,0_2_1_1_30,2021-11-05T11:04:52.872Z,,,,,,,,,,,,,,,,54,,,,,,,,,,,,,,662.7770000119344,,response,,,100,,,,,,Space,keypress(Space),,,,,-- --- ---- --- ------ ----- ------- ---- -- --- ------- --<br>------- ---------- ------ -- ----- -- ----- -- ---- ------<br>--- ----- --- --- ------ -------- ----- --- market ----- --<br>----- ----- ---------- --- --- ------ ------ ---- -- ------<br>------- --- ------ ----- --- ---- ------- -- ---- --- --<br>------- ------,152840.60000000894,152839.80000001192,152160.353,152168.80000001192,152177.023,152843.854,,30,market
screen,html.Screen,0_2_1_1_31,2021-11-05T11:04:54.361Z,,,,,,,,,,,,,,,,54,,,,,,,,,,,,,,1484.3460000029881,,response,,,100,,,,,,Space,keypress(Space),,,,,-- --- ---- --- ------ ----- ------- ---- -- --- ------- --<br>------- ---------- ------ -- ----- -- ----- -- ---- ------<br>--- ----- --- --- ------ -------- ----- --- ------ value --<br>----- ----- ---------- --- --- ------ ------ ---- -- ------<br>------- --- ------ ----- --- ---- ------- -- ---- --- --<br>------- ------,154329.10000000894,154328.20000000298,152827.184,152840.80000001192,152843.854,154344.152,,31,value
screen,html.Screen,0_2_1_1_32,2021-11-05T11:04:55.104Z,,,,,,,,,,,,,,,,54,,,,,,,,,,,,,,727.4480000089388,,response,,,100,,,,,,Space,keypress(Space),,,,,-- --- ---- --- ------ ----- ------- ---- -- --- ------- --<br>------- ---------- ------ -- ----- -- ----- -- ---- ------<br>--- ----- --- --- ------ -------- ----- --- ------ ----- of<br>----- ----- ---------- --- --- ------ ------ ---- -- ------<br>------- --- ------ ----- --- ---- ------- -- ---- --- --<br>------- ------,155072.5,155071.60000000894,154327.482,154329.30000001192,154344.152,155077.955,,32,of
screen,html.Screen,0_2_1_1_33,2021-11-05T11:04:56.152Z,,,,,,,,,,,,,,,,54,,,,,,,,,,,,,,1041.6450000089535,,response,,,100,,,,,,Space,keypress(Space),,,,,-- --- ---- --- ------ ----- ------- ---- -- --- ------- --<br>------- ---------- ------ -- ----- -- ----- -- ---- ------<br>--- ----- --- --- ------ -------- ----- --- ------ ----- --<br>these ----- ---------- --- --- ------ ------ ---- -- ------<br>------- --- ------ ----- --- ---- ------- -- ---- --- --<br>------- ------,156120.40000000596,156119.60000000894,155061.283,155072.70000000298,155077.955,156128.047,,33,these
screen,html.Screen,0_2_1_1_34,2021-11-05T11:04:57.256Z,,,,,,,,,,,,,,,,54,,,,,,,,,,,,,,1095.4530000000086,,response,,,100,,,,,,Space,keypress(Space),,,,,-- --- ---- --- ------ ----- ------- ---- -- --- ------- --<br>------- ---------- ------ -- ----- -- ----- -- ---- ------<br>--- ----- --- --- ------ -------- ----- --- ------ ----- --<br>----- bonds ---------- --- --- ------ ------ ---- -- ------<br>------- --- ------ ----- --- ---- ------- -- ---- --- --<br>------- ------,157224.30000001192,157223.5,156111.377,156120.60000000894,156128.047,157228.329,,34,bonds
screen,html.Screen,0_2_1_1_35,2021-11-05T11:04:57.720Z,,,,,,,,,,,,,,,,54,,,,,,,,,,,,,,459.1710000000021,,response,,,100,,,,,,Space,keypress(Space),,,,,"-- --- ---- --- ------ ----- ------- ---- -- --- ------- --<br>------- ---------- ------ -- ----- -- ----- -- ---- ------<br>--- ----- --- --- ------ -------- ----- --- ------ ----- --<br>----- ----- plummeted, --- --- ------ ------ ---- -- ------<br>------- --- ------ ----- --- ---- ------- -- ---- --- --<br>------- ------",157688.30000001192,157687.5,157211.659,157224.60000000894,157228.329,157695.071,,35,"plummeted,"
screen,html.Screen,0_2_1_1_36,2021-11-05T11:04:59.240Z,,,,,,,,,,,,,,,,54,,,,,,,,,,,,,,1512.3290000059642,,response,,,100,,,,,,Space,keypress(Space),,,,,-- --- ---- --- ------ ----- ------- ---- -- --- ------- --<br>------- ---------- ------ -- ----- -- ----- -- ---- ------<br>--- ----- --- --- ------ -------- ----- --- ------ ----- --<br>----- ----- ---------- and --- ------ ------ ---- -- ------<br>------- --- ------ ----- --- ---- ------- -- ---- --- --<br>------- ------,159208.20000000298,159207.40000000596,157678.401,157688.60000000894,157695.071,159212.254,,36,and
screen,html.Screen,0_2_1_1_37,2021-11-05T11:05:00.472Z,,,,,,,,,,,,,,,,54,,,,,,,,,,,,,,1227.1460000059742,,response,,,100,,,,,,Space,keypress(Space),,,,,-- --- ---- --- ------ ----- ------- ---- -- --- ------- --<br>------- ---------- ------ -- ----- -- ----- -- ---- ------<br>--- ----- --- --- ------ -------- ----- --- ------ ----- --<br>----- ----- ---------- --- the ------ ------ ---- -- ------<br>------- --- ------ ----- --- ---- ------- -- ---- --- --<br>------- ------,160440.20000000298,160439.40000000596,159195.583,159208.30000001192,159212.254,160445.532,,37,the
screen,html.Screen,0_2_1_1_38,2021-11-05T11:05:01.040Z,,,,,,,,,,,,,,,,54,,,,,,,,,,,,,,561.6680000029737,,response,,,100,,,,,,Space,keypress(Space),,,,,-- --- ---- --- ------ ----- ------- ---- -- --- ------- --<br>------- ---------- ------ -- ----- -- ----- -- ---- ------<br>--- ----- --- --- ------ -------- ----- --- ------ ----- --<br>----- ----- ---------- --- --- market ------ ---- -- ------<br>------- --- ------ ----- --- ---- ------- -- ---- --- --<br>------- ------,161008.10000000894,161007.20000000298,160428.863,160440.40000000596,160445.532,161012.67,,38,market
screen,html.Screen,0_2_1_1_39,2021-11-05T11:05:01.799Z,,,,,,,,,,,,,,,,54,,,,,,,,,,,,,,754.5300000029674,,response,,,100,,,,,,Space,keypress(Space),,,,,-- --- ---- --- ------ ----- ------- ---- -- --- ------- --<br>------- ---------- ------ -- ----- -- ----- -- ---- ------<br>--- ----- --- --- ------ -------- ----- --- ------ ----- --<br>----- ----- ---------- --- --- ------ became ---- -- ------<br>------- --- ------ ----- --- ---- ------- -- ---- --- --<br>------- ------,161768,161767.20000000298,160995.999,161008.30000001192,161012.67,161779.377,,39,became
screen,html.Screen,0_2_1_1_40,2021-11-05T11:05:04.151Z,,,,,,,,,,,,,,,,54,,,,,,,,,,,,,,2339.723000008933,,response,,,100,,,,,,Space,keypress(Space),,,,,-- --- ---- --- ------ ----- ------- ---- -- --- ------- --<br>------- ---------- ------ -- ----- -- ----- -- ---- ------<br>--- ----- --- --- ------ -------- ----- --- ------ ----- --<br>----- ----- ---------- --- --- ------ ------ wary -- ------<br>------- --- ------ ----- --- ---- ------- -- ---- --- --<br>------- ------,164120,164119.10000000894,161762.708,161768.20000000298,161779.377,164130.528,,40,wary
screen,html.Screen,0_2_1_1_41,2021-11-05T11:05:04.816Z,,,,,,,,,,,,,,,,54,,,,,,,,,,,,,,653.0720000089495,,response,,,100,,,,,,Space,keypress(Space),,,,,-- --- ---- --- ------ ----- ------- ---- -- --- ------- --<br>------- ---------- ------ -- ----- -- ----- -- ---- ------<br>--- ----- --- --- ------ -------- ----- --- ------ ----- --<br>----- ----- ---------- --- --- ------ ------ ---- of ------<br>------- --- ------ ----- --- ---- ------- -- ---- --- --<br>------- ------,164784.30000001192,164783.60000000894,164113.855,164120.20000000298,164130.528,164796.928,,41,of
screen,html.Screen,0_2_1_1_42,2021-11-05T11:05:05.575Z,,,,,,,,,,,,,,,,54,,,,,,,,,,,,,,746.0719999999856,,response,,,100,,,,,,Space,keypress(Space),,,,,-- --- ---- --- ------ ----- ------- ---- -- --- ------- --<br>------- ---------- ------ -- ----- -- ----- -- ---- ------<br>--- ----- --- --- ------ -------- ----- --- ------ ----- --<br>----- ----- ---------- --- --- ------ ------ ---- -- French<br>------- --- ------ ----- --- ---- ------- -- ---- --- --<br>------- ------,165543.80000001192,165543,164780.258,164786,164796.928,165547.078,,42,French
screen,html.Screen,0_2_1_1_43,2021-11-05T11:05:06.463Z,,,,,,,,,,,,,,,,54,,,,,,,,,,,,,,883.9219999999914,,response,,,100,,,,,,Space,keypress(Space),,,,,-- --- ---- --- ------ ----- ------- ---- -- --- ------- --<br>------- ---------- ------ -- ----- -- ----- -- ---- ------<br>--- ----- --- --- ------ -------- ----- --- ------ ----- --<br>----- ----- ---------- --- --- ------ ------ ---- -- ------<br>credit. --- ------ ----- --- ---- ------- -- ---- --- --<br>------- ------,166431.90000000596,166431,165530.408,165544.10000000894,165547.078,166447.521,,43,credit.
screen,html.Screen,0_2_1_1_44,2021-11-05T11:05:07.007Z,,,,,,,,,,,,,,,,54,,,,,,,,,,,,,,527.4789999999921,,response,,,100,,,,,,Space,keypress(Space),,,,,-- --- ---- --- ------ ----- ------- ---- -- --- ------- --<br>------- ---------- ------ -- ----- -- ----- -- ---- ------<br>--- ----- --- --- ------ -------- ----- --- ------ ----- --<br>----- ----- ---------- --- --- ------ ------ ---- -- ------<br>------- The ------ ----- --- ---- ------- -- ---- --- --<br>------- ------,166975.80000001192,166975,166430.849,166432.20000000298,166447.521,166980.856,,44,The
screen,html.Screen,0_2_1_1_45,2021-11-05T11:05:07.511Z,,,,,,,,,,,,,,,,54,,,,,,,,,,,,,,498.14400000000023,,response,,,100,,,,,,Space,keypress(Space),,,,,-- --- ---- --- ------ ----- ------- ---- -- --- ------- --<br>------- ---------- ------ -- ----- -- ----- -- ---- ------<br>--- ----- --- --- ------ -------- ----- --- ------ ----- --<br>----- ----- ---------- --- --- ------ ------ ---- -- ------<br>------- --- French ----- --- ---- ------- -- ---- --- --<br>------- ------,167479.70000000298,167479,166964.186,166976,166980.856,167481.041,,45,French
screen,html.Screen,0_2_1_1_46,2021-11-05T11:05:08.023Z,,,,,,,,,,,,,,,,54,,,,,,,,,,,,,,509.95900000000256,,response,,,100,,,,,,Space,keypress(Space),,,,,-- --- ---- --- ------ ----- ------- ---- -- --- ------- --<br>------- ---------- ------ -- ----- -- ----- -- ---- ------<br>--- ----- --- --- ------ -------- ----- --- ------ ----- --<br>----- ----- ---------- --- --- ------ ------ ---- -- ------<br>------- --- ------ state --- ---- ------- -- ---- --- --<br>------- ------,167991.80000001192,167991,167464.37,167480.10000000894,167481.041,167997.847,,46,state
screen,html.Screen,0_2_1_1_47,2021-11-05T11:05:08.751Z,,,,,,,,,,,,,,,,54,,,,,,,,,,,,,,720.9530000119121,,response,,,100,,,,,,Space,keypress(Space),,,,,-- --- ---- --- ------ ----- ------- ---- -- --- ------- --<br>------- ---------- ------ -- ----- -- ----- -- ---- ------<br>--- ----- --- --- ------ -------- ----- --- ------ ----- --<br>----- ----- ---------- --- --- ------ ------ ---- -- ------<br>------- --- ------ ----- was ---- ------- -- ---- --- --<br>------- ------,168719.70000000298,168718.80000001192,167981.176,167992,167997.847,168731.376,,47,was
screen,html.Screen,0_2_1_1_48,2021-11-05T11:05:09.351Z,,,,,,,,,,,,,,,,54,,,,,,,,,,,,,,587.5240000059712,,response,,,100,,,,,,Space,keypress(Space),,,,,-- --- ---- --- ------ ----- ------- ---- -- --- ------- --<br>------- ---------- ------ -- ----- -- ----- -- ---- ------<br>--- ----- --- --- ------ -------- ----- --- ------ ----- --<br>----- ----- ---------- --- --- ------ ------ ---- -- ------<br>------- --- ------ ----- --- left ------- -- ---- --- --<br>------- ------,169319.70000000298,169318.90000000596,168714.705,168719.90000000596,168731.376,169331.439,,48,left
screen,html.Screen,0_2_1_1_49,2021-11-05T11:05:10.815Z,,,,,,,,,,,,,,,,54,,,,,,,,,,,,,,1451.2610000029672,,response,,,100,,,,,,Space,keypress(Space),,,,,-- --- ---- --- ------ ----- ------- ---- -- --- ------- --<br>------- ---------- ------ -- ----- -- ----- -- ---- ------<br>--- ----- --- --- ------ -------- ----- --- ------ ----- --<br>----- ----- ---------- --- --- ------ ------ ---- -- ------<br>------- --- ------ ----- --- ---- without -- ---- --- --<br>------- ------,170783.5,170782.70000000298,169314.769,169319.90000000596,169331.439,170798.568,,49,without
screen,html.Screen,0_2_1_1_50,2021-11-05T11:05:11.319Z,,,,,,,,,,,,,,,,54,,,,,,,,,,,,,,488.13200000298093,,response,,,100,,,,,,Space,keypress(Space),,,,,-- --- ---- --- ------ ----- ------- ---- -- --- ------- --<br>------- ---------- ------ -- ----- -- ----- -- ---- ------<br>--- ----- --- --- ------ -------- ----- --- ------ ----- --<br>----- ----- ---------- --- --- ------ ------ ---- -- ------<br>------- --- ------ ----- --- ---- ------- an ---- --- --<br>------- ------,171287.5,171286.70000000298,170781.897,170783.90000000596,170798.568,171298.605,,50,an
screen,html.Screen,0_2_1_1_51,2021-11-05T11:05:12.055Z,,,,,,,,,,,,,,,,54,,,,,,,,,,,,,,724.0950000029698,,response,,,100,,,,,,Space,keypress(Space),,,,,-- --- ---- --- ------ ----- ------- ---- -- --- ------- --<br>------- ---------- ------ -- ----- -- ----- -- ---- ------<br>--- ----- --- --- ------ -------- ----- --- ------ ----- --<br>----- ----- ---------- --- --- ------ ------ ---- -- ------<br>------- --- ------ ----- --- ---- ------- -- easy --- --<br>------- ------,172023.5,172022.70000000298,171281.935,171287.80000001192,171298.605,172032.081,,51,easy
screen,html.Screen,0_2_1_1_52,2021-11-05T11:05:12.463Z,,,,,,,,,,,,,,,,54,,,,,,,,,,,,,,398.9189999999944,,response,,,100,,,,,,Space,keypress(Space),,,,,-- --- ---- --- ------ ----- ------- ---- -- --- ------- --<br>------- ---------- ------ -- ----- -- ----- -- ---- ------<br>--- ----- --- --- ------ -------- ----- --- ------ ----- --<br>----- ----- ---------- --- --- ------ ------ ---- -- ------<br>------- --- ------ ----- --- ---- ------- -- ---- way --<br>------- ------,172431.80000001192,172431,172015.411,172023.80000001192,172032.081,172449.115,,52,way
screen,html.Screen,0_2_1_1_53,2021-11-05T11:05:13.095Z,,,,,,,,,,,,,,,,54,,,,,,,,,,,,,,613.48500000895,,response,,,100,,,,,,Space,keypress(Space),,,,,-- --- ---- --- ------ ----- ------- ---- -- --- ------- --<br>------- ---------- ------ -- ----- -- ----- -- ---- ------<br>--- ----- --- --- ------ -------- ----- --- ------ ----- --<br>----- ----- ---------- --- --- ------ ------ ---- -- ------<br>------- --- ------ ----- --- ---- ------- -- ---- --- of<br>------- ------,173063.5,173062.60000000894,172432.442,172432.10000000894,172449.115,173065.733,,53,of
screen,html.Screen,0_2_1_1_54,2021-11-05T11:05:13.679Z,,,,,,,,,,,,,,,,54,,,,,,,,,,,,,,580.9670000029728,,response,,,100,,,,,,Space,keypress(Space),,,,,-- --- ---- --- ------ ----- ------- ---- -- --- ------- --<br>------- ---------- ------ -- ----- -- ----- -- ---- ------<br>--- ----- --- --- ------ -------- ----- --- ------ ----- --<br>----- ----- ---------- --- --- ------ ------ ---- -- ------<br>------- --- ------ ----- --- ---- ------- -- ---- --- --<br>raising ------,173647.5,173646.70000000298,173049.063,173063.70000000298,173065.733,173649.303,,54,raising
screen,html.Screen,0_2_1_1_55,2021-11-05T11:05:15.351Z,,,,,,,,,,,,,,,,54,,,,,,,,,,,,,,1669.6969999999856,,response,,,100,,,,,,Space,keypress(Space),,,,,-- --- ---- --- ------ ----- ------- ---- -- --- ------- --<br>------- ---------- ------ -- ----- -- ----- -- ---- ------<br>--- ----- --- --- ------ -------- ----- --- ------ ----- --<br>----- ----- ---------- --- --- ------ ------ ---- -- ------<br>------- --- ------ ----- --- ---- ------- -- ---- --- --<br>------- money.,175319.90000000596,175319,173632.632,173647.60000000894,173649.303,175332.948,,55,money.
Item 100,flow.Loop,0_2_1_1,2021-11-05T11:05:15.352Z,,,,,,,,,,,,,,,,,,,,,,,,,,,,,,44647.570999999996,,completion,,,,D,,,,,,,,,,silence,,175320.40000000596,175319,130654.759,130659.5,130671.429,175332.948,,,
Question 1,html.Screen,0_2_1_2,2021-11-05T11:05:20.871Z,,,,,,,,,,,,,,,,,,,,,,,,,,,true,TRUE,,5502.252000002976,,response,,,100,D,,,,,TRUE,click #choice-1,,,,silence,,180836.40000000596,180835.20000000298,175316.278,175320.5,175332.948,180851.012,,,
Question 2,html.Screen,0_2_1_3,2021-11-05T11:05:24.761Z,,,,,,,,,,,,,,,,,,,,,,,,,,,true,FALSE,,3873.488000000012,,response,,,100,D,,,,,FALSE,click #choice-2,,,,silence,,184725.80000001192,184724.5,180834.343,180836.60000000894,180851.012,184735.497,,,
Item 100,flow.Sequence,0_2_1,2021-11-05T11:05:24.761Z,,,,,,,,,,,,,,,,,,,,,,,,,,,,,,64056.172000000006,,completion,,,,,,,,,,,,,,,,184726.30000001192,184724.5,120651.668,120642.20000000298,120668.328,184735.497,,,
End of Practice,html.Page,0_2_2,2021-11-05T11:05:32.398Z,,,,,,,,,,,,,,,,,,,,,,,,,,,,,,7627.203000002977,,form submission,,,,,,,,,,,,,,,,192363.30000001192,192362.70000000298,184718.825,184726.5,184735.497,192370.78,,,
Practice,flow.Sequence,0_2,2021-11-05T11:05:32.399Z,,,,,,,,,,,,,,,,,,,,,,,,,,,,,,131759.81400000298,,completion,,,,,,,,,,,,,,,,192363.80000001192,192362.70000000298,60586.217,60594,60602.886,192370.78,,,
Trap_instruction,html.Page,0_3_0,2021-11-05T11:05:41.842Z,,,,,,,,,,,,,,,,,,,,,,,,,,,,,,9435.320000008942,,form submission,,,,,,,,,,,,,,,,201806.70000000298,201806.10000000894,192354.108,192364.20000000298,192370.78,201839.831,,,
trap_trial,html.Screen,0_3_1,2021-11-05T11:05:46.159Z,,,,,,,,,,,,,,,,,,,,,,,,,,,true,1,,4283.168999999994,,response,,,,,,,,,1,click #choice-1,,,,,,206124.20000000298,206123,201789.818,201807,201839.831,206128.324,,,
end of trap trial,html.Page,0_3_2,2021-11-05T11:05:50.620Z,,,,,,,,,,,,,,,,,,,,,,,,,,,,,,4456.276000008947,,form submission,,,,,,,,,,,,,,,,210585.10000000894,210584.60000000894,206111.703,206124.60000000894,206128.324,210591.987,,,
Trap 1,flow.Sequence,0_3,2021-11-05T11:05:50.620Z,,,,,,,,,,,,,,,,,,,,,,,,,,,,,,18213.820000008942,,completion,,,,,,,,,,,,,,,,210585.60000000894,210584.60000000894,192354.108,192364.10000000894,192370.78,210591.987,,,
Standby,html.Page,0_4_0,2021-11-05T11:05:58.613Z,,,,,,,,,,,,,,,,,,,,,,,,,,,,,,8001.678000000014,,timeout,,,,,,,,,,,,,,,,218578.20000000298,218576.995,210575.317,210586,210591.987,218593.665,,,
Holding screen,html.Screen,0_4_1_0_0,2021-11-05T11:06:05.615Z,,,,,,,,,,,,,,,,,,,,,,,,,,,,,,7002.09599999999,,timeout,,,,,,,,,,,,,,,,225580.10000000894,225579.092,218576.995,218578.60000000894,218593.665,225595.761,,,
screen,html.Screen,0_4_1_0_1_0,2021-11-05T11:06:06.768Z,,,,,,,,,,,,,,,,51,,,,,,,,,,,,,,1136.5390000119223,,response,,,13,D,,,,,Space,keypress(Space),,,,silence,American -------- --- --- ---- --- --- ------ -- --------<br>---- --------- --- ------- ------------ ---------- ---------<br>--- ---------- ------- ---------- ------- -- -------- ----<br>---- --- ------ ----- ------ -- ---- --- ----- -- - -------<br>-------- -- --- --- -- ----- ----------- ----- -----------<br>---- --- ---------- --- ---- --- -- ----------,226733.30000001192,226732.30000001192,225579.092,225580.40000000596,225595.761,226746.295,,0,American
screen,html.Screen,0_4_1_0_1_1,2021-11-05T11:06:07.343Z,,,,,,,,,,,,,,,,51,,,,,,,,,,,,,,561.4050000029674,,response,,,13,D,,,,,Space,keypress(Space),,,,silence,-------- industry --- --- ---- --- --- ------ -- --------<br>---- --------- --- ------- ------------ ---------- ---------<br>--- ---------- ------- ---------- ------- -- -------- ----<br>---- --- ------ ----- ------ -- ---- --- ----- -- - -------<br>-------- -- --- --- -- ----- ----------- ----- -----------<br>---- --- ---------- --- ---- --- -- ----------,227308.60000000894,227307.70000000298,226729.624,226733.80000001192,226746.295,227312.905,,1,industry
screen,html.Screen,0_4_1_0_1_2,2021-11-05T11:06:07.887Z,,,,,,,,,,,,,,,,51,,,,,,,,,,,,,,538.6950000089419,,response,,,13,D,,,,,Space,keypress(Space),,,,silence,-------- -------- may --- ---- --- --- ------ -- --------<br>---- --------- --- ------- ------------ ---------- ---------<br>--- ---------- ------- ---------- ------- -- -------- ----<br>---- --- ------ ----- ------ -- ---- --- ----- -- - -------<br>-------- -- --- --- -- ----- ----------- ----- -----------<br>---- --- ---------- --- ---- --- -- ----------,227852.5,227851.60000000894,227296.236,227308.90000000596,227312.905,227863.269,,2,may
screen,html.Screen,0_4_1_0_1_3,2021-11-05T11:06:08.591Z,,,,,,,,,,,,,,,,51,,,,,,,,,,,,,,692.2309999999998,,response,,,13,D,,,,,Space,keypress(Space),,,,silence,-------- -------- --- not ---- --- --- ------ -- --------<br>---- --------- --- ------- ------------ ---------- ---------<br>--- ---------- ------- ---------- ------- -- -------- ----<br>---- --- ------ ----- ------ -- ---- --- ----- -- - -------<br>-------- -- --- --- -- ----- ----------- ----- -----------<br>---- --- ---------- --- ---- --- -- ----------,228556.40000000596,228555.5,227846.598,227852.90000000596,227863.269,228563.344,,3,not
screen,html.Screen,0_4_1_0_1_4,2021-11-05T11:06:09.295Z,,,,,,,,,,,,,,,,51,,,,,,,,,,,,,,696.2560000089288,,response,,,13,D,,,,,Space,keypress(Space),,,,silence,-------- -------- --- --- know --- --- ------ -- --------<br>---- --------- --- ------- ------------ ---------- ---------<br>--- ---------- ------- ---------- ------- -- -------- ----<br>---- --- ------ ----- ------ -- ---- --- ----- -- - -------<br>-------- -- --- --- -- ----- ----------- ----- -----------<br>---- --- ---------- --- ---- --- -- ----------,229260.5,229259.60000000894,228546.674,228556.70000000298,228563.344,229263.604,,4,know
screen,html.Screen,0_4_1_0_1_5,2021-11-05T11:06:09.759Z,,,,,,,,,,,,,,,,51,,,,,,,,,,,,,,459.9960000089486,,response,,,13,D,,,,,Space,keypress(Space),,,,silence,"-------- -------- --- --- ---- it, --- ------ -- --------<br>---- --------- --- ------- ------------ ---------- ---------<br>--- ---------- ------- ---------- ------- -- -------- ----<br>---- --- ------ ----- ------ -- ---- --- ----- -- - -------<br>-------- -- --- --- -- ----- ----------- ----- -----------<br>---- --- ---------- --- ---- --- -- ----------",229724.40000000596,229723.60000000894,229246.933,229260.80000001192,229263.604,229730.349,,5,"it,"
screen,html.Screen,0_4_1_0_1_6,2021-11-05T11:06:10.375Z,,,,,,,,,,,,,,,,51,,,,,,,,,,,,,,609.1510000000126,,response,,,13,D,,,,,Space,keypress(Space),,,,silence,-------- -------- --- --- ---- --- but ------ -- --------<br>---- --------- --- ------- ------------ ---------- ---------<br>--- ---------- ------- ---------- ------- -- -------- ----<br>---- --- ------ ----- ------ -- ---- --- ----- -- - -------<br>-------- -- --- --- -- ----- ----------- ----- -----------<br>---- --- ---------- --- ---- --- -- ----------,230340.30000001192,230339.5,229713.679,229724.60000000894,229730.349,230347.175,,6,but
screen,html.Screen,0_4_1_0_1_7,2021-11-05T11:06:11.111Z,,,,,,,,,,,,,,,,51,,,,,,,,,,,,,,728.3250000000116,,response,,,13,D,,,,,Space,keypress(Space),,,,silence,-------- -------- --- --- ---- --- --- debate -- --------<br>---- --------- --- ------- ------------ ---------- ---------<br>--- ---------- ------- ---------- ------- -- -------- ----<br>---- --- ------ ----- ------ -- ---- --- ----- -- - -------<br>-------- -- --- --- -- ----- ----------- ----- -----------<br>---- --- ---------- --- ---- --- -- ----------,231076.30000001192,231075.5,230330.505,230340.60000000894,230347.175,231080.689,,7,debate
screen,html.Screen,0_4_1_0_1_8,2021-11-05T11:06:11.703Z,,,,,,,,,,,,,,,,51,,,,,,,,,,,,,,586.7110000059474,,response,,,13,D,,,,,Space,keypress(Space),,,,silence,-------- -------- --- --- ---- --- --- ------ in --------<br>---- --------- --- ------- ------------ ---------- ---------<br>--- ---------- ------- ---------- ------- -- -------- ----<br>---- --- ------ ----- ------ -- ---- --- ----- -- - -------<br>-------- -- --- --- -- ----- ----------- ----- -----------<br>---- --- ---------- --- ---- --- -- ----------,231668.20000000298,231667.40000000596,231064.019,231076.5,231080.689,231680.851,,8,in
screen,html.Screen,0_4_1_0_1_9,2021-11-05T11:06:12.519Z,,,,,,,,,,,,,,,,51,,,,,,,,,,,,,,802.4490000119258,,response,,,13,D,,,,,Space,keypress(Space),,,,silence,-------- -------- --- --- ---- --- --- ------ -- Congress<br>---- --------- --- ------- ------------ ---------- ---------<br>--- ---------- ------- ---------- ------- -- -------- ----<br>---- --- ------ ----- ------ -- ---- --- ----- -- - -------<br>-------- -- --- --- -- ----- ----------- ----- -----------<br>---- --- ---------- --- ---- --- -- ----------,232484.20000000298,232483.30000001192,231664.181,231668.40000000596,231680.851,232497.712,,9,Congress
screen,html.Screen,0_4_1_0_1_10,2021-11-05T11:06:13.215Z,,,,,,,,,,,,,,,,51,,,,,,,,,,,,,,681.5880000119214,,response,,,13,D,,,,,Space,keypress(Space),,,,silence,-------- -------- --- --- ---- --- --- ------ -- --------<br>over --------- --- ------- ------------ ---------- ---------<br>--- ---------- ------- ---------- ------- -- -------- ----<br>---- --- ------ ----- ------ -- ---- --- ----- -- - -------<br>-------- -- --- --- -- ----- ----------- ----- -----------<br>---- --- ---------- --- ---- --- -- ----------,233180.10000000894,233179.30000001192,232481.042,232484.40000000596,232497.712,233181.23,,10,over
screen,html.Screen,0_4_1_0_1_11,2021-11-05T11:06:14.567Z,,,,,,,,,,,,,,,,51,,,,,,,,,,,,,,1349.9700000029698,,response,,,13,D,,,,,Space,keypress(Space),,,,silence,-------- -------- --- --- ---- --- --- ------ -- --------<br>---- reforming --- ------- ------------ ---------- ---------<br>--- ---------- ------- ---------- ------- -- -------- ----<br>---- --- ------ ----- ------ -- ---- --- ----- -- - -------<br>-------- -- --- --- -- ----- ----------- ----- -----------<br>---- --- ---------- --- ---- --- -- ----------,234532.10000000894,234531.20000000298,233164.56,233180.40000000596,233181.23,234548.189,,11,reforming
screen,html.Screen,0_4_1_0_1_12,2021-11-05T11:06:15.335Z,,,,,,,,,,,,,,,,51,,,,,,,,,,,,,,751.0110000029672,,response,,,13,D,,,,,Space,keypress(Space),,,,silence,-------- -------- --- --- ---- --- --- ------ -- --------<br>---- --------- the ------- ------------ ---------- ---------<br>--- ---------- ------- ---------- ------- -- -------- ----<br>---- --- ------ ----- ------ -- ---- --- ----- -- - -------<br>-------- -- --- --- -- ----- ----------- ----- -----------<br>---- --- ---------- --- ---- --- -- ----------,235300,235299.20000000298,234531.519,234532.40000000596,234548.189,235315.174,,12,the
screen,html.Screen,0_4_1_0_1_13,2021-11-05T11:06:15.903Z,,,,,,,,,,,,,,,,51,,,,,,,,,,,,,,551.9260000089416,,response,,,13,D,,,,,Space,keypress(Space),,,,silence,-------- -------- --- --- ---- --- --- ------ -- --------<br>---- --------- --- federal ------------ ---------- ---------<br>--- ---------- ------- ---------- ------- -- -------- ----<br>---- --- ------ ----- ------ -- ---- --- ----- -- - -------<br>-------- -- --- --- -- ----- ----------- ----- -----------<br>---- --- ---------- --- ---- --- -- ----------,235868.10000000894,235867.10000000894,235298.503,235300.20000000298,235315.174,235881.931,,13,federal
screen,html.Screen,0_4_1_0_1_14,2021-11-05T11:06:16.695Z,,,,,,,,,,,,,,,,51,,,,,,,,,,,,,,777.2690000029688,,response,,,13,D,,,,,Space,keypress(Space),,,,silence,-------- -------- --- --- ---- --- --- ------ -- --------<br>---- --------- --- ------- government's ---------- ---------<br>--- ---------- ------- ---------- ------- -- -------- ----<br>---- --- ------ ----- ------ -- ---- --- ----- -- - -------<br>-------- -- --- --- -- ----- ----------- ----- -----------<br>---- --- ---------- --- ---- --- -- ----------,236660,236659.20000000298,235865.261,235868.40000000596,235881.931,236665.46,,14,government's
screen,html.Screen,0_4_1_0_1_15,2021-11-05T11:06:17.591Z,,,,,,,,,,,,,,,,51,,,,,,,,,,,,,,890.0400000000081,,response,,,13,D,,,,,Space,keypress(Space),,,,silence,-------- -------- --- --- ---- --- --- ------ -- --------<br>---- --------- --- ------- ------------ regulatory ---------<br>--- ---------- ------- ---------- ------- -- -------- ----<br>---- --- ------ ----- ------ -- ---- --- ----- -- - -------<br>-------- -- --- --- -- ----- ----------- ----- -----------<br>---- --- ---------- --- ---- --- -- ----------,237556.30000001192,237555.5,236648.79,236660.20000000298,236665.46,237565.682,,15,regulatory
screen,html.Screen,0_4_1_0_1_16,2021-11-05T11:06:18.687Z,,,,,,,,,,,,,,,,51,,,,,,,,,,,,,,1085.41800000894,,response,,,13,D,,,,,Space,keypress(Space),,,,silence,-------- -------- --- --- ---- --- --- ------ -- --------<br>---- --------- --- ------- ------------ ---------- apparatus<br>--- ---------- ------- ---------- ------- -- -------- ----<br>---- --- ------ ----- ------ -- ---- --- ----- -- - -------<br>-------- -- --- --- -- ----- ----------- ----- -----------<br>---- --- ---------- --- ---- --- -- ----------,238652,238651.10000000894,237549.012,237556.5,237565.682,238665.928,,16,apparatus
screen,html.Screen,0_4_1_0_1_17,2021-11-05T11:06:19.215Z,,,,,,,,,,,,,,,,51,,,,,,,,,,,,,,513.0719999999856,,response,,,13,D,,,,,Space,keypress(Space),,,,silence,-------- -------- --- --- ---- --- --- ------ -- --------<br>---- --------- --- ------- ------------ ---------- ---------<br>may ---------- ------- ---------- ------- -- -------- ----<br>---- --- ------ ----- ------ -- ---- --- ----- -- - -------<br>-------- -- --- --- -- ----- ----------- ----- -----------<br>---- --- ---------- --- ---- --- -- ----------,239179.80000001192,239179,238649.258,238652.30000001192,238665.928,239182.774,,17,may
screen,html.Screen,0_4_1_0_1_18,2021-11-05T11:06:20.322Z,,,,,,,,,,,,,,,,51,,,,,,,,,,,,,,1100.1260000059556,,response,,,13,D,,,,,Space,keypress(Space),,,,silence,-------- -------- --- --- ---- --- --- ------ -- --------<br>---- --------- --- ------- ------------ ---------- ---------<br>--- profoundly ------- ---------- ------- -- -------- ----<br>---- --- ------ ----- ------ -- ---- --- ----- -- - -------<br>-------- -- --- --- -- ----- ----------- ----- -----------<br>---- --- ---------- --- ---- --- -- ----------,240283.80000001192,240282.90000000596,239166.104,239180.10000000894,239182.774,240299.704,,18,profoundly
screen,html.Screen,0_4_1_0_1_19,2021-11-05T11:06:21.762Z,,,,,,,,,,,,,,,,51,,,,,,,,,,,,,,1423.1960000059626,,response,,,13,D,,,,,Space,keypress(Space),,,,silence,-------- -------- --- --- ---- --- --- ------ -- --------<br>---- --------- --- ------- ------------ ---------- ---------<br>--- ---------- improve ---------- ------- -- -------- ----<br>---- --- ------ ----- ------ -- ---- --- ----- -- - -------<br>-------- -- --- --- -- ----- ----------- ----- -----------<br>---- --- ---------- --- ---- --- -- ----------,241723.70000000298,241722.90000000596,240283.034,240284,240299.704,241733.186,,19,improve
screen,html.Screen,0_4_1_0_1_20,2021-11-05T11:06:22.482Z,,,,,,,,,,,,,,,,51,,,,,,,,,,,,,,709.614000011934,,response,,,13,D,,,,,Space,keypress(Space),,,,silence,-------- -------- --- --- ---- --- --- ------ -- --------<br>---- --------- --- ------- ------------ ---------- ---------<br>--- ---------- ------- companies' ------- -- -------- ----<br>---- --- ------ ----- ------ -- ---- --- ----- -- - -------<br>-------- -- --- --- -- ----- ----------- ----- -----------<br>---- --- ---------- --- ---- --- -- ----------,242443.5,242442.80000001192,241716.517,241723.90000000596,241733.186,242450.295,,20,companies'
screen,html.Screen,0_4_1_0_1_21,2021-11-05T11:06:23.642Z,,,,,,,,,,,,,,,,51,,,,,,,,,,,,,,1152.4050000029674,,response,,,13,D,,,,,Space,keypress(Space),,,,silence,-------- -------- --- --- ---- --- --- ------ -- --------<br>---- --------- --- ------- ------------ ---------- ---------<br>--- ---------- ------- ---------- ability -- -------- ----<br>---- --- ------ ----- ------ -- ---- --- ----- -- - -------<br>-------- -- --- --- -- ----- ----------- ----- -----------<br>---- --- ---------- --- ---- --- -- ----------,243603.60000000894,243602.70000000298,242433.624,242443.80000001192,242450.295,243617.045,,21,ability
screen,html.Screen,0_4_1_0_1_22,2021-11-05T11:06:24.138Z,,,,,,,,,,,,,,,,51,,,,,,,,,,,,,,481.7550000119081,,response,,,13,D,,,,,Space,keypress(Space),,,,silence,-------- -------- --- --- ---- --- --- ------ -- --------<br>---- --------- --- ------- ------------ ---------- ---------<br>--- ---------- ------- ---------- ------- to -------- ----<br>---- --- ------ ----- ------ -- ---- --- ----- -- - -------<br>-------- -- --- --- -- ----- ----------- ----- -----------<br>---- --- ---------- --- ---- --- -- ----------,244099.60000000894,244098.80000001192,243600.376,243603.80000001192,243617.045,244100.828,,22,to
screen,html.Screen,0_4_1_0_1_23,2021-11-05T11:06:24.970Z,,,,,,,,,,,,,,,,51,,,,,,,,,,,,,,829.7720000089321,,response,,,13,D,,,,,Space,keypress(Space),,,,silence,-------- -------- --- --- ---- --- --- ------ -- --------<br>---- --------- --- ------- ------------ ---------- ---------<br>--- ---------- ------- ---------- ------- -- survive. ----<br>---- --- ------ ----- ------ -- ---- --- ----- -- - -------<br>-------- -- --- --- -- ----- ----------- ----- -----------<br>---- --- ---------- --- ---- --- -- ----------,244931.30000001192,244930.60000000894,244084.156,244099.80000001192,244100.828,244934.231,,23,survive.
screen,html.Screen,0_4_1_0_1_24,2021-11-05T11:06:25.658Z,,,,,,,,,,,,,,,,51,,,,,,,,,,,,,,684.2690000000002,,response,,,13,D,,,,,Space,keypress(Space),,,,silence,-------- -------- --- --- ---- --- --- ------ -- --------<br>---- --------- --- ------- ------------ ---------- ---------<br>--- ---------- ------- ---------- ------- -- -------- This<br>---- --- ------ ----- ------ -- ---- --- ----- -- - -------<br>-------- -- --- --- -- ----- ----------- ----- -----------<br>---- --- ---------- --- ---- --- -- ----------,245619.40000000596,245618.5,244917.561,244931.5,244934.231,245634.49,,24,This
screen,html.Screen,0_4_1_0_1_25,2021-11-05T11:06:26.762Z,,,,,,,,,,,,,,,,51,,,,,,,,,,,,,,1088.11000000895,,response,,,13,D,,,,,Space,keypress(Space),,,,silence,-------- -------- --- --- ---- --- --- ------ -- --------<br>---- --------- --- ------- ------------ ---------- ---------<br>--- ---------- ------- ---------- ------- -- -------- ----<br>week --- ------ ----- ------ -- ---- --- ----- -- - -------<br>-------- -- --- --- -- ----- ----------- ----- -----------<br>---- --- ---------- --- ---- --- -- ----------,246723.40000000596,246722.60000000894,245617.819,245619.60000000894,245634.49,246734.691,,25,week
screen,html.Screen,0_4_1_0_1_26,2021-11-05T11:06:27.290Z,,,,,,,,,,,,,,,,51,,,,,,,,,,,,,,515.8090000000084,,response,,,13,D,,,,,Space,keypress(Space),,,,silence,-------- -------- --- --- ---- --- --- ------ -- --------<br>---- --------- --- ------- ------------ ---------- ---------<br>--- ---------- ------- ---------- ------- -- -------- ----<br>---- the ------ ----- ------ -- ---- --- ----- -- - -------<br>-------- -- --- --- -- ----- ----------- ----- -----------<br>---- --- ---------- --- ---- --- -- ----------,247251.40000000596,247250.5,246718.021,246723.60000000894,246734.691,247268.036,,26,the
screen,html.Screen,0_4_1_0_1_27,2021-11-05T11:06:28.026Z,,,,,,,,,,,,,,,,51,,,,,,,,,,,,,,718.8640000059677,,response,,,13,D,,,,,Space,keypress(Space),,,,silence,-------- -------- --- --- ---- --- --- ------ -- --------<br>---- --------- --- ------- ------------ ---------- ---------<br>--- ---------- ------- ---------- ------- -- -------- ----<br>---- --- Senate ----- ------ -- ---- --- ----- -- - -------<br>-------- -- --- --- -- ----- ----------- ----- -----------<br>---- --- ---------- --- ---- --- -- ----------,247987.70000000298,247986.90000000596,247251.367,247251.70000000298,247268.036,248001.763,,27,Senate
screen,html.Screen,0_4_1_0_1_28,2021-11-05T11:06:28.818Z,,,,,,,,,,,,,,,,51,,,,,,,,,,,,,,776.7369999999937,,response,,,13,D,,,,,Space,keypress(Space),,,,silence,-------- -------- --- --- ---- --- --- ------ -- --------<br>---- --------- --- ------- ------------ ---------- ---------<br>--- ---------- ------- ---------- ------- -- -------- ----<br>---- --- ------ seems ------ -- ---- --- ----- -- - -------<br>-------- -- --- --- -- ----- ----------- ----- -----------<br>---- --- ---------- --- ---- --- -- ----------,248779.30000001192,248778.5,247985.092,247987.90000000596,248001.763,248785.299,,28,seems
screen,html.Screen,0_4_1_0_1_29,2021-11-05T11:06:29.649Z,,,,,,,,,,,,,,,,51,,,,,,,,,,,,,,825.1010000059614,,response,,,13,D,,,,,Space,keypress(Space),,,,silence,-------- -------- --- --- ---- --- --- ------ -- --------<br>---- --------- --- ------- ------------ ---------- ---------<br>--- ---------- ------- ---------- ------- -- -------- ----<br>---- --- ------ ----- poised -- ---- --- ----- -- - -------<br>-------- -- --- --- -- ----- ----------- ----- -----------<br>---- --- ---------- --- ---- --- -- ----------,249611.20000000298,249610.40000000596,248768.628,248779.5,248785.299,249618.785,,29,poised
screen,html.Screen,0_4_1_0_1_30,2021-11-05T11:06:30.257Z,,,,,,,,,,,,,,,,51,,,,,,,,,,,,,,599.615000005957,,response,,,13,D,,,,,Space,keypress(Space),,,,silence,-------- -------- --- --- ---- --- --- ------ -- --------<br>---- --------- --- ------- ------------ ---------- ---------<br>--- ---------- ------- ---------- ------- -- -------- ----<br>---- --- ------ ----- ------ to ---- --- ----- -- - -------<br>-------- -- --- --- -- ----- ----------- ----- -----------<br>---- --- ---------- --- ---- --- -- ----------,250219.20000000298,250218.40000000596,249602.115,249611.5,249618.785,250235.619,,30,to
screen,html.Screen,0_4_1_0_1_31,2021-11-05T11:06:30.665Z,,,,,,,,,,,,,,,,51,,,,,,,,,,,,,,390.7810000059544,,response,,,13,D,,,,,Space,keypress(Space),,,,silence,-------- -------- --- --- ---- --- --- ------ -- --------<br>---- --------- --- ------- ------------ ---------- ---------<br>--- ---------- ------- ---------- ------- -- -------- ----<br>---- --- ------ ----- ------ -- join --- ----- -- - -------<br>-------- -- --- --- -- ----- ----------- ----- -----------<br>---- --- ---------- --- ---- --- -- ----------,250627.10000000894,250626.40000000596,250218.949,250219.5,250235.619,250635.638,,31,join
screen,html.Screen,0_4_1_0_1_32,2021-11-05T11:06:31.241Z,,,,,,,,,,,,,,,,51,,,,,,,,,,,,,,566.7620000059542,,response,,,13,D,,,,,Space,keypress(Space),,,,silence,-------- -------- --- --- ---- --- --- ------ -- --------<br>---- --------- --- ------- ------------ ---------- ---------<br>--- ---------- ------- ---------- ------- -- -------- ----<br>---- --- ------ ----- ------ -- ---- the ----- -- - -------<br>-------- -- --- --- -- ----- ----------- ----- -----------<br>---- --- ---------- --- ---- --- -- ----------,251203.30000001192,251202.40000000596,250618.969,250627.40000000596,250635.638,251219.258,,32,the
screen,html.Screen,0_4_1_0_1_33,2021-11-05T11:06:31.777Z,,,,,,,,,,,,,,,,51,,,,,,,,,,,,,,519.0420000119193,,response,,,13,D,,,,,Space,keypress(Space),,,,silence,-------- -------- --- --- ---- --- --- ------ -- --------<br>---- --------- --- ------- ------------ ---------- ---------<br>--- ---------- ------- ---------- ------- -- -------- ----<br>---- --- ------ ----- ------ -- ---- --- House -- - -------<br>-------- -- --- --- -- ----- ----------- ----- -----------<br>---- --- ---------- --- ---- --- -- ----------,251739.20000000298,251738.30000001192,251202.587,251203.5,251219.258,251752.724,,33,House
screen,html.Screen,0_4_1_0_1_34,2021-11-05T11:06:32.601Z,,,,,,,,,,,,,,,,51,,,,,,,,,,,,,,809.5760000119335,,response,,,13,D,,,,,Space,keypress(Space),,,,silence,-------- -------- --- --- ---- --- --- ------ -- --------<br>---- --------- --- ------- ------------ ---------- ---------<br>--- ---------- ------- ---------- ------- -- -------- ----<br>---- --- ------ ----- ------ -- ---- --- ----- in - -------<br>-------- -- --- --- -- ----- ----------- ----- -----------<br>---- --- ---------- --- ---- --- -- ----------,252563.10000000894,252562.30000001192,251736.053,251739.40000000596,251752.724,252569.54,,34,in
screen,html.Screen,0_4_1_0_1_35,2021-11-05T11:06:33.075Z,,,,,,,,,,,,,,,,51,,,,,,,,,,,,,,464.7600000119128,,response,,,13,D,,,,,Space,keypress(Space),,,,silence,-------- -------- --- --- ---- --- --- ------ -- --------<br>---- --------- --- ------- ------------ ---------- ---------<br>--- ---------- ------- ---------- ------- -- -------- ----<br>---- --- ------ ----- ------ -- ---- --- ----- -- a -------<br>-------- -- --- --- -- ----- ----------- ----- -----------<br>---- --- ---------- --- ---- --- -- ----------,253036.40000000596,253034.30000001192,252552.87,252563.40000000596,252569.54,253053.018,,35,a
screen,html.Screen,0_4_1_0_1_36,2021-11-05T11:06:33.681Z,,,,,,,,,,,,,,,,51,,,,,,,,,,,,,,589.1820000029693,,response,,,13,D,,,,,Space,keypress(Space),,,,silence,-------- -------- --- --- ---- --- --- ------ -- --------<br>---- --------- --- ------- ------------ ---------- ---------<br>--- ---------- ------- ---------- ------- -- -------- ----<br>---- --- ------ ----- ------ -- ---- --- ----- -- - massive<br>-------- -- --- --- -- ----- ----------- ----- -----------<br>---- --- ---------- --- ---- --- -- ----------,253643,253642.20000000298,253036.348,253036.80000001192,253053.018,253653.166,,36,massive
screen,html.Screen,0_4_1_0_1_37,2021-11-05T11:06:34.737Z,,,,,,,,,,,,,,,,51,,,,,,,,,,,,,,1045.0340000029828,,response,,,13,D,,,,,Space,keypress(Space),,,,silence,-------- -------- --- --- ---- --- --- ------ -- --------<br>---- --------- --- ------- ------------ ---------- ---------<br>--- ---------- ------- ---------- ------- -- -------- ----<br>---- --- ------ ----- ------ -- ---- --- ----- -- - -------<br>overhaul -- --- --- -- ----- ----------- ----- -----------<br>---- --- ---------- --- ---- --- -- ----------,254698.90000000596,254698.20000000298,253636.496,253643.30000001192,253653.166,254703.474,,37,overhaul
screen,html.Screen,0_4_1_0_1_38,2021-11-05T11:06:35.233Z,,,,,,,,,,,,,,,,51,,,,,,,,,,,,,,490.62600000895327,,response,,,13,D,,,,,Space,keypress(Space),,,,silence,-------- -------- --- --- ---- --- --- ------ -- --------<br>---- --------- --- ------- ------------ ---------- ---------<br>--- ---------- ------- ---------- ------- -- -------- ----<br>---- --- ------ ----- ------ -- ---- --- ----- -- - -------<br>-------- of --- --- -- ----- ----------- ----- -----------<br>---- --- ---------- --- ---- --- -- ----------,255194.90000000596,255194.10000000894,254686.803,254699.20000000298,254703.474,255203.545,,38,of
screen,html.Screen,0_4_1_0_1_39,2021-11-05T11:06:36.545Z,,,,,,,,,,,,,,,,51,,,,,,,,,,,,,,1302.555000008928,,response,,,13,D,,,,,Space,keypress(Space),,,,silence,-------- -------- --- --- ---- --- --- ------ -- --------<br>---- --------- --- ------- ------------ ---------- ---------<br>--- ---------- ------- ---------- ------- -- -------- ----<br>---- --- ------ ----- ------ -- ---- --- ----- -- - -------<br>-------- -- the --- -- ----- ----------- ----- -----------<br>---- --- ---------- --- ---- --- -- ----------,256506.90000000596,256506.10000000894,255186.875,255195.10000000894,255203.545,256520.534,,39,the
screen,html.Screen,0_4_1_0_1_40,2021-11-05T11:06:37.353Z,,,,,,,,,,,,,,,,51,,,,,,,,,,,,,,793.4659999999858,,response,,,13,D,,,,,Space,keypress(Space),,,,silence,-------- -------- --- --- ---- --- --- ------ -- --------<br>---- --------- --- ------- ------------ ---------- ---------<br>--- ---------- ------- ---------- ------- -- -------- ----<br>---- --- ------ ----- ------ -- ---- --- ----- -- - -------<br>-------- -- --- way -- ----- ----------- ----- -----------<br>---- --- ---------- --- ---- --- -- ----------,257314.80000001192,257314,256503.864,256507.20000000298,256520.534,257320.731,,40,way
screen,html.Screen,0_4_1_0_1_41,2021-11-05T11:06:37.889Z,,,,,,,,,,,,,,,,51,,,,,,,,,,,,,,529.2690000000002,,response,,,13,D,,,,,Space,keypress(Space),,,,silence,-------- -------- --- --- ---- --- --- ------ -- --------<br>---- --------- --- ------- ------------ ---------- ---------<br>--- ---------- ------- ---------- ------- -- -------- ----<br>---- --- ------ ----- ------ -- ---- --- ----- -- - -------<br>-------- -- --- --- in ----- ----------- ----- -----------<br>---- --- ---------- --- ---- --- -- ----------,257850.80000001192,257850,257304.061,257315.10000000894,257320.731,257854.243,,41,in
screen,html.Screen,0_4_1_0_1_42,2021-11-05T11:06:39.073Z,,,,,,,,,,,,,,,,51,,,,,,,,,,,,,,1180.1570000059728,,response,,,13,D,,,,,Space,keypress(Space),,,,silence,-------- -------- --- --- ---- --- --- ------ -- --------<br>---- --------- --- ------- ------------ ---------- ---------<br>--- ---------- ------- ---------- ------- -- -------- ----<br>---- --- ------ ----- ------ -- ---- --- ----- -- - -------<br>-------- -- --- --- -- which ----------- ----- -----------<br>---- --- ---------- --- ---- --- -- ----------,259035.20000000298,259034.40000000596,257837.573,257851.10000000894,257854.243,259037.799,,42,which
screen,html.Screen,0_4_1_0_1_43,2021-11-05T11:06:39.889Z,,,,,,,,,,,,,,,,51,,,,,,,,,,,,,,812.1010000059614,,response,,,13,D,,,,,Space,keypress(Space),,,,silence,-------- -------- --- --- ---- --- --- ------ -- --------<br>---- --------- --- ------- ------------ ---------- ---------<br>--- ---------- ------- ---------- ------- -- -------- ----<br>---- --- ------ ----- ------ -- ---- --- ----- -- - -------<br>-------- -- --- --- -- ----- bureaucrats ----- -----------<br>---- --- ---------- --- ---- --- -- ----------,259850.70000000298,259849.90000000596,259021.129,259035.40000000596,259037.799,259854.905,,43,bureaucrats
screen,html.Screen,0_4_1_0_1_44,2021-11-05T11:06:40.457Z,,,,,,,,,,,,,,,,51,,,,,,,,,,,,,,562.8950000119221,,response,,,13,D,,,,,Space,keypress(Space),,,,silence,-------- -------- --- --- ---- --- --- ------ -- --------<br>---- --------- --- ------- ------------ ---------- ---------<br>--- ---------- ------- ---------- ------- -- -------- ----<br>---- --- ------ ----- ------ -- ---- --- ----- -- - -------<br>-------- -- --- --- -- ----- ----------- enact -----------<br>---- --- ---------- --- ---- --- -- ----------,260418.60000000894,260417.80000001192,259838.233,259850.90000000596,259854.905,260421.548,,44,enact
screen,html.Screen,0_4_1_0_1_45,2021-11-05T11:06:41.409Z,,,,,,,,,,,,,,,,51,,,,,,,,,,,,,,948.2520000119112,,response,,,13,D,,,,,Space,keypress(Space),,,,silence,-------- -------- --- --- ---- --- --- ------ -- --------<br>---- --------- --- ------- ------------ ---------- ---------<br>--- ---------- ------- ---------- ------- -- -------- ----<br>---- --- ------ ----- ------ -- ---- --- ----- -- - -------<br>-------- -- --- --- -- ----- ----------- ----- regulations<br>---- --- ---------- --- ---- --- -- ----------,261370.60000000894,261369.80000001192,260404.878,260418.90000000596,260421.548,261371.762,,45,regulations
screen,html.Screen,0_4_1_0_1_46,2021-11-05T11:06:42.241Z,,,,,,,,,,,,,,,,51,,,,,,,,,,,,,,830.038000011933,,response,,,13,D,,,,,Space,keypress(Space),,,,silence,-------- -------- --- --- ---- --- --- ------ -- --------<br>---- --------- --- ------- ------------ ---------- ---------<br>--- ---------- ------- ---------- ------- -- -------- ----<br>---- --- ------ ----- ------ -- ---- --- ----- -- - -------<br>-------- -- --- --- -- ----- ----------- ----- -----------<br>that --- ---------- --- ---- --- -- ----------,262202.60000000894,262201.8000000119,261355.092,261370.80000001192,261371.762,262205.457,,46,that
screen,html.Screen,0_4_1_0_1_47,2021-11-05T11:06:42.865Z,,,,,,,,,,,,,,,,51,,,,,,,,,,,,,,620.2430000029854,,response,,,13,D,,,,,Space,keypress(Space),,,,silence,-------- -------- --- --- ---- --- --- ------ -- --------<br>---- --------- --- ------- ------------ ---------- ---------<br>--- ---------- ------- ---------- ------- -- -------- ----<br>---- --- ------ ----- ------ -- ---- --- ----- -- - -------<br>-------- -- --- --- -- ----- ----------- ----- -----------<br>---- are ---------- --- ---- --- -- ----------,262826.5,262825.700000003,262188.786,262202.90000000596,262205.457,262838.735,,47,are
screen,html.Screen,0_4_1_0_1_48,2021-11-05T11:06:44.233Z,,,,,,,,,,,,,,,,51,,,,,,,,,,,,,,1354.9650000029942,,response,,,13,D,,,,,Space,keypress(Space),,,,silence,-------- -------- --- --- ---- --- --- ------ -- --------<br>---- --------- --- ------- ------------ ---------- ---------<br>--- ---------- ------- ---------- ------- -- -------- ----<br>---- --- ------ ----- ------ -- ---- --- ----- -- - -------<br>-------- -- --- --- -- ----- ----------- ----- -----------<br>---- --- strangling --- ---- --- -- ----------,264194.60000000894,264193.700000003,262822.066,262826.8000000119,262838.735,264205.946,,48,strangling
screen,html.Screen,0_4_1_0_1_49,2021-11-05T11:06:44.721Z,,,,,,,,,,,,,,,,51,,,,,,,,,,,,,,475.6540000089444,,response,,,13,D,,,,,Space,keypress(Space),,,,silence,-------- -------- --- --- ---- --- --- ------ -- --------<br>---- --------- --- ------- ------------ ---------- ---------<br>--- ---------- ------- ---------- ------- -- -------- ----<br>---- --- ------ ----- ------ -- ---- --- ----- -- - -------<br>-------- -- --- --- -- ----- ----------- ----- -----------<br>---- --- ---------- the ---- --- -- ----------,264682.5,264681.60000000894,264189.275,264194.8000000119,264205.946,264689.342,,49,the
screen,html.Screen,0_4_1_0_1_50,2021-11-05T11:06:45.233Z,,,,,,,,,,,,,,,,51,,,,,,,,,,,,,,504.2580000089365,,response,,,13,D,,,,,Space,keypress(Space),,,,silence,-------- -------- --- --- ---- --- --- ------ -- --------<br>---- --------- --- ------- ------------ ---------- ---------<br>--- ---------- ------- ---------- ------- -- -------- ----<br>---- --- ------ ----- ------ -- ---- --- ----- -- - -------<br>-------- -- --- --- -- ----- ----------- ----- -----------<br>---- --- ---------- --- life --- -- ----------,265194.40000000596,265193.60000000894,264672.672,264682.700000003,264689.342,265206.14,,50,life
