sender,sender_type,sender_id,timestamp,meta,,Blues,Classical,Country,Dance,Electronic,Folk,Gospel,Hip-Hop,Jazz,Latin,Musical/Film,New-age,Pop,Provo_ID,R&B,Rap,Reggae,Religious,Rock,Soul,Swing,Traditional,age,artist_name,correct,correctResponse,distraction,duration,education,ended_on,familiarity,gender,item,list,music_frequency,offensiveness,pleasantness,preference,response,response_action,snippet_file,song_name,song_rating,sound,text,time_commit,time_end,time_render,time_run,time_show,time_switch,url,word,word_ID
Instructions,html.Page,0_0,2021-12-02T14:00:15.606Z,"{""labjs_version"":""20.2.3"",""labjs_build"":{""flavor"":""production"",""commit"":""7ea907d66ca8aeef8054924ca5d82ffbe11e34e5""},""location"":""https://run.pavlovia.org/mvasilev/lab_music_f/"",""userAgent"":""Mozilla/5.0 (Windows NT 6.1; Win64; x64) AppleWebKit/537.36 (KHTML, like Gecko) Chrome/96.0.4664.45 Safari/537.36"",""platform"":""Win32"",""language"":""en-US"",""locale"":""en-US"",""timeZone"":""Europe/London"",""timezoneOffset"":0,""screen_width"":1920,""screen_height"":1080,""scroll_width"":1920,""scroll_height"":959,""window_innerWidth"":1920,""window_innerHeight"":1007,""devicePixelRatio"":1}",,,,,,,,,,,,,,,,,,,,,,,,,,,,,17966.40400000149,,form submission,,,,,,,,,,,,,,,,25011.400000002235,25010.10000000149,7027.026,7032.300000000745,7043.696,25014.196,{},,
Headphones,html.Page,0_1,2021-12-02T14:00:18.032Z,,,,,,,,,,,,,,,,,,,,,,,,,,,,,,2422.2040000022353,,form submission,,,,,,,,,,,,,,,,27436.900000002235,27436.400000002235,24997.568,25012.10000000149,25014.196,27449.108,,,
Holding screen,html.Screen,0_2_0_0,2021-12-02T14:00:28.036Z,,,,,,,,,,,,,,,,,,,,,,,,,,,,,,10002.665,,timeout,,,,,,,,,,,,,,,,37441.199999999255,37435.104,27432.439,27437.5,27449.108,37451.773,,,
screen,html.Screen,0_2_0_1_0,2021-12-02T14:00:29.559Z,,,,,,,,,,,,,,,,53,,,,,,,,,,,,,,1511.527000000744,,response,,,99,,,,,,Space,keypress(Space),,,,,When -- ----- -- ------ - ------- --- ----------<br>------------- ------ ------ ---- ---- ------- ----- -- ----<br>-------- ------- -- ---------- --- - --- ----- ----- ----<br>---- --- --- ----- --- ---- ---- ------- ----- ---- -------<br>--- --- -- ----- -- --- ---- -- --- ---- -- ------ ------<br>--- ----- -- ----,38964.699999999255,38963.300000000745,37435.104,37441.60000000149,37451.773,38969.227,,0,When
screen,html.Screen,0_2_0_1_1,2021-12-02T14:00:30.926Z,,,,,,,,,,,,,,,,53,,,,,,,,,,,,,,1361.573000000746,,response,,,99,,,,,,Space,keypress(Space),,,,,---- it ----- -- ------ - ------- --- ----------<br>------------- ------ ------ ---- ---- ------- ----- -- ----<br>-------- ------- -- ---------- --- - --- ----- ----- ----<br>---- --- --- ----- --- ---- ---- ------- ----- ---- -------<br>--- --- -- ----- -- --- ---- -- --- ---- -- ------ ------<br>--- ----- -- ----,40331.699999999255,40330.800000000745,38952.555,38965,38969.227,40336.017,,1,it
screen,html.Screen,0_2_0_1_2,2021-12-02T14:00:32.334Z,,,,,,,,,,,,,,,,53,,,,,,,,,,,,,,1402.7830000007452,,response,,,99,,,,,,Space,keypress(Space),,,,,---- -- comes -- ------ - ------- --- ----------<br>------------- ------ ------ ---- ---- ------- ----- -- ----<br>-------- ------- -- ---------- --- - --- ----- ----- ----<br>---- --- --- ----- --- ---- ---- ------- ----- ---- -------<br>--- --- -- ----- -- --- ---- -- --- ---- -- ------ ------<br>--- ----- -- ----,41739.699999999255,41738.800000000745,40319.347,40331.900000002235,40336.017,41752.945,,2,comes
screen,html.Screen,0_2_0_1_3,2021-12-02T14:00:33.158Z,,,,,,,,,,,,,,,,53,,,,,,,,,,,,,,809.7549999992552,,response,,,99,,,,,,Space,keypress(Space),,,,,---- -- ----- to ------ - ------- --- ----------<br>------------- ------ ------ ---- ---- ------- ----- -- ----<br>-------- ------- -- ---------- --- - --- ----- ----- ----<br>---- --- --- ----- --- ---- ---- ------- ----- ---- -------<br>--- --- -- ----- -- --- ---- -- --- ---- -- ------ ------<br>--- ----- -- ----,42563.699999999255,42562.699999999255,41736.275,41740.10000000149,41752.945,42570.1,,3,to
screen,html.Screen,0_2_0_1_4,2021-12-02T14:00:33.926Z,,,,,,,,,,,,,,,,53,,,,,,,,,,,,,,760.4000000000015,,response,,,99,,,,,,Space,keypress(Space),,,,,---- -- ----- -- having - ------- --- ----------<br>------------- ------ ------ ---- ---- ------- ----- -- ----<br>-------- ------- -- ---------- --- - --- ----- ----- ----<br>---- --- --- ----- --- ---- ---- ------- ----- ---- -------<br>--- --- -- ----- -- --- ---- -- --- ---- -- ------ ------<br>--- ----- -- ----,43331,43330.5,42553.429,42564.199999999255,42570.1,43336.889,,4,having
screen,html.Screen,0_2_0_1_5,2021-12-02T14:00:34.646Z,,,,,,,,,,,,,,,,53,,,,,,,,,,,,,,713.8109999992521,,response,,,99,,,,,,Space,keypress(Space),,,,,---- -- ----- -- ------ a ------- --- ----------<br>------------- ------ ------ ---- ---- ------- ----- -- ----<br>-------- ------- -- ---------- --- - --- ----- ----- ----<br>---- --- --- ----- --- ---- ---- ------- ----- ---- -------<br>--- --- -- ----- -- --- ---- -- --- ---- -- ------ ------<br>--- ----- -- ----,44051.5,44050.699999999255,43320.219,43331.10000000149,43336.889,44053.715,,5,a
screen,html.Screen,0_2_0_1_6,2021-12-02T14:00:35.430Z,,,,,,,,,,,,,,,,53,,,,,,,,,,,,,,780.9849999992584,,response,,,99,,,,,,Space,keypress(Space),,,,,---- -- ----- -- ------ - lasting --- ----------<br>------------- ------ ------ ---- ---- ------- ----- -- ----<br>-------- ------- -- ---------- --- - --- ----- ----- ----<br>---- --- --- ----- --- ---- ---- ------- ----- ---- -------<br>--- --- -- ----- -- --- ---- -- --- ---- -- ------ ------<br>--- ----- -- ----,44835.60000000149,44834.699999999255,44037.045,44052.10000000149,44053.715,44837.11,,6,lasting
screen,html.Screen,0_2_0_1_7,2021-12-02T14:00:36.126Z,,,,,,,,,,,,,,,,53,,,,,,,,,,,,,,693.4900000014895,,response,,,99,,,,,,Space,keypress(Space),,,,,---- -- ----- -- ------ - ------- and ----------<br>------------- ------ ------ ---- ---- ------- ----- -- ----<br>-------- ------- -- ---------- --- - --- ----- ----- ----<br>---- --- --- ----- --- ---- ---- ------- ----- ---- -------<br>--- --- -- ----- -- --- ---- -- --- ---- -- ------ ------<br>--- ----- -- ----,45531.5,45530.60000000149,44820.441,44835.900000002235,44837.11,45537.482,,7,and
screen,html.Screen,0_2_0_1_8,2021-12-02T14:00:36.830Z,,,,,,,,,,,,,,,,53,,,,,,,,,,,,,,697.0179999999964,,response,,,99,,,,,,Space,keypress(Space),,,,,---- -- ----- -- ------ - ------- --- fulfilling<br>------------- ------ ------ ---- ---- ------- ----- -- ----<br>-------- ------- -- ---------- --- - --- ----- ----- ----<br>---- --- --- ----- --- ---- ---- ------- ----- ---- -------<br>--- --- -- ----- -- --- ---- -- --- ---- -- ------ ------<br>--- ----- -- ----,46235.60000000149,46234.5,45520.811,45531.800000000745,45537.482,46237.735,,8,fulfilling
screen,html.Screen,0_2_0_1_9,2021-12-02T14:00:37.390Z,,,,,,,,,,,,,,,,53,,,,,,,,,,,,,,556.7649999999994,,response,,,99,,,,,,Space,keypress(Space),,,,,"---- -- ----- -- ------ - ------- --- ----------<br>relationship, ------ ------ ---- ---- ------- ----- -- ----<br>-------- ------- -- ---------- --- - --- ----- ----- ----<br>---- --- --- ----- --- ---- ---- ------- ----- ---- -------<br>--- --- -- ----- -- --- ---- -- --- ---- -- ------ ------<br>--- ----- -- ----",46795.5,46794.5,46221.064,46235.900000002235,46237.735,46804.485,,9,"relationship,"
screen,html.Screen,0_2_0_1_10,2021-12-02T14:00:38.086Z,,,,,,,,,,,,,,,,53,,,,,,,,,,,,,,686.0149999999994,,response,,,99,,,,,,Space,keypress(Space),,,,,---- -- ----- -- ------ - ------- --- ----------<br>------------- common ------ ---- ---- ------- ----- -- ----<br>-------- ------- -- ---------- --- - --- ----- ----- ----<br>---- --- --- ----- --- ---- ---- ------- ----- ---- -------<br>--- --- -- ----- -- --- ---- -- --- ---- -- ------ ------<br>--- ----- -- ----,47491.5,47490.5,46787.815,46795.699999999255,46804.485,47504.723,,10,common
screen,html.Screen,0_2_0_1_11,2021-12-02T14:00:38.582Z,,,,,,,,,,,,,,,,53,,,,,,,,,,,,,,481.77700000000186,,response,,,99,,,,,,Space,keypress(Space),,,,,---- -- ----- -- ------ - ------- --- ----------<br>------------- ------ wisdom ---- ---- ------- ----- -- ----<br>-------- ------- -- ---------- --- - --- ----- ----- ----<br>---- --- --- ----- --- ---- ---- ------- ----- ---- -------<br>--- --- -- ----- -- --- ---- -- --- ---- -- ------ ------<br>--- ----- -- ----,47987.400000002235,47986.5,47488.052,47491.800000000745,47504.723,48004.703,,11,wisdom
screen,html.Screen,0_2_0_1_12,2021-12-02T14:00:39.206Z,,,,,,,,,,,,,,,,53,,,,,,,,,,,,,,605.7969999999987,,response,,,99,,,,,,Space,keypress(Space),,,,,---- -- ----- -- ------ - ------- --- ----------<br>------------- ------ ------ says ---- ------- ----- -- ----<br>-------- ------- -- ---------- --- - --- ----- ----- ----<br>---- --- --- ----- --- ---- ---- ------- ----- ---- -------<br>--- --- -- ----- -- --- ---- -- --- ---- -- ------ ------<br>--- ----- -- ----,48611.300000000745,48610.5,47988.034,47987.699999999255,48004.703,48621.685,,12,says
screen,html.Screen,0_2_0_1_13,2021-12-02T14:00:39.919Z,,,,,,,,,,,,,,,,53,,,,,,,,,,,,,,701.3150000000023,,response,,,99,,,,,,Space,keypress(Space),,,,,---- -- ----- -- ------ - ------- --- ----------<br>------------- ------ ------ ---- that ------- ----- -- ----<br>-------- ------- -- ---------- --- - --- ----- ----- ----<br>---- --- --- ----- --- ---- ---- ------- ----- ---- -------<br>--- --- -- ----- -- --- ---- -- --- ---- -- ------ ------<br>--- ----- -- ----,49323.800000000745,49323,48605.014,48611.60000000149,48621.685,49338.482,,13,that
screen,html.Screen,0_2_0_1_14,2021-12-02T14:00:40.574Z,,,,,,,,,,,,,,,,53,,,,,,,,,,,,,,639.9180000022316,,response,,,99,,,,,,Space,keypress(Space),,,,,---- -- ----- -- ------ - ------- --- ----------<br>------------- ------ ------ ---- ---- feeling ----- -- ----<br>-------- ------- -- ---------- --- - --- ----- ----- ----<br>---- --- --- ----- --- ---- ---- ------- ----- ---- -------<br>--- --- -- ----- -- --- ---- -- --- ---- -- ------ ------<br>--- ----- -- ----,49979.199999999255,49978.400000002235,49321.812,49324,49338.482,49988.656,,14,feeling
screen,html.Screen,0_2_0_1_15,2021-12-02T14:00:41.038Z,,,,,,,,,,,,,,,,53,,,,,,,,,,,,,,453.7440000022325,,response,,,99,,,,,,Space,keypress(Space),,,,,---- -- ----- -- ------ - ------- --- ----------<br>------------- ------ ------ ---- ---- ------- close -- ----<br>-------- ------- -- ---------- --- - --- ----- ----- ----<br>---- --- --- ----- --- ---- ---- ------- ----- ---- -------<br>--- --- -- ----- -- --- ---- -- --- ---- -- ------ ------<br>--- ----- -- ----,50443.199999999255,50442.400000002235,49971.986,49979.5,49988.656,50455.392,,15,close
screen,html.Screen,0_2_0_1_16,2021-12-02T14:00:41.414Z,,,,,,,,,,,,,,,,53,,,,,,,,,,,,,,363.00800000223535,,response,,,99,,,,,,Space,keypress(Space),,,,,---- -- ----- -- ------ - ------- --- ----------<br>------------- ------ ------ ---- ---- ------- ----- to ----<br>-------- ------- -- ---------- --- - --- ----- ----- ----<br>---- --- --- ----- --- ---- ---- ------- ----- ---- -------<br>--- --- -- ----- -- --- ---- -- --- ---- -- ------ ------<br>--- ----- -- ----,50819.199999999255,50818.400000002235,50438.722,50443.5,50455.392,50822.279,,16,to
screen,html.Screen,0_2_0_1_17,2021-12-02T14:00:41.838Z,,,,,,,,,,,,,,,,53,,,,,,,,,,,,,,420.0210000007428,,response,,,99,,,,,,Space,keypress(Space),,,,,---- -- ----- -- ------ - ------- --- ----------<br>------------- ------ ------ ---- ---- ------- ----- -- your<br>-------- ------- -- ---------- --- - --- ----- ----- ----<br>---- --- --- ----- --- ---- ---- ------- ----- ---- -------<br>--- --- -- ----- -- --- ---- -- --- ---- -- ------ ------<br>--- ----- -- ----,51243.199999999255,51242.300000000745,50805.608,50819.5,50822.279,51255.65,,17,your
screen,html.Screen,0_2_0_1_18,2021-12-02T14:00:42.254Z,,,,,,,,,,,,,,,,53,,,,,,,,,,,,,,402.6500000007436,,response,,,99,,,,,,Space,keypress(Space),,,,,---- -- ----- -- ------ - ------- --- ----------<br>------------- ------ ------ ---- ---- ------- ----- -- ----<br>romantic ------- -- ---------- --- - --- ----- ----- ----<br>---- --- --- ----- --- ---- ---- ------- ----- ---- -------<br>--- --- -- ----- -- --- ---- -- --- ---- -- ------ ------<br>--- ----- -- ----,51659.10000000149,51658.300000000745,51238.98,51243.400000002235,51255.65,51672.509,,18,romantic
screen,html.Screen,0_2_0_1_19,2021-12-02T14:00:42.926Z,,,,,,,,,,,,,,,,53,,,,,,,,,,,,,,657.7910000007469,,response,,,99,,,,,,Space,keypress(Space),,,,,---- -- ----- -- ------ - ------- --- ----------<br>------------- ------ ------ ---- ---- ------- ----- -- ----<br>-------- partner -- ---------- --- - --- ----- ----- ----<br>---- --- --- ----- --- ---- ---- ------- ----- ---- -------<br>--- --- -- ----- -- --- ---- -- --- ---- -- ------ ------<br>--- ----- -- ----,52331.10000000149,52330.300000000745,51655.838,51659.300000000745,51672.509,52339.109,,19,partner
screen,html.Screen,0_2_0_1_20,2021-12-02T14:00:43.358Z,,,,,,,,,,,,,,,,53,,,,,,,,,,,,,,423.1910000007483,,response,,,99,,,,,,Space,keypress(Space),,,,,---- -- ----- -- ------ - ------- --- ----------<br>------------- ------ ------ ---- ---- ------- ----- -- ----<br>-------- ------- is ---------- --- - --- ----- ----- ----<br>---- --- --- ----- --- ---- ---- ------- ----- ---- -------<br>--- --- -- ----- -- --- ---- -- --- ---- -- ------ ------<br>--- ----- -- ----,52763.10000000149,52762.300000000745,52322.441,52331.300000000745,52339.109,52772.912,,20,is
screen,html.Screen,0_2_0_1_21,2021-12-02T14:00:44.206Z,,,,,,,,,,,,,,,,53,,,,,,,,,,,,,,837.2879999992583,,response,,,99,,,,,,Space,keypress(Space),,,,,---- -- ----- -- ------ - ------- --- ----------<br>------------- ------ ------ ---- ---- ------- ----- -- ----<br>-------- ------- -- paramount. --- - --- ----- ----- ----<br>---- --- --- ----- --- ---- ---- ------- ----- ---- -------<br>--- --- -- ----- -- --- ---- -- --- ---- -- ------ ------<br>--- ----- -- ----,53611,53610.199999999255,52756.239,52763.400000002235,52772.912,53622.94,,21,paramount.
screen,html.Screen,0_2_0_1_22,2021-12-02T14:00:44.710Z,,,,,,,,,,,,,,,,53,,,,,,,,,,,,,,491.2599999992526,,response,,,99,,,,,,Space,keypress(Space),,,,,---- -- ----- -- ------ - ------- --- ----------<br>------------- ------ ------ ---- ---- ------- ----- -- ----<br>-------- ------- -- ---------- But - --- ----- ----- ----<br>---- --- --- ----- --- ---- ---- ------- ----- ---- -------<br>--- --- -- ----- -- --- ---- -- --- ---- -- ------ ------<br>--- ----- -- ----,54115,54114.199999999255,53606.27,53611.400000002235,53622.94,54123.103,,22,But
screen,html.Screen,0_2_0_1_23,2021-12-02T14:00:45.166Z,,,,,,,,,,,,,,,,53,,,,,,,,,,,,,,447.09699999925215,,response,,,99,,,,,,Space,keypress(Space),,,,,---- -- ----- -- ------ - ------- --- ----------<br>------------- ------ ------ ---- ---- ------- ----- -- ----<br>-------- ------- -- ---------- --- a --- ----- ----- ----<br>---- --- --- ----- --- ---- ---- ------- ----- ---- -------<br>--- --- -- ----- -- --- ---- -- --- ---- -- ------ ------<br>--- ----- -- ----,54571,54570.199999999255,54106.433,54115.300000000745,54123.103,54573.211,,23,a
screen,html.Screen,0_2_0_1_24,2021-12-02T14:00:45.622Z,,,,,,,,,,,,,,,,53,,,,,,,,,,,,,,452.988999999252,,response,,,99,,,,,,Space,keypress(Space),,,,,---- -- ----- -- ------ - ------- --- ----------<br>------------- ------ ------ ---- ---- ------- ----- -- ----<br>-------- ------- -- ---------- --- - new ----- ----- ----<br>---- --- --- ----- --- ---- ---- ------- ----- ---- -------<br>--- --- -- ----- -- --- ---- -- --- ---- -- ------ ------<br>--- ----- -- ----,55027,55026.199999999255,54556.541,54571.300000000745,54573.211,55040.014,,24,new
screen,html.Screen,0_2_0_1_25,2021-12-02T14:00:46.102Z,,,,,,,,,,,,,,,,53,,,,,,,,,,,,,,466.1859999992521,,response,,,99,,,,,,Space,keypress(Space),,,,,---- -- ----- -- ------ - ------- --- ----------<br>------------- ------ ------ ---- ---- ------- ----- -- ----<br>-------- ------- -- ---------- --- - --- study ----- ----<br>---- --- --- ----- --- ---- ---- ------- ----- ---- -------<br>--- --- -- ----- -- --- ---- -- --- ---- -- ------ ------<br>--- ----- -- ----,55507,55506.199999999255,55023.344,55027.199999999255,55040.014,55523.474,,25,study
screen,html.Screen,0_2_0_1_26,2021-12-02T14:00:46.526Z,,,,,,,,,,,,,,,,53,,,,,,,,,,,,,,406.62600000148814,,response,,,99,,,,,,Space,keypress(Space),,,,,---- -- ----- -- ------ - ------- --- ----------<br>------------- ------ ------ ---- ---- ------- ----- -- ----<br>-------- ------- -- ---------- --- - --- ----- finds ----<br>---- --- --- ----- --- ---- ---- ------- ----- ---- -------<br>--- --- -- ----- -- --- ---- -- --- ---- -- ------ ------<br>--- ----- -- ----,55930.900000002235,55930.10000000149,55506.804,55507.300000000745,55523.474,55940.259,,26,finds
screen,html.Screen,0_2_0_1_27,2021-12-02T14:00:46.950Z,,,,,,,,,,,,,,,,53,,,,,,,,,,,,,,413.8410000014919,,response,,,99,,,,,,Space,keypress(Space),,,,,---- -- ----- -- ------ - ------- --- ----------<br>------------- ------ ------ ---- ---- ------- ----- -- ----<br>-------- ------- -- ---------- --- - --- ----- ----- that<br>---- --- --- ----- --- ---- ---- ------- ----- ---- -------<br>--- --- -- ----- -- --- ---- -- --- ---- -- ------ ------<br>--- ----- -- ----,56354.900000002235,56354.10000000149,55923.589,55931.10000000149,55940.259,56357.042,,27,that
screen,html.Screen,0_2_0_1_28,2021-12-02T14:00:47.502Z,,,,,,,,,,,,,,,,53,,,,,,,,,,,,,,548.9579999999987,,response,,,99,,,,,,Space,keypress(Space),,,,,---- -- ----- -- ------ - ------- --- ----------<br>------------- ------ ------ ---- ---- ------- ----- -- ----<br>-------- ------- -- ---------- --- - --- ----- ----- ----<br>it's --- --- ----- --- ---- ---- ------- ----- ---- -------<br>--- --- -- ----- -- --- ---- -- --- ---- -- ------ ------<br>--- ----- -- ----,56906.800000000745,56906,56340.372,56355.199999999255,56357.042,56923.824,,28,it's
screen,html.Screen,0_2_0_1_29,2021-12-02T14:00:47.950Z,,,,,,,,,,,,,,,,53,,,,,,,,,,,,,,430.2760000014896,,response,,,99,,,,,,Space,keypress(Space),,,,,---- -- ----- -- ------ - ------- --- ----------<br>------------- ------ ------ ---- ---- ------- ----- -- ----<br>-------- ------- -- ---------- --- - --- ----- ----- ----<br>---- not --- ----- --- ---- ---- ------- ----- ---- -------<br>--- --- -- ----- -- --- ---- -- --- ---- -- ------ ------<br>--- ----- -- ----,57354.900000002235,57354.10000000149,56907.154,56907,56923.824,57357.295,,29,not
screen,html.Screen,0_2_0_1_30,2021-12-02T14:00:48.478Z,,,,,,,,,,,,,,,,53,,,,,,,,,,,,,,524.8050000014919,,response,,,99,,,,,,Space,keypress(Space),,,,,---- -- ----- -- ------ - ------- --- ----------<br>------------- ------ ------ ---- ---- ------- ----- -- ----<br>-------- ------- -- ---------- --- - --- ----- ----- ----<br>---- --- how ----- --- ---- ---- ------- ----- ---- -------<br>--- --- -- ----- -- --- ---- -- --- ---- -- ------ ------<br>--- ----- -- ----,57882.800000000745,57882.10000000149,57340.625,57355.10000000149,57357.295,57890.766,,30,how
screen,html.Screen,0_2_0_1_31,2021-12-02T14:00:48.925Z,,,,,,,,,,,,,,,,53,,,,,,,,,,,,,,439.23399999999674,,response,,,99,,,,,,Space,keypress(Space),,,,,---- -- ----- -- ------ - ------- --- ----------<br>------------- ------ ------ ---- ---- ------- ----- -- ----<br>-------- ------- -- ---------- --- - --- ----- ----- ----<br>---- --- --- close --- ---- ---- ------- ----- ---- -------<br>--- --- -- ----- -- --- ---- -- --- ---- -- ------ ------<br>--- ----- -- ----,58330.699999999255,58330,57874.096,57883.10000000149,57890.766,58340.888,,31,close
screen,html.Screen,0_2_0_1_32,2021-12-02T14:00:49.309Z,,,,,,,,,,,,,,,,53,,,,,,,,,,,,,,373.01200000223616,,response,,,99,,,,,,Space,keypress(Space),,,,,---- -- ----- -- ------ - ------- --- ----------<br>------------- ------ ------ ---- ---- ------- ----- -- ----<br>-------- ------- -- ---------- --- - --- ----- ----- ----<br>---- --- --- ----- you ---- ---- ------- ----- ---- -------<br>--- --- -- ----- -- --- ---- -- --- ---- -- ------ ------<br>--- ----- -- ----,58714.699999999255,58713.900000002235,58324.218,58331,58340.888,58724.381,,32,you
screen,html.Screen,0_2_0_1_33,2021-12-02T14:00:49.846Z,,,,,,,,,,,,,,,,53,,,,,,,,,,,,,,525.519000002234,,response,,,99,,,,,,Space,keypress(Space),,,,,---- -- ----- -- ------ - ------- --- ----------<br>------------- ------ ------ ---- ---- ------- ----- -- ----<br>-------- ------- -- ---------- --- - --- ----- ----- ----<br>---- --- --- ----- --- feel ---- ------- ----- ---- -------<br>--- --- -- ----- -- --- ---- -- --- ---- -- ------ ------<br>--- ----- -- ----,59250.900000002235,59249.900000002235,58707.71,58715,58724.381,59257.782,,33,feel
screen,html.Screen,0_2_0_1_34,2021-12-02T14:00:50.286Z,,,,,,,,,,,,,,,,53,,,,,,,,,,,,,,432.5180000007458,,response,,,99,,,,,,Space,keypress(Space),,,,,---- -- ----- -- ------ - ------- --- ----------<br>------------- ------ ------ ---- ---- ------- ----- -- ----<br>-------- ------- -- ---------- --- - --- ----- ----- ----<br>---- --- --- ----- --- ---- that ------- ----- ---- -------<br>--- --- -- ----- -- --- ---- -- --- ---- -- ------ ------<br>--- ----- -- ----,59691.10000000149,59690.300000000745,59241.112,59251.10000000149,59257.782,59707.96,,34,that
screen,html.Screen,0_2_0_1_35,2021-12-02T14:00:50.768Z,,,,,,,,,,,,,,,,53,,,,,,,,,,,,,,461.94000000223605,,response,,,99,,,,,,Space,keypress(Space),,,,,---- -- ----- -- ------ - ------- --- ----------<br>------------- ------ ------ ---- ---- ------- ----- -- ----<br>-------- ------- -- ---------- --- - --- ----- ----- ----<br>---- --- --- ----- --- ---- ---- matters ----- ---- -------<br>--- --- -- ----- -- --- ---- -- --- ---- -- ------ ------<br>--- ----- -- ----,60170.699999999255,60169.900000002235,59691.289,59691.300000000745,59707.96,60174.765,,35,matters
screen,html.Screen,0_2_0_1_36,2021-12-02T14:00:51.280Z,,,,,,,,,,,,,,,,53,,,,,,,,,,,,,,507.03500000074564,,response,,,99,,,,,,Space,keypress(Space),,,,,"---- -- ----- -- ------ - ------- --- ----------<br>------------- ------ ------ ---- ---- ------- ----- -- ----<br>-------- ------- -- ---------- --- - --- ----- ----- ----<br>---- --- --- ----- --- ---- ---- ------- most, ---- -------<br>--- --- -- ----- -- --- ---- -- --- ---- -- ------ ------<br>--- ----- -- ----",60682.900000002235,60681.800000000745,60158.094,60170.900000002235,60174.765,60691.485,,36,"most,"
screen,html.Screen,0_2_0_1_37,2021-12-02T14:00:51.808Z,,,,,,,,,,,,,,,,53,,,,,,,,,,,,,,518.4150000022346,,response,,,99,,,,,,Space,keypress(Space),,,,,---- -- ----- -- ------ - ------- --- ----------<br>------------- ------ ------ ---- ---- ------- ----- -- ----<br>-------- ------- -- ---------- --- - --- ----- ----- ----<br>---- --- --- ----- --- ---- ---- ------- ----- it's -------<br>--- --- -- ----- -- --- ---- -- --- ---- -- ------ ------<br>--- ----- -- ----,61210.699999999255,61209.900000002235,60674.815,60683.10000000149,60691.485,61224.985,,37,it's
screen,html.Screen,0_2_0_1_38,2021-12-02T14:00:52.248Z,,,,,,,,,,,,,,,,53,,,,,,,,,,,,,,424.9150000022346,,response,,,99,,,,,,Space,keypress(Space),,,,,---- -- ----- -- ------ - ------- --- ----------<br>------------- ------ ------ ---- ---- ------- ----- -- ----<br>-------- ------- -- ---------- --- - --- ----- ----- ----<br>---- --- --- ----- --- ---- ---- ------- ----- ---- whether<br>--- --- -- ----- -- --- ---- -- --- ---- -- ------ ------<br>--- ----- -- ----,61650.699999999255,61649.900000002235,61208.315,61210.900000002235,61224.985,61658.503,,38,whether
screen,html.Screen,0_2_0_1_39,2021-12-02T14:00:52.672Z,,,,,,,,,,,,,,,,53,,,,,,,,,,,,,,415.2970000007481,,response,,,99,,,,,,Space,keypress(Space),,,,,---- -- ----- -- ------ - ------- --- ----------<br>------------- ------ ------ ---- ---- ------- ----- -- ----<br>-------- ------- -- ---------- --- - --- ----- ----- ----<br>---- --- --- ----- --- ---- ---- ------- ----- ---- -------<br>you --- -- ----- -- --- ---- -- --- ---- -- ------ ------<br>--- ----- -- ----,62074.60000000149,62073.800000000745,61641.832,61650.900000002235,61658.503,62091.888,,39,you
screen,html.Screen,0_2_0_1_40,2021-12-02T14:00:53.184Z,,,,,,,,,,,,,,,,53,,,,,,,,,,,,,,494.2120000014911,,response,,,99,,,,,,Space,keypress(Space),,,,,---- -- ----- -- ------ - ------- --- ----------<br>------------- ------ ------ ---- ---- ------- ----- -- ----<br>-------- ------- -- ---------- --- - --- ----- ----- ----<br>---- --- --- ----- --- ---- ---- ------- ----- ---- -------<br>--- are -- ----- -- --- ---- -- --- ---- -- ------ ------<br>--- ----- -- ----,62586.800000000745,62586.10000000149,62075.218,62074.900000002235,62091.888,62592.009,,40,are
screen,html.Screen,0_2_0_1_41,2021-12-02T14:00:53.624Z,,,,,,,,,,,,,,,,53,,,,,,,,,,,,,,433.891000002237,,response,,,99,,,,,,Space,keypress(Space),,,,,---- -- ----- -- ------ - ------- --- ----------<br>------------- ------ ------ ---- ---- ------- ----- -- ----<br>-------- ------- -- ---------- --- - --- ----- ----- ----<br>---- --- --- ----- --- ---- ---- ------- ----- ---- -------<br>--- --- as ----- -- --- ---- -- --- ---- -- ------ ------<br>--- ----- -- ----,63026.699999999255,63025.900000002235,62575.339,62587,62592.009,63042.139,,41,as
screen,html.Screen,0_2_0_1_42,2021-12-02T14:00:54.040Z,,,,,,,,,,,,,,,,53,,,,,,,,,,,,,,399.6610000007422,,response,,,99,,,,,,Space,keypress(Space),,,,,---- -- ----- -- ------ - ------- --- ----------<br>------------- ------ ------ ---- ---- ------- ----- -- ----<br>-------- ------- -- ---------- --- - --- ----- ----- ----<br>---- --- --- ----- --- ---- ---- ------- ----- ---- -------<br>--- --- -- close -- --- ---- -- --- ---- -- ------ ------<br>--- ----- -- ----,63442.60000000149,63441.800000000745,63025.469,63026.800000000745,63042.139,63458.904,,42,close
screen,html.Screen,0_2_0_1_43,2021-12-02T14:00:54.488Z,,,,,,,,,,,,,,,,53,,,,,,,,,,,,,,430.8960000007428,,response,,,99,,,,,,Space,keypress(Space),,,,,---- -- ----- -- ------ - ------- --- ----------<br>------------- ------ ------ ---- ---- ------- ----- -- ----<br>-------- ------- -- ---------- --- - --- ----- ----- ----<br>---- --- --- ----- --- ---- ---- ------- ----- ---- -------<br>--- --- -- ----- as --- ---- -- --- ---- -- ------ ------<br>--- ----- -- ----,63890.60000000149,63889.800000000745,63442.234,63442.800000000745,63458.904,63892.416,,43,as
screen,html.Screen,0_2_0_1_44,2021-12-02T14:00:54.912Z,,,,,,,,,,,,,,,,53,,,,,,,,,,,,,,421.2839999992575,,response,,,99,,,,,,Space,keypress(Space),,,,,---- -- ----- -- ------ - ------- --- ----------<br>------------- ------ ------ ---- ---- ------- ----- -- ----<br>-------- ------- -- ---------- --- - --- ----- ----- ----<br>---- --- --- ----- --- ---- ---- ------- ----- ---- -------<br>--- --- -- ----- -- you ---- -- --- ---- -- ------ ------<br>--- ----- -- ----,64314.60000000149,64313.699999999255,63875.745,63890.800000000745,63892.416,64325.823,,44,you
screen,html.Screen,0_2_0_1_45,2021-12-02T14:00:55.352Z,,,,,,,,,,,,,,,,53,,,,,,,,,,,,,,427.87699999925826,,response,,,99,,,,,,Space,keypress(Space),,,,,---- -- ----- -- ------ - ------- --- ----------<br>------------- ------ ------ ---- ---- ------- ----- -- ----<br>-------- ------- -- ---------- --- - --- ----- ----- ----<br>---- --- --- ----- --- ---- ---- ------- ----- ---- -------<br>--- --- -- ----- -- --- want -- --- ---- -- ------ ------<br>--- ----- -- ----,64754.5,64753.699999999255,64309.153,64314.800000000745,64325.823,64759.26,,45,want
screen,html.Screen,0_2_0_1_46,2021-12-02T14:00:55.712Z,,,,,,,,,,,,,,,,53,,,,,,,,,,,,,,354.4399999992529,,response,,,99,,,,,,Space,keypress(Space),,,,,---- -- ----- -- ------ - ------- --- ----------<br>------------- ------ ------ ---- ---- ------- ----- -- ----<br>-------- ------- -- ---------- --- - --- ----- ----- ----<br>---- --- --- ----- --- ---- ---- ------- ----- ---- -------<br>--- --- -- ----- -- --- ---- to --- ---- -- ------ ------<br>--- ----- -- ----,65114.5,65113.699999999255,64742.59,64754.699999999255,64759.26,65125.94,,46,to
screen,html.Screen,0_2_0_1_47,2021-12-02T14:00:56.080Z,,,,,,,,,,,,,,,,53,,,,,,,,,,,,,,355.7599999992526,,response,,,99,,,,,,Space,keypress(Space),,,,,"---- -- ----- -- ------ - ------- --- ----------<br>------------- ------ ------ ---- ---- ------- ----- -- ----<br>-------- ------- -- ---------- --- - --- ----- ----- ----<br>---- --- --- ----- --- ---- ---- ------- ----- ---- -------<br>--- --- -- ----- -- --- ---- -- be, ---- -- ------ ------<br>--- ----- -- ----",65482.400000002235,65481.699999999255,65109.271,65114.699999999255,65125.94,65492.86,,47,"be,"
screen,html.Screen,0_2_0_1_48,2021-12-02T14:00:56.664Z,,,,,,,,,,,,,,,,53,,,,,,,,,,,,,,572.8399999992544,,response,,,99,,,,,,Space,keypress(Space),,,,,---- -- ----- -- ------ - ------- --- ----------<br>------------- ------ ------ ---- ---- ------- ----- -- ----<br>-------- ------- -- ---------- --- - --- ----- ----- ----<br>---- --- --- ----- --- ---- ---- ------- ----- ---- -------<br>--- --- -- ----- -- --- ---- -- --- even -- ------ ------<br>--- ----- -- ----,66066.40000000224,66065.69999999925,65476.188,65482.699999999255,65492.86,66076.317,,48,even
screen,html.Screen,0_2_0_1_49,2021-12-02T14:00:57.088Z,,,,,,,,,,,,,,,,53,,,,,,,,,,,,,,413.3829999992595,,response,,,99,,,,,,Space,keypress(Space),,,,,---- -- ----- -- ------ - ------- --- ----------<br>------------- ------ ------ ---- ---- ------- ----- -- ----<br>-------- ------- -- ---------- --- - --- ----- ----- ----<br>---- --- --- ----- --- ---- ---- ------- ----- ---- -------<br>--- --- -- ----- -- --- ---- -- --- ---- if ------ ------<br>--- ----- -- ----,66490.5,66489.69999999925,66059.646,66066.60000000149,66076.317,66493.044,,49,if
screen,html.Screen,0_2_0_1_50,2021-12-02T14:00:57.592Z,,,,,,,,,,,,,,,,53,,,,,,,,,,,,,,500.5560000014957,,response,,,99,,,,,,Space,keypress(Space),,,,,---- -- ----- -- ------ - ------- --- ----------<br>------------- ------ ------ ---- ---- ------- ----- -- ----<br>-------- ------- -- ---------- --- - --- ----- ----- ----<br>---- --- --- ----- --- ---- ---- ------- ----- ---- -------<br>--- --- -- ----- -- --- ---- -- --- ---- -- that's ------<br>--- ----- -- ----,66994.40000000224,66993.60000000149,66476.374,66490.69999999925,66493.044,67009.859,,50,that's
screen,html.Screen,0_2_0_1_51,2021-12-02T14:00:57.992Z,,,,,,,,,,,,,,,,53,,,,,,,,,,,,,,383.8409999992582,,response,,,99,,,,,,Space,keypress(Space),,,,,---- -- ----- -- ------ - ------- --- ----------<br>------------- ------ ------ ---- ---- ------- ----- -- ----<br>-------- ------- -- ---------- --- - --- ----- ----- ----<br>---- --- --- ----- --- ---- ---- ------- ----- ---- -------<br>--- --- -- ----- -- --- ---- -- --- ---- -- ------ really<br>--- ----- -- ----,67394.5,67393.69999999925,66993.189,66994.60000000149,67009.859,67409.955,,51,really
screen,html.Screen,0_2_0_1_52,2021-12-02T14:00:58.472Z,,,,,,,,,,,,,,,,53,,,,,,,,,,,,,,463.64500000148837,,response,,,99,,,,,,Space,keypress(Space),,,,,---- -- ----- -- ------ - ------- --- ----------<br>------------- ------ ------ ---- ---- ------- ----- -- ----<br>-------- ------- -- ---------- --- - --- ----- ----- ----<br>---- --- --- ----- --- ---- ---- ------- ----- ---- -------<br>--- --- -- ----- -- --- ---- -- --- ---- -- ------ ------<br>not ----- -- ----,67874.40000000224,67873.60000000149,67393.285,67394.69999999925,67409.955,67876.799,,52,not
screen,html.Screen,0_2_0_1_53,2021-12-02T14:00:58.848Z,,,,,,,,,,,,,,,,53,,,,,,,,,,,,,,372.80100000149105,,response,,,99,,,,,,Space,keypress(Space),,,,,---- -- ----- -- ------ - ------- --- ----------<br>------------- ------ ------ ---- ---- ------- ----- -- ----<br>-------- ------- -- ---------- --- - --- ----- ----- ----<br>---- --- --- ----- --- ---- ---- ------- ----- ---- -------<br>--- --- -- ----- -- --- ---- -- --- ---- -- ------ ------<br>--- close -- ----,68250.40000000224,68249.60000000149,67860.128,67874.60000000149,67876.799,68260.204,,53,close
screen,html.Screen,0_2_0_1_54,2021-12-02T14:00:59.192Z,,,,,,,,,,,,,,,,53,,,,,,,,,,,,,,333.3960000014922,,response,,,99,,,,,,Space,keypress(Space),,,,,---- -- ----- -- ------ - ------- --- ----------<br>------------- ------ ------ ---- ---- ------- ----- -- ----<br>-------- ------- -- ---------- --- - --- ----- ----- ----<br>---- --- --- ----- --- ---- ---- ------- ----- ---- -------<br>--- --- -- ----- -- --- ---- -- --- ---- -- ------ ------<br>--- ----- at ----,68594.30000000075,68593.60000000149,68243.534,68250.69999999925,68260.204,68610.301,,54,at
screen,html.Screen,0_2_0_1_55,2021-12-02T14:00:59.720Z,,,,,,,,,,,,,,,,53,,,,,,,,,,,,,,511.19899999999325,,response,,,99,,,,,,Space,keypress(Space),,,,,---- -- ----- -- ------ - ------- --- ----------<br>------------- ------ ------ ---- ---- ------- ----- -- ----<br>-------- ------- -- ---------- --- - --- ----- ----- ----<br>---- --- --- ----- --- ---- ---- ------- ----- ---- -------<br>--- --- -- ----- -- --- ---- -- --- ---- -- ------ ------<br>--- ----- -- all.,69122.40000000224,69121.5,68593.631,68594.60000000149,68610.301,69143.754,,55,all.
Item 99,flow.Loop,0_2_0_1,2021-12-02T14:00:59.724Z,,,,,,,,,,,,,,,,,,,,,,,,,,,,,,31669.727,,completion,,,,F,,,,,,,,,,silence,,69126.69999999925,69121.5,37435.104,37441.60000000149,37451.773,69143.754,,,
Question 1,html.Screen,0_2_0_2,2021-12-02T14:01:03.576Z,,,,,,,,,,,,,,,,,,,,,,,,,,,true,FALSE,,3833.245999999999,,response,,,99,F,,,,,FALSE,click #choice-2,,,,silence,,72978.5,72977,69127.084,69127,69143.754,72978.046,,,
Question 2,html.Screen,0_2_0_3,2021-12-02T14:01:09.199Z,,,,,,,,,,,,,,,,,,,,,,,,,,,true,TRUE,,5622.754000000743,,response,,,99,F,,,,,TRUE,click #choice-1,,,,silence,,78602,78600.80000000075,72961.376,72978.80000000075,72978.046,78612.836,,,
Item 99,flow.Sequence,0_2_0,2021-12-02T14:01:09.200Z,,,,,,,,,,,,,,,,,,,,,,,,,,,,,,51151.692000000745,,completion,,,,,,,,,,,,,,,,78602.5,78600.80000000075,27432.439,27437.300000000745,27449.108,78612.836,,,
Holding screen,html.Screen,0_2_1_0,2021-12-02T14:01:19.198Z,,,,,,,,,,,,,,,,,,,,,,,,,,,,,,10002.673999999999,,timeout,,,,,,,,,,,,,,,,88600.5,88598.84,78596.166,78602.69999999925,78612.836,88615.51,,,
screen,html.Screen,0_2_1_1_0,2021-12-02T14:01:20.095Z,,,,,,,,,,,,,,,,54,,,,,,,,,,,,,,881.3900000022404,,response,,,100,,,,,,Space,keypress(Space),,,,,At --- ---- --- ------ ----- ------- ---- -- --- ------- --<br>------- ---------- ------ -- ----- -- ----- -- ---- ------<br>--- ----- --- --- ------ -------- ----- --- ------ ----- --<br>----- ----- ---------- --- --- ------ ------ ---- -- ------<br>------- --- ------ ----- --- ---- ------- -- ---- --- --<br>------- ------,89497.90000000224,89496.90000000224,88598.84,88600.90000000224,88615.51,89499.231,,0,At
screen,html.Screen,0_2_1_1_1,2021-12-02T14:01:20.575Z,,,,,,,,,,,,,,,,54,,,,,,,,,,,,,,477.36900000149035,,response,,,100,,,,,,Space,keypress(Space),,,,,-- the ---- --- ------ ----- ------- ---- -- --- ------- --<br>------- ---------- ------ -- ----- -- ----- -- ---- ------<br>--- ----- --- --- ------ -------- ----- --- ------ ----- --<br>----- ----- ---------- --- --- ------ ------ ---- -- ------<br>------- --- ------ ----- --- ---- ------- -- ---- --- --<br>------- ------,89977.30000000075,89976.60000000149,89482.56,89498.10000000149,89499.231,89982.645,,1,the
screen,html.Screen,0_2_1_1_2,2021-12-02T14:01:21.015Z,,,,,,,,,,,,,,,,54,,,,,,,,,,,,,,433.95500000148604,,response,,,100,,,,,,Space,keypress(Space),,,,,-- --- time --- ------ ----- ------- ---- -- --- ------- --<br>------- ---------- ------ -- ----- -- ----- -- ---- ------<br>--- ----- --- --- ------ -------- ----- --- ------ ----- --<br>----- ----- ---------- --- --- ------ ------ ---- -- ------<br>------- --- ------ ----- --- ---- ------- -- ---- --- --<br>------- ------,90417.30000000075,90416.60000000149,89965.975,89977.60000000149,89982.645,90432.755,,2,time
screen,html.Screen,0_2_1_1_3,2021-12-02T14:01:21.510Z,,,,,,,,,,,,,,,,54,,,,,,,,,,,,,,479.74499999999534,,response,,,100,,,,,,Space,keypress(Space),,,,,-- --- ---- the ------ ----- ------- ---- -- --- ------- --<br>------- ---------- ------ -- ----- -- ----- -- ---- ------<br>--- ----- --- --- ------ -------- ----- --- ------ ----- --<br>----- ----- ---------- --- --- ------ ------ ---- -- ------<br>------- --- ------ ----- --- ---- ------- -- ---- --- --<br>------- ------,90913.19999999925,90912.5,90416.085,90417.5,90432.755,90916.222,,3,the
screen,html.Screen,0_2_1_1_4,2021-12-02T14:01:22.936Z,,,,,,,,,,,,,,,,54,,,,,,,,,,,,,,1420.1780000022409,,response,,,100,,,,,,Space,keypress(Space),,,,,-- --- ---- --- French ----- ------- ---- -- --- ------- --<br>------- ---------- ------ -- ----- -- ----- -- ---- ------<br>--- ----- --- --- ------ -------- ----- --- ------ ----- --<br>----- ----- ---------- --- --- ------ ------ ---- -- ------<br>------- --- ------ ----- --- ---- ------- -- ---- --- --<br>------- ------,92338.80000000075,92336.40000000224,90899.552,90913.40000000224,90916.222,92349.855,,4,French
screen,html.Screen,0_2_1_1_5,2021-12-02T14:01:23.606Z,,,,,,,,,,,,,,,,54,,,,,,,,,,,,,,658.5450000022392,,response,,,100,,,,,,Space,keypress(Space),,,,,-- --- ---- --- ------ crown ------- ---- -- --- ------- --<br>------- ---------- ------ -- ----- -- ----- -- ---- ------<br>--- ----- --- --- ------ -------- ----- --- ------ ----- --<br>----- ----- ---------- --- --- ------ ------ ---- -- ------<br>------- --- ------ ----- --- ---- ------- -- ---- --- --<br>------- ------,93009.19999999925,93008.40000000224,92333.185,92339.10000000149,92349.855,93016.775,,5,crown
screen,html.Screen,0_2_1_1_6,2021-12-02T14:01:24.039Z,,,,,,,,,,,,,,,,54,,,,,,,,,,,,,,423.625000002241,,response,,,100,,,,,,Space,keypress(Space),,,,,-- --- ---- --- ------ ----- secured ---- -- --- ------- --<br>------- ---------- ------ -- ----- -- ----- -- ---- ------<br>--- ----- --- --- ------ -------- ----- --- ------ ----- --<br>----- ----- ---------- --- --- ------ ------ ---- -- ------<br>------- --- ------ ----- --- ---- ------- -- ---- --- --<br>------- ------,93441.40000000224,93440.40000000224,93000.104,93009.5,93016.775,93450.126,,6,secured
screen,html.Screen,0_2_1_1_7,2021-12-02T14:01:24.446Z,,,,,,,,,,,,,,,,54,,,,,,,,,,,,,,398.27400000223133,,response,,,100,,,,,,Space,keypress(Space),,,,,-- --- ---- --- ------ ----- ------- much -- --- ------- --<br>------- ---------- ------ -- ----- -- ----- -- ---- ------<br>--- ----- --- --- ------ -------- ----- --- ------ ----- --<br>----- ----- ---------- --- --- ------ ------ ---- -- ------<br>------- --- ------ ----- --- ---- ------- -- ---- --- --<br>------- ------,93849.19999999925,93848.40000000224,93433.456,93441.60000000149,93450.126,93850.405,,7,much
screen,html.Screen,0_2_1_1_8,2021-12-02T14:01:24.886Z,,,,,,,,,,,,,,,,54,,,,,,,,,,,,,,437.8950000007462,,response,,,100,,,,,,Space,keypress(Space),,,,,-- --- ---- --- ------ ----- ------- ---- of --- ------- --<br>------- ---------- ------ -- ----- -- ----- -- ---- ------<br>--- ----- --- --- ------ -------- ----- --- ------ ----- --<br>----- ----- ---------- --- --- ------ ------ ---- -- ------<br>------- --- ------ ----- --- ---- ------- -- ---- --- --<br>------- ------,94289.19999999925,94288.30000000075,93833.733,93849.5,93850.405,94300.436,,8,of
screen,html.Screen,0_2_1_1_9,2021-12-02T14:01:25.454Z,,,,,,,,,,,,,,,,54,,,,,,,,,,,,,,555.9640000022337,,response,,,100,,,,,,Space,keypress(Space),,,,,-- --- ---- --- ------ ----- ------- ---- -- its ------- --<br>------- ---------- ------ -- ----- -- ----- -- ---- ------<br>--- ----- --- --- ------ -------- ----- --- ------ ----- --<br>----- ----- ---------- --- --- ------ ------ ---- -- ------<br>------- --- ------ ----- --- ---- ------- -- ---- --- --<br>------- ------,94857.10000000149,94856.40000000224,94283.766,94289.40000000224,94300.436,94867.331,,9,its
screen,html.Screen,0_2_1_1_10,2021-12-02T14:01:25.910Z,,,,,,,,,,,,,,,,54,,,,,,,,,,,,,,444.86899999924935,,response,,,100,,,,,,Space,keypress(Space),,,,,-- --- ---- --- ------ ----- ------- ---- -- --- revenue --<br>------- ---------- ------ -- ----- -- ----- -- ---- ------<br>--- ----- --- --- ------ -------- ----- --- ------ ----- --<br>----- ----- ---------- --- --- ------ ------ ---- -- ------<br>------- --- ------ ----- --- ---- ------- -- ---- --- --<br>------- ------,95313.10000000149,95312.19999999925,94850.66,94857.30000000075,94867.331,95317.354,,10,revenue
screen,html.Screen,0_2_1_1_11,2021-12-02T14:01:26.342Z,,,,,,,,,,,,,,,,54,,,,,,,,,,,,,,426.8459999992483,,response,,,100,,,,,,Space,keypress(Space),,,,,-- --- ---- --- ------ ----- ------- ---- -- --- ------- by<br>------- ---------- ------ -- ----- -- ----- -- ---- ------<br>--- ----- --- --- ------ -------- ----- --- ------ ----- --<br>----- ----- ---------- --- --- ------ ------ ---- -- ------<br>------- --- ------ ----- --- ---- ------- -- ---- --- --<br>------- ------,95745,95744.19999999925,95300.684,95313.30000000075,95317.354,95750.832,,11,by
screen,html.Screen,0_2_1_1_12,2021-12-02T14:01:26.998Z,,,,,,,,,,,,,,,,54,,,,,,,,,,,,,,649.4680000007502,,response,,,100,,,,,,Space,keypress(Space),,,,,-- --- ---- --- ------ ----- ------- ---- -- --- ------- --<br>issuing ---------- ------ -- ----- -- ----- -- ---- ------<br>--- ----- --- --- ------ -------- ----- --- ------ ----- --<br>----- ----- ---------- --- --- ------ ------ ---- -- ------<br>------- --- ------ ----- --- ---- ------- -- ---- --- --<br>------- ------,96401.10000000149,96400.30000000075,95734.162,95745.30000000075,95750.832,96417.717,,12,issuing
screen,html.Screen,0_2_1_1_13,2021-12-02T14:01:27.454Z,,,,,,,,,,,,,,,,54,,,,,,,,,,,,,,438.48299999925075,,response,,,100,,,,,,Space,keypress(Space),,,,,-- --- ---- --- ------ ----- ------- ---- -- --- ------- --<br>------- government ------ -- ----- -- ----- -- ---- ------<br>--- ----- --- --- ------ -------- ----- --- ------ ----- --<br>----- ----- ---------- --- --- ------ ------ ---- -- ------<br>------- --- ------ ----- --- ---- ------- -- ---- --- --<br>------- ------,96857,96856.19999999925,96401.046,96401.30000000075,96417.717,96867.805,,13,government
screen,html.Screen,0_2_1_1_14,2021-12-02T14:01:27.886Z,,,,,,,,,,,,,,,,54,,,,,,,,,,,,,,420.3949999992619,,response,,,100,,,,,,Space,keypress(Space),,,,,-- --- ---- --- ------ ----- ------- ---- -- --- ------- --<br>------- ---------- bonds. -- ----- -- ----- -- ---- ------<br>--- ----- --- --- ------ -------- ----- --- ------ ----- --<br>----- ----- ---------- --- --- ------ ------ ---- -- ------<br>------- --- ------ ----- --- ---- ------- -- ---- --- --<br>------- ------,97289,97288.19999999925,96851.135,96857.30000000075,96867.805,97301.239,,14,bonds.
screen,html.Screen,0_2_1_1_15,2021-12-02T14:01:28.398Z,,,,,,,,,,,,,,,,54,,,,,,,,,,,,,,498.96099999925354,,response,,,100,,,,,,Space,keypress(Space),,,,,-- --- ---- --- ------ ----- ------- ---- -- --- ------- --<br>------- ---------- ------ In ----- -- ----- -- ---- ------<br>--- ----- --- --- ------ -------- ----- --- ------ ----- --<br>----- ----- ---------- --- --- ------ ------ ---- -- ------<br>------- --- ------ ----- --- ---- ------- -- ---- --- --<br>------- ------,97800.90000000224,97800.19999999925,97284.569,97289.30000000075,97301.239,97817.935,,15,In
screen,html.Screen,0_2_1_1_16,2021-12-02T14:01:29.518Z,,,,,,,,,,,,,,,,54,,,,,,,,,,,,,,1102.2649999992573,,response,,,100,,,,,,Space,keypress(Space),,,,,"-- --- ---- --- ------ ----- ------- ---- -- --- ------- --<br>------- ---------- ------ -- 1727, -- ----- -- ---- ------<br>--- ----- --- --- ------ -------- ----- --- ------ ----- --<br>----- ----- ---------- --- --- ------ ------ ---- -- ------<br>------- --- ------ ----- --- ---- ------- -- ---- --- --<br>------- ------",98920.90000000224,98920.19999999925,97801.266,97801.10000000149,97817.935,98935.047,,16,"1727,"
screen,html.Screen,0_2_1_1_17,2021-12-02T14:01:29.958Z,,,,,,,,,,,,,,,,54,,,,,,,,,,,,,,425.0530000014842,,response,,,100,,,,,,Space,keypress(Space),,,,,-- --- ---- --- ------ ----- ------- ---- -- --- ------- --<br>------- ---------- ------ -- ----- in ----- -- ---- ------<br>--- ----- --- --- ------ -------- ----- --- ------ ----- --<br>----- ----- ---------- --- --- ------ ------ ---- -- ------<br>------- --- ------ ----- --- ---- ------- -- ---- --- --<br>------- ------,99360.90000000224,99360.10000000149,98918.376,98921.19999999925,98935.047,99368.576,,17,in
screen,html.Screen,0_2_1_1_18,2021-12-02T14:01:30.471Z,,,,,,,,,,,,,,,,54,,,,,,,,,,,,,,503.92399999999907,,response,,,100,,,,,,Space,keypress(Space),,,,,-- --- ---- --- ------ ----- ------- ---- -- --- ------- --<br>------- ---------- ------ -- ----- -- order -- ---- ------<br>--- ----- --- --- ------ -------- ----- --- ------ ----- --<br>----- ----- ---------- --- --- ------ ------ ---- -- ------<br>------- --- ------ ----- --- ---- ------- -- ---- --- --<br>------- ------,99873.30000000075,99872.5,99351.904,99361.10000000149,99368.576,99885.259,,18,order
screen,html.Screen,0_2_1_1_19,2021-12-02T14:01:30.870Z,,,,,,,,,,,,,,,,54,,,,,,,,,,,,,,386.84100000148464,,response,,,100,,,,,,Space,keypress(Space),,,,,-- --- ---- --- ------ ----- ------- ---- -- --- ------- --<br>------- ---------- ------ -- ----- -- ----- to ---- ------<br>--- ----- --- --- ------ -------- ----- --- ------ ----- --<br>----- ----- ---------- --- --- ------ ------ ---- -- ------<br>------- --- ------ ----- --- ---- ------- -- ---- --- --<br>------- ------,100272.80000000075,100272.10000000149,99868.589,99873.60000000149,99885.259,100285.258,,19,to
screen,html.Screen,0_2_1_1_20,2021-12-02T14:01:31.294Z,,,,,,,,,,,,,,,,54,,,,,,,,,,,,,,410.8420000014885,,response,,,100,,,,,,Space,keypress(Space),,,,,-- --- ---- --- ------ ----- ------- ---- -- --- ------- --<br>------- ---------- ------ -- ----- -- ----- -- save ------<br>--- ----- --- --- ------ -------- ----- --- ------ ----- --<br>----- ----- ---------- --- --- ------ ------ ---- -- ------<br>------- --- ------ ----- --- ---- ------- -- ---- --- --<br>------- ------,100697,100696.10000000149,100268.589,100273.10000000149,100285.258,100702.183,,20,save
screen,html.Screen,0_2_1_1_21,2021-12-02T14:01:31.766Z,,,,,,,,,,,,,,,,54,,,,,,,,,,,,,,465.9170000014856,,response,,,100,,,,,,Space,keypress(Space),,,,,"-- --- ---- --- ------ ----- ------- ---- -- --- ------- --<br>------- ---------- ------ -- ----- -- ----- -- ---- money,<br>--- ----- --- --- ------ -------- ----- --- ------ ----- --<br>----- ----- ---------- --- --- ------ ------ ---- -- ------<br>------- --- ------ ----- --- ---- ------- -- ---- --- --<br>------- ------",101168.90000000224,101168.10000000149,100685.512,100697.19999999925,100702.183,101185.652,,21,"money,"
screen,html.Screen,0_2_1_1_22,2021-12-02T14:01:32.182Z,,,,,,,,,,,,,,,,54,,,,,,,,,,,,,,398.34799999999814,,response,,,100,,,,,,Space,keypress(Space),,,,,-- --- ---- --- ------ ----- ------- ---- -- --- ------- --<br>------- ---------- ------ -- ----- -- ----- -- ---- ------<br>the ----- --- --- ------ -------- ----- --- ------ ----- --<br>----- ----- ---------- --- --- ------ ------ ---- -- ------<br>------- --- ------ ----- --- ---- ------- -- ---- --- --<br>------- ------,101584.80000000075,101584,101168.981,101169.10000000149,101185.652,101585.692,,22,the
screen,html.Screen,0_2_1_1_23,2021-12-02T14:01:32.614Z,,,,,,,,,,,,,,,,54,,,,,,,,,,,,,,430.30800000000454,,response,,,100,,,,,,Space,keypress(Space),,,,,-- --- ---- --- ------ ----- ------- ---- -- --- ------- --<br>------- ---------- ------ -- ----- -- ----- -- ---- ------<br>--- state --- --- ------ -------- ----- --- ------ ----- --<br>----- ----- ---------- --- --- ------ ------ ---- -- ------<br>------- --- ------ ----- --- ---- ------- -- ---- --- --<br>------- ------,102016.90000000224,102016,101569.022,101585,101585.692,102019.21,,23,state
screen,html.Screen,0_2_1_1_24,2021-12-02T14:01:33.094Z,,,,,,,,,,,,,,,,54,,,,,,,,,,,,,,476.59000000073866,,response,,,100,,,,,,Space,keypress(Space),,,,,-- --- ---- --- ------ ----- ------- ---- -- --- ------- --<br>------- ---------- ------ -- ----- -- ----- -- ---- ------<br>--- ----- cut --- ------ -------- ----- --- ------ ----- --<br>----- ----- ---------- --- --- ------ ------ ---- -- ------<br>------- --- ------ ----- --- ---- ------- -- ---- --- --<br>------- ------,102496.69999999925,102495.80000000075,102002.539,102017.10000000149,102019.21,102502.628,,24,cut
screen,html.Screen,0_2_1_1_25,2021-12-02T14:01:33.462Z,,,,,,,,,,,,,,,,54,,,,,,,,,,,,,,361.372000000003,,response,,,100,,,,,,Space,keypress(Space),,,,,-- --- ---- --- ------ ----- ------- ---- -- --- ------- --<br>------- ---------- ------ -- ----- -- ----- -- ---- ------<br>--- ----- --- the ------ -------- ----- --- ------ ----- --<br>----- ----- ---------- --- --- ------ ------ ---- -- ------<br>------- --- ------ ----- --- ---- ------- -- ---- --- --<br>------- ------,102864.69999999925,102864,102485.958,102496.90000000224,102502.628,102869.351,,25,the
screen,html.Screen,0_2_1_1_26,2021-12-02T14:01:33.910Z,,,,,,,,,,,,,,,,54,,,,,,,,,,,,,,442.44900000074995,,response,,,100,,,,,,Space,keypress(Space),,,,,-- --- ---- --- ------ ----- ------- ---- -- --- ------- --<br>------- ---------- ------ -- ----- -- ----- -- ---- ------<br>--- ----- --- --- bonds' -------- ----- --- ------ ----- --<br>----- ----- ---------- --- --- ------ ------ ---- -- ------<br>------- --- ------ ----- --- ---- ------- -- ---- --- --<br>------- ------,103312.40000000224,103311.80000000075,102852.681,102864.90000000224,102869.351,103319.598,,26,bonds'
screen,html.Screen,0_2_1_1_27,2021-12-02T14:01:34.422Z,,,,,,,,,,,,,,,,54,,,,,,,,,,,,,,504.30200000223704,,response,,,100,,,,,,Space,keypress(Space),,,,,-- --- ---- --- ------ ----- ------- ---- -- --- ------- --<br>------- ---------- ------ -- ----- -- ----- -- ---- ------<br>--- ----- --- --- ------ interest ----- --- ------ ----- --<br>----- ----- ---------- --- --- ------ ------ ---- -- ------<br>------- --- ------ ----- --- ---- ------- -- ---- --- --<br>------- ------,103824.69999999925,103823.90000000224,103302.926,103312.69999999925,103319.598,103836.294,,27,interest
screen,html.Screen,0_2_1_1_28,2021-12-02T14:01:34.846Z,,,,,,,,,,,,,,,,54,,,,,,,,,,,,,,411.60600000224076,,response,,,100,,,,,,Space,keypress(Space),,,,,-- --- ---- --- ------ ----- ------- ---- -- --- ------- --<br>------- ---------- ------ -- ----- -- ----- -- ---- ------<br>--- ----- --- --- ------ -------- rate. --- ------ ----- --<br>----- ----- ---------- --- --- ------ ------ ---- -- ------<br>------- --- ------ ----- --- ---- ------- -- ---- --- --<br>------- ------,104248.80000000075,104247.90000000224,103819.624,103825,103836.294,104253.131,,28,rate.
screen,html.Screen,0_2_1_1_29,2021-12-02T14:01:35.494Z,,,,,,,,,,,,,,,,54,,,,,,,,,,,,,,642.6690000007511,,response,,,100,,,,,,Space,keypress(Space),,,,,-- --- ---- --- ------ ----- ------- ---- -- --- ------- --<br>------- ---------- ------ -- ----- -- ----- -- ---- ------<br>--- ----- --- --- ------ -------- ----- The ------ ----- --<br>----- ----- ---------- --- --- ------ ------ ---- -- ------<br>------- --- ------ ----- --- ---- ------- -- ---- --- --<br>------- ------,104896.60000000149,104895.80000000075,104236.46,104249,104253.131,104903.311,,29,The
screen,html.Screen,0_2_1_1_30,2021-12-02T14:01:35.934Z,,,,,,,,,,,,,,,,54,,,,,,,,,,,,,,432.48900000074354,,response,,,100,,,,,,Space,keypress(Space),,,,,-- --- ---- --- ------ ----- ------- ---- -- --- ------- --<br>------- ---------- ------ -- ----- -- ----- -- ---- ------<br>--- ----- --- --- ------ -------- ----- --- market ----- --<br>----- ----- ---------- --- --- ------ ------ ---- -- ------<br>------- --- ------ ----- --- ---- ------- -- ---- --- --<br>------- ------,105336.60000000149,105335.80000000075,104886.64,104896.90000000224,104903.311,105353.382,,30,market
screen,html.Screen,0_2_1_1_31,2021-12-02T14:01:36.366Z,,,,,,,,,,,,,,,,54,,,,,,,,,,,,,,414.41800000074727,,response,,,100,,,,,,Space,keypress(Space),,,,,-- --- ---- --- ------ ----- ------- ---- -- --- ------- --<br>------- ---------- ------ -- ----- -- ----- -- ---- ------<br>--- ----- --- --- ------ -------- ----- --- ------ value --<br>----- ----- ---------- --- --- ------ ------ ---- -- ------<br>------- --- ------ ----- --- ---- ------- -- ---- --- --<br>------- ------,105768.60000000149,105767.80000000075,105336.712,105337,105353.382,105770.152,,31,value
screen,html.Screen,0_2_1_1_32,2021-12-02T14:01:36.742Z,,,,,,,,,,,,,,,,54,,,,,,,,,,,,,,373.5479999992531,,response,,,100,,,,,,Space,keypress(Space),,,,,-- --- ---- --- ------ ----- ------- ---- -- --- ------- --<br>------- ---------- ------ -- ----- -- ----- -- ---- ------<br>--- ----- --- --- ------ -------- ----- --- ------ ----- of<br>----- ----- ---------- --- --- ------ ------ ---- -- ------<br>------- --- ------ ----- --- ---- ------- -- ---- --- --<br>------- ------,106144.5,106143.69999999925,105753.482,105768.90000000224,105770.152,106153.633,,32,of
screen,html.Screen,0_2_1_1_33,2021-12-02T14:01:37.134Z,,,,,,,,,,,,,,,,54,,,,,,,,,,,,,,382.1670000007434,,response,,,100,,,,,,Space,keypress(Space),,,,,-- --- ---- --- ------ ----- ------- ---- -- --- ------- --<br>------- ---------- ------ -- ----- -- ----- -- ---- ------<br>--- ----- --- --- ------ -------- ----- --- ------ ----- --<br>these ----- ---------- --- --- ------ ------ ---- -- ------<br>------- --- ------ ----- --- ---- ------- -- ---- --- --<br>------- ------,106536.5,106535.80000000075,106136.962,106144.80000000075,106153.633,106553.681,,33,these
screen,html.Screen,0_2_1_1_34,2021-12-02T14:01:37.470Z,,,,,,,,,,,,,,,,54,,,,,,,,,,,,,,318.1190000007482,,response,,,100,,,,,,Space,keypress(Space),,,,,-- --- ---- --- ------ ----- ------- ---- -- --- ------- --<br>------- ---------- ------ -- ----- -- ----- -- ---- ------<br>--- ----- --- --- ------ -------- ----- --- ------ ----- --<br>----- bonds ---------- --- --- ------ ------ ---- -- ------<br>------- --- ------ ----- --- ---- ------- -- ---- --- --<br>------- ------,106872.60000000149,106871.80000000075,106537.011,106536.69999999925,106553.681,106887.178,,34,bonds
screen,html.Screen,0_2_1_1_35,2021-12-02T14:01:37.934Z,,,,,,,,,,,,,,,,54,,,,,,,,,,,,,,448.6220000007452,,response,,,100,,,,,,Space,keypress(Space),,,,,"-- --- ---- --- ------ ----- ------- ---- -- --- ------- --<br>------- ---------- ------ -- ----- -- ----- -- ---- ------<br>--- ----- --- --- ------ -------- ----- --- ------ ----- --<br>----- ----- plummeted, --- --- ------ ------ ---- -- ------<br>------- --- ------ ----- --- ---- ------- -- ---- --- --<br>------- ------",107336.5,107335.80000000075,106870.507,106873,106887.178,107353.962,,35,"plummeted,"
screen,html.Screen,0_2_1_1_36,2021-12-02T14:01:38.374Z,,,,,,,,,,,,,,,,54,,,,,,,,,,,,,,421.8380000007455,,response,,,100,,,,,,Space,keypress(Space),,,,,-- --- ---- --- ------ ----- ------- ---- -- --- ------- --<br>------- ---------- ------ -- ----- -- ----- -- ---- ------<br>--- ----- --- --- ------ -------- ----- --- ------ ----- --<br>----- ----- ---------- and --- ------ ------ ---- -- ------<br>------- --- ------ ----- --- ---- ------- -- ---- --- --<br>------- ------,107776.60000000149,107775.80000000075,107337.291,107336.69999999925,107353.962,107787.378,,36,and
screen,html.Screen,0_2_1_1_37,2021-12-02T14:01:38.798Z,,,,,,,,,,,,,,,,54,,,,,,,,,,,,,,412.32199999925797,,response,,,100,,,,,,Space,keypress(Space),,,,,-- --- ---- --- ------ ----- ------- ---- -- --- ------- --<br>------- ---------- ------ -- ----- -- ----- -- ---- ------<br>--- ----- --- --- ------ -------- ----- --- ------ ----- --<br>----- ----- ---------- --- the ------ ------ ---- -- ------<br>------- --- ------ ----- --- ---- ------- -- ---- --- --<br>------- ------,108200.60000000149,108199.69999999925,107770.708,107776.90000000224,107787.378,108204.052,,37,the
screen,html.Screen,0_2_1_1_38,2021-12-02T14:01:39.206Z,,,,,,,,,,,,,,,,54,,,,,,,,,,,,,,403.6479999992589,,response,,,100,,,,,,Space,keypress(Space),,,,,-- --- ---- --- ------ ----- ------- ---- -- --- ------- --<br>------- ---------- ------ -- ----- -- ----- -- ---- ------<br>--- ----- --- --- ------ -------- ----- --- ------ ----- --<br>----- ----- ---------- --- --- market ------ ---- -- ------<br>------- --- ------ ----- --- ---- ------- -- ---- --- --<br>------- ------,108608.5,108607.69999999925,108187.383,108201,108204.052,108621.016,,38,market
screen,html.Screen,0_2_1_1_39,2021-12-02T14:01:39.534Z,,,,,,,,,,,,,,,,54,,,,,,,,,,,,,,314.6839999992517,,response,,,100,,,,,,Space,keypress(Space),,,,,-- --- ---- --- ------ ----- ------- ---- -- --- ------- --<br>------- ---------- ------ -- ----- -- ----- -- ---- ------<br>--- ----- --- --- ------ -------- ----- --- ------ ----- --<br>----- ----- ---------- --- --- ------ became ---- -- ------<br>------- --- ------ ----- --- ---- ------- -- ---- --- --<br>------- ------,108936.5,108935.69999999925,108604.344,108608.80000000075,108621.016,108937.673,,39,became
screen,html.Screen,0_2_1_1_40,2021-12-02T14:01:39.942Z,,,,,,,,,,,,,,,,54,,,,,,,,,,,,,,406.0269999992597,,response,,,100,,,,,,Space,keypress(Space),,,,,-- --- ---- --- ------ ----- ------- ---- -- --- ------- --<br>------- ---------- ------ -- ----- -- ----- -- ---- ------<br>--- ----- --- --- ------ -------- ----- --- ------ ----- --<br>----- ----- ---------- --- --- ------ ------ wary -- ------<br>------- --- ------ ----- --- ---- ------- -- ---- --- --<br>------- ------,109344.5,109343.69999999925,108921.003,108936.80000000075,108937.673,109354.367,,40,wary
screen,html.Screen,0_2_1_1_41,2021-12-02T14:01:40.318Z,,,,,,,,,,,,,,,,54,,,,,,,,,,,,,,365.23300000149175,,response,,,100,,,,,,Space,keypress(Space),,,,,-- --- ---- --- ------ ----- ------- ---- -- --- ------- --<br>------- ---------- ------ -- ----- -- ----- -- ---- ------<br>--- ----- --- --- ------ -------- ----- --- ------ ----- --<br>----- ----- ---------- --- --- ------ ------ ---- of ------<br>------- --- ------ ----- --- ---- ------- -- ---- --- --<br>------- ------,109720.40000000224,109719.60000000149,109337.698,109344.69999999925,109354.367,109737.978,,41,of
screen,html.Screen,0_2_1_1_42,2021-12-02T14:01:40.750Z,,,,,,,,,,,,,,,,54,,,,,,,,,,,,,,414.0219999999972,,response,,,100,,,,,,Space,keypress(Space),,,,,-- --- ---- --- ------ ----- ------- ---- -- --- ------- --<br>------- ---------- ------ -- ----- -- ----- -- ---- ------<br>--- ----- --- --- ------ -------- ----- --- ------ ----- --<br>----- ----- ---------- --- --- ------ ------ ---- -- French<br>------- --- ------ ----- --- ---- ------- -- ---- --- --<br>------- ------,110152.80000000075,110152,109721.306,109720.60000000149,109737.978,110154.705,,42,French
screen,html.Screen,0_2_1_1_43,2021-12-02T14:01:40.838Z,,,,,,,,,,,,,,,,54,,,,,,,,,,,,,,84.89500000148837,,response,,,100,,,,,,Space,keypress(Space),,,,,-- --- ---- --- ------ ----- ------- ---- -- --- ------- --<br>------- ---------- ------ -- ----- -- ----- -- ---- ------<br>--- ----- --- --- ------ -------- ----- --- ------ ----- --<br>----- ----- ---------- --- --- ------ ------ ---- -- ------<br>credit. --- ------ ----- --- ---- ------- -- ---- --- --<br>------- ------,110240.40000000224,110239.60000000149,110138.034,110153,110154.705,110254.707,,43,credit.
screen,html.Screen,0_2_1_1_44,2021-12-02T14:01:41.966Z,,,,,,,,,,,,,,,,54,,,,,,,,,,,,,,1112.7930000000051,,response,,,100,,,,,,Space,keypress(Space),,,,,-- --- ---- --- ------ ----- ------- ---- -- --- ------- --<br>------- ---------- ------ -- ----- -- ----- -- ---- ------<br>--- ----- --- --- ------ -------- ----- --- ------ ----- --<br>----- ----- ---------- --- --- ------ ------ ---- -- ------<br>------- The ------ ----- --- ---- ------- -- ---- --- --<br>------- ------,111368.40000000224,111367.5,110238.037,110240.60000000149,110254.707,111371.615,,44,The
screen,html.Screen,0_2_1_1_45,2021-12-02T14:01:42.550Z,,,,,,,,,,,,,,,,54,,,,,,,,,,,,,,579.8849999999948,,response,,,100,,,,,,Space,keypress(Space),,,,,-- --- ---- --- ------ ----- ------- ---- -- --- ------- --<br>------- ---------- ------ -- ----- -- ----- -- ---- ------<br>--- ----- --- --- ------ -------- ----- --- ------ ----- --<br>----- ----- ---------- --- --- ------ ------ ---- -- ------<br>------- --- French ----- --- ---- ------- -- ---- --- --<br>------- ------,111952.30000000075,111951.5,111354.945,111368.69999999925,111371.615,111954.151,,45,French
screen,html.Screen,0_2_1_1_46,2021-12-02T14:01:43.157Z,,,,,,,,,,,,,,,,54,,,,,,,,,,,,,,605.349000000002,,response,,,100,,,,,,Space,keypress(Space),,,,,-- --- ---- --- ------ ----- ------- ---- -- --- ------- --<br>------- ---------- ------ -- ----- -- ----- -- ---- ------<br>--- ----- --- --- ------ -------- ----- --- ------ ----- --<br>----- ----- ---------- --- --- ------ ------ ---- -- ------<br>------- --- ------ state --- ---- ------- -- ---- --- --<br>------- ------,112560.19999999925,112559.5,111937.49,111952.5,111954.151,112571.917,,46,state
screen,html.Screen,0_2_1_1_47,2021-12-02T14:01:43.509Z,,,,,,,,,,,,,,,,54,,,,,,,,,,,,,,339.18300000148884,,response,,,100,,,,,,Space,keypress(Space),,,,,-- --- ---- --- ------ ----- ------- ---- -- --- ------- --<br>------- ---------- ------ -- ----- -- ----- -- ---- ------<br>--- ----- --- --- ------ -------- ----- --- ------ ----- --<br>----- ----- ---------- --- --- ------ ------ ---- -- ------<br>------- --- ------ ----- was ---- ------- -- ---- --- --<br>------- ------,112911.5,112911.10000000149,112555.247,112560.5,112571.917,112922.029,,47,was
screen,html.Screen,0_2_1_1_48,2021-12-02T14:01:43.909Z,,,,,,,,,,,,,,,,54,,,,,,,,,,,,,,389.0710000014951,,response,,,100,,,,,,Space,keypress(Space),,,,,-- --- ---- --- ------ ----- ------- ---- -- --- ------- --<br>------- ---------- ------ -- ----- -- ----- -- ---- ------<br>--- ----- --- --- ------ -------- ----- --- ------ ----- --<br>----- ----- ---------- --- --- ------ ------ ---- -- ------<br>------- --- ------ ----- --- left ------- -- ---- --- --<br>------- ------,113311.5,113311.10000000149,112905.359,112911.60000000149,112922.029,113322.21,,48,left
screen,html.Screen,0_2_1_1_49,2021-12-02T14:01:44.310Z,,,,,,,,,,,,,,,,54,,,,,,,,,,,,,,389.19000000222877,,response,,,100,,,,,,Space,keypress(Space),,,,,-- --- ---- --- ------ ----- ------- ---- -- --- ------- --<br>------- ---------- ------ -- ----- -- ----- -- ---- ------<br>--- ----- --- --- ------ -------- ----- --- ------ ----- --<br>----- ----- ---------- --- --- ------ ------ ---- -- ------<br>------- --- ------ ----- --- ---- without -- ---- --- --<br>------- ------,113712.30000000075,113711.40000000224,113305.538,113311.60000000149,113322.21,113722.064,,49,without
screen,html.Screen,0_2_1_1_50,2021-12-02T14:01:44.701Z,,,,,,,,,,,,,,,,54,,,,,,,,,,,,,,381.3360000022367,,response,,,100,,,,,,Space,keypress(Space),,,,,-- --- ---- --- ------ ----- ------- ---- -- --- ------- --<br>------- ---------- ------ -- ----- -- ----- -- ---- ------<br>--- ----- --- --- ------ -------- ----- --- ------ ----- --<br>----- ----- ---------- --- --- ------ ------ ---- -- ------<br>------- --- ------ ----- --- ---- ------- an ---- --- --<br>------- ------,114104.19999999925,114103.40000000224,113705.397,113712.60000000149,113722.064,114105.653,,50,an
screen,html.Screen,0_2_1_1_51,2021-12-02T14:01:45.109Z,,,,,,,,,,,,,,,,54,,,,,,,,,,,,,,405.74700000222947,,response,,,100,,,,,,Space,keypress(Space),,,,,-- --- ---- --- ------ ----- ------- ---- -- --- ------- --<br>------- ---------- ------ -- ----- -- ----- -- ---- ------<br>--- ----- --- --- ------ -------- ----- --- ------ ----- --<br>----- ----- ---------- --- --- ------ ------ ---- -- ------<br>------- --- ------ ----- --- ---- ------- -- easy --- --<br>------- ------,114512.19999999925,114511.40000000224,114088.983,114104.5,114105.653,114522.63,,51,easy
screen,html.Screen,0_2_1_1_52,2021-12-02T14:01:45.445Z,,,,,,,,,,,,,,,,54,,,,,,,,,,,,,,324.7700000022305,,response,,,100,,,,,,Space,keypress(Space),,,,,-- --- ---- --- ------ ----- ------- ---- -- --- ------- --<br>------- ---------- ------ -- ----- -- ----- -- ---- ------<br>--- ----- --- --- ------ -------- ----- --- ------ ----- --<br>----- ----- ---------- --- --- ------ ------ ---- -- ------<br>------- --- ------ ----- --- ---- ------- -- ---- way --<br>------- ------,114848.19999999925,114847.40000000224,114505.956,114512.5,114522.63,114855.968,,52,way
screen,html.Screen,0_2_1_1_53,2021-12-02T14:01:45.781Z,,,,,,,,,,,,,,,,54,,,,,,,,,,,,,,327.4320000022417,,response,,,100,,,,,,Space,keypress(Space),,,,,-- --- ---- --- ------ ----- ------- ---- -- --- ------- --<br>------- ---------- ------ -- ----- -- ----- -- ---- ------<br>--- ----- --- --- ------ -------- ----- --- ------ ----- --<br>----- ----- ---------- --- --- ------ ------ ---- -- ------<br>------- --- ------ ----- --- ---- ------- -- ---- --- of<br>------- ------,115184.10000000149,115183.40000000224,114839.297,114848.5,114855.968,115189.269,,53,of
screen,html.Screen,0_2_1_1_54,2021-12-02T14:01:46.221Z,,,,,,,,,,,,,,,,54,,,,,,,,,,,,,,434.13100000223494,,response,,,100,,,,,,Space,keypress(Space),,,,,-- --- ---- --- ------ ----- ------- ---- -- --- ------- --<br>------- ---------- ------ -- ----- -- ----- -- ---- ------<br>--- ----- --- --- ------ -------- ----- --- ------ ----- --<br>----- ----- ---------- --- --- ------ ------ ---- -- ------<br>------- --- ------ ----- --- ---- ------- -- ---- --- --<br>raising ------,115624.10000000149,115623.40000000224,115172.6,115184.40000000224,115189.269,115639.473,,54,raising
screen,html.Screen,0_2_1_1_55,2021-12-02T14:01:46.637Z,,,,,,,,,,,,,,,,54,,,,,,,,,,,,,,399.8270000007469,,response,,,100,,,,,,Space,keypress(Space),,,,,-- --- ---- --- ------ ----- ------- ---- -- --- ------- --<br>------- ---------- ------ -- ----- -- ----- -- ---- ------<br>--- ----- --- --- ------ -------- ----- --- ------ ----- --<br>----- ----- ---------- --- --- ------ ------ ---- -- ------<br>------- --- ------ ----- --- ---- ------- -- ---- --- --<br>------- money.,116040.10000000149,116039.30000000075,115622.802,115624.40000000224,115639.473,116056.271,,55,money.
Item 100,flow.Loop,0_2_1_1,2021-12-02T14:01:46.638Z,,,,,,,,,,,,,,,,,,,,,,,,,,,,,,27423.79000000075,,completion,,,,F,,,,,,,,,,silence,,116040.60000000149,116039.30000000075,88598.84,88600.80000000075,88615.51,116056.271,,,
Question 1,html.Screen,0_2_1_2,2021-12-02T14:01:49.133Z,,,,,,,,,,,,,,,,,,,,,,,,,,,true,TRUE,,2478.7290000000066,,response,,,100,F,,,,,TRUE,click #choice-1,,,,silence,,118536.10000000149,118535,116039.6,116040.80000000075,116056.271,118540.256,,,
Question 2,html.Screen,0_2_1_3,2021-12-02T14:01:52.272Z,,,,,,,,,,,,,,,,,,,,,,,,,,,true,FALSE,,3130.544000000751,,response,,,100,F,,,,,FALSE,click #choice-2,,,,silence,,121672,121670.80000000075,118523.585,118536.40000000224,118540.256,121674.468,,,
Item 100,flow.Sequence,0_2_1,2021-12-02T14:01:52.272Z,,,,,,,,,,,,,,,,,,,,,,,,,,,,,,43057.96400000075,,completion,,,,,,,,,,,,,,,,121672.40000000224,121670.80000000075,78596.166,78602.69999999925,78612.836,121674.468,,,
End of Practice,html.Page,0_2_2,2021-12-02T14:01:56.136Z,,,,,,,,,,,,,,,,,,,,,,,,,,,,,,3861.6320000014966,,form submission,,,,,,,,,,,,,,,,125536.5,125536.10000000149,121657.796,121672.5,121674.468,125542.075,,,
Practice,flow.Sequence,0_2,2021-12-02T14:01:56.137Z,,,,,,,,,,,,,,,,,,,,,,,,,,,,,,98086.99200000148,,completion,,,,,,,,,,,,,,,,125537,125536.10000000149,27432.439,27437.300000000745,27449.108,125542.075,,,
Trap_instruction,html.Page,0_3_0,2021-12-02T14:01:59.992Z,,,,,,,,,,,,,,,,,,,,,,,,,,,,,,3850.025000001493,,form submission,,,,,,,,,,,,,,,,129392.60000000149,129392.10000000149,125525.405,125537.19999999925,125542.075,129426.41,,,
trap_trial,html.Screen,0_3_1,2021-12-02T14:02:02.559Z,,,,,,,,,,,,,,,,,,,,,,,,,,,true,1,,2531.9900000022317,,response,,,,,,,,,1,click #choice-1,,,,,,131959.69999999925,131958.40000000224,129376.4,129393,129426.41,131960.258,,,
end of trap trial,html.Page,0_3_2,2021-12-02T14:02:04.528Z,,,,,,,,,,,,,,,,,,,,,,,,,,,,,,1967.7419999999984,,form submission,,,,,,,,,,,,,,,,133928.69999999925,133928,131943.588,131959.90000000224,131960.258,133927.561,,,
Trap 1,flow.Sequence,0_3,2021-12-02T14:02:04.529Z,,,,,,,,,,,,,,,,,,,,,,,,,,,,,,8385.925000000003,,completion,,,,,,,,,,,,,,,,133929.19999999925,133928,125525.405,125537.10000000149,125542.075,133927.561,,,
Standby,html.Page,0_4_0,2021-12-02T14:02:12.514Z,,,,,,,,,,,,,,,,,,,,,,,,,,,,,,8001.671000000002,,timeout,,,,,,,,,,,,,,,,141914,141912.562,133910.891,133929.40000000224,133927.561,141929.232,,,
Holding screen,html.Screen,0_4_1_0_0,2021-12-02T14:02:19.516Z,,,,,,,,,,,,,,,,,,,,,,,,,,,,,,7002.459000000003,,timeout,,,,,,,,,,,,,,,,148916.6000000015,148915.02,141912.562,141914.40000000224,141929.232,148931.691,,,
screen,html.Screen,0_4_1_0_1_0,2021-12-02T14:02:21.023Z,,,,,,,,,,,,,,,,51,,,,,,,,,,,,,,1490.5089999992633,,response,,,13,F,,,,,Space,keypress(Space),,,,instrumental,American -------- --- --- ---- --- --- ------ -- --------<br>---- --------- --- ------- ------------ ---------- ---------<br>--- ---------- ------- ---------- ------- -- -------- ----<br>---- --- ------ ----- ------ -- ---- --- ----- -- - -------<br>-------- -- --- --- -- ----- ----------- ----- -----------<br>---- --- ---------- --- ---- --- -- ----------,150423.19999999925,150422.19999999925,148915.02,148917,148931.691,150431.751,,0,American
screen,html.Screen,0_4_1_0_1_1,2021-12-02T14:02:21.454Z,,,,,,,,,,,,,,,,51,,,,,,,,,,,,,,421.94899999926565,,response,,,13,F,,,,,Space,keypress(Space),,,,instrumental,-------- industry --- --- ---- --- --- ------ -- --------<br>---- --------- --- ------- ------------ ---------- ---------<br>--- ---------- ------- ---------- ------- -- -------- ----<br>---- --- ------ ----- ------ -- ---- --- ----- -- - -------<br>-------- -- --- --- -- ----- ----------- ----- -----------<br>---- --- ---------- --- ---- --- -- ----------,150854.6000000015,150853.69999999925,150415.082,150423.6000000015,150431.751,150865.565,,1,industry
screen,html.Screen,0_4_1_0_1_2,2021-12-02T14:02:21.894Z,,,,,,,,,,,,,,,,51,,,,,,,,,,,,,,428.1349999992526,,response,,,13,F,,,,,Space,keypress(Space),,,,instrumental,-------- -------- may --- ---- --- --- ------ -- --------<br>---- --------- --- ------- ------------ ---------- ---------<br>--- ---------- ------- ---------- ------- -- -------- ----<br>---- --- ------ ----- ------ -- ---- --- ----- -- - -------<br>-------- -- --- --- -- ----- ----------- ----- -----------<br>---- --- ---------- --- ---- --- -- ----------,151294.6000000015,151293.69999999925,150848.894,150854.90000000224,150865.565,151298.937,,2,may
screen,html.Screen,0_4_1_0_1_3,2021-12-02T14:02:22.382Z,,,,,,,,,,,,,,,,51,,,,,,,,,,,,,,482.56299999999464,,response,,,13,F,,,,,Space,keypress(Space),,,,instrumental,-------- -------- --- not ---- --- --- ------ -- --------<br>---- --------- --- ------- ------------ ---------- ---------<br>--- ---------- ------- ---------- ------- -- -------- ----<br>---- --- ------ ----- ------ -- ---- --- ----- -- - -------<br>-------- -- --- --- -- ----- ----------- ----- -----------<br>---- --- ---------- --- ---- --- -- ----------,151782.40000000224,151781.5,151282.267,151294.90000000224,151298.937,151799.052,,3,not
screen,html.Screen,0_4_1_0_1_4,2021-12-02T14:02:22.806Z,,,,,,,,,,,,,,,,51,,,,,,,,,,,,,,406.5480000014941,,response,,,13,F,,,,,Space,keypress(Space),,,,instrumental,-------- -------- --- --- know --- --- ------ -- --------<br>---- --------- --- ------- ------------ ---------- ---------<br>--- ---------- ------- ---------- ------- -- -------- ----<br>---- --- ------ ----- ------ -- ---- --- ----- -- - -------<br>-------- -- --- --- -- ----- ----------- ----- -----------<br>---- --- ---------- --- ---- --- -- ----------,152206.5,152205.6000000015,151782.382,151782.69999999925,151799.052,152215.888,,4,know
screen,html.Screen,0_4_1_0_1_5,2021-12-02T14:02:23.222Z,,,,,,,,,,,,,,,,51,,,,,,,,,,,,,,405.71200000148383,,response,,,13,F,,,,,Space,keypress(Space),,,,instrumental,"-------- -------- --- --- ---- it, --- ------ -- --------<br>---- --------- --- ------- ------------ ---------- ---------<br>--- ---------- ------- ---------- ------- -- -------- ----<br>---- --- ------ ----- ------ -- ---- --- ----- -- - -------<br>-------- -- --- --- -- ----- ----------- ----- -----------<br>---- --- ---------- --- ---- --- -- ----------",152622.5,152621.6000000015,152199.217,152206.69999999925,152215.888,152632.549,,5,"it,"
screen,html.Screen,0_4_1_0_1_6,2021-12-02T14:02:23.846Z,,,,,,,,,,,,,,,,51,,,,,,,,,,,,,,613.051000001491,,response,,,13,F,,,,,Space,keypress(Space),,,,instrumental,-------- -------- --- --- ---- --- but ------ -- --------<br>---- --------- --- ------- ------------ ---------- ---------<br>--- ---------- ------- ---------- ------- -- -------- ----<br>---- --- ------ ----- ------ -- ---- --- ----- -- - -------<br>-------- -- --- --- -- ----- ----------- ----- -----------<br>---- --- ---------- --- ---- --- -- ----------,153246.69999999925,153245.6000000015,152615.88,152622.80000000075,152632.549,153249.489,,6,but
screen,html.Screen,0_4_1_0_1_7,2021-12-02T14:02:24.262Z,,,,,,,,,,,,,,,,51,,,,,,,,,,,,,,412.0109999999986,,response,,,13,F,,,,,Space,keypress(Space),,,,instrumental,-------- -------- --- --- ---- --- --- debate -- --------<br>---- --------- --- ------- ------------ ---------- ---------<br>--- ---------- ------- ---------- ------- -- -------- ----<br>---- --- ------ ----- ------ -- ---- --- ----- -- - -------<br>-------- -- --- --- -- ----- ----------- ----- -----------<br>---- --- ---------- --- ---- --- -- ----------,153662.5,153661.5,153232.818,153246.90000000224,153249.489,153666.099,,7,debate
screen,html.Screen,0_4_1_0_1_8,2021-12-02T14:02:24.622Z,,,,,,,,,,,,,,,,51,,,,,,,,,,,,,,355.4010000000126,,response,,,13,F,,,,,Space,keypress(Space),,,,instrumental,-------- -------- --- --- ---- --- --- ------ in --------<br>---- --------- --- ------- ------------ ---------- ---------<br>--- ---------- ------- ---------- ------- -- -------- ----<br>---- --- ------ ----- ------ -- ---- --- ----- -- - -------<br>-------- -- --- --- -- ----- ----------- ----- -----------<br>---- --- ---------- --- ---- --- -- ----------,154022.30000000075,154021.5,153649.43,153662.69999999925,153666.099,154033.038,,8,in
screen,html.Screen,0_4_1_0_1_9,2021-12-02T14:02:24.990Z,,,,,,,,,,,,,,,,51,,,,,,,,,,,,,,356.46199999999953,,response,,,13,F,,,,,Space,keypress(Space),,,,instrumental,-------- -------- --- --- ---- --- --- ------ -- Congress<br>---- --------- --- ------- ------------ ---------- ---------<br>--- ---------- ------- ---------- ------- -- -------- ----<br>---- --- ------ ----- ------ -- ---- --- ----- -- - -------<br>-------- -- --- --- -- ----- ----------- ----- -----------<br>---- --- ---------- --- ---- --- -- ----------,154390.40000000224,154389.5,154016.367,154022.6000000015,154033.038,154399.669,,9,Congress
screen,html.Screen,0_4_1_0_1_10,2021-12-02T14:02:25.544Z,,,,,,,,,,,,,,,,51,,,,,,,,,,,,,,541.7310000022408,,response,,,13,F,,,,,Space,keypress(Space),,,,instrumental,-------- -------- --- --- ---- --- --- ------ -- --------<br>over --------- --- ------- ------------ ---------- ---------<br>--- ---------- ------- ---------- ------- -- -------- ----<br>---- --- ------ ----- ------ -- ---- --- ----- -- - -------<br>-------- -- --- --- -- ----- ----------- ----- -----------<br>---- --- ---------- --- ---- --- -- ----------,154943.90000000224,154941.40000000224,154383,154390.5,154399.669,154949.854,,10,over
screen,html.Screen,0_4_1_0_1_11,2021-12-02T14:02:25.886Z,,,,,,,,,,,,,,,,51,,,,,,,,,,,,,,335.6460000000079,,response,,,13,F,,,,,Space,keypress(Space),,,,instrumental,-------- -------- --- --- ---- --- --- ------ -- --------<br>---- reforming --- ------- ------------ ---------- ---------<br>--- ---------- ------- ---------- ------- -- -------- ----<br>---- --- ------ ----- ------ -- ---- --- ----- -- - -------<br>-------- -- --- --- -- ----- ----------- ----- -----------<br>---- --- ---------- --- ---- --- -- ----------,155286.5,155285.5,154933.184,154944.19999999925,154949.854,155300.052,,11,reforming
screen,html.Screen,0_4_1_0_1_12,2021-12-02T14:02:26.286Z,,,,,,,,,,,,,,,,51,,,,,,,,,,,,,,385.44800000000396,,response,,,13,F,,,,,Space,keypress(Space),,,,instrumental,-------- -------- --- --- ---- --- --- ------ -- --------<br>---- --------- the ------- ------------ ---------- ---------<br>--- ---------- ------- ---------- ------- -- -------- ----<br>---- --- ------ ----- ------ -- ---- --- ----- -- - -------<br>-------- -- --- --- -- ----- ----------- ----- -----------<br>---- --- ---------- --- ---- --- -- ----------,155686.30000000075,155685.5,155283.379,155286.80000000075,155300.052,155700.102,,12,the
screen,html.Screen,0_4_1_0_1_13,2021-12-02T14:02:26.734Z,,,,,,,,,,,,,,,,51,,,,,,,,,,,,,,433.3979999999865,,response,,,13,F,,,,,Space,keypress(Space),,,,instrumental,-------- -------- --- --- ---- --- --- ------ -- --------<br>---- --------- --- federal ------------ ---------- ---------<br>--- ---------- ------- ---------- ------- -- -------- ----<br>---- --- ------ ----- ------ -- ---- --- ----- -- - -------<br>-------- -- --- --- -- ----- ----------- ----- -----------<br>---- --- ---------- --- ---- --- -- ----------,156134.19999999925,156133.5,155683.432,155686.5,155700.102,156150.201,,13,federal
screen,html.Screen,0_4_1_0_1_14,2021-12-02T14:02:27.118Z,,,,,,,,,,,,,,,,51,,,,,,,,,,,,,,367.29899999999907,,response,,,13,F,,,,,Space,keypress(Space),,,,instrumental,-------- -------- --- --- ---- --- --- ------ -- --------<br>---- --------- --- ------- government's ---------- ---------<br>--- ---------- ------- ---------- ------- -- -------- ----<br>---- --- ------ ----- ------ -- ---- --- ----- -- - -------<br>-------- -- --- --- -- ----- ----------- ----- -----------<br>---- --- ---------- --- ---- --- -- ----------,156518.30000000075,156517.5,156133.531,156134.40000000224,156150.201,156533.691,,14,government's
screen,html.Screen,0_4_1_0_1_15,2021-12-02T14:02:27.614Z,,,,,,,,,,,,,,,,51,,,,,,,,,,,,,,479.70900000224356,,response,,,13,F,,,,,Space,keypress(Space),,,,instrumental,-------- -------- --- --- ---- --- --- ------ -- --------<br>---- --------- --- ------- ------------ regulatory ---------<br>--- ---------- ------- ---------- ------- -- -------- ----<br>---- --- ------ ----- ------ -- ---- --- ----- -- - -------<br>-------- -- --- --- -- ----- ----------- ----- -----------<br>---- --- ---------- --- ---- --- -- ----------,157014.30000000075,157013.40000000224,156517.02,156518.5,156533.691,157017.161,,15,regulatory
screen,html.Screen,0_4_1_0_1_16,2021-12-02T14:02:28.086Z,,,,,,,,,,,,,,,,51,,,,,,,,,,,,,,468.2390000022424,,response,,,13,F,,,,,Space,keypress(Space),,,,instrumental,-------- -------- --- --- ---- --- --- ------ -- --------<br>---- --------- --- ------- ------------ ---------- apparatus<br>--- ---------- ------- ---------- ------- -- -------- ----<br>---- --- ------ ----- ------ -- ---- --- ----- -- - -------<br>-------- -- --- --- -- ----- ----------- ----- -----------<br>---- --- ---------- --- ---- --- -- ----------,157486.19999999925,157485.40000000224,157000.49,157014.40000000224,157017.161,157500.411,,16,apparatus
screen,html.Screen,0_4_1_0_1_17,2021-12-02T14:02:28.606Z,,,,,,,,,,,,,,,,51,,,,,,,,,,,,,,504.78899999926216,,response,,,13,F,,,,,Space,keypress(Space),,,,instrumental,-------- -------- --- --- ---- --- --- ------ -- --------<br>---- --------- --- ------- ------------ ---------- ---------<br>may ---------- ------- ---------- ------- -- -------- ----<br>---- --- ------ ----- ------ -- ---- --- ----- -- - -------<br>-------- -- --- --- -- ----- ----------- ----- -----------<br>---- --- ---------- --- ---- --- -- ----------,158006.1000000015,158005.19999999925,157483.743,157486.40000000224,157500.411,158017.399,,17,may
screen,html.Screen,0_4_1_0_1_18,2021-12-02T14:02:29.054Z,,,,,,,,,,,,,,,,51,,,,,,,,,,,,,,435.90100000074017,,response,,,13,F,,,,,Space,keypress(Space),,,,instrumental,-------- -------- --- --- ---- --- --- ------ -- --------<br>---- --------- --- ------- ------------ ---------- ---------<br>--- profoundly ------- ---------- ------- -- -------- ----<br>---- --- ------ ----- ------ -- ---- --- ----- -- - -------<br>-------- -- --- --- -- ----- ----------- ----- -----------<br>---- --- ---------- --- ---- --- -- ----------,158454.1000000015,158453.30000000075,158000.728,158006.30000000075,158017.399,158467.591,,18,profoundly
screen,html.Screen,0_4_1_0_1_19,2021-12-02T14:02:29.470Z,,,,,,,,,,,,,,,,51,,,,,,,,,,,,,,401.70900000075926,,response,,,13,F,,,,,Space,keypress(Space),,,,instrumental,-------- -------- --- --- ---- --- --- ------ -- --------<br>---- --------- --- ------- ------------ ---------- ---------<br>--- ---------- improve ---------- ------- -- -------- ----<br>---- --- ------ ----- ------ -- ---- --- ----- -- - -------<br>-------- -- --- --- -- ----- ----------- ----- -----------<br>---- --- ---------- --- ---- --- -- ----------,158870,158869.30000000075,158450.919,158454.40000000224,158467.591,158884.274,,19,improve
screen,html.Screen,0_4_1_0_1_20,2021-12-02T14:02:29.902Z,,,,,,,,,,,,,,,,51,,,,,,,,,,,,,,417.02600000074017,,response,,,13,F,,,,,Space,keypress(Space),,,,instrumental,-------- -------- --- --- ---- --- --- ------ -- --------<br>---- --------- --- ------- ------------ ---------- ---------<br>--- ---------- ------- companies' ------- -- -------- ----<br>---- --- ------ ----- ------ -- ---- --- ----- -- - -------<br>-------- -- --- --- -- ----- ----------- ----- -----------<br>---- --- ---------- --- ---- --- -- ----------,159302.1000000015,159301.30000000075,158867.604,158870.19999999925,158884.274,159317.73,,20,companies'
screen,html.Screen,0_4_1_0_1_21,2021-12-02T14:02:30.270Z,,,,,,,,,,,,,,,,51,,,,,,,,,,,,,,351.5700000007346,,response,,,13,F,,,,,Space,keypress(Space),,,,instrumental,-------- -------- --- --- ---- --- --- ------ -- --------<br>---- --------- --- ------- ------------ ---------- ---------<br>--- ---------- ------- ---------- ability -- -------- ----<br>---- --- ------ ----- ------ -- ---- --- ----- -- - -------<br>-------- -- --- --- -- ----- ----------- ----- -----------<br>---- --- ---------- --- ---- --- -- ----------,159670.1000000015,159669.30000000075,159301.06,159302.40000000224,159317.73,159684.486,,21,ability
screen,html.Screen,0_4_1_0_1_22,2021-12-02T14:02:30.670Z,,,,,,,,,,,,,,,,51,,,,,,,,,,,,,,384.81400000074063,,response,,,13,F,,,,,Space,keypress(Space),,,,instrumental,-------- -------- --- --- ---- --- --- ------ -- --------<br>---- --------- --- ------- ------------ ---------- ---------<br>--- ---------- ------- ---------- ------- to -------- ----<br>---- --- ------ ----- ------ -- ---- --- ----- -- - -------<br>-------- -- --- --- -- ----- ----------- ----- -----------<br>---- --- ---------- --- ---- --- -- ----------,160070,160069.30000000075,159667.816,159670.30000000075,159684.486,160084.508,,22,to
screen,html.Screen,0_4_1_0_1_23,2021-12-02T14:02:31.022Z,,,,,,,,,,,,,,,,51,,,,,,,,,,,,,,336.6919999992533,,response,,,13,F,,,,,Space,keypress(Space),,,,instrumental,-------- -------- --- --- ---- --- --- ------ -- --------<br>---- --------- --- ------- ------------ ---------- ---------<br>--- ---------- ------- ---------- ------- -- survive. ----<br>---- --- ------ ----- ------ -- ---- --- ----- -- - -------<br>-------- -- --- --- -- ----- ----------- ----- -----------<br>---- --- ---------- --- ---- --- -- ----------,160422.1000000015,160421.19999999925,160067.839,160070.30000000075,160084.508,160434.784,,23,survive.
screen,html.Screen,0_4_1_0_1_24,2021-12-02T14:02:31.438Z,,,,,,,,,,,,,,,,51,,,,,,,,,,,,,,402.8160000014759,,response,,,13,F,,,,,Space,keypress(Space),,,,instrumental,-------- -------- --- --- ---- --- --- ------ -- --------<br>---- --------- --- ------- ------------ ---------- ---------<br>--- ---------- ------- ---------- ------- -- -------- This<br>---- --- ------ ----- ------ -- ---- --- ----- -- - -------<br>-------- -- --- --- -- ----- ----------- ----- -----------<br>---- --- ---------- --- ---- --- -- ----------,160838.40000000224,160837.6000000015,160418.112,160422.40000000224,160434.784,160851.527,,24,This
screen,html.Screen,0_4_1_0_1_25,2021-12-02T14:02:31.838Z,,,,,,,,,,,,,,,,51,,,,,,,,,,,,,,385.6729999992531,,response,,,13,F,,,,,Space,keypress(Space),,,,instrumental,-------- -------- --- --- ---- --- --- ------ -- --------<br>---- --------- --- ------- ------------ ---------- ---------<br>--- ---------- ------- ---------- ------- -- -------- ----<br>week --- ------ ----- ------ -- ---- --- ----- -- - -------<br>-------- -- --- --- -- ----- ----------- ----- -----------<br>---- --- ---------- --- ---- --- -- ----------,161238,161237.19999999925,160834.856,160838.6000000015,160851.527,161251.52,,25,week
screen,html.Screen,0_4_1_0_1_26,2021-12-02T14:02:32.254Z,,,,,,,,,,,,,,,,51,,,,,,,,,,,,,,401.6799999992654,,response,,,13,F,,,,,Space,keypress(Space),,,,instrumental,-------- -------- --- --- ---- --- --- ------ -- --------<br>---- --------- --- ------- ------------ ---------- ---------<br>--- ---------- ------- ---------- ------- -- -------- ----<br>---- the ------ ----- ------ -- ---- --- ----- -- - -------<br>-------- -- --- --- -- ----- ----------- ----- -----------<br>---- --- ---------- --- ---- --- -- ----------,161654,161653.19999999925,161234.851,161238.30000000075,161251.52,161668.201,,26,the
screen,html.Screen,0_4_1_0_1_27,2021-12-02T14:02:32.614Z,,,,,,,,,,,,,,,,51,,,,,,,,,,,,,,344.998999999254,,response,,,13,F,,,,,Space,keypress(Space),,,,instrumental,-------- -------- --- --- ---- --- --- ------ -- --------<br>---- --------- --- ------- ------------ ---------- ---------<br>--- ---------- ------- ---------- ------- -- -------- ----<br>---- --- Senate ----- ------ -- ---- --- ----- -- - -------<br>-------- -- --- --- -- ----- ----------- ----- -----------<br>---- --- ---------- --- ---- --- -- ----------,162013.90000000224,162013.19999999925,161651.533,161654.30000000075,161668.201,162018.6,,27,Senate
screen,html.Screen,0_4_1_0_1_28,2021-12-02T14:02:33.046Z,,,,,,,,,,,,,,,,51,,,,,,,,,,,,,,426.5999999992491,,response,,,13,F,,,,,Space,keypress(Space),,,,instrumental,-------- -------- --- --- ---- --- --- ------ -- --------<br>---- --------- --- ------- ------------ ---------- ---------<br>--- ---------- ------- ---------- ------- -- -------- ----<br>---- --- ------ seems ------ -- ---- --- ----- -- - -------<br>-------- -- --- --- -- ----- ----------- ----- -----------<br>---- --- ---------- --- ---- --- -- ----------,162446,162445.19999999925,162001.927,162014.19999999925,162018.6,162451.887,,28,seems
screen,html.Screen,0_4_1_0_1_29,2021-12-02T14:02:33.534Z,,,,,,,,,,,,,,,,51,,,,,,,,,,,,,,481.31299999926705,,response,,,13,F,,,,,Space,keypress(Space),,,,instrumental,-------- -------- --- --- ---- --- --- ------ -- --------<br>---- --------- --- ------- ------------ ---------- ---------<br>--- ---------- ------- ---------- ------- -- -------- ----<br>---- --- ------ ----- poised -- ---- --- ----- -- - -------<br>-------- -- --- --- -- ----- ----------- ----- -----------<br>---- --- ---------- --- ---- --- -- ----------,162933.90000000224,162933.19999999925,162435.217,162446.19999999925,162451.887,162935.355,,29,poised
screen,html.Screen,0_4_1_0_1_30,2021-12-02T14:02:33.998Z,,,,,,,,,,,,,,,,51,,,,,,,,,,,,,,461.74500000147964,,response,,,13,F,,,,,Space,keypress(Space),,,,instrumental,-------- -------- --- --- ---- --- --- ------ -- --------<br>---- --------- --- ------- ------------ ---------- ---------<br>--- ---------- ------- ---------- ------- -- -------- ----<br>---- --- ------ ----- ------ to ---- --- ----- -- - -------<br>-------- -- --- --- -- ----- ----------- ----- -----------<br>---- --- ---------- --- ---- --- -- ----------,163398,163397.1000000015,162918.685,162934.19999999925,162935.355,163402.119,,30,to
screen,html.Screen,0_4_1_0_1_31,2021-12-02T14:02:34.414Z,,,,,,,,,,,,,,,,51,,,,,,,,,,,,,,410.98100000148406,,response,,,13,F,,,,,Space,keypress(Space),,,,instrumental,-------- -------- --- --- ---- --- --- ------ -- --------<br>---- --------- --- ------- ------------ ---------- ---------<br>--- ---------- ------- ---------- ------- -- -------- ----<br>---- --- ------ ----- ------ -- join --- ----- -- - -------<br>-------- -- --- --- -- ----- ----------- ----- -----------<br>---- --- ---------- --- ---- --- -- ----------,163814,163813.1000000015,163385.449,163398.19999999925,163402.119,163818.83,,31,join
screen,html.Screen,0_4_1_0_1_32,2021-12-02T14:02:34.854Z,,,,,,,,,,,,,,,,51,,,,,,,,,,,,,,434.1700000000128,,response,,,13,F,,,,,Space,keypress(Space),,,,instrumental,-------- -------- --- --- ---- --- --- ------ -- --------<br>---- --------- --- ------- ------------ ---------- ---------<br>--- ---------- ------- ---------- ------- -- -------- ----<br>---- --- ------ ----- ------ -- ---- the ----- -- - -------<br>-------- -- --- --- -- ----- ----------- ----- -----------<br>---- --- ---------- --- ---- --- -- ----------,164253.90000000224,164253,163802.161,163814.19999999925,163818.83,164269.149,,32,the
screen,html.Screen,0_4_1_0_1_33,2021-12-02T14:02:35.221Z,,,,,,,,,,,,,,,,51,,,,,,,,,,,,,,351.8509999999951,,response,,,13,F,,,,,Space,keypress(Space),,,,instrumental,-------- -------- --- --- ---- --- --- ------ -- --------<br>---- --------- --- ------- ------------ ---------- ---------<br>--- ---------- ------- ---------- ------- -- -------- ----<br>---- --- ------ ----- ------ -- ---- --- House -- - -------<br>-------- -- --- --- -- ----- ----------- ----- -----------<br>---- --- ---------- --- ---- --- -- ----------,164621.80000000075,164621,164252.477,164254.1000000015,164269.149,164635.678,,33,House
screen,html.Screen,0_4_1_0_1_34,2021-12-02T14:02:35.581Z,,,,,,,,,,,,,,,,51,,,,,,,,,,,,,,345.22200000222074,,response,,,13,F,,,,,Space,keypress(Space),,,,instrumental,-------- -------- --- --- ---- --- --- ------ -- --------<br>---- --------- --- ------- ------------ ---------- ---------<br>--- ---------- ------- ---------- ------- -- -------- ----<br>---- --- ------ ----- ------ -- ---- --- ----- in - -------<br>-------- -- --- --- -- ----- ----------- ----- -----------<br>---- --- ---------- --- ---- --- -- ----------,164981.80000000075,164980.90000000224,164619.01,164622,164635.678,164985.983,,34,in
screen,html.Screen,0_4_1_0_1_35,2021-12-02T14:02:35.989Z,,,,,,,,,,,,,,,,51,,,,,,,,,,,,,,403.01699999999255,,response,,,13,F,,,,,Space,keypress(Space),,,,instrumental,-------- -------- --- --- ---- --- --- ------ -- --------<br>---- --------- --- ------- ------------ ---------- ---------<br>--- ---------- ------- ---------- ------- -- -------- ----<br>---- --- ------ ----- ------ -- ---- --- ----- -- a -------<br>-------- -- --- --- -- ----- ----------- ----- -----------<br>---- --- ---------- --- ---- --- -- ----------,165389.69999999925,165389,164969.311,164982,164985.983,165402.683,,35,a
screen,html.Screen,0_4_1_0_1_36,2021-12-02T14:02:36.397Z,,,,,,,,,,,,,,,,51,,,,,,,,,,,,,,394.31700000001,,response,,,13,F,,,,,Space,keypress(Space),,,,instrumental,-------- -------- --- --- ---- --- --- ------ -- --------<br>---- --------- --- ------- ------------ ---------- ---------<br>--- ---------- ------- ---------- ------- -- -------- ----<br>---- --- ------ ----- ------ -- ---- --- ----- -- - massive<br>-------- -- --- --- -- ----- ----------- ----- -----------<br>---- --- ---------- --- ---- --- -- ----------,165797.90000000224,165797,165386.013,165389.90000000224,165402.683,165802.685,,36,massive
screen,html.Screen,0_4_1_0_1_37,2021-12-02T14:02:36.797Z,,,,,,,,,,,,,,,,51,,,,,,,,,,,,,,394.3150000000023,,response,,,13,F,,,,,Space,keypress(Space),,,,instrumental,-------- -------- --- --- ---- --- --- ------ -- --------<br>---- --------- --- ------- ------------ ---------- ---------<br>--- ---------- ------- ---------- ------- -- -------- ----<br>---- --- ------ ----- ------ -- ---- --- ----- -- - -------<br>overhaul -- --- --- -- ----- ----------- ----- -----------<br>---- --- ---------- --- ---- --- -- ----------,166197.80000000075,166197,165786.016,165798.1000000015,165802.685,166202.857,,37,overhaul
screen,html.Screen,0_4_1_0_1_38,2021-12-02T14:02:37.165Z,,,,,,,,,,,,,,,,51,,,,,,,,,,,,,,362.14300000001094,,response,,,13,F,,,,,Space,keypress(Space),,,,instrumental,-------- -------- --- --- ---- --- --- ------ -- --------<br>---- --------- --- ------- ------------ ---------- ---------<br>--- ---------- ------- ---------- ------- -- -------- ----<br>---- --- ------ ----- ------ -- ---- --- ----- -- - -------<br>-------- of --- --- -- ----- ----------- ----- -----------<br>---- --- ---------- --- ---- --- -- ----------,166565.80000000075,166565,166186.187,166198,166202.857,166569.622,,38,of
screen,html.Screen,0_4_1_0_1_39,2021-12-02T14:02:37.517Z,,,,,,,,,,,,,,,,51,,,,,,,,,,,,,,347.377999999997,,response,,,13,F,,,,,Space,keypress(Space),,,,instrumental,-------- -------- --- --- ---- --- --- ------ -- --------<br>---- --------- --- ------- ------------ ---------- ---------<br>--- ---------- ------- ---------- ------- -- -------- ----<br>---- --- ------ ----- ------ -- ---- --- ----- -- - -------<br>-------- -- the --- -- ----- ----------- ----- -----------<br>---- --- ---------- --- ---- --- -- ----------,166917.69999999925,166917,166552.952,166566,166569.622,166919.824,,39,the
screen,html.Screen,0_4_1_0_1_40,2021-12-02T14:02:37.933Z,,,,,,,,,,,,,,,,51,,,,,,,,,,,,,,413.17600000000675,,response,,,13,F,,,,,Space,keypress(Space),,,,instrumental,-------- -------- --- --- ---- --- --- ------ -- --------<br>---- --------- --- ------- ------------ ---------- ---------<br>--- ---------- ------- ---------- ------- -- -------- ----<br>---- --- ------ ----- ------ -- ---- --- ----- -- - -------<br>-------- -- --- way -- ----- ----------- ----- -----------<br>---- --- ---------- --- ---- --- -- ----------,167333.69999999925,167333,166903.152,166918,166919.824,167336.586,,40,way
screen,html.Screen,0_4_1_0_1_41,2021-12-02T14:02:38.285Z,,,,,,,,,,,,,,,,51,,,,,,,,,,,,,,348.31400000222493,,response,,,13,F,,,,,Space,keypress(Space),,,,instrumental,-------- -------- --- --- ---- --- --- ------ -- --------<br>---- --------- --- ------- ------------ ---------- ---------<br>--- ---------- ------- ---------- ------- -- -------- ----<br>---- --- ------ ----- ------ -- ---- --- ----- -- - -------<br>-------- -- --- --- in ----- ----------- ----- -----------<br>---- --- ---------- --- ---- --- -- ----------,167685.69999999925,167684.90000000224,167319.915,167333.90000000224,167336.586,167686.484,,41,in
screen,html.Screen,0_4_1_0_1_42,2021-12-02T14:02:38.669Z,,,,,,,,,,,,,,,,51,,,,,,,,,,,,,,382.41600000223843,,response,,,13,F,,,,,Space,keypress(Space),,,,instrumental,-------- -------- --- --- ---- --- --- ------ -- --------<br>---- --------- --- ------- ------------ ---------- ---------<br>--- ---------- ------- ---------- ------- -- -------- ----<br>---- --- ------ ----- ------ -- ---- --- ----- -- - -------<br>-------- -- --- --- -- which ----------- ----- -----------<br>---- --- ---------- --- ---- --- -- ----------,168069.80000000075,168068.90000000224,167669.816,167685.90000000224,167686.484,168086.814,,42,which
screen,html.Screen,0_4_1_0_1_43,2021-12-02T14:02:39.085Z,,,,,,,,,,,,,,,,51,,,,,,,,,,,,,,398.08600000222214,,response,,,13,F,,,,,Space,keypress(Space),,,,instrumental,-------- -------- --- --- ---- --- --- ------ -- --------<br>---- --------- --- ------- ------------ ---------- ---------<br>--- ---------- ------- ---------- ------- -- -------- ----<br>---- --- ------ ----- ------ -- ---- --- ----- -- - -------<br>-------- -- --- --- -- ----- bureaucrats ----- -----------<br>---- --- ---------- --- ---- --- -- ----------,168485.6000000015,168484.90000000224,168070.142,168070.1000000015,168086.814,168486.703,,43,bureaucrats
screen,html.Screen,0_4_1_0_1_44,2021-12-02T14:02:39.565Z,,,,,,,,,,,,,,,,51,,,,,,,,,,,,,,478.19700000222656,,response,,,13,F,,,,,Space,keypress(Space),,,,instrumental,-------- -------- --- --- ---- --- --- ------ -- --------<br>---- --------- --- ------- ------------ ---------- ---------<br>--- ---------- ------- ---------- ------- -- -------- ----<br>---- --- ------ ----- ------ -- ---- --- ----- -- - -------<br>-------- -- --- --- -- ----- ----------- enact -----------<br>---- --- ---------- --- ---- --- -- ----------,168965.69999999925,168964.90000000224,168470.035,168485.90000000224,168486.703,168970.441,,44,enact
screen,html.Screen,0_4_1_0_1_45,2021-12-02T14:02:40.013Z,,,,,,,,,,,,,,,,51,,,,,,,,,,,,,,442.2589999992633,,response,,,13,F,,,,,Space,keypress(Space),,,,instrumental,-------- -------- --- --- ---- --- --- ------ -- --------<br>---- --------- --- ------- ------------ ---------- ---------<br>--- ---------- ------- ---------- ------- -- -------- ----<br>---- --- ------ ----- ------ -- ---- --- ----- -- - -------<br>-------- -- --- --- -- ----- ----------- ----- regulations<br>---- --- ---------- --- ---- --- -- ----------,169413.6000000015,169412.69999999925,168953.768,168965.90000000224,168970.441,169420.396,,45,regulations
screen,html.Screen,0_4_1_0_1_46,2021-12-02T14:02:40.429Z,,,,,,,,,,,,,,,,51,,,,,,,,,,,,,,408.40400000073714,,response,,,13,F,,,,,Space,keypress(Space),,,,instrumental,-------- -------- --- --- ---- --- --- ------ -- --------<br>---- --------- --- ------- ------------ ---------- ---------<br>--- ---------- ------- ---------- ------- -- -------- ----<br>---- --- ------ ----- ------ -- ---- --- ----- -- - -------<br>-------- -- --- --- -- ----- ----------- ----- -----------<br>that --- ---------- --- ---- --- -- ----------,169829.5,169828.80000000075,169403.726,169413.80000000075,169420.396,169837.236,,46,that
screen,html.Screen,0_4_1_0_1_47,2021-12-02T14:02:40.869Z,,,,,,,,,,,,,,,,51,,,,,,,,,,,,,,431.56400000074063,,response,,,13,F,,,,,Space,keypress(Space),,,,instrumental,-------- -------- --- --- ---- --- --- ------ -- --------<br>---- --------- --- ------- ------------ ---------- ---------<br>--- ---------- ------- ---------- ------- -- -------- ----<br>---- --- ------ ----- ------ -- ---- --- ----- -- - -------<br>-------- -- --- --- -- ----- ----------- ----- -----------<br>---- are ---------- --- ---- --- -- ----------,170269.6000000015,170268.80000000075,169820.565,169829.69999999925,169837.236,170270.482,,47,are
screen,html.Screen,0_4_1_0_1_48,2021-12-02T14:02:41.285Z,,,,,,,,,,,,,,,,51,,,,,,,,,,,,,,414.318000000756,,response,,,13,F,,,,,Space,keypress(Space),,,,instrumental,-------- -------- --- --- ---- --- --- ------ -- --------<br>---- --------- --- ------- ------------ ---------- ---------<br>--- ---------- ------- ---------- ------- -- -------- ----<br>---- --- ------ ----- ------ -- ---- --- ----- -- - -------<br>-------- -- --- --- -- ----- ----------- ----- -----------<br>---- --- strangling --- ---- --- -- ----------,170685.6000000015,170684.80000000075,170253.814,170269.90000000224,170270.482,170687.543,,48,strangling
screen,html.Screen,0_4_1_0_1_49,2021-12-02T14:02:41.646Z,,,,,,,,,,,,,,,,51,,,,,,,,,,,,,,357.6569999992498,,response,,,13,F,,,,,Space,keypress(Space),,,,instrumental,-------- -------- --- --- ---- --- --- ------ -- --------<br>---- --------- --- ------- ------------ ---------- ---------<br>--- ---------- ------- ---------- ------- -- -------- ----<br>---- --- ------ ----- ------ -- ---- --- ----- -- - -------<br>-------- -- --- --- -- ----- ----------- ----- -----------<br>---- --- ---------- the ---- --- -- ----------,171046,171045.19999999925,170670.87,170685.80000000075,170687.543,171054.106,,49,the
screen,html.Screen,0_4_1_0_1_50,2021-12-02T14:02:42.085Z,,,,,,,,,,,,,,,,51,,,,,,,,,,,,,,430.5939999992552,,response,,,13,F,,,,,Space,keypress(Space),,,,instrumental,-------- -------- --- --- ---- --- --- ------ -- --------<br>---- --------- --- ------- ------------ ---------- ---------<br>--- ---------- ------- ---------- ------- -- -------- ----<br>---- --- ------ ----- ------ -- ---- --- ----- -- - -------<br>-------- -- --- --- -- ----- ----------- ----- -----------<br>---- --- ---------- --- life --- -- ----------,171485.6000000015,171484.69999999925,171037.437,171046.19999999925,171054.106,171487.73,,50,life
