sender,sender_type,sender_id,timestamp,meta,,Blues,Classical,Country,Dance,Electronic,Folk,Gospel,Hip-Hop,Jazz,Latin,Musical/Film,New-age,Pop,Provo_ID,R&B,Rap,Reggae,Religious,Rock,Soul,Swing,Traditional,age,artist_name,correct,correctResponse,distraction,duration,education,ended_on,familiarity,gender,item,list,music_frequency,offensiveness,pleasantness,preference,response,response_action,snippet_file,song_name,song_rating,sound,text,time_commit,time_end,time_render,time_run,time_show,time_switch,url,word,word_ID
Instructions,html.Page,0_0,2021-11-26T10:42:31.109Z,"{""labjs_version"":""20.2.3"",""labjs_build"":{""flavor"":""production"",""commit"":""7ea907d66ca8aeef8054924ca5d82ffbe11e34e5""},""location"":""https://run.pavlovia.org/mvasilev/lab_music_e/"",""userAgent"":""Mozilla/5.0 (Windows NT 6.1; Win64; x64) AppleWebKit/537.36 (KHTML, like Gecko) Chrome/96.0.4664.45 Safari/537.36"",""platform"":""Win32"",""language"":""en-US"",""locale"":""en-US"",""timeZone"":""Europe/London"",""timezoneOffset"":0,""screen_width"":1920,""screen_height"":1080,""scroll_width"":1920,""scroll_height"":959,""window_innerWidth"":1920,""window_innerHeight"":1007,""devicePixelRatio"":1}",,,,,,,,,,,,,,,,,,,,,,,,,,,,,15027.798,,form submission,,,,,,,,,,,,,,,,23506.700000000186,23506,8444.872,8458.400000000373,8478.202,23517.249,{},,
Headphones,html.Page,0_1,2021-11-26T10:42:33.874Z,,,,,,,,,,,,,,,,,,,,,,,,,,,,,,2754.251,,form submission,,,,,,,,,,,,,,,,26271.800000000745,26271.5,23500.614,23507.10000000056,23517.249,26271.69,,,
Holding screen,html.Screen,0_2_0_0,2021-11-26T10:42:43.866Z,,,,,,,,,,,,,,,,,,,,,,,,,,,,,,10005.261999999999,,timeout,,,,,,,,,,,,,,,,36263.90000000037,36260.287,26255.032,26272.200000000186,26271.69,36276.952,,,
screen,html.Screen,0_2_0_1_0,2021-11-26T10:42:44.865Z,,,,,,,,,,,,,,,,53,,,,,,,,,,,,,,985.0480000000025,,response,,,99,,,,,,Space,keypress(Space),,,,,When -- ----- -- ------ - ------- --- ----------<br>------------- ------ ------ ---- ---- ------- ----- -- ----<br>-------- ------- -- ---------- --- - --- ----- ----- ----<br>---- --- --- ----- --- ---- ---- ------- ----- ---- -------<br>--- --- -- ----- -- --- ---- -- --- ---- -- ------ ------<br>--- ----- -- ----,37263.200000000186,37262,36260.287,36264.300000000745,36276.952,37276.91,,0,When
screen,html.Screen,0_2_0_1_1,2021-11-26T10:42:45.745Z,,,,,,,,,,,,,,,,53,,,,,,,,,,,,,,864.8900000007416,,response,,,99,,,,,,Space,keypress(Space),,,,,---- it ----- -- ------ - ------- --- ----------<br>------------- ------ ------ ---- ---- ------- ----- -- ----<br>-------- ------- -- ---------- --- - --- ----- ----- ----<br>---- --- --- ----- --- ---- ---- ------- ----- ---- -------<br>--- --- -- ----- -- --- ---- -- --- ---- -- ------ ------<br>--- ----- -- ----,38142.5,38141.800000000745,37260.245,37263.40000000037,37276.91,38143.535,,1,it
screen,html.Screen,0_2_0_1_2,2021-11-26T10:42:46.280Z,,,,,,,,,,,,,,,,53,,,,,,,,,,,,,,534.1650000001828,,response,,,99,,,,,,Space,keypress(Space),,,,,---- -- comes -- ------ - ------- --- ----------<br>------------- ------ ------ ---- ---- ------- ----- -- ----<br>-------- ------- -- ---------- --- - --- ----- ----- ----<br>---- --- --- ----- --- ---- ---- ------- ----- ---- -------<br>--- --- -- ----- -- --- ---- -- --- ---- -- ------ ------<br>--- ----- -- ----,38678.40000000037,38677.700000000186,38126.87,38142.700000000186,38143.535,38693.548,,2,comes
screen,html.Screen,0_2_0_1_3,2021-11-26T10:42:46.681Z,,,,,,,,,,,,,,,,53,,,,,,,,,,,,,,384.35200000037,,response,,,99,,,,,,Space,keypress(Space),,,,,---- -- ----- to ------ - ------- --- ----------<br>------------- ------ ------ ---- ---- ------- ----- -- ----<br>-------- ------- -- ---------- --- - --- ----- ----- ----<br>---- --- --- ----- --- ---- ---- ------- ----- ---- -------<br>--- --- -- ----- -- --- ---- -- --- ---- -- ------ ------<br>--- ----- -- ----,39078.700000000186,39077.90000000037,38676.883,38678.60000000056,38693.548,39093.527,,3,to
screen,html.Screen,0_2_0_1_4,2021-11-26T10:42:47.217Z,,,,,,,,,,,,,,,,53,,,,,,,,,,,,,,520.1730000001844,,response,,,99,,,,,,Space,keypress(Space),,,,,---- -- ----- -- having - ------- --- ----------<br>------------- ------ ------ ---- ---- ------- ----- -- ----<br>-------- ------- -- ---------- --- - --- ----- ----- ----<br>---- --- --- ----- --- ---- ---- ------- ----- ---- -------<br>--- --- -- ----- -- --- ---- -- --- ---- -- ------ ------<br>--- ----- -- ----,39614.5,39613.700000000186,39076.862,39079,39093.527,39626.823,,4,having
screen,html.Screen,0_2_0_1_5,2021-11-26T10:42:47.616Z,,,,,,,,,,,,,,,,53,,,,,,,,,,,,,,386.7770000005621,,response,,,99,,,,,,Space,keypress(Space),,,,,---- -- ----- -- ------ a ------- --- ----------<br>------------- ------ ------ ---- ---- ------- ----- -- ----<br>-------- ------- -- ---------- --- - --- ----- ----- ----<br>---- --- --- ----- --- ---- ---- ------- ----- ---- -------<br>--- --- -- ----- -- --- ---- -- --- ---- -- ------ ------<br>--- ----- -- ----,40014.300000000745,40013.60000000056,39610.158,39614.700000000186,39626.823,40026.807,,5,a
screen,html.Screen,0_2_0_1_6,2021-11-26T10:42:47.960Z,,,,,,,,,,,,,,,,53,,,,,,,,,,,,,,330.89300000018557,,response,,,99,,,,,,Space,keypress(Space),,,,,---- -- ----- -- ------ - lasting --- ----------<br>------------- ------ ------ ---- ---- ------- ----- -- ----<br>-------- ------- -- ---------- --- - --- ----- ----- ----<br>---- --- --- ----- --- ---- ---- ------- ----- ---- -------<br>--- --- -- ----- -- --- ---- -- --- ---- -- ------ ------<br>--- ----- -- ----,40358.300000000745,40357.700000000186,40010.142,40014.60000000056,40026.807,40360.07,,6,lasting
screen,html.Screen,0_2_0_1_7,2021-11-26T10:42:49.136Z,,,,,,,,,,,,,,,,53,,,,,,,,,,,,,,1173.530000000559,,response,,,99,,,,,,Space,keypress(Space),,,,,---- -- ----- -- ------ - ------- and ----------<br>------------- ------ ------ ---- ---- ------- ----- -- ----<br>-------- ------- -- ---------- --- - --- ----- ----- ----<br>---- --- --- ----- --- ---- ---- ------- ----- ---- -------<br>--- --- -- ----- -- --- ---- -- --- ---- -- ------ ------<br>--- ----- -- ----,41534.40000000037,41533.60000000056,40343.406,40358.60000000056,40360.07,41543.337,,7,and
screen,html.Screen,0_2_0_1_8,2021-11-26T10:42:50.097Z,,,,,,,,,,,,,,,,53,,,,,,,,,,,,,,950.2630000005593,,response,,,99,,,,,,Space,keypress(Space),,,,,---- -- ----- -- ------ - ------- --- fulfilling<br>------------- ------ ------ ---- ---- ------- ----- -- ----<br>-------- ------- -- ---------- --- - --- ----- ----- ----<br>---- --- --- ----- --- ---- ---- ------- ----- ---- -------<br>--- --- -- ----- -- --- ---- -- --- ---- -- ------ ------<br>--- ----- -- ----,42494.5,42493.60000000056,41526.672,41534.60000000056,41543.337,42510.075,,8,fulfilling
screen,html.Screen,0_2_0_1_9,2021-11-26T10:42:50.728Z,,,,,,,,,,,,,,,,53,,,,,,,,,,,,,,615.4250000000029,,response,,,99,,,,,,Space,keypress(Space),,,,,"---- -- ----- -- ------ - ------- --- ----------<br>relationship, ------ ------ ---- ---- ------- ----- -- ----<br>-------- ------- -- ---------- --- - --- ----- ----- ----<br>---- --- --- ----- --- ---- ---- ------- ----- ---- -------<br>--- --- -- ----- -- --- ---- -- --- ---- -- ------ ------<br>--- ----- -- ----",43126.300000000745,43125.5,42493.409,42494.700000000186,42510.075,43143.295,,9,"relationship,"
screen,html.Screen,0_2_0_1_10,2021-11-26T10:42:51.296Z,,,,,,,,,,,,,,,,53,,,,,,,,,,,,,,550.2050000000017,,response,,,99,,,,,,Space,keypress(Space),,,,,---- -- ----- -- ------ - ------- --- ----------<br>------------- common ------ ---- ---- ------- ----- -- ----<br>-------- ------- -- ---------- --- - --- ----- ----- ----<br>---- --- --- ----- --- ---- ---- ------- ----- ---- -------<br>--- --- -- ----- -- --- ---- -- --- ---- -- ------ ------<br>--- ----- -- ----,43694.10000000056,43693.5,43126.63,43126.5,43143.295,43709.957,,10,common
screen,html.Screen,0_2_0_1_11,2021-11-26T10:42:51.880Z,,,,,,,,,,,,,,,,53,,,,,,,,,,,,,,567.5429999999978,,response,,,99,,,,,,Space,keypress(Space),,,,,---- -- ----- -- ------ - ------- --- ----------<br>------------- ------ wisdom ---- ---- ------- ----- -- ----<br>-------- ------- -- ---------- --- - --- ----- ----- ----<br>---- --- --- ----- --- ---- ---- ------- ----- ---- -------<br>--- --- -- ----- -- --- ---- -- --- ---- -- ------ ------<br>--- ----- -- ----,44278.200000000186,44277.5,43693.292,43694.40000000037,43709.957,44293.251,,11,wisdom
screen,html.Screen,0_2_0_1_12,2021-11-26T10:42:52.552Z,,,,,,,,,,,,,,,,53,,,,,,,,,,,,,,656.149000000376,,response,,,99,,,,,,Space,keypress(Space),,,,,---- -- ----- -- ------ - ------- --- ----------<br>------------- ------ ------ says ---- ------- ----- -- ----<br>-------- ------- -- ---------- --- - --- ----- ----- ----<br>---- --- --- ----- --- ---- ---- ------- ----- ---- -------<br>--- --- -- ----- -- --- ---- -- --- ---- -- ------ ------<br>--- ----- -- ----,44950.10000000056,44949.40000000037,44276.586,44278.40000000037,44293.251,44959.878,,12,says
screen,html.Screen,0_2_0_1_13,2021-11-26T10:42:53.064Z,,,,,,,,,,,,,,,,53,,,,,,,,,,,,,,501.52200000037556,,response,,,99,,,,,,Space,keypress(Space),,,,,---- -- ----- -- ------ - ------- --- ----------<br>------------- ------ ------ ---- that ------- ----- -- ----<br>-------- ------- -- ---------- --- - --- ----- ----- ----<br>---- --- --- ----- --- ---- ---- ------- ----- ---- -------<br>--- --- -- ----- -- --- ---- -- --- ---- -- ------ ------<br>--- ----- -- ----,45461.90000000037,45461.40000000037,44943.213,44950.200000000186,44959.878,45476.542,,13,that
screen,html.Screen,0_2_0_1_14,2021-11-26T10:42:53.592Z,,,,,,,,,,,,,,,,53,,,,,,,,,,,,,,512.8580000003712,,response,,,99,,,,,,Space,keypress(Space),,,,,---- -- ----- -- ------ - ------- --- ----------<br>------------- ------ ------ ---- ---- feeling ----- -- ----<br>-------- ------- -- ---------- --- - --- ----- ----- ----<br>---- --- --- ----- --- ---- ---- ------- ----- ---- -------<br>--- --- -- ----- -- --- ---- -- --- ---- -- ------ ------<br>--- ----- -- ----,45989.90000000037,45989.40000000037,45459.877,45462.200000000186,45476.542,45993.169,,14,feeling
screen,html.Screen,0_2_0_1_15,2021-11-26T10:42:54.056Z,,,,,,,,,,,,,,,,53,,,,,,,,,,,,,,460.23100000037084,,response,,,99,,,,,,Space,keypress(Space),,,,,---- -- ----- -- ------ - ------- --- ----------<br>------------- ------ ------ ---- ---- ------- close -- ----<br>-------- ------- -- ---------- --- - --- ----- ----- ----<br>---- --- --- ----- --- ---- ---- ------- ----- ---- -------<br>--- --- -- ----- -- --- ---- -- --- ---- -- ------ ------<br>--- ----- -- ----,46454,46453.40000000037,45976.504,45990.10000000056,45993.169,46459.749,,15,close
screen,html.Screen,0_2_0_1_16,2021-11-26T10:42:54.512Z,,,,,,,,,,,,,,,,53,,,,,,,,,,,,,,449.5510000007416,,response,,,99,,,,,,Space,keypress(Space),,,,,---- -- ----- -- ------ - ------- --- ----------<br>------------- ------ ------ ---- ---- ------- ----- to ----<br>-------- ------- -- ---------- --- - --- ----- ----- ----<br>---- --- --- ----- --- ---- ---- ------- ----- ---- -------<br>--- --- -- ----- -- --- ---- -- --- ---- -- ------ ------<br>--- ----- -- ----,46909.90000000037,46909.300000000745,46443.085,46454.200000000186,46459.749,46926.516,,16,to
screen,html.Screen,0_2_0_1_17,2021-11-26T10:42:55.000Z,,,,,,,,,,,,,,,,53,,,,,,,,,,,,,,470.88400000036927,,response,,,99,,,,,,Space,keypress(Space),,,,,---- -- ----- -- ------ - ------- --- ----------<br>------------- ------ ------ ---- ---- ------- ----- -- your<br>-------- ------- -- ---------- --- - --- ----- ----- ----<br>---- --- --- ----- --- ---- ---- ------- ----- ---- -------<br>--- --- -- ----- -- --- ---- -- --- ---- -- ------ ------<br>--- ----- -- ----,47398,47397.40000000037,46909.85,46910,46926.516,47409.771,,17,your
screen,html.Screen,0_2_0_1_18,2021-11-26T10:42:55.584Z,,,,,,,,,,,,,,,,53,,,,,,,,,,,,,,571.5290000007444,,response,,,99,,,,,,Space,keypress(Space),,,,,---- -- ----- -- ------ - ------- --- ----------<br>------------- ------ ------ ---- ---- ------- ----- -- ----<br>romantic ------- -- ---------- --- - --- ----- ----- ----<br>---- --- --- ----- --- ---- ---- ------- ----- ---- -------<br>--- --- -- ----- -- --- ---- -- --- ---- -- ------ ------<br>--- ----- -- ----,47981.800000000745,47981.300000000745,47393.106,47398.300000000745,47409.771,47993.087,,18,romantic
screen,html.Screen,0_2_0_1_19,2021-11-26T10:42:56.064Z,,,,,,,,,,,,,,,,53,,,,,,,,,,,,,,468.2130000007455,,response,,,99,,,,,,Space,keypress(Space),,,,,---- -- ----- -- ------ - ------- --- ----------<br>------------- ------ ------ ---- ---- ------- ----- -- ----<br>-------- partner -- ---------- --- - --- ----- ----- ----<br>---- --- --- ----- --- ---- ---- ------- ----- ---- -------<br>--- --- -- ----- -- --- ---- -- --- ---- -- ------ ------<br>--- ----- -- ----,48461.800000000745,48461.300000000745,47976.422,47982,47993.087,48476.384,,19,partner
screen,html.Screen,0_2_0_1_20,2021-11-26T10:42:56.448Z,,,,,,,,,,,,,,,,53,,,,,,,,,,,,,,368.91600000074686,,response,,,99,,,,,,Space,keypress(Space),,,,,---- -- ----- -- ------ - ------- --- ----------<br>------------- ------ ------ ---- ---- ------- ----- -- ----<br>-------- ------- is ---------- --- - --- ----- ----- ----<br>---- --- --- ----- --- ---- ---- ------- ----- ---- -------<br>--- --- -- ----- -- --- ---- -- --- ---- -- ------ ------<br>--- ----- -- ----,48845.800000000745,48845.300000000745,48459.719,48462.10000000056,48476.384,48859.718,,20,is
screen,html.Screen,0_2_0_1_21,2021-11-26T10:42:57.360Z,,,,,,,,,,,,,,,,53,,,,,,,,,,,,,,897.4820000001855,,response,,,99,,,,,,Space,keypress(Space),,,,,---- -- ----- -- ------ - ------- --- ----------<br>------------- ------ ------ ---- ---- ------- ----- -- ----<br>-------- ------- -- paramount. --- - --- ----- ----- ----<br>---- --- --- ----- --- ---- ---- ------- ----- ---- -------<br>--- --- -- ----- -- --- ---- -- --- ---- -- ------ ------<br>--- ----- -- ----,49757.90000000037,49757.200000000186,48843.053,48846.10000000056,48859.718,49759.651,,21,paramount.
screen,html.Screen,0_2_0_1_22,2021-11-26T10:42:57.744Z,,,,,,,,,,,,,,,,53,,,,,,,,,,,,,,381.54900000018824,,response,,,99,,,,,,Space,keypress(Space),,,,,---- -- ----- -- ------ - ------- --- ----------<br>------------- ------ ------ ---- ---- ------- ----- -- ----<br>-------- ------- -- ---------- But - --- ----- ----- ----<br>---- --- --- ----- --- ---- ---- ------- ----- ---- -------<br>--- --- -- ----- -- --- ---- -- --- ---- -- ------ ------<br>--- ----- -- ----,50141.800000000745,50141.200000000186,49742.986,49758.200000000186,49759.651,50142.951,,22,But
screen,html.Screen,0_2_0_1_23,2021-11-26T10:42:58.160Z,,,,,,,,,,,,,,,,53,,,,,,,,,,,,,,414.14900000055786,,response,,,99,,,,,,Space,keypress(Space),,,,,---- -- ----- -- ------ - ------- --- ----------<br>------------- ------ ------ ---- ---- ------- ----- -- ----<br>-------- ------- -- ---------- --- a --- ----- ----- ----<br>---- --- --- ----- --- ---- ---- ------- ----- ---- -------<br>--- --- -- ----- -- --- ---- -- --- ---- -- ------ ------<br>--- ----- -- ----,50557.800000000745,50557.10000000056,50126.286,50142,50142.951,50559.597,,23,a
screen,html.Screen,0_2_0_1_24,2021-11-26T10:42:58.624Z,,,,,,,,,,,,,,,,53,,,,,,,,,,,,,,461.5030000005572,,response,,,99,,,,,,Space,keypress(Space),,,,,---- -- ----- -- ------ - ------- --- ----------<br>------------- ------ ------ ---- ---- ------- ----- -- ----<br>-------- ------- -- ---------- --- - new ----- ----- ----<br>---- --- --- ----- --- ---- ---- ------- ----- ---- -------<br>--- --- -- ----- -- --- ---- -- --- ---- -- ------ ------<br>--- ----- -- ----,51021.700000000186,51021.10000000056,50542.932,50557.90000000037,50559.597,51026.245,,24,new
screen,html.Screen,0_2_0_1_25,2021-11-26T10:42:59.440Z,,,,,,,,,,,,,,,,53,,,,,,,,,,,,,,810.8550000005562,,response,,,99,,,,,,Space,keypress(Space),,,,,---- -- ----- -- ------ - ------- --- ----------<br>------------- ------ ------ ---- ---- ------- ----- -- ----<br>-------- ------- -- ---------- --- - --- study ----- ----<br>---- --- --- ----- --- ---- ---- ------- ----- ---- -------<br>--- --- -- ----- -- --- ---- -- --- ---- -- ------ ------<br>--- ----- -- ----,51837.700000000186,51837.10000000056,51009.58,51021.90000000037,51026.245,51842.752,,25,study
screen,html.Screen,0_2_0_1_26,2021-11-26T10:42:59.960Z,,,,,,,,,,,,,,,,53,,,,,,,,,,,,,,514.3480000005584,,response,,,99,,,,,,Space,keypress(Space),,,,,---- -- ----- -- ------ - ------- --- ----------<br>------------- ------ ------ ---- ---- ------- ----- -- ----<br>-------- ------- -- ---------- --- - --- ----- finds ----<br>---- --- --- ----- --- ---- ---- ------- ----- ---- -------<br>--- --- -- ----- -- --- ---- -- --- ---- -- ------ ------<br>--- ----- -- ----,52357.60000000056,52357.10000000056,51826.088,51837.90000000037,51842.752,52359.645,,26,finds
screen,html.Screen,0_2_0_1_27,2021-11-26T10:43:00.608Z,,,,,,,,,,,,,,,,53,,,,,,,,,,,,,,645.455000000562,,response,,,99,,,,,,Space,keypress(Space),,,,,---- -- ----- -- ------ - ------- --- ----------<br>------------- ------ ------ ---- ---- ------- ----- -- ----<br>-------- ------- -- ---------- --- - --- ----- ----- that<br>---- --- --- ----- --- ---- ---- ------- ----- ---- -------<br>--- --- -- ----- -- --- ---- -- --- ---- -- ------ ------<br>--- ----- -- ----,53005.700000000186,53005.10000000056,52342.978,52357.800000000745,52359.645,53009.486,,27,that
screen,html.Screen,0_2_0_1_28,2021-11-26T10:43:01.528Z,,,,,,,,,,,,,,,,53,,,,,,,,,,,,,,915.7140000001891,,response,,,99,,,,,,Space,keypress(Space),,,,,---- -- ----- -- ------ - ------- --- ----------<br>------------- ------ ------ ---- ---- ------- ----- -- ----<br>-------- ------- -- ---------- --- - --- ----- ----- ----<br>it's --- --- ----- --- ---- ---- ------- ----- ---- -------<br>--- --- -- ----- -- --- ---- -- --- ---- -- ------ ------<br>--- ----- -- ----,53925.700000000186,53925.200000000186,52992.821,53005.800000000745,53009.486,53942.849,,28,it's
screen,html.Screen,0_2_0_1_29,2021-11-26T10:43:01.888Z,,,,,,,,,,,,,,,,53,,,,,,,,,,,,,,342.05100000037055,,response,,,99,,,,,,Space,keypress(Space),,,,,---- -- ----- -- ------ - ------- --- ----------<br>------------- ------ ------ ---- ---- ------- ----- -- ----<br>-------- ------- -- ---------- --- - --- ----- ----- ----<br>---- not --- ----- --- ---- ---- ------- ----- ---- -------<br>--- --- -- ----- -- --- ---- -- --- ---- -- ------ ------<br>--- ----- -- ----,54285.700000000186,54284.90000000037,53926.183,53926,53942.849,54292.797,,29,not
screen,html.Screen,0_2_0_1_30,2021-11-26T10:43:02.312Z,,,,,,,,,,,,,,,,53,,,,,,,,,,,,,,416.10300000037387,,response,,,99,,,,,,Space,keypress(Space),,,,,---- -- ----- -- ------ - ------- --- ----------<br>------------- ------ ------ ---- ---- ------- ----- -- ----<br>-------- ------- -- ---------- --- - --- ----- ----- ----<br>---- --- how ----- --- ---- ---- ------- ----- ---- -------<br>--- --- -- ----- -- --- ---- -- --- ---- -- ------ ------<br>--- ----- -- ----,54709.5,54708.90000000037,54276.132,54285.90000000037,54292.797,54726.019,,30,how
screen,html.Screen,0_2_0_1_31,2021-11-26T10:43:02.728Z,,,,,,,,,,,,,,,,53,,,,,,,,,,,,,,398.8810000003723,,response,,,99,,,,,,Space,keypress(Space),,,,,---- -- ----- -- ------ - ------- --- ----------<br>------------- ------ ------ ---- ---- ------- ----- -- ----<br>-------- ------- -- ---------- --- - --- ----- ----- ----<br>---- --- --- close --- ---- ---- ------- ----- ---- -------<br>--- --- -- ----- -- --- ---- -- --- ---- -- ------ ------<br>--- ----- -- ----,55125.5,55124.90000000037,54709.355,54709.700000000186,54726.019,55142.717,,31,close
screen,html.Screen,0_2_0_1_32,2021-11-26T10:43:03.360Z,,,,,,,,,,,,,,,,53,,,,,,,,,,,,,,614.1830000003756,,response,,,99,,,,,,Space,keypress(Space),,,,,---- -- ----- -- ------ - ------- --- ----------<br>------------- ------ ------ ---- ---- ------- ----- -- ----<br>-------- ------- -- ---------- --- - --- ----- ----- ----<br>---- --- --- ----- you ---- ---- ------- ----- ---- -------<br>--- --- -- ----- -- --- ---- -- --- ---- -- ------ ------<br>--- ----- -- ----,55757.5,55756.90000000037,55126.052,55125.700000000186,55142.717,55759.404,,32,you
screen,html.Screen,0_2_0_1_33,2021-11-26T10:43:03.880Z,,,,,,,,,,,,,,,,53,,,,,,,,,,,,,,517.4960000003703,,response,,,99,,,,,,Space,keypress(Space),,,,,---- -- ----- -- ------ - ------- --- ----------<br>------------- ------ ------ ---- ---- ------- ----- -- ----<br>-------- ------- -- ---------- --- - --- ----- ----- ----<br>---- --- --- ----- --- feel ---- ------- ----- ---- -------<br>--- --- -- ----- -- --- ---- -- --- ---- -- ------ ------<br>--- ----- -- ----,56277.5,56276.90000000037,55742.738,55757.60000000056,55759.404,56292.586,,33,feel
screen,html.Screen,0_2_0_1_34,2021-11-26T10:43:04.367Z,,,,,,,,,,,,,,,,53,,,,,,,,,,,,,,472.2140000007421,,response,,,99,,,,,,Space,keypress(Space),,,,,---- -- ----- -- ------ - ------- --- ----------<br>------------- ------ ------ ---- ---- ------- ----- -- ----<br>-------- ------- -- ---------- --- - --- ----- ----- ----<br>---- --- --- ----- --- ---- that ------- ----- ---- -------<br>--- --- -- ----- -- --- ---- -- --- ---- -- ------ ------<br>--- ----- -- ----,56765.5,56764.800000000745,56275.922,56277.700000000186,56292.586,56775.971,,34,that
screen,html.Screen,0_2_0_1_35,2021-11-26T10:43:05.000Z,,,,,,,,,,,,,,,,53,,,,,,,,,,,,,,620.8290000007473,,response,,,99,,,,,,Space,keypress(Space),,,,,---- -- ----- -- ------ - ------- --- ----------<br>------------- ------ ------ ---- ---- ------- ----- -- ----<br>-------- ------- -- ---------- --- - --- ----- ----- ----<br>---- --- --- ----- --- ---- ---- matters ----- ---- -------<br>--- --- -- ----- -- --- ---- -- --- ---- -- ------ ------<br>--- ----- -- ----,57397.5,57396.800000000745,56759.306,56765.60000000056,56775.971,57409.158,,35,matters
screen,html.Screen,0_2_0_1_36,2021-11-26T10:43:05.432Z,,,,,,,,,,,,,,,,53,,,,,,,,,,,,,,419.8419999999969,,response,,,99,,,,,,Space,keypress(Space),,,,,"---- -- ----- -- ------ - ------- --- ----------<br>------------- ------ ------ ---- ---- ------- ----- -- ----<br>-------- ------- -- ---------- --- - --- ----- ----- ----<br>---- --- --- ----- --- ---- ---- ------- most, ---- -------<br>--- --- -- ----- -- --- ---- -- --- ---- -- ------ ------<br>--- ----- -- ----",57829.700000000186,57829,57392.494,57397.700000000186,57409.158,57842.627,,36,"most,"
screen,html.Screen,0_2_0_1_37,2021-11-26T10:43:06.151Z,,,,,,,,,,,,,,,,53,,,,,,,,,,,,,,706.1730000007447,,response,,,99,,,,,,Space,keypress(Space),,,,,---- -- ----- -- ------ - ------- --- ----------<br>------------- ------ ------ ---- ---- ------- ----- -- ----<br>-------- ------- -- ---------- --- - --- ----- ----- ----<br>---- --- --- ----- --- ---- ---- ------- ----- it's -------<br>--- --- -- ----- -- --- ---- -- --- ---- -- ------ ------<br>--- ----- -- ----,58549.300000000745,58548.800000000745,57825.961,57830,57842.627,58559.269,,37,it's
screen,html.Screen,0_2_0_1_38,2021-11-26T10:43:06.783Z,,,,,,,,,,,,,,,,53,,,,,,,,,,,,,,621.431000000186,,response,,,99,,,,,,Space,keypress(Space),,,,,---- -- ----- -- ------ - ------- --- ----------<br>------------- ------ ------ ---- ---- ------- ----- -- ----<br>-------- ------- -- ---------- --- - --- ----- ----- ----<br>---- --- --- ----- --- ---- ---- ------- ----- ---- whether<br>--- --- -- ----- -- --- ---- -- --- ---- -- ------ ------<br>--- ----- -- ----,59181.300000000745,59180.700000000186,58542.603,58549.5,58559.269,59192.434,,38,whether
screen,html.Screen,0_2_0_1_39,2021-11-26T10:43:07.191Z,,,,,,,,,,,,,,,,53,,,,,,,,,,,,,,396.26600000018516,,response,,,99,,,,,,Space,keypress(Space),,,,,---- -- ----- -- ------ - ------- --- ----------<br>------------- ------ ------ ---- ---- ------- ----- -- ----<br>-------- ------- -- ---------- --- - --- ----- ----- ----<br>---- --- --- ----- --- ---- ---- ------- ----- ---- -------<br>you --- -- ----- -- --- ---- -- --- ---- -- ------ ------<br>--- ----- -- ----,59589.300000000745,59588.700000000186,59175.77,59181.5,59192.434,59592.553,,39,you
screen,html.Screen,0_2_0_1_40,2021-11-26T10:43:07.543Z,,,,,,,,,,,,,,,,53,,,,,,,,,,,,,,348.1470000001864,,response,,,99,,,,,,Space,keypress(Space),,,,,---- -- ----- -- ------ - ------- --- ----------<br>------------- ------ ------ ---- ---- ------- ----- -- ----<br>-------- ------- -- ---------- --- - --- ----- ----- ----<br>---- --- --- ----- --- ---- ---- ------- ----- ---- -------<br>--- are -- ----- -- --- ---- -- --- ---- -- ------ ------<br>--- ----- -- ----,59941.200000000186,59940.700000000186,59575.887,59589.40000000037,59592.553,59942.498,,40,are
screen,html.Screen,0_2_0_1_41,2021-11-26T10:43:07.866Z,,,,,,,,,,,,,,,,53,,,,,,,,,,,,,,318.2020000001867,,response,,,99,,,,,,Space,keypress(Space),,,,,---- -- ----- -- ------ - ------- --- ----------<br>------------- ------ ------ ---- ---- ------- ----- -- ----<br>-------- ------- -- ---------- --- - --- ----- ----- ----<br>---- --- --- ----- --- ---- ---- ------- ----- ---- -------<br>--- --- as ----- -- --- ---- -- --- ---- -- ------ ------<br>--- ----- -- ----,60261.300000000745,60260.700000000186,59925.833,59941.40000000037,59942.498,60275.816,,41,as
screen,html.Screen,0_2_0_1_42,2021-11-26T10:43:08.322Z,,,,,,,,,,,,,,,,53,,,,,,,,,,,,,,440.7840000005599,,response,,,99,,,,,,Space,keypress(Space),,,,,---- -- ----- -- ------ - ------- --- ----------<br>------------- ------ ------ ---- ---- ------- ----- -- ----<br>-------- ------- -- ---------- --- - --- ----- ----- ----<br>---- --- --- ----- --- ---- ---- ------- ----- ---- -------<br>--- --- -- close -- --- ---- -- --- ---- -- ------ ------<br>--- ----- -- ----,60717.300000000745,60716.60000000056,60259.151,60261.40000000037,60275.816,60725.724,,42,close
screen,html.Screen,0_2_0_1_43,2021-11-26T10:43:08.666Z,,,,,,,,,,,,,,,,53,,,,,,,,,,,,,,334.8760000005568,,response,,,99,,,,,,Space,keypress(Space),,,,,---- -- ----- -- ------ - ------- --- ----------<br>------------- ------ ------ ---- ---- ------- ----- -- ----<br>-------- ------- -- ---------- --- - --- ----- ----- ----<br>---- --- --- ----- --- ---- ---- ------- ----- ---- -------<br>--- --- -- ----- as --- ---- -- --- ---- -- ------ ------<br>--- ----- -- ----,61061.40000000037,61060.60000000056,60709.06,60717.5,60725.724,61075.754,,43,as
screen,html.Screen,0_2_0_1_44,2021-11-26T10:43:09.050Z,,,,,,,,,,,,,,,,53,,,,,,,,,,,,,,368.94600000018545,,response,,,99,,,,,,Space,keypress(Space),,,,,---- -- ----- -- ------ - ------- --- ----------<br>------------- ------ ------ ---- ---- ------- ----- -- ----<br>-------- ------- -- ---------- --- - --- ----- ----- ----<br>---- --- --- ----- --- ---- ---- ------- ----- ---- -------<br>--- --- -- ----- -- you ---- -- --- ---- -- ------ ------<br>--- ----- -- ----,61445.200000000186,61444.700000000186,61059.089,61061.5,61075.754,61459.066,,44,you
screen,html.Screen,0_2_0_1_45,2021-11-26T10:43:09.394Z,,,,,,,,,,,,,,,,53,,,,,,,,,,,,,,329.5340000005599,,response,,,99,,,,,,Space,keypress(Space),,,,,---- -- ----- -- ------ - ------- --- ----------<br>------------- ------ ------ ---- ---- ------- ----- -- ----<br>-------- ------- -- ---------- --- - --- ----- ----- ----<br>---- --- --- ----- --- ---- ---- ------- ----- ---- -------<br>--- --- -- ----- -- --- want -- --- ---- -- ------ ------<br>--- ----- -- ----,61789.10000000056,61788.60000000056,61442.401,61445.5,61459.066,61792.381,,45,want
screen,html.Screen,0_2_0_1_46,2021-11-26T10:43:09.706Z,,,,,,,,,,,,,,,,53,,,,,,,,,,,,,,308.1189999999988,,response,,,99,,,,,,Space,keypress(Space),,,,,---- -- ----- -- ------ - ------- --- ----------<br>------------- ------ ------ ---- ---- ------- ----- -- ----<br>-------- ------- -- ---------- --- - --- ----- ----- ----<br>---- --- --- ----- --- ---- ---- ------- ----- ---- -------<br>--- --- -- ----- -- --- ---- to --- ---- -- ------ ------<br>--- ----- -- ----,62101.200000000186,62100.5,61775.716,61789.300000000745,61792.381,62109.099,,46,to
screen,html.Screen,0_2_0_1_47,2021-11-26T10:43:10.050Z,,,,,,,,,,,,,,,,53,,,,,,,,,,,,,,335.400999999998,,response,,,99,,,,,,Space,keypress(Space),,,,,"---- -- ----- -- ------ - ------- --- ----------<br>------------- ------ ------ ---- ---- ------- ----- -- ----<br>-------- ------- -- ---------- --- - --- ----- ----- ----<br>---- --- --- ----- --- ---- ---- ------- ----- ---- -------<br>--- --- -- ----- -- --- ---- -- be, ---- -- ------ ------<br>--- ----- -- ----",62445.10000000056,62444.5,62092.433,62101.300000000745,62109.099,62459.047,,47,"be,"
screen,html.Screen,0_2_0_1_48,2021-11-26T10:43:11.234Z,,,,,,,,,,,,,,,,53,,,,,,,,,,,,,,1169.4530000000013,,response,,,99,,,,,,Space,keypress(Space),,,,,---- -- ----- -- ------ - ------- --- ----------<br>------------- ------ ------ ---- ---- ------- ----- -- ----<br>-------- ------- -- ---------- --- - --- ----- ----- ----<br>---- --- --- ----- --- ---- ---- ------- ----- ---- -------<br>--- --- -- ----- -- --- ---- -- --- even -- ------ ------<br>--- ----- -- ----,63629.200000000186,63628.5,62442.382,62445.300000000745,62459.047,63642.268,,48,even
screen,html.Screen,0_2_0_1_49,2021-11-26T10:43:11.682Z,,,,,,,,,,,,,,,,53,,,,,,,,,,,,,,434.2320000000036,,response,,,99,,,,,,Space,keypress(Space),,,,,---- -- ----- -- ------ - ------- --- ----------<br>------------- ------ ------ ---- ---- ------- ----- -- ----<br>-------- ------- -- ---------- --- - --- ----- ----- ----<br>---- --- --- ----- --- ---- ---- ------- ----- ---- -------<br>--- --- -- ----- -- --- ---- -- --- ---- if ------ ------<br>--- ----- -- ----,64077.10000000056,64076.5,63625.603,63629.300000000745,63642.268,64092.295,,49,if
screen,html.Screen,0_2_0_1_50,2021-11-26T10:43:12.202Z,,,,,,,,,,,,,,,,53,,,,,,,,,,,,,,504.20500000000175,,response,,,99,,,,,,Space,keypress(Space),,,,,---- -- ----- -- ------ - ------- --- ----------<br>------------- ------ ------ ---- ---- ------- ----- -- ----<br>-------- ------- -- ---------- --- - --- ----- ----- ----<br>---- --- --- ----- --- ---- ---- ------- ----- ---- -------<br>--- --- -- ----- -- --- ---- -- --- ---- -- that's ------<br>--- ----- -- ----,64597.10000000056,64596.5,64075.63,64077.40000000037,64092.295,64608.884,,50,that's
screen,html.Screen,0_2_0_1_51,2021-11-26T10:43:12.738Z,,,,,,,,,,,,,,,,53,,,,,,,,,,,,,,523.6160000000018,,response,,,99,,,,,,Space,keypress(Space),,,,,---- -- ----- -- ------ - ------- --- ----------<br>------------- ------ ------ ---- ---- ------- ----- -- ----<br>-------- ------- -- ---------- --- - --- ----- ----- ----<br>---- --- --- ----- --- ---- ---- ------- ----- ---- -------<br>--- --- -- ----- -- --- ---- -- --- ---- -- ------ really<br>--- ----- -- ----,65133.200000000186,65132.5,64592.219,64597.300000000745,64608.884,65142.339,,51,really
screen,html.Screen,0_2_0_1_52,2021-11-26T10:43:13.170Z,,,,,,,,,,,,,,,,53,,,,,,,,,,,,,,422.0610000003726,,response,,,99,,,,,,Space,keypress(Space),,,,,---- -- ----- -- ------ - ------- --- ----------<br>------------- ------ ------ ---- ---- ------- ----- -- ----<br>-------- ------- -- ---------- --- - --- ----- ----- ----<br>---- --- --- ----- --- ---- ---- ------- ----- ---- -------<br>--- --- -- ----- -- --- ---- -- --- ---- -- ------ ------<br>not ----- -- ----,65565,65564.40000000037,65125.672,65133.40000000037,65142.339,65575.543,,52,not
screen,html.Screen,0_2_0_1_53,2021-11-26T10:43:13.554Z,,,,,,,,,,,,,,,,53,,,,,,,,,,,,,,372.8570000003674,,response,,,99,,,,,,Space,keypress(Space),,,,,---- -- ----- -- ------ - ------- --- ----------<br>------------- ------ ------ ---- ---- ------- ----- -- ----<br>-------- ------- -- ---------- --- - --- ----- ----- ----<br>---- --- --- ----- --- ---- ---- ------- ----- ---- -------<br>--- --- -- ----- -- --- ---- -- --- ---- -- ------ ------<br>--- close -- ----,65949,65948.40000000037,65558.878,65565.20000000019,65575.543,65958.911,,53,close
screen,html.Screen,0_2_0_1_54,2021-11-26T10:43:13.946Z,,,,,,,,,,,,,,,,53,,,,,,,,,,,,,,381.5890000000072,,response,,,99,,,,,,Space,keypress(Space),,,,,---- -- ----- -- ------ - ------- --- ----------<br>------------- ------ ------ ---- ---- ------- ----- -- ----<br>-------- ------- -- ---------- --- - --- ----- ----- ----<br>---- --- --- ----- --- ---- ---- ------- ----- ---- -------<br>--- --- -- ----- -- --- ---- -- --- ---- -- ------ ------<br>--- ----- at ----,66341,66340.5,65942.245,65949.20000000019,65958.911,66342.187,,54,at
screen,html.Screen,0_2_0_1_55,2021-11-26T10:43:14.298Z,,,,,,,,,,,,,,,,53,,,,,,,,,,,,,,350.1130000007397,,response,,,99,,,,,,Space,keypress(Space),,,,,---- -- ----- -- ------ - ------- --- ----------<br>------------- ------ ------ ---- ---- ------- ----- -- ----<br>-------- ------- -- ---------- --- - --- ----- ----- ----<br>---- --- --- ----- --- ---- ---- ------- ----- ---- -------<br>--- --- -- ----- -- --- ---- -- --- ---- -- ------ ------<br>--- ----- -- all.,66692.90000000037,66692.30000000075,66325.522,66341.30000000075,66342.187,66708.753,,55,all.
Item 99,flow.Loop,0_2_0_1,2021-11-26T10:43:14.301Z,,,,,,,,,,,,,,,,,,,,,,,,,,,,,,30415.348000000748,,completion,,,,E,,,,,,,,,,silence,,66696.20000000019,66692.30000000075,36260.287,36264.10000000056,36276.952,66708.753,,,
Question 1,html.Screen,0_2_0_2,2021-11-26T10:43:23.539Z,,,,,,,,,,,,,,,,,,,,,,,,,,,false,FALSE,,9224.247000000003,,response,,,99,E,,,,,TRUE,click #choice-1,,,,silence,,75933.90000000037,75933,66692.089,66696.40000000037,66708.753,75941.614,,,
Question 2,html.Screen,0_2_0_3,2021-11-26T10:43:27.780Z,,,,,,,,,,,,,,,,,,,,,,,,,,,true,TRUE,,4232.986000000557,,response,,,99,E,,,,,TRUE,click #choice-1,,,,silence,,80175.5,80174.60000000056,75924.95,75934.10000000056,75941.614,80191.458,,,
Item 99,flow.Sequence,0_2_0,2021-11-26T10:43:27.781Z,,,,,,,,,,,,,,,,,,,,,,,,,,,,,,53902.91000000056,,completion,,,,,,,,,,,,,,,,80175.80000000075,80174.60000000056,26255.032,26272.200000000186,26271.69,80191.458,,,
Holding screen,html.Screen,0_2_1_0,2021-11-26T10:43:37.780Z,,,,,,,,,,,,,,,,,,,,,,,,,,,,,,9999.436000000002,,timeout,,,,,,,,,,,,,,,,90175,90174.229,80174.793,80176,80191.458,90190.894,,,
screen,html.Screen,0_2_1_1_0,2021-11-26T10:43:38.945Z,,,,,,,,,,,,,,,,54,,,,,,,,,,,,,,1148.6059999999998,,response,,,100,,,,,,Space,keypress(Space),,,,,At --- ---- --- ------ ----- ------- ---- -- --- ------- --<br>------- ---------- ------ -- ----- -- ----- -- ---- ------<br>--- ----- --- --- ------ -------- ----- --- ------ ----- --<br>----- ----- ---------- --- --- ------ ------ ---- -- ------<br>------- --- ------ ----- --- ---- ------- -- ---- --- --<br>------- ------,91340.20000000019,91339.5,90174.229,90175.30000000075,90190.894,91340.981,,0,At
screen,html.Screen,0_2_1_1_1,2021-11-26T10:43:39.577Z,,,,,,,,,,,,,,,,54,,,,,,,,,,,,,,630.119000000559,,response,,,100,,,,,,Space,keypress(Space),,,,,-- the ---- --- ------ ----- ------- ---- -- --- ------- --<br>------- ---------- ------ -- ----- -- ----- -- ---- ------<br>--- ----- --- --- ------ -------- ----- --- ------ ----- --<br>----- ----- ---------- --- --- ------ ------ ---- -- ------<br>------- --- ------ ----- --- ---- ------- -- ---- --- --<br>------- ------,91971.60000000056,91971.10000000056,91324.315,91340.30000000075,91340.981,91974.309,,1,the
screen,html.Screen,0_2_1_1_2,2021-11-26T10:43:39.969Z,,,,,,,,,,,,,,,,54,,,,,,,,,,,,,,388.79100000056496,,response,,,100,,,,,,Space,keypress(Space),,,,,-- --- time --- ------ ----- ------- ---- -- --- ------- --<br>------- ---------- ------ -- ----- -- ----- -- ---- ------<br>--- ----- --- --- ------ -------- ----- --- ------ ----- --<br>----- ----- ---------- --- --- ------ ------ ---- -- ------<br>------- --- ------ ----- --- ---- ------- -- ---- --- --<br>------- ------,92363.70000000019,92363.10000000056,91957.643,91971.80000000075,91974.309,92374.224,,2,time
screen,html.Screen,0_2_1_1_3,2021-11-26T10:43:40.465Z,,,,,,,,,,,,,,,,54,,,,,,,,,,,,,,484.8760000005568,,response,,,100,,,,,,Space,keypress(Space),,,,,-- --- ---- the ------ ----- ------- ---- -- --- ------- --<br>------- ---------- ------ -- ----- -- ----- -- ---- ------<br>--- ----- --- --- ------ -------- ----- --- ------ ----- --<br>----- ----- ---------- --- --- ------ ------ ---- -- ------<br>------- --- ------ ----- --- ---- ------- -- ---- --- --<br>------- ------,92859.60000000056,92859.10000000056,92357.559,92363.90000000037,92374.224,92874.131,,3,the
screen,html.Screen,0_2_1_1_4,2021-11-26T10:43:40.913Z,,,,,,,,,,,,,,,,54,,,,,,,,,,,,,,432.86900000000605,,response,,,100,,,,,,Space,keypress(Space),,,,,-- --- ---- --- French ----- ------- ---- -- --- ------- --<br>------- ---------- ------ -- ----- -- ----- -- ---- ------<br>--- ----- --- --- ------ -------- ----- --- ------ ----- --<br>----- ----- ---------- --- --- ------ ------ ---- -- ------<br>------- --- ------ ----- --- ---- ------- -- ---- --- --<br>------- ------,93307.5,93307,92857.467,92859.80000000075,92874.131,93324.089,,4,French
screen,html.Screen,0_2_1_1_5,2021-11-26T10:43:41.513Z,,,,,,,,,,,,,,,,54,,,,,,,,,,,,,,582.9109999999928,,response,,,100,,,,,,Space,keypress(Space),,,,,-- --- ---- --- ------ crown ------- ---- -- --- ------- --<br>------- ---------- ------ -- ----- -- ----- -- ---- ------<br>--- ----- --- --- ------ -------- ----- --- ------ ----- --<br>----- ----- ---------- --- --- ------ ------ ---- -- ------<br>------- --- ------ ----- --- ---- ------- -- ---- --- --<br>------- ------,93907.60000000056,93907,93307.425,93307.80000000075,93324.089,93924.162,,5,crown
screen,html.Screen,0_2_1_1_6,2021-11-26T10:43:42.169Z,,,,,,,,,,,,,,,,54,,,,,,,,,,,,,,638.8380000000034,,response,,,100,,,,,,Space,keypress(Space),,,,,-- --- ---- --- ------ ----- secured ---- -- --- ------- --<br>------- ---------- ------ -- ----- -- ----- -- ---- ------<br>--- ----- --- --- ------ -------- ----- --- ------ ----- --<br>----- ----- ---------- --- --- ------ ------ ---- -- ------<br>------- --- ------ ----- --- ---- ------- -- ---- --- --<br>------- ------,94563.60000000056,94563,93907.496,93907.70000000019,93924.162,94574.171,,6,secured
screen,html.Screen,0_2_1_1_7,2021-11-26T10:43:42.617Z,,,,,,,,,,,,,,,,54,,,,,,,,,,,,,,436.8289999999979,,response,,,100,,,,,,Space,keypress(Space),,,,,-- --- ---- --- ------ ----- ------- much -- --- ------- --<br>------- ---------- ------ -- ----- -- ----- -- ---- ------<br>--- ----- --- --- ------ -------- ----- --- ------ ----- --<br>----- ----- ---------- --- --- ------ ------ ---- -- ------<br>------- --- ------ ----- --- ---- ------- -- ---- --- --<br>------- ------,95011.60000000056,95011,94557.505,94563.80000000075,94574.171,95024.152,,7,much
screen,html.Screen,0_2_1_1_8,2021-11-26T10:43:42.985Z,,,,,,,,,,,,,,,,54,,,,,,,,,,,,,,354.84799999999814,,response,,,100,,,,,,Space,keypress(Space),,,,,-- --- ---- --- ------ ----- ------- ---- of --- ------- --<br>------- ---------- ------ -- ----- -- ----- -- ---- ------<br>--- ----- --- --- ------ -------- ----- --- ------ ----- --<br>----- ----- ---------- --- --- ------ ------ ---- -- ------<br>------- --- ------ ----- --- ---- ------- -- ---- --- --<br>------- ------,95379.5,95379,95007.486,95011.80000000075,95024.152,95390.755,,8,of
screen,html.Screen,0_2_1_1_9,2021-11-26T10:43:43.320Z,,,,,,,,,,,,,,,,54,,,,,,,,,,,,,,324.1450000003679,,response,,,100,,,,,,Space,keypress(Space),,,,,-- --- ---- --- ------ ----- ------- ---- -- its ------- --<br>------- ---------- ------ -- ----- -- ----- -- ---- ------<br>--- ----- --- --- ------ -------- ----- --- ------ ----- --<br>----- ----- ---------- --- --- ------ ------ ---- -- ------<br>------- --- ------ ----- --- ---- ------- -- ---- --- --<br>------- ------,95715.5,95714.90000000037,95374.09,95379.70000000019,95390.755,95724.076,,9,its
screen,html.Screen,0_2_1_1_10,2021-11-26T10:43:43.649Z,,,,,,,,,,,,,,,,54,,,,,,,,,,,,,,318.8240000003716,,response,,,100,,,,,,Space,keypress(Space),,,,,-- --- ---- --- ------ ----- ------- ---- -- --- revenue --<br>------- ---------- ------ -- ----- -- ----- -- ---- ------<br>--- ----- --- --- ------ -------- ----- --- ------ ----- --<br>----- ----- ---------- --- --- ------ ------ ---- -- ------<br>------- --- ------ ----- --- ---- ------- -- ---- --- --<br>------- ------,96043.5,96042.90000000037,95707.411,95715.70000000019,95724.076,96057.382,,10,revenue
screen,html.Screen,0_2_1_1_11,2021-11-26T10:43:44.224Z,,,,,,,,,,,,,,,,54,,,,,,,,,,,,,,561.5180000003747,,response,,,100,,,,,,Space,keypress(Space),,,,,-- --- ---- --- ------ ----- ------- ---- -- --- ------- by<br>------- ---------- ------ -- ----- -- ----- -- ---- ------<br>--- ----- --- --- ------ -------- ----- --- ------ ----- --<br>----- ----- ---------- --- --- ------ ------ ---- -- ------<br>------- --- ------ ----- --- ---- ------- -- ---- --- --<br>------- ------,96619.40000000037,96618.90000000037,96040.717,96043.60000000056,96057.382,96624.024,,11,by
screen,html.Screen,0_2_1_1_12,2021-11-26T10:43:44.705Z,,,,,,,,,,,,,,,,54,,,,,,,,,,,,,,474.87600000036764,,response,,,100,,,,,,Space,keypress(Space),,,,,-- --- ---- --- ------ ----- ------- ---- -- --- ------- --<br>issuing ---------- ------ -- ----- -- ----- -- ---- ------<br>--- ----- --- --- ------ -------- ----- --- ------ ----- --<br>----- ----- ---------- --- --- ------ ------ ---- -- ------<br>------- --- ------ ----- --- ---- ------- -- ---- --- --<br>------- ------,97099.5,97098.90000000037,96607.359,96619.60000000056,96624.024,97107.248,,12,issuing
screen,html.Screen,0_2_1_1_13,2021-11-26T10:43:45.120Z,,,,,,,,,,,,,,,,54,,,,,,,,,,,,,,407.65200000036566,,response,,,100,,,,,,Space,keypress(Space),,,,,-- --- ---- --- ------ ----- ------- ---- -- --- ------- --<br>------- government ------ -- ----- -- ----- -- ---- ------<br>--- ----- --- --- ------ -------- ----- --- ------ ----- --<br>----- ----- ---------- --- --- ------ ------ ---- -- ------<br>------- --- ------ ----- --- ---- ------- -- ---- --- --<br>------- ------,97515.40000000037,97514.90000000037,97090.584,97099.70000000019,97107.248,97524.021,,13,government
screen,html.Screen,0_2_1_1_14,2021-11-26T10:43:45.584Z,,,,,,,,,,,,,,,,54,,,,,,,,,,,,,,454.7790000007517,,response,,,100,,,,,,Space,keypress(Space),,,,,-- --- ---- --- ------ ----- ------- ---- -- --- ------- --<br>------- ---------- bonds. -- ----- -- ----- -- ---- ------<br>--- ----- --- --- ------ -------- ----- --- ------ ----- --<br>----- ----- ---------- --- --- ------ ------ ---- -- ------<br>------- --- ------ ----- --- ---- ------- -- ---- --- --<br>------- ------,97979.40000000037,97978.80000000075,97507.355,97515.5,97524.021,97990.467,,14,bonds.
screen,html.Screen,0_2_1_1_15,2021-11-26T10:43:46.784Z,,,,,,,,,,,,,,,,54,,,,,,,,,,,,,,1188.3330000007409,,response,,,100,,,,,,Space,keypress(Space),,,,,-- --- ---- --- ------ ----- ------- ---- -- --- ------- --<br>------- ---------- ------ In ----- -- ----- -- ---- ------<br>--- ----- --- --- ------ -------- ----- --- ------ ----- --<br>----- ----- ---------- --- --- ------ ------ ---- -- ------<br>------- --- ------ ----- --- ---- ------- -- ---- --- --<br>------- ------,99179.40000000037,99178.80000000075,97973.804,97979.5,97990.467,99190.799,,15,In
screen,html.Screen,0_2_1_1_16,2021-11-26T10:43:47.960Z,,,,,,,,,,,,,,,,54,,,,,,,,,,,,,,1164.001000000746,,response,,,100,,,,,,Space,keypress(Space),,,,,"-- --- ---- --- ------ ----- ------- ---- -- --- ------- --<br>------- ---------- ------ -- 1727, -- ----- -- ---- ------<br>--- ----- --- --- ------ -------- ----- --- ------ ----- --<br>----- ----- ---------- --- --- ------ ------ ---- -- ------<br>------- --- ------ ----- --- ---- ------- -- ---- --- --<br>------- ------",100355.40000000037,100354.80000000075,99174.131,99179.60000000056,99190.799,100357.12,,16,"1727,"
screen,html.Screen,0_2_1_1_17,2021-11-26T10:43:48.488Z,,,,,,,,,,,,,,,,54,,,,,,,,,,,,,,525.5800000001909,,response,,,100,,,,,,Space,keypress(Space),,,,,-- --- ---- --- ------ ----- ------- ---- -- --- ------- --<br>------- ---------- ------ -- ----- in ----- -- ---- ------<br>--- ----- --- --- ------ -------- ----- --- ------ ----- --<br>----- ----- ---------- --- --- ------ ------ ---- -- ------<br>------- --- ------ ----- --- ---- ------- -- ---- --- --<br>------- ------,100883.30000000075,100882.70000000019,100340.455,100355.5,100357.12,100890.46,,17,in
screen,html.Screen,0_2_1_1_18,2021-11-26T10:43:48.968Z,,,,,,,,,,,,,,,,54,,,,,,,,,,,,,,472.4400000003661,,response,,,100,,,,,,Space,keypress(Space),,,,,-- --- ---- --- ------ ----- ------- ---- -- --- ------- --<br>------- ---------- ------ -- ----- -- order -- ---- ------<br>--- ----- --- --- ------ -------- ----- --- ------ ----- --<br>----- ----- ---------- --- --- ------ ------ ---- -- ------<br>------- --- ------ ----- --- ---- ------- -- ---- --- --<br>------- ------,101363.5,101362.90000000037,100873.795,100883.5,100890.46,101373.799,,18,order
screen,html.Screen,0_2_1_1_19,2021-11-26T10:43:49.336Z,,,,,,,,,,,,,,,,54,,,,,,,,,,,,,,356.8010000005597,,response,,,100,,,,,,Space,keypress(Space),,,,,-- --- ---- --- ------ ----- ------- ---- -- --- ------- --<br>------- ---------- ------ -- ----- -- ----- to ---- ------<br>--- ----- --- --- ------ -------- ----- --- ------ ----- --<br>----- ----- ---------- --- --- ------ ------ ---- -- ------<br>------- --- ------ ----- --- ---- ------- -- ---- --- --<br>------- ------,101731.10000000056,101730.60000000056,101357.134,101363.60000000056,101373.799,101740.439,,19,to
screen,html.Screen,0_2_1_1_20,2021-11-26T10:43:49.776Z,,,,,,,,,,,,,,,,54,,,,,,,,,,,,,,430.1610000005603,,response,,,100,,,,,,Space,keypress(Space),,,,,-- --- ---- --- ------ ----- ------- ---- -- --- ------- --<br>------- ---------- ------ -- ----- -- ----- -- save ------<br>--- ----- --- --- ------ -------- ----- --- ------ ----- --<br>----- ----- ---------- --- --- ------ ------ ---- -- ------<br>------- --- ------ ----- --- ---- ------- -- ---- --- --<br>------- ------,102171.20000000019,102170.60000000056,101723.774,101731.30000000075,101740.439,102173.674,,20,save
screen,html.Screen,0_2_1_1_21,2021-11-26T10:43:50.240Z,,,,,,,,,,,,,,,,54,,,,,,,,,,,,,,460.9260000005597,,response,,,100,,,,,,Space,keypress(Space),,,,,"-- --- ---- --- ------ ----- ------- ---- -- --- ------- --<br>------- ---------- ------ -- ----- -- ----- -- ---- money,<br>--- ----- --- --- ------ -------- ----- --- ------ ----- --<br>----- ----- ---------- --- --- ------ ------ ---- -- ------<br>------- --- ------ ----- --- ---- ------- -- ---- --- --<br>------- ------",102635.10000000056,102634.60000000056,102157.01,102171.40000000037,102173.674,102640.44,,21,"money,"
screen,html.Screen,0_2_1_1_22,2021-11-26T10:43:50.696Z,,,,,,,,,,,,,,,,54,,,,,,,,,,,,,,450.16000000055647,,response,,,100,,,,,,Space,keypress(Space),,,,,-- --- ---- --- ------ ----- ------- ---- -- --- ------- --<br>------- ---------- ------ -- ----- -- ----- -- ---- ------<br>the ----- --- --- ------ -------- ----- --- ------ ----- --<br>----- ----- ---------- --- --- ------ ------ ---- -- ------<br>------- --- ------ ----- --- ---- ------- -- ---- --- --<br>------- ------,103091.10000000056,103090.60000000056,102623.774,102635.30000000075,102640.44,103106.965,,22,the
screen,html.Screen,0_2_1_1_23,2021-11-26T10:43:51.200Z,,,,,,,,,,,,,,,,54,,,,,,,,,,,,,,487.6350000005623,,response,,,100,,,,,,Space,keypress(Space),,,,,-- --- ---- --- ------ ----- ------- ---- -- --- ------- --<br>------- ---------- ------ -- ----- -- ----- -- ---- ------<br>--- state --- --- ------ -------- ----- --- ------ ----- --<br>----- ----- ---------- --- --- ------ ------ ---- -- ------<br>------- --- ------ ----- --- ---- ------- -- ---- --- --<br>------- ------,103595.10000000056,103594.60000000056,103090.301,103091.30000000075,103106.965,103606.977,,23,state
screen,html.Screen,0_2_1_1_24,2021-11-26T10:43:51.600Z,,,,,,,,,,,,,,,,54,,,,,,,,,,,,,,387.52300000000105,,response,,,100,,,,,,Space,keypress(Space),,,,,-- --- ---- --- ------ ----- ------- ---- -- --- ------- --<br>------- ---------- ------ -- ----- -- ----- -- ---- ------<br>--- ----- cut --- ------ -------- ----- --- ------ ----- --<br>----- ----- ---------- --- --- ------ ------ ---- -- ------<br>------- --- ------ ----- --- ---- ------- -- ---- --- --<br>------- ------,103995.20000000019,103994.5,103590.312,103595.40000000037,103606.977,104007.037,,24,cut
screen,html.Screen,0_2_1_1_25,2021-11-26T10:43:52.088Z,,,,,,,,,,,,,,,,54,,,,,,,,,,,,,,475.4630000000034,,response,,,100,,,,,,Space,keypress(Space),,,,,-- --- ---- --- ------ ----- ------- ---- -- --- ------- --<br>------- ---------- ------ -- ----- -- ----- -- ---- ------<br>--- ----- --- the ------ -------- ----- --- ------ ----- --<br>----- ----- ---------- --- --- ------ ------ ---- -- ------<br>------- --- ------ ----- --- ---- ------- -- ---- --- --<br>------- ------,104483.20000000019,104482.5,103990.371,103995.40000000037,104007.037,104490.293,,25,the
screen,html.Screen,0_2_1_1_26,2021-11-26T10:43:52.608Z,,,,,,,,,,,,,,,,54,,,,,,,,,,,,,,512.2069999999949,,response,,,100,,,,,,Space,keypress(Space),,,,,-- --- ---- --- ------ ----- ------- ---- -- --- ------- --<br>------- ---------- ------ -- ----- -- ----- -- ---- ------<br>--- ----- --- --- bonds' -------- ----- --- ------ ----- --<br>----- ----- ---------- --- --- ------ ------ ---- -- ------<br>------- --- ------ ----- --- ---- ------- -- ---- --- --<br>------- ------,105003.10000000056,105002.5,104473.628,104483.40000000037,104490.293,105006.932,,26,bonds'
screen,html.Screen,0_2_1_1_27,2021-11-26T10:43:53.192Z,,,,,,,,,,,,,,,,54,,,,,,,,,,,,,,579.5679999999993,,response,,,100,,,,,,Space,keypress(Space),,,,,-- --- ---- --- ------ ----- ------- ---- -- --- ------- --<br>------- ---------- ------ -- ----- -- ----- -- ---- ------<br>--- ----- --- --- ------ interest ----- --- ------ ----- --<br>----- ----- ---------- --- --- ------ ------ ---- -- ------<br>------- --- ------ ----- --- ---- ------- -- ---- --- --<br>------- ------,105587,105586.5,104990.267,105003.40000000037,105006.932,105590.249,,27,interest
screen,html.Screen,0_2_1_1_28,2021-11-26T10:43:53.808Z,,,,,,,,,,,,,,,,54,,,,,,,,,,,,,,612.2510000000038,,response,,,100,,,,,,Space,keypress(Space),,,,,-- --- ---- --- ------ ----- ------- ---- -- --- ------- --<br>------- ---------- ------ -- ----- -- ----- -- ---- ------<br>--- ----- --- --- ------ -------- rate. --- ------ ----- --<br>----- ----- ---------- --- --- ------ ------ ---- -- ------<br>------- --- ------ ----- --- ---- ------- -- ---- --- --<br>------- ------,106203,106202.5,105573.584,105587.30000000075,105590.249,106206.865,,28,rate.
screen,html.Screen,0_2_1_1_29,2021-11-26T10:43:54.880Z,,,,,,,,,,,,,,,,54,,,,,,,,,,,,,,1067.5350000003673,,response,,,100,,,,,,Space,keypress(Space),,,,,-- --- ---- --- ------ ----- ------- ---- -- --- ------- --<br>------- ---------- ------ -- ----- -- ----- -- ---- ------<br>--- ----- --- --- ------ -------- ----- The ------ ----- --<br>----- ----- ---------- --- --- ------ ------ ---- -- ------<br>------- --- ------ ----- --- ---- ------- -- ---- --- --<br>------- ------,107275,107274.40000000037,106190.2,106203.30000000075,106206.865,107290.136,,29,The
screen,html.Screen,0_2_1_1_30,2021-11-26T10:43:55.472Z,,,,,,,,,,,,,,,,54,,,,,,,,,,,,,,576.1640000007465,,response,,,100,,,,,,Space,keypress(Space),,,,,-- --- ---- --- ------ ----- ------- ---- -- --- ------- --<br>------- ---------- ------ -- ----- -- ----- -- ---- ------<br>--- ----- --- --- ------ -------- ----- --- market ----- --<br>----- ----- ---------- --- --- ------ ------ ---- -- ------<br>------- --- ------ ----- --- ---- ------- -- ---- --- --<br>------- ------,107867,107866.30000000075,107273.471,107275.20000000019,107290.136,107873.447,,30,market
screen,html.Screen,0_2_1_1_31,2021-11-26T10:43:56.560Z,,,,,,,,,,,,,,,,54,,,,,,,,,,,,,,1080.853000000745,,response,,,100,,,,,,Space,keypress(Space),,,,,-- --- ---- --- ------ ----- ------- ---- -- --- ------- --<br>------- ---------- ------ -- ----- -- ----- -- ---- ------<br>--- ----- --- --- ------ -------- ----- --- ------ value --<br>----- ----- ---------- --- --- ------ ------ ---- -- ------<br>------- --- ------ ----- --- ---- ------- -- ---- --- --<br>------- ------,108954.90000000037,108954.30000000075,107856.782,107867.10000000056,107873.447,108956.71,,31,value
screen,html.Screen,0_2_1_1_32,2021-11-26T10:43:57.248Z,,,,,,,,,,,,,,,,54,,,,,,,,,,,,,,685.5900000007387,,response,,,100,,,,,,Space,keypress(Space),,,,,-- --- ---- --- ------ ----- ------- ---- -- --- ------- --<br>------- ---------- ------ -- ----- -- ----- -- ---- ------<br>--- ----- --- --- ------ -------- ----- --- ------ ----- of<br>----- ----- ---------- --- --- ------ ------ ---- -- ------<br>------- --- ------ ----- --- ---- ------- -- ---- --- --<br>------- ------,109642.80000000075,109642.30000000075,108940.045,108955.10000000056,108956.71,109656.648,,32,of
screen,html.Screen,0_2_1_1_33,2021-11-26T10:43:57.832Z,,,,,,,,,,,,,,,,54,,,,,,,,,,,,,,569.5520000001852,,response,,,100,,,,,,Space,keypress(Space),,,,,-- --- ---- --- ------ ----- ------- ---- -- --- ------- --<br>------- ---------- ------ -- ----- -- ----- -- ---- ------<br>--- ----- --- --- ------ -------- ----- --- ------ ----- --<br>these ----- ---------- --- --- ------ ------ ---- -- ------<br>------- --- ------ ----- --- ---- ------- -- ---- --- --<br>------- ------,110226.90000000037,110226.20000000019,109639.983,109643.10000000056,109656.648,110240.017,,33,these
screen,html.Screen,0_2_1_1_34,2021-11-26T10:43:58.248Z,,,,,,,,,,,,,,,,54,,,,,,,,,,,,,,402.0830000005517,,response,,,100,,,,,,Space,keypress(Space),,,,,-- --- ---- --- ------ ----- ------- ---- -- --- ------- --<br>------- ---------- ------ -- ----- -- ----- -- ---- ------<br>--- ----- --- --- ------ -------- ----- --- ------ ----- --<br>----- bonds ---------- --- --- ------ ------ ---- -- ------<br>------- --- ------ ----- --- ---- ------- -- ---- --- --<br>------- ------,110642.70000000019,110642.10000000056,110223.352,110227.10000000056,110240.017,110656.656,,34,bonds
screen,html.Screen,0_2_1_1_35,2021-11-26T10:43:58.904Z,,,,,,,,,,,,,,,,54,,,,,,,,,,,,,,641.5440000001836,,response,,,100,,,,,,Space,keypress(Space),,,,,"-- --- ---- --- ------ ----- ------- ---- -- --- ------- --<br>------- ---------- ------ -- ----- -- ----- -- ---- ------<br>--- ----- --- --- ------ -------- ----- --- ------ ----- --<br>----- ----- plummeted, --- --- ------ ------ ---- -- ------<br>------- --- ------ ----- --- ---- ------- -- ---- --- --<br>------- ------",111298.80000000075,111298.20000000019,110639.991,110642.90000000037,110656.656,111306.632,,35,"plummeted,"
screen,html.Screen,0_2_1_1_36,2021-11-26T10:44:00.416Z,,,,,,,,,,,,,,,,54,,,,,,,,,,,,,,1503.7680000003747,,response,,,100,,,,,,Space,keypress(Space),,,,,-- --- ---- --- ------ ----- ------- ---- -- --- ------- --<br>------- ---------- ------ -- ----- -- ----- -- ---- ------<br>--- ----- --- --- ------ -------- ----- --- ------ ----- --<br>----- ----- ---------- and --- ------ ------ ---- -- ------<br>------- --- ------ ----- --- ---- ------- -- ---- --- --<br>------- ------,112811,112810.40000000037,111289.967,111299,111306.632,112823.149,,36,and
screen,html.Screen,0_2_1_1_37,2021-11-26T10:44:00.848Z,,,,,,,,,,,,,,,,54,,,,,,,,,,,,,,418.9510000005539,,response,,,100,,,,,,Space,keypress(Space),,,,,-- --- ---- --- ------ ----- ------- ---- -- --- ------- --<br>------- ---------- ------ -- ----- -- ----- -- ---- ------<br>--- ----- --- --- ------ -------- ----- --- ------ ----- --<br>----- ----- ---------- --- the ------ ------ ---- -- ------<br>------- --- ------ ----- --- ---- ------- -- ---- --- --<br>------- ------,113242.60000000056,113242.10000000056,112806.484,112811.10000000056,112823.149,113256.515,,37,the
screen,html.Screen,0_2_1_1_38,2021-11-26T10:44:01.264Z,,,,,,,,,,,,,,,,54,,,,,,,,,,,,,,401.9850000000006,,response,,,100,,,,,,Space,keypress(Space),,,,,-- --- ---- --- ------ ----- ------- ---- -- --- ------- --<br>------- ---------- ------ -- ----- -- ----- -- ---- ------<br>--- ----- --- --- ------ -------- ----- --- ------ ----- --<br>----- ----- ---------- --- --- market ------ ---- -- ------<br>------- --- ------ ----- --- ---- ------- -- ---- --- --<br>------- ------,113659.10000000056,113658.5,113239.85,113242.70000000019,113256.515,113673.156,,38,market
screen,html.Screen,0_2_1_1_39,2021-11-26T10:44:01.704Z,,,,,,,,,,,,,,,,54,,,,,,,,,,,,,,424.8439999999973,,response,,,100,,,,,,Space,keypress(Space),,,,,-- --- ---- --- ------ ----- ------- ---- -- --- ------- --<br>------- ---------- ------ -- ----- -- ----- -- ---- ------<br>--- ----- --- --- ------ -------- ----- --- ------ ----- --<br>----- ----- ---------- --- --- ------ became ---- -- ------<br>------- --- ------ ----- --- ---- ------- -- ---- --- --<br>------- ------,114098.60000000056,114098,113656.491,113659.20000000019,113673.156,114106.395,,39,became
screen,html.Screen,0_2_1_1_40,2021-11-26T10:44:02.144Z,,,,,,,,,,,,,,,,54,,,,,,,,,,,,,,431.6049999999959,,response,,,100,,,,,,Space,keypress(Space),,,,,-- --- ---- --- ------ ----- ------- ---- -- --- ------- --<br>------- ---------- ------ -- ----- -- ----- -- ---- ------<br>--- ----- --- --- ------ -------- ----- --- ------ ----- --<br>----- ----- ---------- --- --- ------ ------ wary -- ------<br>------- --- ------ ----- --- ---- ------- -- ---- --- --<br>------- ------,114538.60000000056,114538,114089.731,114098.70000000019,114106.395,114539.921,,40,wary
screen,html.Screen,0_2_1_1_41,2021-11-26T10:44:02.632Z,,,,,,,,,,,,,,,,54,,,,,,,,,,,,,,486.0789999999979,,response,,,100,,,,,,Space,keypress(Space),,,,,-- --- ---- --- ------ ----- ------- ---- -- --- ------- --<br>------- ---------- ------ -- ----- -- ----- -- ---- ------<br>--- ----- --- --- ------ -------- ----- --- ------ ----- --<br>----- ----- ---------- --- --- ------ ------ ---- of ------<br>------- --- ------ ----- --- ---- ------- -- ---- --- --<br>------- ------,115026.60000000056,115026,114523.253,114538.80000000075,114539.921,115039.78,,41,of
screen,html.Screen,0_2_1_1_42,2021-11-26T10:44:03.128Z,,,,,,,,,,,,,,,,54,,,,,,,,,,,,,,482.1200000003737,,response,,,100,,,,,,Space,keypress(Space),,,,,-- --- ---- --- ------ ----- ------- ---- -- --- ------- --<br>------- ---------- ------ -- ----- -- ----- -- ---- ------<br>--- ----- --- --- ------ -------- ----- --- ------ ----- --<br>----- ----- ---------- --- --- ------ ------ ---- -- French<br>------- --- ------ ----- --- ---- ------- -- ---- --- --<br>------- ------,115522.60000000056,115521.90000000037,115023.115,115026.70000000019,115039.78,115539.771,,42,French
screen,html.Screen,0_2_1_1_43,2021-11-26T10:44:04.048Z,,,,,,,,,,,,,,,,54,,,,,,,,,,,,,,902.2290000000066,,response,,,100,,,,,,Space,keypress(Space),,,,,-- --- ---- --- ------ ----- ------- ---- -- --- ------- --<br>------- ---------- ------ -- ----- -- ----- -- ---- ------<br>--- ----- --- --- ------ -------- ----- --- ------ ----- --<br>----- ----- ---------- --- --- ------ ------ ---- -- ------<br>credit. --- ------ ----- --- ---- ------- -- ---- --- --<br>------- ------,116442.70000000019,116442,115523.106,115522.70000000019,115539.771,116456.342,,43,credit.
screen,html.Screen,0_2_1_1_44,2021-11-26T10:44:04.455Z,,,,,,,,,,,,,,,,54,,,,,,,,,,,,,,393.55800000036834,,response,,,100,,,,,,Space,keypress(Space),,,,,-- --- ---- --- ------ ----- ------- ---- -- --- ------- --<br>------- ---------- ------ -- ----- -- ----- -- ---- ------<br>--- ----- --- --- ------ -------- ----- --- ------ ----- --<br>----- ----- ---------- --- --- ------ ------ ---- -- ------<br>------- The ------ ----- --- ---- ------- -- ---- --- --<br>------- ------,116850.40000000037,116849.90000000037,116439.677,116442.90000000037,116456.342,116856.371,,44,The
screen,html.Screen,0_2_1_1_45,2021-11-26T10:44:04.864Z,,,,,,,,,,,,,,,,54,,,,,,,,,,,,,,401.52900000037334,,response,,,100,,,,,,Space,keypress(Space),,,,,-- --- ---- --- ------ ----- ------- ---- -- --- ------- --<br>------- ---------- ------ -- ----- -- ----- -- ---- ------<br>--- ----- --- --- ------ -------- ----- --- ------ ----- --<br>----- ----- ---------- --- --- ------ ------ ---- -- ------<br>------- --- French ----- --- ---- ------- -- ---- --- --<br>------- ------,117258.5,117257.90000000037,116839.706,116850.60000000056,116856.371,117273,,45,French
screen,html.Screen,0_2_1_1_46,2021-11-26T10:44:05.335Z,,,,,,,,,,,,,,,,54,,,,,,,,,,,,,,456.80000000074506,,response,,,100,,,,,,Space,keypress(Space),,,,,-- --- ---- --- ------ ----- ------- ---- -- --- ------- --<br>------- ---------- ------ -- ----- -- ----- -- ---- ------<br>--- ----- --- --- ------ -------- ----- --- ------ ----- --<br>----- ----- ---------- --- --- ------ ------ ---- -- ------<br>------- --- ------ state --- ---- ------- -- ---- --- --<br>------- ------,117730.40000000037,117729.80000000075,117256.335,117258.60000000056,117273,117739.649,,46,state
screen,html.Screen,0_2_1_1_47,2021-11-26T10:44:05.775Z,,,,,,,,,,,,,,,,54,,,,,,,,,,,,,,430.15100000074017,,response,,,100,,,,,,Space,keypress(Space),,,,,-- --- ---- --- ------ ----- ------- ---- -- --- ------- --<br>------- ---------- ------ -- ----- -- ----- -- ---- ------<br>--- ----- --- --- ------ -------- ----- --- ------ ----- --<br>----- ----- ---------- --- --- ------ ------ ---- -- ------<br>------- --- ------ ----- was ---- ------- -- ---- --- --<br>------- ------,118170.40000000037,118169.80000000075,117722.984,117730.5,117739.649,118172.88,,47,was
screen,html.Screen,0_2_1_1_48,2021-11-26T10:44:06.279Z,,,,,,,,,,,,,,,,54,,,,,,,,,,,,,,500.9200000007404,,response,,,100,,,,,,Space,keypress(Space),,,,,-- --- ---- --- ------ ----- ------- ---- -- --- ------- --<br>------- ---------- ------ -- ----- -- ----- -- ---- ------<br>--- ----- --- --- ------ -------- ----- --- ------ ----- --<br>----- ----- ---------- --- --- ------ ------ ---- -- ------<br>------- --- ------ ----- --- left ------- -- ---- --- --<br>------- ------,118674.40000000037,118673.80000000075,118156.216,118170.60000000056,118172.88,118689.642,,48,left
screen,html.Screen,0_2_1_1_49,2021-11-26T10:44:06.679Z,,,,,,,,,,,,,,,,54,,,,,,,,,,,,,,384.15800000073796,,response,,,100,,,,,,Space,keypress(Space),,,,,-- --- ---- --- ------ ----- ------- ---- -- --- ------- --<br>------- ---------- ------ -- ----- -- ----- -- ---- ------<br>--- ----- --- --- ------ -------- ----- --- ------ ----- --<br>----- ----- ---------- --- --- ------ ------ ---- -- ------<br>------- --- ------ ----- --- ---- without -- ---- --- --<br>------- ------,119074.40000000037,119073.80000000075,118672.976,118674.5,118689.642,119089.51,,49,without
screen,html.Screen,0_2_1_1_50,2021-11-26T10:44:07.119Z,,,,,,,,,,,,,,,,54,,,,,,,,,,,,,,424.2900000007503,,response,,,100,,,,,,Space,keypress(Space),,,,,-- --- ---- --- ------ ----- ------- ---- -- --- ------- --<br>------- ---------- ------ -- ----- -- ----- -- ---- ------<br>--- ----- --- --- ------ -------- ----- --- ------ ----- --<br>----- ----- ---------- --- --- ------ ------ ---- -- ------<br>------- --- ------ ----- --- ---- ------- an ---- --- --<br>------- ------,119514.40000000037,119513.80000000075,119072.846,119074.60000000056,119089.51,119522.805,,50,an
screen,html.Screen,0_2_1_1_51,2021-11-26T10:44:07.551Z,,,,,,,,,,,,,,,,54,,,,,,,,,,,,,,422.89500000019325,,response,,,100,,,,,,Space,keypress(Space),,,,,-- --- ---- --- ------ ----- ------- ---- -- --- ------- --<br>------- ---------- ------ -- ----- -- ----- -- ---- ------<br>--- ----- --- --- ------ -------- ----- --- ------ ----- --<br>----- ----- ---------- --- --- ------ ------ ---- -- ------<br>------- --- ------ ----- --- ---- ------- -- easy --- --<br>------- ------,119946.30000000075,119945.70000000019,119506.141,119514.5,119522.805,119956.241,,51,easy
screen,html.Screen,0_2_1_1_52,2021-11-26T10:44:08.026Z,,,,,,,,,,,,,,,,54,,,,,,,,,,,,,,461.55900000075053,,response,,,100,,,,,,Space,keypress(Space),,,,,-- --- ---- --- ------ ----- ------- ---- -- --- ------- --<br>------- ---------- ------ -- ----- -- ----- -- ---- ------<br>--- ----- --- --- ------ -------- ----- --- ------ ----- --<br>----- ----- ---------- --- --- ------ ------ ---- -- ------<br>------- --- ------ ----- --- ---- ------- -- ---- way --<br>------- ------,120418.30000000075,120417.80000000075,119939.575,119946.5,119956.241,120422.809,,52,way
screen,html.Screen,0_2_1_1_53,2021-11-26T10:44:08.458Z,,,,,,,,,,,,,,,,54,,,,,,,,,,,,,,426.89100000019243,,response,,,100,,,,,,Space,keypress(Space),,,,,-- --- ---- --- ------ ----- ------- ---- -- --- ------- --<br>------- ---------- ------ -- ----- -- ----- -- ---- ------<br>--- ----- --- --- ------ -------- ----- --- ------ ----- --<br>----- ----- ---------- --- --- ------ ------ ---- -- ------<br>------- --- ------ ----- --- ---- ------- -- ---- --- of<br>------- ------,120850.30000000075,120849.70000000019,120406.144,120418.5,120422.809,120856.205,,53,of
screen,html.Screen,0_2_1_1_54,2021-11-26T10:44:08.914Z,,,,,,,,,,,,,,,,54,,,,,,,,,,,,,,449.39500000055705,,response,,,100,,,,,,Space,keypress(Space),,,,,-- --- ---- --- ------ ----- ------- ---- -- --- ------- --<br>------- ---------- ------ -- ----- -- ----- -- ---- ------<br>--- ----- --- --- ------ -------- ----- --- ------ ----- --<br>----- ----- ---------- --- --- ------ ------ ---- -- ------<br>------- --- ------ ----- --- ---- ------- -- ---- --- --<br>raising ------,121306.30000000075,121305.60000000056,120839.539,120850.40000000037,120856.205,121322.733,,54,raising
screen,html.Screen,0_2_1_1_55,2021-11-26T10:44:09.338Z,,,,,,,,,,,,,,,,54,,,,,,,,,,,,,,406.96700000019337,,response,,,100,,,,,,Space,keypress(Space),,,,,-- --- ---- --- ------ ----- ------- ---- -- --- ------- --<br>------- ---------- ------ -- ----- -- ----- -- ---- ------<br>--- ----- --- --- ------ -------- ----- --- ------ ----- --<br>----- ----- ---------- --- --- ------ ------ ---- -- ------<br>------- --- ------ ----- --- ---- ------- -- ---- --- --<br>------- money.,121730.20000000019,121729.70000000019,121306.069,121306.40000000037,121322.733,121739.498,,55,money.
Item 100,flow.Loop,0_2_1_1,2021-11-26T10:44:09.338Z,,,,,,,,,,,,,,,,,,,,,,,,,,,,,,31538.806000000186,,completion,,,,E,,,,,,,,,,silence,,121730.5,121729.70000000019,90174.229,90175.20000000019,90190.894,121739.498,,,
Question 1,html.Screen,0_2_1_2,2021-11-26T10:44:12.142Z,,,,,,,,,,,,,,,,,,,,,,,,,,,true,TRUE,,2794.602000000552,,response,,,100,E,,,,,TRUE,click #choice-1,,,,silence,,124534.90000000037,124534.10000000056,121722.832,121730.60000000056,121739.498,124539.279,,,
Question 2,html.Screen,0_2_1_3,2021-11-26T10:44:15.016Z,,,,,,,,,,,,,,,,,,,,,,,,,,,true,FALSE,,2868.52100000075,,response,,,100,E,,,,,FALSE,click #choice-2,,,,silence,,127408.60000000056,127407.80000000075,124522.614,124535.10000000056,124539.279,127422.494,,,
Item 100,flow.Sequence,0_2_1,2021-11-26T10:44:15.016Z,,,,,,,,,,,,,,,,,,,,,,,,,,,,,,47216.342000000746,,completion,,,,,,,,,,,,,,,,127408.80000000075,127407.80000000075,80174.793,80175.90000000037,80191.458,127422.494,,,
End of Practice,html.Page,0_2_2,2021-11-26T10:44:17.996Z,,,,,,,,,,,,,,,,,,,,,,,,,,,,,,2965.70600000018,,form submission,,,,,,,,,,,,,,,,130388.5,130388.20000000019,127405.829,127409,127422.494,130389.068,,,
Practice,flow.Sequence,0_2,2021-11-26T10:44:17.996Z,,,,,,,,,,,,,,,,,,,,,,,,,,,,,,104116.51000000018,,completion,,,,,,,,,,,,,,,,130388.70000000019,130388.20000000019,26255.032,26272.10000000056,26271.69,130389.068,,,
Trap_instruction,html.Page,0_3_0,2021-11-26T10:44:21.782Z,,,,,,,,,,,,,,,,,,,,,,,,,,,,,,3785.7320000007458,,form submission,,,,,,,,,,,,,,,,134175.10000000056,134174.80000000075,130372.402,130388.90000000037,130389.068,134188.625,,,
trap_trial,html.Screen,0_3_1,2021-11-26T10:44:25.158Z,,,,,,,,,,,,,,,,,,,,,,,,,,,true,1,,3361.5750000001863,,response,,,,,,,,,1,click #choice-1,,,,,,137551.10000000056,137550.2000000002,134171.96,134175.30000000075,134188.625,137555.149,,,
end of trap trial,html.Page,0_3_2,2021-11-26T10:44:27.185Z,,,,,,,,,,,,,,,,,,,,,,,,,,,,,,2021.850999999995,,form submission,,,,,,,,,,,,,,,,139577.30000000075,139577,137538.484,137551.2000000002,137555.149,139588.56,,,
Trap 1,flow.Sequence,0_3,2021-11-26T10:44:27.185Z,,,,,,,,,,,,,,,,,,,,,,,,,,,,,,9187.932,,completion,,,,,,,,,,,,,,,,139577.60000000056,139577,130372.402,130388.90000000037,130389.068,139588.56,,,
Standby,html.Page,0_4_0,2021-11-26T10:44:35.179Z,,,,,,,,,,,,,,,,,,,,,,,,,,,,,,7999.190999999992,,timeout,,,,,,,,,,,,,,,,147572,147571.086,139571.895,139577.7000000002,139588.56,147587.751,,,
Holding screen,html.Screen,0_4_1_0_0,2021-11-26T10:44:42.179Z,,,,,,,,,,,,,,,,,,,,,,,,,,,,,,7000.012000000017,,timeout,,,,,,,,,,,,,,,,154572,154571.098,147571.086,147572.2000000002,147587.751,154587.763,,,
screen,html.Screen,0_4_1_0_1_0,2021-11-26T10:44:42.992Z,,,,,,,,,,,,,,,,2,,,,,,,,,,,,,,796.5370000007388,,response,,,1,E,,,,,Space,keypress(Space),,,,lyrical,Two ---- ------ --- ------- ---------- ------- ----------<br>--- --------- --- ----------- ------- ----- ------- ---<br>--------- ---- -- --- ---- -- --------- -- ---- -------<br>-- --------- ------ --- ----- ------ ---- --- --------- --<br>------ - ---- -- --- ----------- ------- ---- ----- -----<br>--- -------- - ------ ---- -- ----- ---- --- --- -----------<br>-- -------,155385,155384.30000000075,154571.098,154572.30000000075,154587.763,155387.737,,0,Two
screen,html.Screen,0_4_1_0_1_1,2021-11-26T10:44:43.504Z,,,,,,,,,,,,,,,,2,,,,,,,,,,,,,,508.2630000000063,,response,,,1,E,,,,,Space,keypress(Space),,,,lyrical,--- days ------ --- ------- ---------- ------- ----------<br>--- --------- --- ----------- ------- ----- ------- ---<br>--------- ---- -- --- ---- -- --------- -- ---- -------<br>-- --------- ------ --- ----- ------ ---- --- --------- --<br>------ - ---- -- --- ----------- ------- ---- ----- -----<br>--- -------- - ------ ---- -- ----- ---- --- --- -----------<br>-- -------,155896.60000000056,155896,155371.072,155385.30000000075,155387.737,155904.483,,1,days
screen,html.Screen,0_4_1_0_1_2,2021-11-26T10:44:43.960Z,,,,,,,,,,,,,,,,2,,,,,,,,,,,,,,447.4170000003651,,response,,,1,E,,,,,Space,keypress(Space),,,,lyrical,"--- ---- later, --- ------- ---------- ------- ----------<br>--- --------- --- ----------- ------- ----- ------- ---<br>--------- ---- -- --- ---- -- --------- -- ---- -------<br>-- --------- ------ --- ----- ------ ---- --- --------- --<br>------ - ---- -- --- ----------- ------- ---- ----- -----<br>--- -------- - ------ ---- -- ----- ---- --- --- -----------<br>-- -------",156352.5,156351.90000000037,155887.817,155896.80000000075,155904.483,156354.405,,2,"later,"
screen,html.Screen,0_4_1_0_1_3,2021-11-26T10:44:44.728Z,,,,,,,,,,,,,,,,2,,,,,,,,,,,,,,765.4950000003737,,response,,,1,E,,,,,Space,keypress(Space),,,,lyrical,--- ---- ------ the ------- ---------- ------- ----------<br>--- --------- --- ----------- ------- ----- ------- ---<br>--------- ---- -- --- ---- -- --------- -- ---- -------<br>-- --------- ------ --- ----- ------ ---- --- --------- --<br>------ - ---- -- --- ----------- ------- ---- ----- -----<br>--- -------- - ------ ---- -- ----- ---- --- --- -----------<br>-- -------,157120.60000000056,157119.90000000037,156337.74,156352.60000000056,156354.405,157137.696,,3,the
screen,html.Screen,0_4_1_0_1_4,2021-11-26T10:44:45.176Z,,,,,,,,,,,,,,,,2,,,,,,,,,,,,,,430.1040000007488,,response,,,1,E,,,,,Space,keypress(Space),,,,lyrical,--- ---- ------ --- British ---------- ------- ----------<br>--- --------- --- ----------- ------- ----- ------- ---<br>--------- ---- -- --- ---- -- --------- -- ---- -------<br>-- --------- ------ --- ----- ------ ---- --- --------- --<br>------ - ---- -- --- ----------- ------- ---- ----- -----<br>--- -------- - ------ ---- -- ----- ---- --- --- -----------<br>-- -------,157568.40000000037,157567.80000000075,157121.031,157120.7000000002,157137.696,157571.034,,4,British
screen,html.Screen,0_4_1_0_1_5,2021-11-26T10:44:45.936Z,,,,,,,,,,,,,,,,2,,,,,,,,,,,,,,756.8660000003583,,response,,,1,E,,,,,Space,keypress(Space),,,,lyrical,--- ---- ------ --- ------- astronomer ------- ----------<br>--- --------- --- ----------- ------- ----- ------- ---<br>--------- ---- -- --- ---- -- --------- -- ---- -------<br>-- --------- ------ --- ----- ------ ---- --- --------- --<br>------ - ---- -- --- ----------- ------- ---- ----- -----<br>--- -------- - ------ ---- -- ----- ---- --- --- -----------<br>-- -------,158328.60000000056,158327.90000000037,157554.369,157568.60000000056,157571.034,158337.549,,5,astronomer
screen,html.Screen,0_4_1_0_1_6,2021-11-26T10:44:46.632Z,,,,,,,,,,,,,,,,2,,,,,,,,,,,,,,686.3510000003735,,response,,,1,E,,,,,Space,keypress(Space),,,,lyrical,--- ---- ------ --- ------- ---------- Richard ----------<br>--- --------- --- ----------- ------- ----- ------- ---<br>--------- ---- -- --- ---- -- --------- -- ---- -------<br>-- --------- ------ --- ----- ------ ---- --- --------- --<br>------ - ---- -- --- ----------- ------- ---- ----- -----<br>--- -------- - ------ ---- -- ----- ---- --- --- -----------<br>-- -------,159024.40000000037,159023.90000000037,158320.885,158328.7000000002,158337.549,159037.696,,6,Richard
screen,html.Screen,0_4_1_0_1_7,2021-11-26T10:44:47.712Z,,,,,,,,,,,,,,,,2,,,,,,,,,,,,,,1066.2040000003763,,response,,,1,E,,,,,Space,keypress(Space),,,,lyrical,--- ---- ------ --- ------- ---------- ------- Carrington<br>--- --------- --- ----------- ------- ----- ------- ---<br>--------- ---- -- --- ---- -- --------- -- ---- -------<br>-- --------- ------ --- ----- ------ ---- --- --------- --<br>------ - ---- -- --- ----------- ------- ---- ----- -----<br>--- -------- - ------ ---- -- ----- ---- --- --- -----------<br>-- -------,160104.40000000037,160103.90000000037,159021.03,159024.7000000002,159037.696,160120.745,,7,Carrington
screen,html.Screen,0_4_1_0_1_8,2021-11-26T10:44:48.496Z,,,,,,,,,,,,,,,,2,,,,,,,,,,,,,,766.9550000001909,,response,,,1,E,,,,,Space,keypress(Space),,,,lyrical,--- ---- ------ --- ------- ---------- ------- ----------<br>was --------- --- ----------- ------- ----- ------- ---<br>--------- ---- -- --- ---- -- --------- -- ---- -------<br>-- --------- ------ --- ----- ------ ---- --- --------- --<br>------ - ---- -- --- ----------- ------- ---- ----- -----<br>--- -------- - ------ ---- -- ----- ---- --- --- -----------<br>-- -------,160888.40000000037,160887.7000000002,160104.081,160104.60000000056,160120.745,160904.233,,8,was
screen,html.Screen,0_4_1_0_1_9,2021-11-26T10:44:49.168Z,,,,,,,,,,,,,,,,2,,,,,,,,,,,,,,655.5670000007376,,response,,,1,E,,,,,Space,keypress(Space),,,,lyrical,--- ---- ------ --- ------- ---------- ------- ----------<br>--- observing --- ----------- ------- ----- ------- ---<br>--------- ---- -- --- ---- -- --------- -- ---- -------<br>-- --------- ------ --- ----- ------ ---- --- --------- --<br>------ - ---- -- --- ----------- ------- ---- ----- -----<br>--- -------- - ------ ---- -- ----- ---- --- --- -----------<br>-- -------,161560.40000000037,161559.80000000075,160887.567,160888.5,160904.233,161570.801,,9,observing
screen,html.Screen,0_4_1_0_1_10,2021-11-26T10:44:49.633Z,,,,,,,,,,,,,,,,2,,,,,,,,,,,,,,452.8990000001795,,response,,,1,E,,,,,Space,keypress(Space),,,,lyrical,--- ---- ------ --- ------- ---------- ------- ----------<br>--- --------- the ----------- ------- ----- ------- ---<br>--------- ---- -- --- ---- -- --------- -- ---- -------<br>-- --------- ------ --- ----- ------ ---- --- --------- --<br>------ - ---- -- --- ----------- ------- ---- ----- -----<br>--- -------- - ------ ---- -- ----- ---- --- --- -----------<br>-- -------,162025.2000000002,162023.7000000002,161554.136,161560.60000000056,161570.801,162037.472,,10,the
screen,html.Screen,0_4_1_0_1_11,2021-11-26T10:44:50.528Z,,,,,,,,,,,,,,,,2,,,,,,,,,,,,,,882.2280000001774,,response,,,1,E,,,,,Space,keypress(Space),,,,lyrical,--- ---- ------ --- ------- ---------- ------- ----------<br>--- --------- --- interesting ------- ----- ------- ---<br>--------- ---- -- --- ---- -- --------- -- ---- -------<br>-- --------- ------ --- ----- ------ ---- --- --------- --<br>------ - ---- -- --- ----------- ------- ---- ----- -----<br>--- -------- - ------ ---- -- ----- ---- --- --- -----------<br>-- -------,162920.30000000075,162919.7000000002,162020.807,162025.30000000075,162037.472,162937.395,,11,interesting
screen,html.Screen,0_4_1_0_1_12,2021-11-26T10:44:51.312Z,,,,,,,,,,,,,,,,2,,,,,,,,,,,,,,766.2050000005693,,response,,,1,E,,,,,Space,keypress(Space),,,,lyrical,--- ---- ------ --- ------- ---------- ------- ----------<br>--- --------- --- ----------- sunspot ----- ------- ---<br>--------- ---- -- --- ---- -- --------- -- ---- -------<br>-- --------- ------ --- ----- ------ ---- --- --------- --<br>------ - ---- -- --- ----------- ------- ---- ----- -----<br>--- -------- - ------ ---- -- ----- ---- --- --- -----------<br>-- -------,163704.2000000002,163703.60000000056,162920.73,162920.40000000037,162937.395,163720.712,,12,sunspot
screen,html.Screen,0_4_1_0_1_13,2021-11-26T10:44:51.656Z,,,,,,,,,,,,,,,,2,,,,,,,,,,,,,,326.88800000055926,,response,,,1,E,,,,,Space,keypress(Space),,,,lyrical,--- ---- ------ --- ------- ---------- ------- ----------<br>--- --------- --- ----------- ------- group ------- ---<br>--------- ---- -- --- ---- -- --------- -- ---- -------<br>-- --------- ------ --- ----- ------ ---- --- --------- --<br>------ - ---- -- --- ----------- ------- ---- ----- -----<br>--- -------- - ------ ---- -- ----- ---- --- --- -----------<br>-- -------,164048.2000000002,164047.60000000056,163704.047,163704.40000000037,163720.712,164054.03,,13,group
screen,html.Screen,0_4_1_0_1_14,2021-11-26T10:44:52.304Z,,,,,,,,,,,,,,,,2,,,,,,,,,,,,,,641.57000000056,,response,,,1,E,,,,,Space,keypress(Space),,,,lyrical,--- ---- ------ --- ------- ---------- ------- ----------<br>--- --------- --- ----------- ------- ----- through ---<br>--------- ---- -- --- ---- -- --------- -- ---- -------<br>-- --------- ------ --- ----- ------ ---- --- --------- --<br>------ - ---- -- --- ----------- ------- ---- ----- -----<br>--- -------- - ------ ---- -- ----- ---- --- --- -----------<br>-- -------,164696.2000000002,164695.60000000056,164037.365,164048.40000000037,164054.03,164703.96,,14,through
screen,html.Screen,0_4_1_0_1_15,2021-11-26T10:44:52.680Z,,,,,,,,,,,,,,,,2,,,,,,,,,,,,,,367.54000000000815,,response,,,1,E,,,,,Space,keypress(Space),,,,lyrical,--- ---- ------ --- ------- ---------- ------- ----------<br>--- --------- --- ----------- ------- ----- ------- his<br>--------- ---- -- --- ---- -- --------- -- ---- -------<br>-- --------- ------ --- ----- ------ ---- --- --------- --<br>------ - ---- -- --- ----------- ------- ---- ----- -----<br>--- -------- - ------ ---- -- ----- ---- --- --- -----------<br>-- -------,165072.2000000002,165071.5,164687.295,164696.40000000037,164703.96,165087.356,,15,his
screen,html.Screen,0_4_1_0_1_16,2021-11-26T10:44:53.304Z,,,,,,,,,,,,,,,,2,,,,,,,,,,,,,,608.3440000001865,,response,,,1,E,,,,,Space,keypress(Space),,,,lyrical,--- ---- ------ --- ------- ---------- ------- ----------<br>--- --------- --- ----------- ------- ----- ------- ---<br>telescope ---- -- --- ---- -- --------- -- ---- -------<br>-- --------- ------ --- ----- ------ ---- --- --------- --<br>------ - ---- -- --- ----------- ------- ---- ----- -----<br>--- -------- - ------ ---- -- ----- ---- --- --- -----------<br>-- -------,165696.30000000075,165695.7000000002,165070.69,165072.40000000037,165087.356,165703.939,,16,telescope
screen,html.Screen,0_4_1_0_1_17,2021-11-26T10:44:53.903Z,,,,,,,,,,,,,,,,2,,,,,,,,,,,,,,591.560999999987,,response,,,1,E,,,,,Space,keypress(Space),,,,lyrical,--- ---- ------ --- ------- ---------- ------- ----------<br>--- --------- --- ----------- ------- ----- ------- ---<br>--------- when -- --- ---- -- --------- -- ---- -------<br>-- --------- ------ --- ----- ------ ---- --- --------- --<br>------ - ---- -- --- ----------- ------- ---- ----- -----<br>--- -------- - ------ ---- -- ----- ---- --- --- -----------<br>-- -------,166296.10000000056,166295.5,165687.274,165696.5,165703.939,166303.816,,17,when
screen,html.Screen,0_4_1_0_1_18,2021-11-26T10:44:54.359Z,,,,,,,,,,,,,,,,2,,,,,,,,,,,,,,447.6840000000084,,response,,,1,E,,,,,Space,keypress(Space),,,,lyrical,--- ---- ------ --- ------- ---------- ------- ----------<br>--- --------- --- ----------- ------- ----- ------- ---<br>--------- ---- he --- ---- -- --------- -- ---- -------<br>-- --------- ------ --- ----- ------ ---- --- --------- --<br>------ - ---- -- --- ----------- ------- ---- ----- -----<br>--- -------- - ------ ---- -- ----- ---- --- --- -----------<br>-- -------,166752,166751.5,166287.152,166296.2000000002,166303.816,166753.939,,18,he
screen,html.Screen,0_4_1_0_1_19,2021-11-26T10:44:54.711Z,,,,,,,,,,,,,,,,2,,,,,,,,,,,,,,349.4610000003595,,response,,,1,E,,,,,Space,keypress(Space),,,,lyrical,--- ---- ------ --- ------- ---------- ------- ----------<br>--- --------- --- ----------- ------- ----- ------- ---<br>--------- ---- -- saw ---- -- --------- -- ---- -------<br>-- --------- ------ --- ----- ------ ---- --- --------- --<br>------ - ---- -- --- ----------- ------- ---- ----- -----<br>--- -------- - ------ ---- -- ----- ---- --- --- -----------<br>-- -------,167104.10000000056,167103.40000000037,166737.273,166752.2000000002,166753.939,167120.546,,19,saw
screen,html.Screen,0_4_1_0_1_20,2021-11-26T10:44:55.031Z,,,,,,,,,,,,,,,,2,,,,,,,,,,,,,,302.75400000074296,,response,,,1,E,,,,,Space,keypress(Space),,,,lyrical,--- ---- ------ --- ------- ---------- ------- ----------<br>--- --------- --- ----------- ------- ----- ------- ---<br>--------- ---- -- --- what -- --------- -- ---- -------<br>-- --------- ------ --- ----- ------ ---- --- --------- --<br>------ - ---- -- --- ----------- ------- ---- ----- -----<br>--- -------- - ------ ---- -- ----- ---- --- --- -----------<br>-- -------,167423.90000000037,167423.30000000075,167103.881,167104.2000000002,167120.546,167437.149,,20,what
screen,html.Screen,0_4_1_0_1_21,2021-11-26T10:44:55.407Z,,,,,,,,,,,,,,,,2,,,,,,,,,,,,,,362.25100000036764,,response,,,1,E,,,,,Space,keypress(Space),,,,lyrical,--- ---- ------ --- ------- ---------- ------- ----------<br>--- --------- --- ----------- ------- ----- ------- ---<br>--------- ---- -- --- ---- he --------- -- ---- -------<br>-- --------- ------ --- ----- ------ ---- --- --------- --<br>------ - ---- -- --- ----------- ------- ---- ----- -----<br>--- -------- - ------ ---- -- ----- ---- --- --- -----------<br>-- -------,167799.90000000037,167799.40000000037,167420.485,167424.10000000056,167437.149,167803.827,,21,he
screen,html.Screen,0_4_1_0_1_22,2021-11-26T10:44:55.807Z,,,,,,,,,,,,,,,,2,,,,,,,,,,,,,,395.5730000003823,,response,,,1,E,,,,,Space,keypress(Space),,,,lyrical,--- ---- ------ --- ------- ---------- ------- ----------<br>--- --------- --- ----------- ------- ----- ------- ---<br>--------- ---- -- --- ---- -- described -- ---- -------<br>-- --------- ------ --- ----- ------ ---- --- --------- --<br>------ - ---- -- --- ----------- ------- ---- ----- -----<br>--- -------- - ------ ---- -- ----- ---- --- --- -----------<br>-- -------,168200,168199.40000000037,167787.162,167800.10000000056,167803.827,168203.924,,22,described
screen,html.Screen,0_4_1_0_1_23,2021-11-26T10:44:56.183Z,,,,,,,,,,,,,,,,2,,,,,,,,,,,,,,371.47600000037346,,response,,,1,E,,,,,Space,keypress(Space),,,,lyrical,--- ---- ------ --- ------- ---------- ------- ----------<br>--- --------- --- ----------- ------- ----- ------- ---<br>--------- ---- -- --- ---- -- --------- as ---- -------<br>-- --------- ------ --- ----- ------ ---- --- --------- --<br>------ - ---- -- --- ----------- ------- ---- ----- -----<br>--- -------- - ------ ---- -- ----- ---- --- --- -----------<br>-- -------,168575.90000000037,168575.40000000037,168187.257,168200.2000000002,168203.924,168587.137,,23,as
screen,html.Screen,0_4_1_0_1_24,2021-11-26T10:44:56.511Z,,,,,,,,,,,,,,,,2,,,,,,,,,,,,,,316.16300000075717,,response,,,1,E,,,,,Space,keypress(Space),,,,lyrical,"--- ---- ------ --- ------- ---------- ------- ----------<br>--- --------- --- ----------- ------- ----- ------- ---<br>--------- ---- -- --- ---- -- --------- -- ""two -------<br>-- --------- ------ --- ----- ------ ---- --- --------- --<br>------ - ---- -- --- ----------- ------- ---- ----- -----<br>--- -------- - ------ ---- -- ----- ---- --- --- -----------<br>-- -------",168903.90000000037,168903.30000000075,168570.472,168576.10000000056,168587.137,168920.463,,24,"""two"
screen,html.Screen,0_4_1_0_1_25,2021-11-26T10:44:56.839Z,,,,,,,,,,,,,,,,2,,,,,,,,,,,,,,310.83700000075623,,response,,,1,E,,,,,Space,keypress(Space),,,,lyrical,--- ---- ------ --- ------- ---------- ------- ----------<br>--- --------- --- ----------- ------- ----- ------- ---<br>--------- ---- -- --- ---- -- --------- -- ---- patches<br>-- --------- ------ --- ----- ------ ---- --- --------- --<br>------ - ---- -- --- ----------- ------- ---- ----- -----<br>--- -------- - ------ ---- -- ----- ---- --- --- -----------<br>-- -------,169232,169231.30000000075,168903.798,168904.10000000056,168920.463,169237.116,,25,patches
screen,html.Screen,0_4_1_0_1_26,2021-11-26T10:44:57.327Z,,,,,,,,,,,,,,,,2,,,,,,,,,,,,,,482.184000000736,,response,,,1,E,,,,,Space,keypress(Space),,,,lyrical,--- ---- ------ --- ------- ---------- ------- ----------<br>--- --------- --- ----------- ------- ----- ------- ---<br>--------- ---- -- --- ---- -- --------- -- ---- -------<br>of --------- ------ --- ----- ------ ---- --- --------- --<br>------ - ---- -- --- ----------- ------- ---- ----- -----<br>--- -------- - ------ ---- -- ----- ---- --- --- -----------<br>-- -------,169719.90000000037,169719.30000000075,169220.451,169232.2000000002,169237.116,169736.992,,26,of
screen,html.Screen,0_4_1_0_1_27,2021-11-26T10:44:57.647Z,,,,,,,,,,,,,,,,2,,,,,,,,,,,,,,302.3080000007467,,response,,,1,E,,,,,Space,keypress(Space),,,,lyrical,--- ---- ------ --- ------- ---------- ------- ----------<br>--- --------- --- ----------- ------- ----- ------- ---<br>--------- ---- -- --- ---- -- --------- -- ---- -------<br>-- intensely ------ --- ----- ------ ---- --- --------- --<br>------ - ---- -- --- ----------- ------- ---- ----- -----<br>--- -------- - ------ ---- -- ----- ---- --- --- -----------<br>-- -------,170039.90000000037,170039.30000000075,169720.328,169720,169736.992,170053.765,,27,intensely
screen,html.Screen,0_4_1_0_1_28,2021-11-26T10:44:58.055Z,,,,,,,,,,,,,,,,2,,,,,,,,,,,,,,393.5350000007311,,response,,,1,E,,,,,Space,keypress(Space),,,,lyrical,--- ---- ------ --- ------- ---------- ------- ----------<br>--- --------- --- ----------- ------- ----- ------- ---<br>--------- ---- -- --- ---- -- --------- -- ---- -------<br>-- --------- bright --- ----- ------ ---- --- --------- --<br>------ - ---- -- --- ----------- ------- ---- ----- -----<br>--- -------- - ------ ---- -- ----- ---- --- --- -----------<br>-- -------,170447.90000000037,170447.30000000075,170037.099,170040.10000000056,170053.765,170453.75,,28,bright
screen,html.Screen,0_4_1_0_1_29,2021-11-26T10:44:58.527Z,,,,,,,,,,,,,,,,2,,,,,,,,,,,,,,465.55000000074506,,response,,,1,E,,,,,Space,keypress(Space),,,,lyrical,--- ---- ------ --- ------- ---------- ------- ----------<br>--- --------- --- ----------- ------- ----- ------- ---<br>--------- ---- -- --- ---- -- --------- -- ---- -------<br>-- --------- ------ and ----- ------ ---- --- --------- --<br>------ - ---- -- --- ----------- ------- ---- ----- -----<br>--- -------- - ------ ---- -- ----- ---- --- --- -----------<br>-- -------,170919.80000000075,170919.30000000075,170437.084,170448,170453.75,170937.03,,29,and
screen,html.Screen,0_4_1_0_1_30,2021-11-26T10:44:58.943Z,,,,,,,,,,,,,,,,2,,,,,,,,,,,,,,398.17000000018743,,response,,,1,E,,,,,Space,keypress(Space),,,,lyrical,--- ---- ------ --- ------- ---------- ------- ----------<br>--- --------- --- ----------- ------- ----- ------- ---<br>--------- ---- -- --- ---- -- --------- -- ---- -------<br>-- --------- ------ --- white ------ ---- --- --------- --<br>------ - ---- -- --- ----------- ------- ---- ----- -----<br>--- -------- - ------ ---- -- ----- ---- --- --- -----------<br>-- -------,171335.80000000075,171335.2000000002,170920.365,170920,170937.03,171337.017,,30,white
screen,html.Screen,0_4_1_0_1_31,2021-11-26T10:44:59.343Z,,,,,,,,,,,,,,,,2,,,,,,,,,,,,,,398.1830000001937,,response,,,1,E,,,,,Space,keypress(Space),,,,lyrical,"--- ---- ------ --- ------- ---------- ------- ----------<br>--- --------- --- ----------- ------- ----- ------- ---<br>--------- ---- -- --- ---- -- --------- -- ---- -------<br>-- --------- ------ --- ----- light"" ---- --- --------- --<br>------ - ---- -- --- ----------- ------- ---- ----- -----<br>--- -------- - ------ ---- -- ----- ---- --- --- -----------<br>-- -------",171735.80000000075,171735.2000000002,171320.352,171335.90000000037,171337.017,171736.989,,31,"light"""
screen,html.Screen,0_4_1_0_1_32,2021-11-26T10:44:59.799Z,,,,,,,,,,,,,,,,2,,,,,,,,,,,,,,454.21100000018487,,response,,,1,E,,,,,Space,keypress(Space),,,,lyrical,--- ---- ------ --- ------- ---------- ------- ----------<br>--- --------- --- ----------- ------- ----- ------- ---<br>--------- ---- -- --- ---- -- --------- -- ---- -------<br>-- --------- ------ --- ----- ------ over --- --------- --<br>------ - ---- -- --- ----------- ------- ---- ----- -----<br>--- -------- - ------ ---- -- ----- ---- --- --- -----------<br>-- -------,172191.80000000075,172191.2000000002,171720.324,171735.90000000037,171736.989,172203.627,,32,over
screen,html.Screen,0_4_1_0_1_33,2021-11-26T10:45:00.175Z,,,,,,,,,,,,,,,,2,,,,,,,,,,,,,,363.4730000005511,,response,,,1,E,,,,,Space,keypress(Space),,,,lyrical,--- ---- ------ --- ------- ---------- ------- ----------<br>--- --------- --- ----------- ------- ----- ------- ---<br>--------- ---- -- --- ---- -- --------- -- ---- -------<br>-- --------- ------ --- ----- ------ ---- the --------- --<br>------ - ---- -- --- ----------- ------- ---- ----- -----<br>--- -------- - ------ ---- -- ----- ---- --- --- -----------<br>-- -------,172567.80000000075,172567.10000000056,172186.962,172192,172203.627,172570.225,,33,the
screen,html.Screen,0_4_1_0_1_34,2021-11-26T10:45:00.599Z,,,,,,,,,,,,,,,,2,,,,,,,,,,,,,,420.875000000553,,response,,,1,E,,,,,Space,keypress(Space),,,,lyrical,--- ---- ------ --- ------- ---------- ------- ----------<br>--- --------- --- ----------- ------- ----- ------- ---<br>--------- ---- -- --- ---- -- --------- -- ---- -------<br>-- --------- ------ --- ----- ------ ---- --- sunspots. --<br>------ - ---- -- --- ----------- ------- ---- ----- -----<br>--- -------- - ------ ---- -- ----- ---- --- --- -----------<br>-- -------,172991.80000000075,172991.10000000056,172553.561,172568,172570.225,173003.629,,34,sunspots.
screen,html.Screen,0_4_1_0_1_35,2021-11-26T10:45:01.087Z,,,,,,,,,,,,,,,,2,,,,,,,,,,,,,,475.5710000002,,response,,,1,E,,,,,Space,keypress(Space),,,,lyrical,--- ---- ------ --- ------- ---------- ------- ----------<br>--- --------- --- ----------- ------- ----- ------- ---<br>--------- ---- -- --- ---- -- --------- -- ---- -------<br>-- --------- ------ --- ----- ------ ---- --- --------- He<br>------ - ---- -- --- ----------- ------- ---- ----- -----<br>--- -------- - ------ ---- -- ----- ---- --- --- -----------<br>-- -------,173479.80000000075,173479.2000000002,172986.963,172991.90000000037,173003.629,173486.948,,35,He
screen,html.Screen,0_4_1_0_1_36,2021-11-26T10:45:01.479Z,,,,,,,,,,,,,,,,2,,,,,,,,,,,,,,384.05199999999604,,response,,,1,E,,,,,Space,keypress(Space),,,,lyrical,--- ---- ------ --- ------- ---------- ------- ----------<br>--- --------- --- ----------- ------- ----- ------- ---<br>--------- ---- -- --- ---- -- --------- -- ---- -------<br>-- --------- ------ --- ----- ------ ---- --- --------- --<br>jotted - ---- -- --- ----------- ------- ---- ----- -----<br>--- -------- - ------ ---- -- ----- ---- --- --- -----------<br>-- -------,173871.7000000002,173871,173470.282,173480,173486.948,173886.872,,36,jotted
screen,html.Screen,0_4_1_0_1_37,2021-11-26T10:45:01.839Z,,,,,,,,,,,,,,,,2,,,,,,,,,,,,,,344.22800000055577,,response,,,1,E,,,,,Space,keypress(Space),,,,lyrical,--- ---- ------ --- ------- ---------- ------- ----------<br>--- --------- --- ----------- ------- ----- ------- ---<br>--------- ---- -- --- ---- -- --------- -- ---- -------<br>-- --------- ------ --- ----- ------ ---- --- --------- --<br>------ a ---- -- --- ----------- ------- ---- ----- -----<br>--- -------- - ------ ---- -- ----- ---- --- --- -----------<br>-- -------,174231.60000000056,174231.10000000056,173870.207,173871.80000000075,173886.872,174236.867,,37,a
screen,html.Screen,0_4_1_0_1_38,2021-11-26T10:45:02.215Z,,,,,,,,,,,,,,,,2,,,,,,,,,,,,,,370.13300000000163,,response,,,1,E,,,,,Space,keypress(Space),,,,lyrical,--- ---- ------ --- ------- ---------- ------- ----------<br>--- --------- --- ----------- ------- ----- ------- ---<br>--------- ---- -- --- ---- -- --------- -- ---- -------<br>-- --------- ------ --- ----- ------ ---- --- --------- --<br>------ - note -- --- ----------- ------- ---- ----- -----<br>--- -------- - ------ ---- -- ----- ---- --- --- -----------<br>-- -------,174607.7000000002,174607,174220.202,174231.80000000075,174236.867,174620.189,,38,note
screen,html.Screen,0_4_1_0_1_39,2021-11-26T10:45:02.639Z,,,,,,,,,,,,,,,,2,,,,,,,,,,,,,,410.91100000054576,,response,,,1,E,,,,,Space,keypress(Space),,,,lyrical,--- ---- ------ --- ------- ---------- ------- ----------<br>--- --------- --- ----------- ------- ----- ------- ---<br>--------- ---- -- --- ---- -- --------- -- ---- -------<br>-- --------- ------ --- ----- ------ ---- --- --------- --<br>------ - ---- in --- ----------- ------- ---- ----- -----<br>--- -------- - ------ ---- -- ----- ---- --- --- -----------<br>-- -------,175031.60000000056,175031.10000000056,174603.524,174607.80000000075,174620.189,175036.822,,39,in
screen,html.Screen,0_4_1_0_1_40,2021-11-26T10:45:03.007Z,,,,,,,,,,,,,,,,2,,,,,,,,,,,,,,362.17800000001444,,response,,,1,E,,,,,Space,keypress(Space),,,,lyrical,--- ---- ------ --- ------- ---------- ------- ----------<br>--- --------- --- ----------- ------- ----- ------- ---<br>--------- ---- -- --- ---- -- --------- -- ---- -------<br>-- --------- ------ --- ----- ------ ---- --- --------- --<br>------ - ---- -- his ----------- ------- ---- ----- -----<br>--- -------- - ------ ---- -- ----- ---- --- --- -----------<br>-- -------,175399.5,175399,175020.157,175031.80000000075,175036.822,175403.517,,40,his
screen,html.Screen,0_4_1_0_1_41,2021-11-26T10:45:03.407Z,,,,,,,,,,,,,,,,2,,,,,,,,,,,,,,395.6830000001937,,response,,,1,E,,,,,Space,keypress(Space),,,,lyrical,--- ---- ------ --- ------- ---------- ------- ----------<br>--- --------- --- ----------- ------- ----- ------- ---<br>--------- ---- -- --- ---- -- --------- -- ---- -------<br>-- --------- ------ --- ----- ------ ---- --- --------- --<br>------ - ---- -- --- painstaking ------- ---- ----- -----<br>--- -------- - ------ ---- -- ----- ---- --- --- -----------<br>-- -------,175799.80000000075,175799.2000000002,175386.851,175399.7000000002,175403.517,175803.47,,41,painstaking
screen,html.Screen,0_4_1_0_1_42,2021-11-26T10:45:04.047Z,,,,,,,,,,,,,,,,2,,,,,,,,,,,,,,635.5299999999988,,response,,,1,E,,,,,Space,keypress(Space),,,,lyrical,--- ---- ------ --- ------- ---------- ------- ----------<br>--- --------- --- ----------- ------- ----- ------- ---<br>--------- ---- -- --- ---- -- --------- -- ---- -------<br>-- --------- ------ --- ----- ------ ---- --- --------- --<br>------ - ---- -- --- ----------- record. ---- ----- -----<br>--- -------- - ------ ---- -- ----- ---- --- --- -----------<br>-- -------,176439.7000000002,176439,175786.805,175799.90000000037,175803.47,176453.257,,42,record.
screen,html.Screen,0_4_1_0_1_43,2021-11-26T10:45:04.567Z,,,,,,,,,,,,,,,,2,,,,,,,,,,,,,,505.6430000003602,,response,,,1,E,,,,,Space,keypress(Space),,,,lyrical,--- ---- ------ --- ------- ---------- ------- ----------<br>--- --------- --- ----------- ------- ----- ------- ---<br>--------- ---- -- --- ---- -- --------- -- ---- -------<br>-- --------- ------ --- ----- ------ ---- --- --------- --<br>------ - ---- -- --- ----------- ------- That ----- -----<br>--- -------- - ------ ---- -- ----- ---- --- --- -----------<br>-- -------,176959.5,176958.90000000037,176436.594,176439.90000000037,176453.257,176969.995,,43,That
screen,html.Screen,0_4_1_0_1_44,2021-11-26T10:45:05.047Z,,,,,,,,,,,,,,,,2,,,,,,,,,,,,,,468.9050000003772,,response,,,1,E,,,,,Space,keypress(Space),,,,lyrical,--- ---- ------ --- ------- ---------- ------- ----------<br>--- --------- --- ----------- ------- ----- ------- ---<br>--------- ---- -- --- ---- -- --------- -- ---- -------<br>-- --------- ------ --- ----- ------ ---- --- --------- --<br>------ - ---- -- --- ----------- ------- ---- night -----<br>--- -------- - ------ ---- -- ----- ---- --- --- -----------<br>-- -------,177439.5,177438.90000000037,176953.33,176959.7000000002,176969.995,177453.332,,44,night
screen,html.Screen,0_4_1_0_1_45,2021-11-26T10:45:05.511Z,,,,,,,,,,,,,,,,2,,,,,,,,,,,,,,449.56800000037765,,response,,,1,E,,,,,Space,keypress(Space),,,,lyrical,--- ---- ------ --- ------- ---------- ------- ----------<br>--- --------- --- ----------- ------- ----- ------- ---<br>--------- ---- -- --- ---- -- --------- -- ---- -------<br>-- --------- ------ --- ----- ------ ---- --- --------- --<br>------ - ---- -- --- ----------- ------- ---- ----- there<br>--- -------- - ------ ---- -- ----- ---- --- --- -----------<br>-- -------,177903.5,177902.90000000037,177436.667,177439.60000000056,177453.332,177920.11,,45,there
screen,html.Screen,0_4_1_0_1_46,2021-11-26T10:45:05.871Z,,,,,,,,,,,,,,,,2,,,,,,,,,,,,,,342.7900000003865,,response,,,1,E,,,,,Space,keypress(Space),,,,lyrical,--- ---- ------ --- ------- ---------- ------- ----------<br>--- --------- --- ----------- ------- ----- ------- ---<br>--------- ---- -- --- ---- -- --------- -- ---- -------<br>-- --------- ------ --- ----- ------ ---- --- --------- --<br>------ - ---- -- --- ----------- ------- ---- ----- -----<br>was -------- - ------ ---- -- ----- ---- --- --- -----------<br>-- -------,178263.5,178262.90000000037,177903.443,177903.80000000075,177920.11,178270.015,,46,was
screen,html.Screen,0_4_1_0_1_47,2021-11-26T10:45:06.151Z,,,,,,,,,,,,,,,,2,,,,,,,,,,,,,,272.88500000035856,,response,,,1,E,,,,,Space,keypress(Space),,,,lyrical,--- ---- ------ --- ------- ---------- ------- ----------<br>--- --------- --- ----------- ------- ----- ------- ---<br>--------- ---- -- --- ---- -- --------- -- ---- -------<br>-- --------- ------ --- ----- ------ ---- --- --------- --<br>------ - ---- -- --- ----------- ------- ---- ----- -----<br>--- scarcely - ------ ---- -- ----- ---- --- --- -----------<br>-- -------,178543.5,178542.90000000037,178253.35,178264.5,178270.015,178553.333,,47,scarcely
screen,html.Screen,0_4_1_0_1_48,2021-11-26T10:45:06.567Z,,,,,,,,,,,,,,,,2,,,,,,,,,,,,,,405.4670000007318,,response,,,1,E,,,,,Space,keypress(Space),,,,lyrical,--- ---- ------ --- ------- ---------- ------- ----------<br>--- --------- --- ----------- ------- ----- ------- ---<br>--------- ---- -- --- ---- -- --------- -- ---- -------<br>-- --------- ------ --- ----- ------ ---- --- --------- --<br>------ - ---- -- --- ----------- ------- ---- ----- -----<br>--- -------- a ------ ---- -- ----- ---- --- --- -----------<br>-- -------,178959.40000000037,178958.80000000075,178536.668,178543.7000000002,178553.333,178969.892,,48,a
screen,html.Screen,0_4_1_0_1_49,2021-11-26T10:45:07.047Z,,,,,,,,,,,,,,,,2,,,,,,,,,,,,,,468.9080000007525,,response,,,1,E,,,,,Space,keypress(Space),,,,lyrical,--- ---- ------ --- ------- ---------- ------- ----------<br>--- --------- --- ----------- ------- ----- ------- ---<br>--------- ---- -- --- ---- -- --------- -- ---- -------<br>-- --------- ------ --- ----- ------ ---- --- --------- --<br>------ - ---- -- --- ----------- ------- ---- ----- -----<br>--- -------- - square ---- -- ----- ---- --- --- -----------<br>-- -------,179439.40000000037,179438.80000000075,178953.228,178959.60000000056,178969.892,179453.325,,49,square
