sender,sender_type,sender_id,timestamp,meta,,Blues,Classical,Country,Dance,Electronic,Folk,Gospel,Hip-Hop,Jazz,Latin,Musical/Film,New-age,Pop,Provo_ID,R&B,Rap,Reggae,Religious,Rock,Soul,Swing,Traditional,age,artist_name,correct,correctResponse,distraction,duration,education,ended_on,familiarity,gender,item,list,music_frequency,offensiveness,pleasantness,preference,response,response_action,snippet_file,song_name,song_rating,sound,text,time_commit,time_end,time_render,time_run,time_show,time_switch,url,word,word_ID
Instructions,html.Page,0_0,2021-11-12T14:45:49.484Z,"{""labjs_version"":""20.2.3"",""labjs_build"":{""flavor"":""production"",""commit"":""7ea907d66ca8aeef8054924ca5d82ffbe11e34e5""},""location"":""https://run.pavlovia.org/mvasilev/lab_music_d/"",""userAgent"":""Mozilla/5.0 (Windows NT 6.1; Win64; x64) AppleWebKit/537.36 (KHTML, like Gecko) Chrome/95.0.4638.69 Safari/537.36"",""platform"":""Win32"",""language"":""en-US"",""locale"":""en-US"",""timeZone"":""Europe/London"",""timezoneOffset"":0,""screen_width"":1920,""screen_height"":1080,""scroll_width"":1920,""scroll_height"":959,""window_innerWidth"":1920,""window_innerHeight"":1007,""devicePixelRatio"":1}",,,,,,,,,,,,,,,,,,,,,,,,,,,,,36617.735,,form submission,,,,,,,,,,,,,,,,45011.199999999255,45010,8358.925,8368.5,8392.265,45012.913,{},,
Headphones,html.Page,0_1,2021-11-12T14:45:53.454Z,,,,,,,,,,,,,,,,,,,,,,,,,,,,,,3967.6870000014897,,form submission,,,,,,,,,,,,,,,,48981.199999999255,48980.60000000149,44996.245,45012,45012.913,48985.547,,,
Holding screen,html.Screen,0_2_0_0,2021-11-12T14:46:03.450Z,,,,,,,,,,,,,,,,,,,,,,,,,,,,,,10002.327000000005,,timeout,,,,,,,,,,,,,,,,58977.60000000149,58971.205,48968.877,48981.89999999851,48985.547,58987.874,,,
screen,html.Screen,0_2_0_1_0,2021-11-12T14:46:05.169Z,,,,,,,,,,,,,,,,53,,,,,,,,,,,,,,1703.0259999985064,,response,,,99,,,,,,Space,keypress(Space),,,,,When -- ----- -- ------ - ------- --- ----------<br>------------- ------ ------ ---- ---- ------- ----- -- ----<br>-------- ------- -- ---------- --- - --- ----- ----- ----<br>---- --- --- ----- --- ---- ---- ------- ----- ---- -------<br>--- --- -- ----- -- --- ---- -- --- ---- -- ------ ------<br>--- ----- -- ----,60692.300000000745,60690.89999999851,58971.205,58978,58987.874,60705.256,,0,When
screen,html.Screen,0_2_0_1_1,2021-11-12T14:46:05.928Z,,,,,,,,,,,,,,,,53,,,,,,,,,,,,,,745.1439999985087,,response,,,99,,,,,,Space,keypress(Space),,,,,---- it ----- -- ------ - ------- --- ----------<br>------------- ------ ------ ---- ---- ------- ----- -- ----<br>-------- ------- -- ---------- --- - --- ----- ----- ----<br>---- --- --- ----- --- ---- ---- ------- ----- ---- -------<br>--- --- -- ----- -- --- ---- -- --- ---- -- ------ ------<br>--- ----- -- ----,61451.39999999851,61450.39999999851,60688.585,60692.60000000149,60705.256,61455.158,,1,it
screen,html.Screen,0_2_0_1_2,2021-11-12T14:46:07.176Z,,,,,,,,,,,,,,,,53,,,,,,,,,,,,,,1243.2419999985068,,response,,,99,,,,,,Space,keypress(Space),,,,,---- -- comes -- ------ - ------- --- ----------<br>------------- ------ ------ ---- ---- ------- ----- -- ----<br>-------- ------- -- ---------- --- - --- ----- ----- ----<br>---- --- --- ----- --- ---- ---- ------- ----- ---- -------<br>--- --- -- ----- -- --- ---- -- --- ---- -- ------ ------<br>--- ----- -- ----,62699.199999999255,62698.39999999851,61438.489,61451.699999999255,61455.158,62705.593,,2,comes
screen,html.Screen,0_2_0_1_3,2021-11-12T14:46:08.040Z,,,,,,,,,,,,,,,,53,,,,,,,,,,,,,,856.7070000007443,,response,,,99,,,,,,Space,keypress(Space),,,,,---- -- ----- to ------ - ------- --- ----------<br>------------- ------ ------ ---- ---- ------- ----- -- ----<br>-------- ------- -- ---------- --- - --- ----- ----- ----<br>---- --- --- ----- --- ---- ---- ------- ----- ---- -------<br>--- --- -- ----- -- --- ---- -- --- ---- -- ------ ------<br>--- ----- -- ----,63563.300000000745,63562.300000000745,62688.923,62699.5,62705.593,63572.608,,3,to
screen,html.Screen,0_2_0_1_4,2021-11-12T14:46:08.888Z,,,,,,,,,,,,,,,,53,,,,,,,,,,,,,,837.5919999992548,,response,,,99,,,,,,Space,keypress(Space),,,,,---- -- ----- -- having - ------- --- ----------<br>------------- ------ ------ ---- ---- ------- ----- -- ----<br>-------- ------- -- ---------- --- - --- ----- ----- ----<br>---- --- --- ----- --- ---- ---- ------- ----- ---- -------<br>--- --- -- ----- -- --- ---- -- --- ---- -- ------ ------<br>--- ----- -- ----,64411.39999999851,64410.199999999255,63555.937,63563.800000000745,63572.608,64422.71,,4,having
screen,html.Screen,0_2_0_1_5,2021-11-12T14:46:09.631Z,,,,,,,,,,,,,,,,53,,,,,,,,,,,,,,731.4899999992558,,response,,,99,,,,,,Space,keypress(Space),,,,,---- -- ----- -- ------ a ------- --- ----------<br>------------- ------ ------ ---- ---- ------- ----- -- ----<br>-------- ------- -- ---------- --- - --- ----- ----- ----<br>---- --- --- ----- --- ---- ---- ------- ----- ---- -------<br>--- --- -- ----- -- --- ---- -- --- ---- -- ------ ------<br>--- ----- -- ----,65155.10000000149,65154.199999999255,64406.04,64411.800000000745,64422.71,65156.233,,5,a
screen,html.Screen,0_2_0_1_6,2021-11-12T14:46:10.311Z,,,,,,,,,,,,,,,,53,,,,,,,,,,,,,,677.9669999992548,,response,,,99,,,,,,Space,keypress(Space),,,,,---- -- ----- -- ------ - lasting --- ----------<br>------------- ------ ------ ---- ---- ------- ----- -- ----<br>-------- ------- -- ---------- --- - --- ----- ----- ----<br>---- --- --- ----- --- ---- ---- ------- ----- ---- -------<br>--- --- -- ----- -- --- ---- -- --- ---- -- ------ ------<br>--- ----- -- ----,65835.10000000149,65834.19999999925,65139.563,65155.60000000149,65156.233,65839.748,,6,lasting
screen,html.Screen,0_2_0_1_7,2021-11-12T14:46:11.359Z,,,,,,,,,,,,,,,,53,,,,,,,,,,,,,,1042.3520000014832,,response,,,99,,,,,,Space,keypress(Space),,,,,---- -- ----- -- ------ - ------- and ----------<br>------------- ------ ------ ---- ---- ------- ----- -- ----<br>-------- ------- -- ---------- --- - --- ----- ----- ----<br>---- --- --- ----- --- ---- ---- ------- ----- ---- -------<br>--- --- -- ----- -- --- ---- -- --- ---- -- ------ ------<br>--- ----- -- ----,66883,66882.10000000149,65823.078,65835.39999999851,65839.748,66890.009,,7,and
screen,html.Screen,0_2_0_1_8,2021-11-12T14:46:12.119Z,,,,,,,,,,,,,,,,53,,,,,,,,,,,,,,751.9909999999945,,response,,,99,,,,,,Space,keypress(Space),,,,,---- -- ----- -- ------ - ------- --- fulfilling<br>------------- ------ ------ ---- ---- ------- ----- -- ----<br>-------- ------- -- ---------- --- - --- ----- ----- ----<br>---- --- --- ----- --- ---- ---- ------- ----- ---- -------<br>--- --- -- ----- -- --- ---- -- --- ---- -- ------ ------<br>--- ----- -- ----,67643,67642,66873.339,66883.39999999851,66890.009,67656.866,,8,fulfilling
screen,html.Screen,0_2_0_1_9,2021-11-12T14:46:13.335Z,,,,,,,,,,,,,,,,53,,,,,,,,,,,,,,1200.9340000007505,,response,,,99,,,,,,Space,keypress(Space),,,,,"---- -- ----- -- ------ - ------- --- ----------<br>relationship, ------ ------ ---- ---- ------- ----- -- ----<br>-------- ------- -- ---------- --- - --- ----- ----- ----<br>---- --- --- ----- --- ---- ---- ------- ----- ---- -------<br>--- --- -- ----- -- --- ---- -- --- ---- -- ------ ------<br>--- ----- -- ----",68858.80000000075,68857.80000000075,67640.196,67643.30000000075,67656.866,68873.783,,9,"relationship,"
screen,html.Screen,0_2_0_1_10,2021-11-12T14:46:14.191Z,,,,,,,,,,,,,,,,53,,,,,,,,,,,,,,840.0170000007492,,response,,,99,,,,,,Space,keypress(Space),,,,,---- -- ----- -- ------ - ------- --- ----------<br>------------- common ------ ---- ---- ------- ----- -- ----<br>-------- ------- -- ---------- --- - --- ----- ----- ----<br>---- --- --- ----- --- ---- ---- ------- ----- ---- -------<br>--- --- -- ----- -- --- ---- -- --- ---- -- ------ ------<br>--- ----- -- ----,69714.69999999925,69713.80000000075,68857.113,68859.10000000149,68873.783,69724.022,,10,common
screen,html.Screen,0_2_0_1_11,2021-11-12T14:46:15.175Z,,,,,,,,,,,,,,,,53,,,,,,,,,,,,,,974.1779999992577,,response,,,99,,,,,,Space,keypress(Space),,,,,---- -- ----- -- ------ - ------- --- ----------<br>------------- ------ wisdom ---- ---- ------- ----- -- ----<br>-------- ------- -- ---------- --- - --- ----- ----- ----<br>---- --- --- ----- --- ---- ---- ------- ----- ---- -------<br>--- --- -- ----- -- --- ---- -- --- ---- -- ------ ------<br>--- ----- -- ----,70699.10000000149,70698.19999999925,69707.352,69715,69724.022,70707.566,,11,wisdom
screen,html.Screen,0_2_0_1_12,2021-11-12T14:46:16.007Z,,,,,,,,,,,,,,,,53,,,,,,,,,,,,,,822.1339999992488,,response,,,99,,,,,,Space,keypress(Space),,,,,---- -- ----- -- ------ - ------- --- ----------<br>------------- ------ ------ says ---- ------- ----- -- ----<br>-------- ------- -- ---------- --- - --- ----- ----- ----<br>---- --- --- ----- --- ---- ---- ------- ----- ---- -------<br>--- --- -- ----- -- --- ---- -- --- ---- -- ------ ------<br>--- ----- -- ----,71530.60000000149,71529.69999999925,70690.896,70699.30000000075,70707.566,71541.091,,12,says
screen,html.Screen,0_2_0_1_13,2021-11-12T14:46:16.975Z,,,,,,,,,,,,,,,,53,,,,,,,,,,,,,,956.7090000007447,,response,,,99,,,,,,Space,keypress(Space),,,,,---- -- ----- -- ------ - ------- --- ----------<br>------------- ------ ------ ---- that ------- ----- -- ----<br>-------- ------- -- ---------- --- - --- ----- ----- ----<br>---- --- --- ----- --- ---- ---- ------- ----- ---- -------<br>--- --- -- ----- -- --- ---- -- --- ---- -- ------ ------<br>--- ----- -- ----,72498.5,72497.80000000075,71524.421,71530.80000000075,71541.091,72508.05,,13,that
screen,html.Screen,0_2_0_1_14,2021-11-12T14:46:17.927Z,,,,,,,,,,,,,,,,53,,,,,,,,,,,,,,941.5500000014872,,response,,,99,,,,,,Space,keypress(Space),,,,,---- -- ----- -- ------ - ------- --- ----------<br>------------- ------ ------ ---- ---- feeling ----- -- ----<br>-------- ------- -- ---------- --- - --- ----- ----- ----<br>---- --- --- ----- --- ---- ---- ------- ----- ---- -------<br>--- --- -- ----- -- --- ---- -- --- ---- -- ------ ------<br>--- ----- -- ----,73450.39999999851,73449.60000000149,72491.38,72498.89999999851,72508.05,73458.245,,14,feeling
screen,html.Screen,0_2_0_1_15,2021-11-12T14:46:18.815Z,,,,,,,,,,,,,,,,53,,,,,,,,,,,,,,879.3550000014948,,response,,,99,,,,,,Space,keypress(Space),,,,,---- -- ----- -- ------ - ------- --- ----------<br>------------- ------ ------ ---- ---- ------- close -- ----<br>-------- ------- -- ---------- --- - --- ----- ----- ----<br>---- --- --- ----- --- ---- ---- ------- ----- ---- -------<br>--- --- -- ----- -- --- ---- -- --- ---- -- ------ ------<br>--- ----- -- ----,74338.39999999851,74337.60000000149,73441.575,73450.69999999925,73458.245,74341.623,,15,close
screen,html.Screen,0_2_0_1_16,2021-11-12T14:46:19.599Z,,,,,,,,,,,,,,,,53,,,,,,,,,,,,,,779.8769999999931,,response,,,99,,,,,,Space,keypress(Space),,,,,---- -- ----- -- ------ - ------- --- ----------<br>------------- ------ ------ ---- ---- ------- ----- to ----<br>-------- ------- -- ---------- --- - --- ----- ----- ----<br>---- --- --- ----- --- ---- ---- ------- ----- ---- -------<br>--- --- -- ----- -- --- ---- -- --- ---- -- ------ ------<br>--- ----- -- ----,75122.30000000075,75121.5,74324.954,74338.60000000149,74341.623,75125.432,,16,to
screen,html.Screen,0_2_0_1_17,2021-11-12T14:46:20.167Z,,,,,,,,,,,,,,,,53,,,,,,,,,,,,,,563.9679999985092,,response,,,99,,,,,,Space,keypress(Space),,,,,---- -- ----- -- ------ - ------- --- ----------<br>------------- ------ ------ ---- ---- ------- ----- -- your<br>-------- ------- -- ---------- --- - --- ----- ----- ----<br>---- --- --- ----- --- ---- ---- ------- ----- ---- -------<br>--- --- -- ----- -- --- ---- -- --- ---- -- ------ ------<br>--- ----- -- ----,75690.19999999925,75689.39999999851,75108.761,75122.60000000149,75125.432,75692.035,,17,your
screen,html.Screen,0_2_0_1_18,2021-11-12T14:46:20.999Z,,,,,,,,,,,,,,,,53,,,,,,,,,,,,,,829.3649999985064,,response,,,99,,,,,,Space,keypress(Space),,,,,---- -- ----- -- ------ - ------- --- ----------<br>------------- ------ ------ ---- ---- ------- ----- -- ----<br>romantic ------- -- ---------- --- - --- ----- ----- ----<br>---- --- --- ----- --- ---- ---- ------- ----- ---- -------<br>--- --- -- ----- -- --- ---- -- --- ---- -- ------ ------<br>--- ----- -- ----,76522.19999999925,76521.39999999851,75675.366,75690.5,75692.035,76525.755,,18,romantic
screen,html.Screen,0_2_0_1_19,2021-11-12T14:46:21.799Z,,,,,,,,,,,,,,,,53,,,,,,,,,,,,,,795.6449999985052,,response,,,99,,,,,,Space,keypress(Space),,,,,---- -- ----- -- ------ - ------- --- ----------<br>------------- ------ ------ ---- ---- ------- ----- -- ----<br>-------- partner -- ---------- --- - --- ----- ----- ----<br>---- --- --- ----- --- ---- ---- ------- ----- ---- -------<br>--- --- -- ----- -- --- ---- -- --- ---- -- ------ ------<br>--- ----- -- ----,77322.19999999925,77321.39999999851,76509.084,76522.5,76525.755,77325.893,,19,partner
screen,html.Screen,0_2_0_1_20,2021-11-12T14:46:22.782Z,,,,,,,,,,,,,,,,53,,,,,,,,,,,,,,979.4070000007487,,response,,,99,,,,,,Space,keypress(Space),,,,,---- -- ----- -- ------ - ------- --- ----------<br>------------- ------ ------ ---- ---- ------- ----- -- ----<br>-------- ------- is ---------- --- - --- ----- ----- ----<br>---- --- --- ----- --- ---- ---- ------- ----- ---- -------<br>--- --- -- ----- -- --- ---- -- --- ---- -- ------ ------<br>--- ----- -- ----,78306.19999999925,78305.30000000075,77309.223,77322.5,77325.893,78309.449,,20,is
screen,html.Screen,0_2_0_1_21,2021-11-12T14:46:24.142Z,,,,,,,,,,,,,,,,53,,,,,,,,,,,,,,1355.7509999992617,,response,,,99,,,,,,Space,keypress(Space),,,,,---- -- ----- -- ------ - ------- --- ----------<br>------------- ------ ------ ---- ---- ------- ----- -- ----<br>-------- ------- -- paramount. --- - --- ----- ----- ----<br>---- --- --- ----- --- ---- ---- ------- ----- ---- -------<br>--- --- -- ----- -- --- ---- -- --- ---- -- ------ ------<br>--- ----- -- ----,79666,79665.19999999925,78292.779,78306.39999999851,78309.449,79676.374,,21,paramount.
screen,html.Screen,0_2_0_1_22,2021-11-12T14:46:24.982Z,,,,,,,,,,,,,,,,53,,,,,,,,,,,,,,828.726000001494,,response,,,99,,,,,,Space,keypress(Space),,,,,---- -- ----- -- ------ - ------- --- ----------<br>------------- ------ ------ ---- ---- ------- ----- -- ----<br>-------- ------- -- ---------- But - --- ----- ----- ----<br>---- --- --- ----- --- ---- ---- ------- ----- ---- -------<br>--- --- -- ----- -- --- ---- -- --- ---- -- ------ ------<br>--- ----- -- ----,80506.10000000149,80505.10000000149,79659.704,79666.5,79676.374,80509.952,,22,But
screen,html.Screen,0_2_0_1_23,2021-11-12T14:46:25.519Z,,,,,,,,,,,,,,,,53,,,,,,,,,,,,,,531.5479999999952,,response,,,99,,,,,,Space,keypress(Space),,,,,---- -- ----- -- ------ - ------- --- ----------<br>------------- ------ ------ ---- ---- ------- ----- -- ----<br>-------- ------- -- ---------- --- a --- ----- ----- ----<br>---- --- --- ----- --- ---- ---- ------- ----- ---- -------<br>--- --- -- ----- -- --- ---- -- --- ---- -- ------ ------<br>--- ----- -- ----,81042.30000000075,81041.5,80493.282,80506.5,80509.952,81043.374,,23,a
screen,html.Screen,0_2_0_1_24,2021-11-12T14:46:26.142Z,,,,,,,,,,,,,,,,53,,,,,,,,,,,,,,621.726000001494,,response,,,99,,,,,,Space,keypress(Space),,,,,---- -- ----- -- ------ - ------- --- ----------<br>------------- ------ ------ ---- ---- ------- ----- -- ----<br>-------- ------- -- ---------- --- - new ----- ----- ----<br>---- --- --- ----- --- ---- ---- ------- ----- ---- -------<br>--- --- -- ----- -- --- ---- -- --- ---- -- ------ ------<br>--- ----- -- ----,81665.89999999851,81665.10000000149,81026.704,81042.60000000149,81043.374,81677.018,,24,new
screen,html.Screen,0_2_0_1_25,2021-11-12T14:46:26.662Z,,,,,,,,,,,,,,,,53,,,,,,,,,,,,,,507.9820000000036,,response,,,99,,,,,,Space,keypress(Space),,,,,---- -- ----- -- ------ - ------- --- ----------<br>------------- ------ ------ ---- ---- ------- ----- -- ----<br>-------- ------- -- ---------- --- - --- study ----- ----<br>---- --- --- ----- --- ---- ---- ------- ----- ---- -------<br>--- --- -- ----- -- --- ---- -- --- ---- -- ------ ------<br>--- ----- -- ----,82185.89999999851,82185,81660.347,81666.19999999925,81677.018,82193.72,,25,study
screen,html.Screen,0_2_0_1_26,2021-11-12T14:46:27.198Z,,,,,,,,,,,,,,,,53,,,,,,,,,,,,,,527.2799999999988,,response,,,99,,,,,,Space,keypress(Space),,,,,---- -- ----- -- ------ - ------- --- ----------<br>------------- ------ ------ ---- ---- ------- ----- -- ----<br>-------- ------- -- ---------- --- - --- ----- finds ----<br>---- --- --- ----- --- ---- ---- ------- ----- ---- -------<br>--- --- -- ----- -- --- ---- -- --- ---- -- ------ ------<br>--- ----- -- ----,82721.80000000075,82721,82177.05,82186.30000000075,82193.72,82727.211,,26,finds
screen,html.Screen,0_2_0_1_27,2021-11-12T14:46:27.798Z,,,,,,,,,,,,,,,,53,,,,,,,,,,,,,,593.6889999985142,,response,,,99,,,,,,Space,keypress(Space),,,,,---- -- ----- -- ------ - ------- --- ----------<br>------------- ------ ------ ---- ---- ------- ----- -- ----<br>-------- ------- -- ---------- --- - --- ----- ----- that<br>---- --- --- ----- --- ---- ---- ------- ----- ---- -------<br>--- --- -- ----- -- --- ---- -- --- ---- -- ------ ------<br>--- ----- -- ----,83321.80000000075,83320.89999999851,82710.541,82722.19999999925,82727.211,83327.24,,27,that
screen,html.Screen,0_2_0_1_28,2021-11-12T14:46:28.670Z,,,,,,,,,,,,,,,,53,,,,,,,,,,,,,,865.5600000007398,,response,,,99,,,,,,Space,keypress(Space),,,,,---- -- ----- -- ------ - ------- --- ----------<br>------------- ------ ------ ---- ---- ------- ----- -- ----<br>-------- ------- -- ---------- --- - --- ----- ----- ----<br>it's --- --- ----- --- ---- ---- ------- ----- ---- -------<br>--- --- -- ----- -- --- ---- -- --- ---- -- ------ ------<br>--- ----- -- ----,84193.60000000149,84192.80000000075,83310.571,83322.19999999925,83327.24,84210.977,,28,it's
screen,html.Screen,0_2_0_1_29,2021-11-12T14:46:29.566Z,,,,,,,,,,,,,,,,53,,,,,,,,,,,,,,877.722999999256,,response,,,99,,,,,,Space,keypress(Space),,,,,---- -- ----- -- ------ - ------- --- ----------<br>------------- ------ ------ ---- ---- ------- ----- -- ----<br>-------- ------- -- ---------- --- - --- ----- ----- ----<br>---- not --- ----- --- ---- ---- ------- ----- ---- -------<br>--- --- -- ----- -- --- ---- -- --- ---- -- ------ ------<br>--- ----- -- ----,85089.60000000149,85088.69999999925,84194.306,84193.89999999851,84210.977,85094.431,,29,not
screen,html.Screen,0_2_0_1_30,2021-11-12T14:46:30.078Z,,,,,,,,,,,,,,,,53,,,,,,,,,,,,,,506.2689999992581,,response,,,99,,,,,,Space,keypress(Space),,,,,---- -- ----- -- ------ - ------- --- ----------<br>------------- ------ ------ ---- ---- ------- ----- -- ----<br>-------- ------- -- ---------- --- - --- ----- ----- ----<br>---- --- how ----- --- ---- ---- ------- ----- ---- -------<br>--- --- -- ----- -- --- ---- -- --- ---- -- ------ ------<br>--- ----- -- ----,85601.5,85600.69999999925,85077.761,85089.89999999851,85094.431,85611.214,,30,how
screen,html.Screen,0_2_0_1_31,2021-11-12T14:46:30.854Z,,,,,,,,,,,,,,,,53,,,,,,,,,,,,,,765.4859999992477,,response,,,99,,,,,,Space,keypress(Space),,,,,---- -- ----- -- ------ - ------- --- ----------<br>------------- ------ ------ ---- ---- ------- ----- -- ----<br>-------- ------- -- ---------- --- - --- ----- ----- ----<br>---- --- --- close --- ---- ---- ------- ----- ---- -------<br>--- --- -- ----- -- --- ---- -- --- ---- -- ------ ------<br>--- ----- -- ----,86377.5,86376.69999999925,85594.544,85601.80000000075,85611.214,86394.743,,31,close
screen,html.Screen,0_2_0_1_32,2021-11-12T14:46:31.318Z,,,,,,,,,,,,,,,,53,,,,,,,,,,,,,,445.95699999925273,,response,,,99,,,,,,Space,keypress(Space),,,,,---- -- ----- -- ------ - ------- --- ----------<br>------------- ------ ------ ---- ---- ------- ----- -- ----<br>-------- ------- -- ---------- --- - --- ----- ----- ----<br>---- --- --- ----- you ---- ---- ------- ----- ---- -------<br>--- --- -- ----- -- --- ---- -- --- ---- -- ------ ------<br>--- ----- -- ----,86841.39999999851,86840.69999999925,86378.073,86377.80000000075,86394.743,86844.887,,32,you
screen,html.Screen,0_2_0_1_33,2021-11-12T14:46:31.790Z,,,,,,,,,,,,,,,,53,,,,,,,,,,,,,,467.71300000148767,,response,,,99,,,,,,Space,keypress(Space),,,,,---- -- ----- -- ------ - ------- --- ----------<br>------------- ------ ------ ---- ---- ------- ----- -- ----<br>-------- ------- -- ---------- --- - --- ----- ----- ----<br>---- --- --- ----- --- feel ---- ------- ----- ---- -------<br>--- --- -- ----- -- --- ---- -- --- ---- -- ------ ------<br>--- ----- -- ----,87313.39999999851,87312.60000000149,86828.217,86841.69999999925,86844.887,87328.323,,33,feel
screen,html.Screen,0_2_0_1_34,2021-11-12T14:46:32.262Z,,,,,,,,,,,,,,,,53,,,,,,,,,,,,,,456.27700000148616,,response,,,99,,,,,,Space,keypress(Space),,,,,---- -- ----- -- ------ - ------- --- ----------<br>------------- ------ ------ ---- ---- ------- ----- -- ----<br>-------- ------- -- ---------- --- - --- ----- ----- ----<br>---- --- --- ----- --- ---- that ------- ----- ---- -------<br>--- --- -- ----- -- --- ---- -- --- ---- -- ------ ------<br>--- ----- -- ----,87785.5,87784.60000000149,87311.653,87313.69999999925,87328.323,87795.088,,34,that
screen,html.Screen,0_2_0_1_35,2021-11-12T14:46:32.790Z,,,,,,,,,,,,,,,,53,,,,,,,,,,,,,,517.4119999999966,,response,,,99,,,,,,Space,keypress(Space),,,,,---- -- ----- -- ------ - ------- --- ----------<br>------------- ------ ------ ---- ---- ------- ----- -- ----<br>-------- ------- -- ---------- --- - --- ----- ----- ----<br>---- --- --- ----- --- ---- ---- matters ----- ---- -------<br>--- --- -- ----- -- --- ---- -- --- ---- -- ------ ------<br>--- ----- -- ----,88313.39999999851,88312.5,87778.418,87785.89999999851,87795.088,88328.523,,35,matters
screen,html.Screen,0_2_0_1_36,2021-11-12T14:46:33.286Z,,,,,,,,,,,,,,,,53,,,,,,,,,,,,,,480.07700000148907,,response,,,99,,,,,,Space,keypress(Space),,,,,"---- -- ----- -- ------ - ------- --- ----------<br>------------- ------ ------ ---- ---- ------- ----- -- ----<br>-------- ------- -- ---------- --- - --- ----- ----- ----<br>---- --- --- ----- --- ---- ---- ------- most, ---- -------<br>--- --- -- ----- -- --- ---- -- --- ---- -- ------ ------<br>--- ----- -- ----",88809.60000000149,88808.60000000149,88311.853,88313.60000000149,88328.523,88812.035,,36,"most,"
screen,html.Screen,0_2_0_1_37,2021-11-12T14:46:33.910Z,,,,,,,,,,,,,,,,53,,,,,,,,,,,,,,620.4649999999965,,response,,,99,,,,,,Space,keypress(Space),,,,,---- -- ----- -- ------ - ------- --- ----------<br>------------- ------ ------ ---- ---- ------- ----- -- ----<br>-------- ------- -- ---------- --- - --- ----- ----- ----<br>---- --- --- ----- --- ---- ---- ------- ----- it's -------<br>--- --- -- ----- -- --- ---- -- --- ---- -- ------ ------<br>--- ----- -- ----,89433.30000000075,89432.5,88795.364,88809.89999999851,88812.035,89445.458,,37,it's
screen,html.Screen,0_2_0_1_38,2021-11-12T14:46:34.438Z,,,,,,,,,,,,,,,,53,,,,,,,,,,,,,,515.0420000000013,,response,,,99,,,,,,Space,keypress(Space),,,,,---- -- ----- -- ------ - ------- --- ----------<br>------------- ------ ------ ---- ---- ------- ----- -- ----<br>-------- ------- -- ---------- --- - --- ----- ----- ----<br>---- --- --- ----- --- ---- ---- ------- ----- ---- whether<br>--- --- -- ----- -- --- ---- -- --- ---- -- ------ ------<br>--- ----- -- ----,89961.39999999851,89960.5,89428.788,89433.60000000149,89445.458,89962.344,,38,whether
screen,html.Screen,0_2_0_1_39,2021-11-12T14:46:34.942Z,,,,,,,,,,,,,,,,53,,,,,,,,,,,,,,502.1560000000027,,response,,,99,,,,,,Space,keypress(Space),,,,,---- -- ----- -- ------ - ------- --- ----------<br>------------- ------ ------ ---- ---- ------- ----- -- ----<br>-------- ------- -- ---------- --- - --- ----- ----- ----<br>---- --- --- ----- --- ---- ---- ------- ----- ---- -------<br>you --- -- ----- -- --- ---- -- --- ---- -- ------ ------<br>--- ----- -- ----,90465.30000000075,90464.5,89945.673,89961.60000000149,89962.344,90478.95,,39,you
screen,html.Screen,0_2_0_1_40,2021-11-12T14:46:35.366Z,,,,,,,,,,,,,,,,53,,,,,,,,,,,,,,409.4499999985128,,response,,,99,,,,,,Space,keypress(Space),,,,,---- -- ----- -- ------ - ------- --- ----------<br>------------- ------ ------ ---- ---- ------- ----- -- ----<br>-------- ------- -- ---------- --- - --- ----- ----- ----<br>---- --- --- ----- --- ---- ---- ------- ----- ---- -------<br>--- are -- ----- -- --- ---- -- --- ---- -- ------ ------<br>--- ----- -- ----,90889.10000000149,90888.39999999851,90462.281,90465.5,90478.95,90895.959,,40,are
screen,html.Screen,0_2_0_1_41,2021-11-12T14:46:35.894Z,,,,,,,,,,,,,,,,53,,,,,,,,,,,,,,520.8410000007425,,response,,,99,,,,,,Space,keypress(Space),,,,,---- -- ----- -- ------ - ------- --- ----------<br>------------- ------ ------ ---- ---- ------- ----- -- ----<br>-------- ------- -- ---------- --- - --- ----- ----- ----<br>---- --- --- ----- --- ---- ---- ------- ----- ---- -------<br>--- --- as ----- -- --- ---- -- --- ---- -- ------ ------<br>--- ----- -- ----,91417.60000000149,91416.80000000075,90879.287,90889.39999999851,90895.959,91429.323,,41,as
screen,html.Screen,0_2_0_1_42,2021-11-12T14:46:36.318Z,,,,,,,,,,,,,,,,53,,,,,,,,,,,,,,411.0769999985059,,response,,,99,,,,,,Space,keypress(Space),,,,,---- -- ----- -- ------ - ------- --- ----------<br>------------- ------ ------ ---- ---- ------- ----- -- ----<br>-------- ------- -- ---------- --- - --- ----- ----- ----<br>---- --- --- ----- --- ---- ---- ------- ----- ---- -------<br>--- --- -- close -- --- ---- -- --- ---- -- ------ ------<br>--- ----- -- ----,91841.19999999925,91840.39999999851,91412.653,91417.80000000075,91429.323,91846.082,,42,close
screen,html.Screen,0_2_0_1_43,2021-11-12T14:46:36.817Z,,,,,,,,,,,,,,,,53,,,,,,,,,,,,,,493.317999998515,,response,,,99,,,,,,Space,keypress(Space),,,,,---- -- ----- -- ------ - ------- --- ----------<br>------------- ------ ------ ---- ---- ------- ----- -- ----<br>-------- ------- -- ---------- --- - --- ----- ----- ----<br>---- --- --- ----- --- ---- ---- ------- ----- ---- -------<br>--- --- -- ----- as --- ---- -- --- ---- -- ------ ------<br>--- ----- -- ----,92340.30000000075,92339.39999999851,91829.412,91841.39999999851,91846.082,92346.117,,43,as
screen,html.Screen,0_2_0_1_44,2021-11-12T14:46:37.509Z,,,,,,,,,,,,,,,,53,,,,,,,,,,,,,,686.1830000007467,,response,,,99,,,,,,Space,keypress(Space),,,,,---- -- ----- -- ------ - ------- --- ----------<br>------------- ------ ------ ---- ---- ------- ----- -- ----<br>-------- ------- -- ---------- --- - --- ----- ----- ----<br>---- --- --- ----- --- ---- ---- ------- ----- ---- -------<br>--- --- -- ----- -- you ---- -- --- ---- -- ------ ------<br>--- ----- -- ----,93033.10000000149,93032.30000000075,92329.448,92340.5,92346.117,93046.444,,44,you
screen,html.Screen,0_2_0_1_45,2021-11-12T14:46:38.365Z,,,,,,,,,,,,,,,,53,,,,,,,,,,,,,,841.656000001487,,response,,,99,,,,,,Space,keypress(Space),,,,,---- -- ----- -- ------ - ------- --- ----------<br>------------- ------ ------ ---- ---- ------- ----- -- ----<br>-------- ------- -- ---------- --- - --- ----- ----- ----<br>---- --- --- ----- --- ---- ---- ------- ----- ---- -------<br>--- --- -- ----- -- --- want -- --- ---- -- ------ ------<br>--- ----- -- ----,93889,93888.10000000149,93029.773,93033.19999999925,93046.444,93896.572,,45,want
screen,html.Screen,0_2_0_1_46,2021-11-12T14:46:38.861Z,,,,,,,,,,,,,,,,53,,,,,,,,,,,,,,487.52800000149,,response,,,99,,,,,,Space,keypress(Space),,,,,---- -- ----- -- ------ - ------- --- ----------<br>------------- ------ ------ ---- ---- ------- ----- -- ----<br>-------- ------- -- ---------- --- - --- ----- ----- ----<br>---- --- --- ----- --- ---- ---- ------- ----- ---- -------<br>--- --- -- ----- -- --- ---- to --- ---- -- ------ ------<br>--- ----- -- ----,94384.89999999851,94384.10000000149,93879.902,93889.19999999925,93896.572,94396.663,,46,to
screen,html.Screen,0_2_0_1_47,2021-11-12T14:46:39.541Z,,,,,,,,,,,,,,,,53,,,,,,,,,,,,,,667.4370000014897,,response,,,99,,,,,,Space,keypress(Space),,,,,"---- -- ----- -- ------ - ------- --- ----------<br>------------- ------ ------ ---- ---- ------- ----- -- ----<br>-------- ------- -- ---------- --- - --- ----- ----- ----<br>---- --- --- ----- --- ---- ---- ------- ----- ---- -------<br>--- --- -- ----- -- --- ---- -- be, ---- -- ------ ------<br>--- ----- -- ----",95064.89999999851,95064.10000000149,94379.993,94385.19999999925,94396.663,95080.084,,47,"be,"
screen,html.Screen,0_2_0_1_48,2021-11-12T14:46:40.133Z,,,,,,,,,,,,,,,,53,,,,,,,,,,,,,,576.0160000014876,,response,,,99,,,,,,Space,keypress(Space),,,,,---- -- ----- -- ------ - ------- --- ----------<br>------------- ------ ------ ---- ---- ------- ----- -- ----<br>-------- ------- -- ---------- --- - --- ----- ----- ----<br>---- --- --- ----- --- ---- ---- ------- ----- ---- -------<br>--- --- -- ----- -- --- ---- -- --- even -- ------ ------<br>--- ----- -- ----,95657,95656.10000000149,95063.415,95065.19999999925,95080.084,95663.821,,48,even
screen,html.Screen,0_2_0_1_49,2021-11-12T14:46:40.621Z,,,,,,,,,,,,,,,,53,,,,,,,,,,,,,,480.1790000000037,,response,,,99,,,,,,Space,keypress(Space),,,,,---- -- ----- -- ------ - ------- --- ----------<br>------------- ------ ------ ---- ---- ------- ----- -- ----<br>-------- ------- -- ---------- --- - --- ----- ----- ----<br>---- --- --- ----- --- ---- ---- ------- ----- ---- -------<br>--- --- -- ----- -- --- ---- -- --- ---- if ------ ------<br>--- ----- -- ----,96144.89999999851,96144,95647.149,95657.19999999925,95663.821,96147.095,,49,if
screen,html.Screen,0_2_0_1_50,2021-11-12T14:46:41.141Z,,,,,,,,,,,,,,,,53,,,,,,,,,,,,,,516.9049999999988,,response,,,99,,,,,,Space,keypress(Space),,,,,---- -- ----- -- ------ - ------- --- ----------<br>------------- ------ ------ ---- ---- ------- ----- -- ----<br>-------- ------- -- ---------- --- - --- ----- ----- ----<br>---- --- --- ----- --- ---- ---- ------- ----- ---- -------<br>--- --- -- ----- -- --- ---- -- --- ---- -- that's ------<br>--- ----- -- ----,96664.80000000075,96664,96130.425,96145.10000000149,96147.095,96680.592,,50,that's
screen,html.Screen,0_2_0_1_51,2021-11-12T14:46:41.685Z,,,,,,,,,,,,,,,,53,,,,,,,,,,,,,,527.3079999985057,,response,,,99,,,,,,Space,keypress(Space),,,,,---- -- ----- -- ------ - ------- --- ----------<br>------------- ------ ------ ---- ---- ------- ----- -- ----<br>-------- ------- -- ---------- --- - --- ----- ----- ----<br>---- --- --- ----- --- ---- ---- ------- ----- ---- -------<br>--- --- -- ----- -- --- ---- -- --- ---- -- ------ really<br>--- ----- -- ----,97208.69999999925,97207.89999999851,96663.922,96665.10000000149,96680.592,97214.065,,51,really
screen,html.Screen,0_2_0_1_52,2021-11-12T14:46:42.181Z,,,,,,,,,,,,,,,,53,,,,,,,,,,,,,,489.83499999850756,,response,,,99,,,,,,Space,keypress(Space),,,,,---- -- ----- -- ------ - ------- --- ----------<br>------------- ------ ------ ---- ---- ------- ----- -- ----<br>-------- ------- -- ---------- --- - --- ----- ----- ----<br>---- --- --- ----- --- ---- ---- ------- ----- ---- -------<br>--- --- -- ----- -- --- ---- -- --- ---- -- ------ ------<br>not ----- -- ----,97704.69999999925,97703.89999999851,97197.395,97209,97214.065,97714.166,,52,not
screen,html.Screen,0_2_0_1_53,2021-11-12T14:46:42.677Z,,,,,,,,,,,,,,,,53,,,,,,,,,,,,,,485.73399999851245,,response,,,99,,,,,,Space,keypress(Space),,,,,---- -- ----- -- ------ - ------- --- ----------<br>------------- ------ ------ ---- ---- ------- ----- -- ----<br>-------- ------- -- ---------- --- - --- ----- ----- ----<br>---- --- --- ----- --- ---- ---- ------- ----- ---- -------<br>--- --- -- ----- -- --- ---- -- --- ---- -- ------ ------<br>--- close -- ----,98200.69999999925,98199.89999999851,97697.496,97705,97714.166,98214.297,,53,close
screen,html.Screen,0_2_0_1_54,2021-11-12T14:46:43.117Z,,,,,,,,,,,,,,,,53,,,,,,,,,,,,,,425.60299999850395,,response,,,99,,,,,,Space,keypress(Space),,,,,---- -- ----- -- ------ - ------- --- ----------<br>------------- ------ ------ ---- ---- ------- ----- -- ----<br>-------- ------- -- ---------- --- - --- ----- ----- ----<br>---- --- --- ----- --- ---- ---- ------- ----- ---- -------<br>--- --- -- ----- -- --- ---- -- --- ---- -- ------ ------<br>--- ----- at ----,98640.69999999925,98639.89999999851,98197.627,98200.89999999851,98214.297,98647.659,,54,at
screen,html.Screen,0_2_0_1_55,2021-11-12T14:46:43.557Z,,,,,,,,,,,,,,,,53,,,,,,,,,,,,,,432.1410000007454,,response,,,99,,,,,,Space,keypress(Space),,,,,---- -- ----- -- ------ - ------- --- ----------<br>------------- ------ ------ ---- ---- ------- ----- -- ----<br>-------- ------- -- ---------- --- - --- ----- ----- ----<br>---- --- --- ----- --- ---- ---- ------- ----- ---- -------<br>--- --- -- ----- -- --- ---- -- --- ---- -- ------ ------<br>--- ----- -- all.,99080.69999999925,99079.80000000075,98630.99,98640.89999999851,98647.659,99097.801,,55,all.
Item 99,flow.Loop,0_2_0_1,2021-11-12T14:46:43.561Z,,,,,,,,,,,,,,,,,,,,,,,,,,,,,,40091.92600000074,,completion,,,,D,,,,,,,,,,silence,,99085,99079.80000000075,58971.205,58977.89999999851,58987.874,99097.801,,,
Question 1,html.Screen,0_2_0_2,2021-11-12T14:46:48.813Z,,,,,,,,,,,,,,,,,,,,,,,,,,,false,FALSE,,5237.299000001483,,response,,,99,D,,,,,TRUE,click #choice-1,,,,silence,,104336.60000000149,104335.10000000149,99081.131,99085.39999999851,99097.801,104349.094,,,
Question 2,html.Screen,0_2_0_3,2021-11-12T14:46:55.428Z,,,,,,,,,,,,,,,,,,,,,,,,,,,false,TRUE,,6601.605999999258,,response,,,99,D,,,,,FALSE,click #choice-2,,,,silence,,110952,110950.69999999925,104332.424,104336.80000000075,104349.094,110967.426,,,
Item 99,flow.Sequence,0_2_0,2021-11-12T14:46:55.429Z,,,,,,,,,,,,,,,,,,,,,,,,,,,,,,61965.152999999256,,completion,,,,,,,,,,,,,,,,110952.60000000149,110950.69999999925,48968.877,48981.800000000745,48985.547,110967.426,,,
Holding screen,html.Screen,0_2_1_0,2021-11-12T14:47:05.434Z,,,,,,,,,,,,,,,,,,,,,,,,,,,,,,10002.288,,timeout,,,,,,,,,,,,,,,,120953.5,120953.044,110950.755,110953.10000000149,110967.426,120969.714,,,
screen,html.Screen,0_2_1_1_0,2021-11-12T14:47:06.952Z,,,,,,,,,,,,,,,,54,,,,,,,,,,,,,,1500.886000001483,,response,,,100,,,,,,Space,keypress(Space),,,,,At --- ---- --- ------ ----- ------- ---- -- --- ------- --<br>------- ---------- ------ -- ----- -- ----- -- ---- ------<br>--- ----- --- --- ------ -------- ----- --- ------ ----- --<br>----- ----- ---------- --- --- ------ ------ ---- -- ------<br>------- --- ------ ----- --- ---- ------- -- ---- --- --<br>------- ------,122471.39999999851,122470.60000000149,120953.044,120953.60000000149,120969.714,122486.922,,0,At
screen,html.Screen,0_2_1_1_1,2021-11-12T14:47:07.528Z,,,,,,,,,,,,,,,,54,,,,,,,,,,,,,,559.1780000014842,,response,,,100,,,,,,Space,keypress(Space),,,,,-- the ---- --- ------ ----- ------- ---- -- --- ------- --<br>------- ---------- ------ -- ----- -- ----- -- ---- ------<br>--- ----- --- --- ------ -------- ----- --- ------ ----- --<br>----- ----- ---------- --- --- ------ ------ ---- -- ------<br>------- --- ------ ----- --- ---- ------- -- ---- --- --<br>------- ------,123046.89999999851,123046.10000000149,122470.251,122471.69999999925,122486.922,123053.446,,1,the
screen,html.Screen,0_2_1_1_2,2021-11-12T14:47:08.136Z,,,,,,,,,,,,,,,,54,,,,,,,,,,,,,,600.6540000014938,,response,,,100,,,,,,Space,keypress(Space),,,,,-- --- time --- ------ ----- ------- ---- -- --- ------- --<br>------- ---------- ------ -- ----- -- ----- -- ---- ------<br>--- ----- --- --- ------ -------- ----- --- ------ ----- --<br>----- ----- ---------- --- --- ------ ------ ---- -- ------<br>------- --- ------ ----- --- ---- ------- -- ---- --- --<br>------- ------,123654.89999999851,123654.10000000149,123036.777,123047.19999999925,123053.446,123670.538,,2,time
screen,html.Screen,0_2_1_1_3,2021-11-12T14:47:08.608Z,,,,,,,,,,,,,,,,54,,,,,,,,,,,,,,455.46199999999953,,response,,,100,,,,,,Space,keypress(Space),,,,,-- --- ---- the ------ ----- ------- ---- -- --- ------- --<br>------- ---------- ------ -- ----- -- ----- -- ---- ------<br>--- ----- --- --- ------ -------- ----- --- ------ ----- --<br>----- ----- ---------- --- --- ------ ------ ---- -- ------<br>------- --- ------ ----- --- ---- ------- -- ---- --- --<br>------- ------,124126.80000000075,124126,123653.867,123655.19999999925,123670.538,124137.249,,3,the
screen,html.Screen,0_2_1_1_4,2021-11-12T14:47:09.216Z,,,,,,,,,,,,,,,,54,,,,,,,,,,,,,,596.7510000000038,,response,,,100,,,,,,Space,keypress(Space),,,,,-- --- ---- --- French ----- ------- ---- -- --- ------- --<br>------- ---------- ------ -- ----- -- ----- -- ---- ------<br>--- ----- --- --- ------ -------- ----- --- ------ ----- --<br>----- ----- ---------- --- --- ------ ------ ---- -- ------<br>------- --- ------ ----- --- ---- ------- -- ---- --- --<br>------- ------,124734.80000000075,124734,124120.579,124127.10000000149,124137.249,124737.391,,4,French
screen,html.Screen,0_2_1_1_5,2021-11-12T14:47:09.728Z,,,,,,,,,,,,,,,,54,,,,,,,,,,,,,,508.60899999999674,,response,,,100,,,,,,Space,keypress(Space),,,,,-- --- ---- --- ------ crown ------- ---- -- --- ------- --<br>------- ---------- ------ -- ----- -- ----- -- ---- ------<br>--- ----- --- --- ------ -------- ----- --- ------ ----- --<br>----- ----- ---------- --- --- ------ ------ ---- -- ------<br>------- --- ------ ----- --- ---- ------- -- ---- --- --<br>------- ------,125246.69999999925,125246,124720.721,124735,124737.391,125254.03,,5,crown
screen,html.Screen,0_2_1_1_6,2021-11-12T14:47:10.176Z,,,,,,,,,,,,,,,,54,,,,,,,,,,,,,,439.97000000000116,,response,,,100,,,,,,Space,keypress(Space),,,,,-- --- ---- --- ------ ----- secured ---- -- --- ------- --<br>------- ---------- ------ -- ----- -- ----- -- ---- ------<br>--- ----- --- --- ------ -------- ----- --- ------ ----- --<br>----- ----- ---------- --- --- ------ ------ ---- -- ------<br>------- --- ------ ----- --- ---- ------- -- ---- --- --<br>------- ------,125694.69999999925,125694,125237.362,125247,125254.03,125704.367,,6,secured
screen,html.Screen,0_2_1_1_7,2021-11-12T14:47:11.207Z,,,,,,,,,,,,,,,,54,,,,,,,,,,,,,,1021.5329999985115,,response,,,100,,,,,,Space,keypress(Space),,,,,-- --- ---- --- ------ ----- ------- much -- --- ------- --<br>------- ---------- ------ -- ----- -- ----- -- ---- ------<br>--- ----- --- --- ------ -------- ----- --- ------ ----- --<br>----- ----- ---------- --- --- ------ ------ ---- -- ------<br>------- --- ------ ----- --- ---- ------- -- ---- --- --<br>------- ------,126726.69999999925,126725.89999999851,125687.696,125695,125704.367,126737.882,,7,much
screen,html.Screen,0_2_1_1_8,2021-11-12T14:47:11.743Z,,,,,,,,,,,,,,,,54,,,,,,,,,,,,,,524.0179999985121,,response,,,100,,,,,,Space,keypress(Space),,,,,-- --- ---- --- ------ ----- ------- ---- of --- ------- --<br>------- ---------- ------ -- ----- -- ----- -- ---- ------<br>--- ----- --- --- ------ -------- ----- --- ------ ----- --<br>----- ----- ---------- --- --- ------ ------ ---- -- ------<br>------- --- ------ ----- --- ---- ------- -- ---- --- --<br>------- ------,127262.60000000149,127261.89999999851,126721.212,126726.89999999851,126737.882,127271.328,,8,of
screen,html.Screen,0_2_1_1_9,2021-11-12T14:47:12.255Z,,,,,,,,,,,,,,,,54,,,,,,,,,,,,,,502.472000000751,,response,,,100,,,,,,Space,keypress(Space),,,,,-- --- ---- --- ------ ----- ------- ---- -- its ------- --<br>------- ---------- ------ -- ----- -- ----- -- ---- ------<br>--- ----- --- --- ------ -------- ----- --- ------ ----- --<br>----- ----- ---------- --- --- ------ ------ ---- -- ------<br>------- --- ------ ----- --- ---- ------- -- ---- --- --<br>------- ------,127774.60000000149,127773.80000000075,127254.658,127262.89999999851,127271.328,127788.126,,9,its
screen,html.Screen,0_2_1_1_10,2021-11-12T14:47:13.167Z,,,,,,,,,,,,,,,,54,,,,,,,,,,,,,,897.5739999992511,,response,,,100,,,,,,Space,keypress(Space),,,,,-- --- ---- --- ------ ----- ------- ---- -- --- revenue --<br>------- ---------- ------ -- ----- -- ----- -- ---- ------<br>--- ----- --- --- ------ -------- ----- --- ------ ----- --<br>----- ----- ---------- --- --- ------ ------ ---- -- ------<br>------- --- ------ ----- --- ---- ------- -- ---- --- --<br>------- ------,128686.60000000149,128685.69999999925,127771.456,127774.89999999851,127788.126,128688.333,,10,revenue
screen,html.Screen,0_2_1_1_11,2021-11-12T14:47:14.135Z,,,,,,,,,,,,,,,,54,,,,,,,,,,,,,,965.3669999992562,,response,,,100,,,,,,Space,keypress(Space),,,,,-- --- ---- --- ------ ----- ------- ---- -- --- ------- by<br>------- ---------- ------ -- ----- -- ----- -- ---- ------<br>--- ----- --- --- ------ -------- ----- --- ------ ----- --<br>----- ----- ---------- --- --- ------ ------ ---- -- ------<br>------- --- ------ ----- --- ---- ------- -- ---- --- --<br>------- ------,129654.5,129653.69999999925,128671.663,128686.80000000075,128688.333,129671.916,,11,by
screen,html.Screen,0_2_1_1_12,2021-11-12T14:47:14.855Z,,,,,,,,,,,,,,,,54,,,,,,,,,,,,,,701.7839999992575,,response,,,100,,,,,,Space,keypress(Space),,,,,-- --- ---- --- ------ ----- ------- ---- -- --- ------- --<br>issuing ---------- ------ -- ----- -- ----- -- ---- ------<br>--- ----- --- --- ------ -------- ----- --- ------ ----- --<br>----- ----- ---------- --- --- ------ ------ ---- -- ------<br>------- --- ------ ----- --- ---- ------- -- ---- --- --<br>------- ------,130374.5,130373.69999999925,129655.246,129654.69999999925,129671.916,130388.762,,12,issuing
screen,html.Screen,0_2_1_1_13,2021-11-12T14:47:15.559Z,,,,,,,,,,,,,,,,54,,,,,,,,,,,,,,688.8380000014877,,response,,,100,,,,,,Space,keypress(Space),,,,,-- --- ---- --- ------ ----- ------- ---- -- --- ------- --<br>------- government ------ -- ----- -- ----- -- ---- ------<br>--- ----- --- --- ------ -------- ----- --- ------ ----- --<br>----- ----- ---------- --- --- ------ ------ ---- -- ------<br>------- --- ------ ----- --- ---- ------- -- ---- --- --<br>------- ------,131078.3999999985,131077.6000000015,130372.092,130374.69999999925,130388.762,131088.959,,13,government
screen,html.Screen,0_2_1_1_14,2021-11-12T14:47:17.207Z,,,,,,,,,,,,,,,,54,,,,,,,,,,,,,,1636.8410000007425,,response,,,100,,,,,,Space,keypress(Space),,,,,-- --- ---- --- ------ ----- ------- ---- -- --- ------- --<br>------- ---------- bonds. -- ----- -- ----- -- ---- ------<br>--- ----- --- --- ------ -------- ----- --- ------ ----- --<br>----- ----- ---------- --- --- ------ ------ ---- -- ------<br>------- --- ------ ----- --- ---- ------- -- ---- --- --<br>------- ------,132726.6000000015,132725.80000000075,131072.289,131078.69999999925,131088.959,132739.287,,14,bonds.
screen,html.Screen,0_2_1_1_15,2021-11-12T14:47:17.799Z,,,,,,,,,,,,,,,,54,,,,,,,,,,,,,,578.1129999984987,,response,,,100,,,,,,Space,keypress(Space),,,,,-- --- ---- --- ------ ----- ------- ---- -- --- ------- --<br>------- ---------- ------ In ----- -- ----- -- ---- ------<br>--- ----- --- --- ------ -------- ----- --- ------ ----- --<br>----- ----- ---------- --- --- ------ ------ ---- -- ------<br>------- --- ------ ----- --- ---- ------- -- ---- --- --<br>------- ------,133318.3999999985,133317.3999999985,132722.617,132726.8999999985,132739.287,133322.815,,15,In
screen,html.Screen,0_2_1_1_16,2021-11-12T14:47:18.943Z,,,,,,,,,,,,,,,,54,,,,,,,,,,,,,,1138.5849999985076,,response,,,100,,,,,,Space,keypress(Space),,,,,"-- --- ---- --- ------ ----- ------- ---- -- --- ------- --<br>------- ---------- ------ -- 1727, -- ----- -- ---- ------<br>--- ----- --- --- ------ -------- ----- --- ------ ----- --<br>----- ----- ---------- --- --- ------ ------ ---- -- ------<br>------- --- ------ ----- --- ---- ------- -- ---- --- --<br>------- ------",134462.19999999925,134461.3999999985,133306.145,133318.6000000015,133322.815,134473.076,,16,"1727,"
screen,html.Screen,0_2_1_1_17,2021-11-12T14:47:19.719Z,,,,,,,,,,,,,,,,54,,,,,,,,,,,,,,764.2240000007441,,response,,,100,,,,,,Space,keypress(Space),,,,,-- --- ---- --- ------ ----- ------- ---- -- --- ------- --<br>------- ---------- ------ -- ----- in ----- -- ---- ------<br>--- ----- --- --- ------ -------- ----- --- ------ ----- --<br>----- ----- ---------- --- --- ------ ------ ---- -- ------<br>------- --- ------ ----- --- ---- ------- -- ---- --- --<br>------- ------,135238.1000000015,135237.30000000075,134456.406,134462.5,134473.076,135239.883,,17,in
screen,html.Screen,0_2_1_1_18,2021-11-12T14:47:20.231Z,,,,,,,,,,,,,,,,54,,,,,,,,,,,,,,509.4170000007434,,response,,,100,,,,,,Space,keypress(Space),,,,,-- --- ---- --- ------ ----- ------- ---- -- --- ------- --<br>------- ---------- ------ -- ----- -- order -- ---- ------<br>--- ----- --- --- ------ -------- ----- --- ------ ----- --<br>----- ----- ---------- --- --- ------ ------ ---- -- ------<br>------- --- ------ ----- --- ---- ------- -- ---- --- --<br>------- ------,135750.19999999925,135749.30000000075,135223.213,135238.30000000075,135239.883,135756.757,,18,order
screen,html.Screen,0_2_1_1_19,2021-11-12T14:47:20.759Z,,,,,,,,,,,,,,,,54,,,,,,,,,,,,,,520.4429999992426,,response,,,100,,,,,,Space,keypress(Space),,,,,-- --- ---- --- ------ ----- ------- ---- -- --- ------- --<br>------- ---------- ------ -- ----- -- ----- to ---- ------<br>--- ----- --- --- ------ -------- ----- --- ------ ----- --<br>----- ----- ---------- --- --- ------ ------ ---- -- ------<br>------- --- ------ ----- --- ---- ------- -- ---- --- --<br>------- ------,136278,136277.19999999925,135740.087,135750.3999999985,135756.757,136290.205,,19,to
screen,html.Screen,0_2_1_1_20,2021-11-12T14:47:21.535Z,,,,,,,,,,,,,,,,54,,,,,,,,,,,,,,762.9949999992677,,response,,,100,,,,,,Space,keypress(Space),,,,,-- --- ---- --- ------ ----- ------- ---- -- --- ------- --<br>------- ---------- ------ -- ----- -- ----- -- save ------<br>--- ----- --- --- ------ -------- ----- --- ------ ----- --<br>----- ----- ---------- --- --- ------ ------ ---- -- ------<br>------- --- ------ ----- --- ---- ------- -- ---- --- --<br>------- ------,137054,137053.19999999925,136273.535,136278.19999999925,136290.205,137057.134,,20,save
screen,html.Screen,0_2_1_1_21,2021-11-12T14:47:22.143Z,,,,,,,,,,,,,,,,54,,,,,,,,,,,,,,604.065999999264,,response,,,100,,,,,,Space,keypress(Space),,,,,"-- --- ---- --- ------ ----- ------- ---- -- --- ------- --<br>------- ---------- ------ -- ----- -- ----- -- ---- money,<br>--- ----- --- --- ------ -------- ----- --- ------ ----- --<br>----- ----- ---------- --- --- ------ ------ ---- -- ------<br>------- --- ------ ----- --- ---- ------- -- ---- --- --<br>------- ------",137662,137661.19999999925,137040.463,137054.30000000075,137057.134,137673.846,,21,"money,"
screen,html.Screen,0_2_1_1_22,2021-11-12T14:47:22.903Z,,,,,,,,,,,,,,,,54,,,,,,,,,,,,,,747.1540000000095,,response,,,100,,,,,,Space,keypress(Space),,,,,-- --- ---- --- ------ ----- ------- ---- -- --- ------- --<br>------- ---------- ------ -- ----- -- ----- -- ---- ------<br>the ----- --- --- ------ -------- ----- --- ------ ----- --<br>----- ----- ---------- --- --- ------ ------ ---- -- ------<br>------- --- ------ ----- --- ---- ------- -- ---- --- --<br>------- ------,138422,138421,137657.176,137662.30000000075,137673.846,138424.048,,22,the
screen,html.Screen,0_2_1_1_23,2021-11-12T14:47:23.511Z,,,,,,,,,,,,,,,,54,,,,,,,,,,,,,,604.9519999999902,,response,,,100,,,,,,Space,keypress(Space),,,,,-- --- ---- --- ------ ----- ------- ---- -- --- ------- --<br>------- ---------- ------ -- ----- -- ----- -- ---- ------<br>--- state --- --- ------ -------- ----- --- ------ ----- --<br>----- ----- ---------- --- --- ------ ------ ---- -- ------<br>------- --- ------ ----- --- ---- ------- -- ---- --- --<br>------- ------,139029.8999999985,139029,138407.378,138422.30000000075,138424.048,139040.894,,23,state
screen,html.Screen,0_2_1_1_24,2021-11-12T14:47:24.295Z,,,,,,,,,,,,,,,,54,,,,,,,,,,,,,,772.1059999999998,,response,,,100,,,,,,Space,keypress(Space),,,,,-- --- ---- --- ------ ----- ------- ---- -- --- ------- --<br>------- ---------- ------ -- ----- -- ----- -- ---- ------<br>--- ----- cut --- ------ -------- ----- --- ------ ----- --<br>----- ----- ---------- --- --- ------ ------ ---- -- ------<br>------- --- ------ ----- --- ---- ------- -- ---- --- --<br>------- ------,139813.80000000075,139813,139024.224,139030.1000000015,139040.894,139824.398,,24,cut
screen,html.Screen,0_2_1_1_25,2021-11-12T14:47:25.119Z,,,,,,,,,,,,,,,,54,,,,,,,,,,,,,,812.6020000000135,,response,,,100,,,,,,Space,keypress(Space),,,,,-- --- ---- --- ------ ----- ------- ---- -- --- ------- --<br>------- ---------- ------ -- ----- -- ----- -- ---- ------<br>--- ----- --- the ------ -------- ----- --- ------ ----- --<br>----- ----- ---------- --- --- ------ ------ ---- -- ------<br>------- --- ------ ----- --- ---- ------- -- ---- --- --<br>------- ------,140637.80000000075,140637,139807.728,139814,139824.398,140641.236,,25,the
screen,html.Screen,0_2_1_1_26,2021-11-12T14:47:25.783Z,,,,,,,,,,,,,,,,54,,,,,,,,,,,,,,659.6639999985055,,response,,,100,,,,,,Space,keypress(Space),,,,,-- --- ---- --- ------ ----- ------- ---- -- --- ------- --<br>------- ---------- ------ -- ----- -- ----- -- ---- ------<br>--- ----- --- --- bonds' -------- ----- --- ------ ----- --<br>----- ----- ---------- --- --- ------ ------ ---- -- ------<br>------- --- ------ ----- --- ---- ------- -- ---- --- --<br>------- ------,141301.69999999925,141300.8999999985,140624.566,140638.1000000015,140641.236,141308.062,,26,bonds'
screen,html.Screen,0_2_1_1_27,2021-11-12T14:47:26.638Z,,,,,,,,,,,,,,,,54,,,,,,,,,,,,,,848.7380000007397,,response,,,100,,,,,,Space,keypress(Space),,,,,-- --- ---- --- ------ ----- ------- ---- -- --- ------- --<br>------- ---------- ------ -- ----- -- ----- -- ---- ------<br>--- ----- --- --- ------ interest ----- --- ------ ----- --<br>----- ----- ---------- --- --- ------ ------ ---- -- ------<br>------- --- ------ ----- --- ---- ------- -- ---- --- --<br>------- ------,142157.69999999925,142156.80000000075,141291.392,141301.8999999985,141308.062,142174.973,,27,interest
screen,html.Screen,0_2_1_1_28,2021-11-12T14:47:27.198Z,,,,,,,,,,,,,,,,54,,,,,,,,,,,,,,541.8270000007469,,response,,,100,,,,,,Space,keypress(Space),,,,,-- --- ---- --- ------ ----- ------- ---- -- --- ------- --<br>------- ---------- ------ -- ----- -- ----- -- ---- ------<br>--- ----- --- --- ------ -------- rate. --- ------ ----- --<br>----- ----- ---------- --- --- ------ ------ ---- -- ------<br>------- --- ------ ----- --- ---- ------- -- ---- --- --<br>------- ------,142717.6000000015,142716.80000000075,142158.303,142157.8999999985,142174.973,142725.078,,28,rate.
screen,html.Screen,0_2_1_1_29,2021-11-12T14:47:27.799Z,,,,,,,,,,,,,,,,54,,,,,,,,,,,,,,592.0220000014815,,response,,,100,,,,,,Space,keypress(Space),,,,,-- --- ---- --- ------ ----- ------- ---- -- --- ------- --<br>------- ---------- ------ -- ----- -- ----- -- ---- ------<br>--- ----- --- --- ------ -------- ----- The ------ ----- --<br>----- ----- ---------- --- --- ------ ------ ---- -- ------<br>------- --- ------ ----- --- ---- ------- -- ---- --- --<br>------- ------,143317.8999999985,143317.1000000015,142708.408,142717.8999999985,142725.078,143325.24,,29,The
screen,html.Screen,0_2_1_1_30,2021-11-12T14:47:28.358Z,,,,,,,,,,,,,,,,54,,,,,,,,,,,,,,551.4599999992643,,response,,,100,,,,,,Space,keypress(Space),,,,,-- --- ---- --- ------ ----- ------- ---- -- --- ------- --<br>------- ---------- ------ -- ----- -- ----- -- ---- ------<br>--- ----- --- --- ------ -------- ----- --- market ----- --<br>----- ----- ---------- --- --- ------ ------ ---- -- ------<br>------- --- ------ ----- --- ---- ------- -- ---- --- --<br>------- ------,143877.3999999985,143876.69999999925,143308.57,143318.1000000015,143325.24,143892.059,,30,market
screen,html.Screen,0_2_1_1_31,2021-11-12T14:47:28.982Z,,,,,,,,,,,,,,,,54,,,,,,,,,,,,,,608.5410000014817,,response,,,100,,,,,,Space,keypress(Space),,,,,-- --- ---- --- ------ ----- ------- ---- -- --- ------- --<br>------- ---------- ------ -- ----- -- ----- -- ---- ------<br>--- ----- --- --- ------ -------- ----- --- ------ value --<br>----- ----- ---------- --- --- ------ ------ ---- -- ------<br>------- --- ------ ----- --- ---- ------- -- ---- --- --<br>------- ------,144501.3999999985,144500.6000000015,143875.389,143877.69999999925,143892.059,144508.874,,31,value
screen,html.Screen,0_2_1_1_32,2021-11-12T14:47:29.630Z,,,,,,,,,,,,,,,,54,,,,,,,,,,,,,,639.7260000014794,,response,,,100,,,,,,Space,keypress(Space),,,,,-- --- ---- --- ------ ----- ------- ---- -- --- ------- --<br>------- ---------- ------ -- ----- -- ----- -- ---- ------<br>--- ----- --- --- ------ -------- ----- --- ------ ----- of<br>----- ----- ---------- --- --- ------ ------ ---- -- ------<br>------- --- ------ ----- --- ---- ------- -- ---- --- --<br>------- ------,145149.3999999985,145148.6000000015,144492.204,144501.69999999925,144508.874,145159.016,,32,of
screen,html.Screen,0_2_1_1_33,2021-11-12T14:47:30.534Z,,,,,,,,,,,,,,,,54,,,,,,,,,,,,,,893.5840000014869,,response,,,100,,,,,,Space,keypress(Space),,,,,-- --- ---- --- ------ ----- ------- ---- -- --- ------- --<br>------- ---------- ------ -- ----- -- ----- -- ---- ------<br>--- ----- --- --- ------ -------- ----- --- ------ ----- --<br>these ----- ---------- --- --- ------ ------ ---- -- ------<br>------- --- ------ ----- --- ---- ------- -- ---- --- --<br>------- ------,146053.3999999985,146052.6000000015,145142.346,145149.6000000015,145159.016,146059.076,,33,these
screen,html.Screen,0_2_1_1_34,2021-11-12T14:47:31.278Z,,,,,,,,,,,,,,,,54,,,,,,,,,,,,,,737.4239999999991,,response,,,100,,,,,,Space,keypress(Space),,,,,-- --- ---- --- ------ ----- ------- ---- -- --- ------- --<br>------- ---------- ------ -- ----- -- ----- -- ---- ------<br>--- ----- --- --- ------ -------- ----- --- ------ ----- --<br>----- bonds ---------- --- --- ------ ------ ---- -- ------<br>------- --- ------ ----- --- ---- ------- -- ---- --- --<br>------- ------,146797.3999999985,146796.5,146042.407,146053.69999999925,146059.076,146809.532,,34,bonds
screen,html.Screen,0_2_1_1_35,2021-11-12T14:47:31.998Z,,,,,,,,,,,,,,,,54,,,,,,,,,,,,,,706.9679999999935,,response,,,100,,,,,,Space,keypress(Space),,,,,"-- --- ---- --- ------ ----- ------- ---- -- --- ------- --<br>------- ---------- ------ -- ----- -- ----- -- ---- ------<br>--- ----- --- --- ------ -------- ----- --- ------ ----- --<br>----- ----- plummeted, --- --- ------ ------ ---- -- ------<br>------- --- ------ ----- --- ---- ------- -- ---- --- --<br>------- ------",147517.30000000075,147516.5,146792.861,146797.6000000015,146809.532,147526.27,,35,"plummeted,"
screen,html.Screen,0_2_1_1_36,2021-11-12T14:47:32.558Z,,,,,,,,,,,,,,,,54,,,,,,,,,,,,,,550.1299999985204,,response,,,100,,,,,,Space,keypress(Space),,,,,-- --- ---- --- ------ ----- ------- ---- -- --- ------- --<br>------- ---------- ------ -- ----- -- ----- -- ---- ------<br>--- ----- --- --- ------ -------- ----- --- ------ ----- --<br>----- ----- ---------- and --- ------ ------ ---- -- ------<br>------- --- ------ ----- --- ---- ------- -- ---- --- --<br>------- ------,148077.30000000075,148076.3999999985,147509.6,147517.6000000015,147526.27,148093.042,,36,and
screen,html.Screen,0_2_1_1_37,2021-11-12T14:47:33.070Z,,,,,,,,,,,,,,,,54,,,,,,,,,,,,,,495.35799999852316,,response,,,100,,,,,,Space,keypress(Space),,,,,-- --- ---- --- ------ ----- ------- ---- -- --- ------- --<br>------- ---------- ------ -- ----- -- ----- -- ---- ------<br>--- ----- --- --- ------ -------- ----- --- ------ ----- --<br>----- ----- ---------- --- the ------ ------ ---- -- ------<br>------- --- ------ ----- --- ---- ------- -- ---- --- --<br>------- ------,148589.19999999925,148588.3999999985,148076.372,148077.5,148093.042,148593.217,,37,the
screen,html.Screen,0_2_1_1_38,2021-11-12T14:47:33.661Z,,,,,,,,,,,,,,,,54,,,,,,,,,,,,,,586.7829999999958,,response,,,100,,,,,,Space,keypress(Space),,,,,-- --- ---- --- ------ ----- ------- ---- -- --- ------- --<br>------- ---------- ------ -- ----- -- ----- -- ---- ------<br>--- ----- --- --- ------ -------- ----- --- ------ ----- --<br>----- ----- ---------- --- --- market ------ ---- -- ------<br>------- --- ------ ----- --- ---- ------- -- ---- --- --<br>------- ------,149180.3999999985,149180,148576.547,148589.5,148593.217,149193.348,,38,market
screen,html.Screen,0_2_1_1_39,2021-11-12T14:47:34.254Z,,,,,,,,,,,,,,,,54,,,,,,,,,,,,,,578.9520000007469,,response,,,100,,,,,,Space,keypress(Space),,,,,-- --- ---- --- ------ ----- ------- ---- -- --- ------- --<br>------- ---------- ------ -- ----- -- ----- -- ---- ------<br>--- ----- --- --- ------ -------- ----- --- ------ ----- --<br>----- ----- ---------- --- --- ------ became ---- -- ------<br>------- --- ------ ----- --- ---- ------- -- ---- --- --<br>------- ------,149773.1000000015,149772.30000000075,149176.678,149180.5,149193.348,149776.804,,39,became
screen,html.Screen,0_2_1_1_40,2021-11-12T14:47:34.774Z,,,,,,,,,,,,,,,,54,,,,,,,,,,,,,,515.4960000007413,,response,,,100,,,,,,Space,keypress(Space),,,,,-- --- ---- --- ------ ----- ------- ---- -- --- ------- --<br>------- ---------- ------ -- ----- -- ----- -- ---- ------<br>--- ----- --- --- ------ -------- ----- --- ------ ----- --<br>----- ----- ---------- --- --- ------ ------ wary -- ------<br>------- --- ------ ----- --- ---- ------- -- ---- --- --<br>------- ------,150293,150292.30000000075,149760.134,149773.30000000075,149776.804,150310.238,,40,wary
screen,html.Screen,0_2_1_1_41,2021-11-12T14:47:35.326Z,,,,,,,,,,,,,,,,54,,,,,,,,,,,,,,534.062000000733,,response,,,100,,,,,,Space,keypress(Space),,,,,-- --- ---- --- ------ ----- ------- ---- -- --- ------- --<br>------- ---------- ------ -- ----- -- ----- -- ---- ------<br>--- ----- --- --- ------ -------- ----- --- ------ ----- --<br>----- ----- ---------- --- --- ------ ------ ---- of ------<br>------- --- ------ ----- --- ---- ------- -- ---- --- --<br>------- ------,150845,150844.30000000075,150293.568,150293.30000000075,150310.238,150860.466,,41,of
screen,html.Screen,0_2_1_1_42,2021-11-12T14:47:35.974Z,,,,,,,,,,,,,,,,54,,,,,,,,,,,,,,631.7339999992691,,response,,,100,,,,,,Space,keypress(Space),,,,,-- --- ---- --- ------ ----- ------- ---- -- --- ------- --<br>------- ---------- ------ -- ----- -- ----- -- ---- ------<br>--- ----- --- --- ------ -------- ----- --- ------ ----- --<br>----- ----- ---------- --- --- ------ ------ ---- -- French<br>------- --- ------ ----- --- ---- ------- -- ---- --- --<br>------- ------,151493,151492.19999999925,150843.795,150845.30000000075,150860.466,151510.474,,42,French
screen,html.Screen,0_2_1_1_43,2021-11-12T14:47:36.638Z,,,,,,,,,,,,,,,,54,,,,,,,,,,,,,,645.6260000015027,,response,,,100,,,,,,Space,keypress(Space),,,,,-- --- ---- --- ------ ----- ------- ---- -- --- ------- --<br>------- ---------- ------ -- ----- -- ----- -- ---- ------<br>--- ----- --- --- ------ -------- ----- --- ------ ----- --<br>----- ----- ---------- --- --- ------ ------ ---- -- ------<br>credit. --- ------ ----- --- ---- ------- -- ---- --- --<br>------- ------,152157,152156.1000000015,151493.805,151493.30000000075,151510.474,152160.782,,43,credit.
screen,html.Screen,0_2_1_1_44,2021-11-12T14:47:37.174Z,,,,,,,,,,,,,,,,54,,,,,,,,,,,,,,531.3180000014836,,response,,,100,,,,,,Space,keypress(Space),,,,,-- --- ---- --- ------ ----- ------- ---- -- --- ------- --<br>------- ---------- ------ -- ----- -- ----- -- ---- ------<br>--- ----- --- --- ------ -------- ----- --- ------ ----- --<br>----- ----- ---------- --- --- ------ ------ ---- -- ------<br>------- The ------ ----- --- ---- ------- -- ---- --- --<br>------- ------,152692.8999999985,152692.1000000015,152144.111,152157.19999999925,152160.782,152694.212,,44,The
screen,html.Screen,0_2_1_1_45,2021-11-12T14:47:37.718Z,,,,,,,,,,,,,,,,54,,,,,,,,,,,,,,541.7880000000005,,response,,,100,,,,,,Space,keypress(Space),,,,,-- --- ---- --- ------ ----- ------- ---- -- --- ------- --<br>------- ---------- ------ -- ----- -- ----- -- ---- ------<br>--- ----- --- --- ------ -------- ----- --- ------ ----- --<br>----- ----- ---------- --- --- ------ ------ ---- -- ------<br>------- --- French ----- --- ---- ------- -- ---- --- --<br>------- ------,153236.8999999985,153236,152677.542,152693.19999999925,152694.212,153244.316,,45,French
screen,html.Screen,0_2_1_1_46,2021-11-12T14:47:38.246Z,,,,,,,,,,,,,,,,54,,,,,,,,,,,,,,520.0839999985183,,response,,,100,,,,,,Space,keypress(Space),,,,,-- --- ---- --- ------ ----- ------- ---- -- --- ------- --<br>------- ---------- ------ -- ----- -- ----- -- ---- ------<br>--- ----- --- --- ------ -------- ----- --- ------ ----- --<br>----- ----- ---------- --- --- ------ ------ ---- -- ------<br>------- --- ------ state --- ---- ------- -- ---- --- --<br>------- ------,153765.19999999925,153764.3999999985,153227.646,153237.1000000015,153244.316,153777.777,,46,state
screen,html.Screen,0_2_1_1_47,2021-11-12T14:47:38.774Z,,,,,,,,,,,,,,,,54,,,,,,,,,,,,,,514.2229999999981,,response,,,100,,,,,,Space,keypress(Space),,,,,-- --- ---- --- ------ ----- ------- ---- -- --- ------- --<br>------- ---------- ------ -- ----- -- ----- -- ---- ------<br>--- ----- --- --- ------ -------- ----- --- ------ ----- --<br>----- ----- ---------- --- --- ------ ------ ---- -- ------<br>------- --- ------ ----- was ---- ------- -- ---- --- --<br>------- ------,154292.69999999925,154292,153761.107,153765.5,153777.777,154294.575,,47,was
screen,html.Screen,0_2_1_1_48,2021-11-12T14:47:39.310Z,,,,,,,,,,,,,,,,54,,,,,,,,,,,,,,533.4249999999884,,response,,,100,,,,,,Space,keypress(Space),,,,,-- --- ---- --- ------ ----- ------- ---- -- --- ------- --<br>------- ---------- ------ -- ----- -- ----- -- ---- ------<br>--- ----- --- --- ------ -------- ----- --- ------ ----- --<br>----- ----- ---------- --- --- ------ ------ ---- -- ------<br>------- --- ------ ----- --- left ------- -- ---- --- --<br>------- ------,154828.80000000075,154828,154277.905,154293,154294.575,154844.72,,48,left
screen,html.Screen,0_2_1_1_49,2021-11-12T14:47:39.870Z,,,,,,,,,,,,,,,,54,,,,,,,,,,,,,,543.1799999985087,,response,,,100,,,,,,Space,keypress(Space),,,,,-- --- ---- --- ------ ----- ------- ---- -- --- ------- --<br>------- ---------- ------ -- ----- -- ----- -- ---- ------<br>--- ----- --- --- ------ -------- ----- --- ------ ----- --<br>----- ----- ---------- --- --- ------ ------ ---- -- ------<br>------- --- ------ ----- --- ---- without -- ---- --- --<br>------- ------,155388.69999999925,155387.8999999985,154828.05,154829,154844.72,155394.747,,49,without
screen,html.Screen,0_2_1_1_50,2021-11-12T14:47:40.461Z,,,,,,,,,,,,,,,,54,,,,,,,,,,,,,,585.1529999985069,,response,,,100,,,,,,Space,keypress(Space),,,,,-- --- ---- --- ------ ----- ------- ---- -- --- ------- --<br>------- ---------- ------ -- ----- -- ----- -- ---- ------<br>--- ----- --- --- ------ -------- ----- --- ------ ----- --<br>----- ----- ---------- --- --- ------ ------ ---- -- ------<br>------- --- ------ ----- --- ---- ------- an ---- --- --<br>------- ------,155980.6000000015,155979.8999999985,155378.078,155389,155394.747,155995.073,,50,an
screen,html.Screen,0_2_1_1_51,2021-11-12T14:47:41.149Z,,,,,,,,,,,,,,,,54,,,,,,,,,,,,,,672.7270000007411,,response,,,100,,,,,,Space,keypress(Space),,,,,-- --- ---- --- ------ ----- ------- ---- -- --- ------- --<br>------- ---------- ------ -- ----- -- ----- -- ---- ------<br>--- ----- --- --- ------ -------- ----- --- ------ ----- --<br>----- ----- ---------- --- --- ------ ------ ---- -- ------<br>------- --- ------ ----- --- ---- ------- -- easy --- --<br>------- ------,156668.6000000015,156667.80000000075,155978.402,155981,155995.073,156678.478,,51,easy
screen,html.Screen,0_2_1_1_52,2021-11-12T14:47:41.653Z,,,,,,,,,,,,,,,,54,,,,,,,,,,,,,,493.32200000074226,,response,,,100,,,,,,Space,keypress(Space),,,,,-- --- ---- --- ------ ----- ------- ---- -- --- ------- --<br>------- ---------- ------ -- ----- -- ----- -- ---- ------<br>--- ----- --- --- ------ -------- ----- --- ------ ----- --<br>----- ----- ---------- --- --- ------ ------ ---- -- ------<br>------- --- ------ ----- --- ---- ------- -- ---- way --<br>------- ------,157172.6000000015,157171.80000000075,156661.808,156668.8999999985,156678.478,157178.635,,52,way
screen,html.Screen,0_2_1_1_53,2021-11-12T14:47:42.157Z,,,,,,,,,,,,,,,,54,,,,,,,,,,,,,,497.16500000073574,,response,,,100,,,,,,Space,keypress(Space),,,,,-- --- ---- --- ------ ----- ------- ---- -- --- ------- --<br>------- ---------- ------ -- ----- -- ----- -- ---- ------<br>--- ----- --- --- ------ -------- ----- --- ------ ----- --<br>----- ----- ---------- --- --- ------ ------ ---- -- ------<br>------- --- ------ ----- --- ---- ------- -- ---- --- of<br>------- ------,157676.6000000015,157675.80000000075,157161.965,157172.8999999985,157178.635,157678.732,,53,of
screen,html.Screen,0_2_1_1_54,2021-11-12T14:47:42.757Z,,,,,,,,,,,,,,,,54,,,,,,,,,,,,,,596.9679999992659,,response,,,100,,,,,,Space,keypress(Space),,,,,-- --- ---- --- ------ ----- ------- ---- -- --- ------- --<br>------- ---------- ------ -- ----- -- ----- -- ---- ------<br>--- ----- --- --- ------ -------- ----- --- ------ ----- --<br>----- ----- ---------- --- --- ------ ------ ---- -- ------<br>------- --- ------ ----- --- ---- ------- -- ---- --- --<br>raising ------,158276.5,158275.69999999925,157662.062,157676.8999999985,157678.732,158278.763,,54,raising
screen,html.Screen,0_2_1_1_55,2021-11-12T14:47:43.341Z,,,,,,,,,,,,,,,,54,,,,,,,,,,,,,,580.9369999992487,,response,,,100,,,,,,Space,keypress(Space),,,,,-- --- ---- --- ------ ----- ------- ---- -- --- ------- --<br>------- ---------- ------ -- ----- -- ----- -- ---- ------<br>--- ----- --- --- ------ -------- ----- --- ------ ----- --<br>----- ----- ---------- --- --- ------ ------ ---- -- ------<br>------- --- ------ ----- --- ---- ------- -- ---- --- --<br>------- money.,158860.5,158859.69999999925,158262.094,158276.80000000075,158278.763,158862.388,,55,money.
Item 100,flow.Loop,0_2_1_1,2021-11-12T14:47:43.342Z,,,,,,,,,,,,,,,,,,,,,,,,,,,,,,37889.98599999925,,completion,,,,D,,,,,,,,,,silence,,158861,158859.69999999925,120953.044,120953.60000000149,120969.714,158862.388,,,
Question 1,html.Screen,0_2_1_2,2021-11-12T14:47:46.357Z,,,,,,,,,,,,,,,,,,,,,,,,,,,true,TRUE,,3012.8119999992487,,response,,,100,D,,,,,TRUE,click #choice-1,,,,silence,,161876.3999999985,161875.19999999925,158845.717,158861.19999999925,158862.388,161896.423,,,
Question 2,html.Screen,0_2_1_3,2021-11-12T14:47:48.797Z,,,,,,,,,,,,,,,,,,,,,,,,,,,true,FALSE,,2418.6770000014803,,response,,,100,D,,,,,FALSE,click #choice-2,,,,silence,,164316.30000000075,164315.1000000015,161879.894,161876.6000000015,161896.423,164330.401,,,
Item 100,flow.Sequence,0_2_1,2021-11-12T14:47:48.797Z,,,,,,,,,,,,,,,,,,,,,,,,,,,,,,53347.67400000148,,completion,,,,,,,,,,,,,,,,164316.6000000015,164315.1000000015,110950.755,110952.89999999851,110967.426,164330.401,,,
End of Practice,html.Page,0_2_2,2021-11-12T14:48:03.773Z,,,,,,,,,,,,,,,,,,,,,,,,,,,,,,14961.098999999987,,form submission,,,,,,,,,,,,,,,,179292,179291.5,164313.73,164316.80000000075,164330.401,179300.669,,,
Practice,flow.Sequence,0_2,2021-11-12T14:48:03.773Z,,,,,,,,,,,,,,,,,,,,,,,,,,,,,,130305.95300000001,,completion,,,,,,,,,,,,,,,,179292.69999999925,179291.5,48968.877,48981.699999999255,48985.547,179300.669,,,
Trap_instruction,html.Page,0_3_0,2021-11-12T14:48:10.929Z,,,,,,,,,,,,,,,,,,,,,,,,,,,,,,7142.2309999985155,,form submission,,,,,,,,,,,,,,,,186443.30000000075,186442.8999999985,179283.998,179293,179300.669,186469.217,,,
trap_trial,html.Screen,0_3_1,2021-11-12T14:48:14.160Z,,,,,,,,,,,,,,,,,,,,,,,,,,,true,1,,3204.083000000741,,response,,,,,,,,,1,click #choice-1,,,,,,189674.5,189673.30000000075,186435.875,186443.6000000015,186469.217,189686.349,,,
end of trap trial,html.Page,0_3_2,2021-11-12T14:48:16.240Z,,,,,,,,,,,,,,,,,,,,,,,,,,,,,,2068.0509999985225,,form submission,,,,,,,,,,,,,,,,191754.8999999985,191754.3999999985,189669.679,189674.80000000075,189686.349,191770.227,,,
Trap 1,flow.Sequence,0_3,2021-11-12T14:48:16.241Z,,,,,,,,,,,,,,,,,,,,,,,,,,,,,,12453.730999998515,,completion,,,,,,,,,,,,,,,,191755.19999999925,191754.3999999985,179283.998,179293,179300.669,191770.227,,,
Standby,html.Page,0_4_0,2021-11-12T14:48:24.242Z,,,,,,,,,,,,,,,,,,,,,,,,,,,,,,8002.241999999998,,timeout,,,,,,,,,,,,,,,,199757.19999999925,199755.798,191753.557,191755.6000000015,191770.227,199772.469,,,
Holding screen,html.Screen,0_4_1_0_0,2021-11-12T14:48:31.244Z,,,,,,,,,,,,,,,,,,,,,,,,,,,,,,7001.473999999987,,timeout,,,,,,,,,,,,,,,,206759.1000000015,206757.273,199755.798,199757.6000000015,199772.469,206773.943,,,
screen,html.Screen,0_4_1_0_1_0,2021-11-12T14:48:32.999Z,,,,,,,,,,,,,,,,51,,,,,,,,,,,,,,1738.7569999992556,,response,,,13,D,,,,,Space,keypress(Space),,,,silence,American -------- --- --- ---- --- --- ------ -- --------<br>---- --------- --- ------- ------------ ---------- ---------<br>--- ---------- ------- ---------- ------- -- -------- ----<br>---- --- ------ ----- ------ -- ---- --- ----- -- - -------<br>-------- -- --- --- -- ----- ----------- ----- -----------<br>---- --- ---------- --- ---- --- -- ----------,208513.69999999925,208512.69999999925,206757.273,206759.3999999985,206773.943,208524.37,,0,American
screen,html.Screen,0_4_1_0_1_1,2021-11-12T14:48:33.534Z,,,,,,,,,,,,,,,,51,,,,,,,,,,,,,,523.8299999992596,,response,,,13,D,,,,,Space,keypress(Space),,,,silence,-------- industry --- --- ---- --- --- ------ -- --------<br>---- --------- --- ------- ------------ ---------- ---------<br>--- ---------- ------- ---------- ------- -- -------- ----<br>---- --- ------ ----- ------ -- ---- --- ----- -- - -------<br>-------- -- --- --- -- ----- ----------- ----- -----------<br>---- --- ---------- --- ---- --- -- ----------,209049.1000000015,209048.19999999925,208507.7,208514,208524.37,209057.622,,1,industry
screen,html.Screen,0_4_1_0_1_2,2021-11-12T14:48:34.606Z,,,,,,,,,,,,,,,,51,,,,,,,,,,,,,,1062.478000001487,,response,,,13,D,,,,,Space,keypress(Space),,,,silence,-------- -------- may --- ---- --- --- ------ -- --------<br>---- --------- --- ------- ------------ ---------- ---------<br>--- ---------- ------- ---------- ------- -- -------- ----<br>---- --- ------ ----- ------ -- ---- --- ----- -- - -------<br>-------- -- --- --- -- ----- ----------- ----- -----------<br>---- --- ---------- --- ---- --- -- ----------,210121,210120.1000000015,209040.953,209049.5,209057.622,210124.871,,2,may
screen,html.Screen,0_4_1_0_1_3,2021-11-12T14:48:35.270Z,,,,,,,,,,,,,,,,51,,,,,,,,,,,,,,659.2290000014764,,response,,,13,D,,,,,Space,keypress(Space),,,,silence,-------- -------- --- not ---- --- --- ------ -- --------<br>---- --------- --- ------- ------------ ---------- ---------<br>--- ---------- ------- ---------- ------- -- -------- ----<br>---- --- ------ ----- ------ -- ---- --- ----- -- - -------<br>-------- -- --- --- -- ----- ----------- ----- -----------<br>---- --- ---------- --- ---- --- -- ----------,210784.8999999985,210784.1000000015,210108.2,210121.19999999925,210124.871,210791.46,,3,not
screen,html.Screen,0_4_1_0_1_4,2021-11-12T14:48:36.550Z,,,,,,,,,,,,,,,,51,,,,,,,,,,,,,,1272.439999998518,,response,,,13,D,,,,,Space,keypress(Space),,,,silence,-------- -------- --- --- know --- --- ------ -- --------<br>---- --------- --- ------- ------------ ---------- ---------<br>--- ---------- ------- ---------- ------- -- -------- ----<br>---- --- ------ ----- ------ -- ---- --- ----- -- - -------<br>-------- -- --- --- -- ----- ----------- ----- -----------<br>---- --- ---------- --- ---- --- -- ----------,212064.80000000075,212063.8999999985,210774.791,210785.30000000075,210791.46,212075.344,,4,know
screen,html.Screen,0_4_1_0_1_5,2021-11-12T14:48:37.230Z,,,,,,,,,,,,,,,,51,,,,,,,,,,,,,,668.6559999999881,,response,,,13,D,,,,,Space,keypress(Space),,,,silence,"-------- -------- --- --- ---- it, --- ------ -- --------<br>---- --------- --- ------- ------------ ---------- ---------<br>--- ---------- ------- ---------- ------- -- -------- ----<br>---- --- ------ ----- ------ -- ---- --- ----- -- - -------<br>-------- -- --- --- -- ----- ----------- ----- -----------<br>---- --- ---------- --- ---- --- -- ----------",212744.69999999925,212744,212058.673,212065.1000000015,212075.344,212758.735,,5,"it,"
screen,html.Screen,0_4_1_0_1_6,2021-11-12T14:48:38.046Z,,,,,,,,,,,,,,,,51,,,,,,,,,,,,,,801.065000000759,,response,,,13,D,,,,,Space,keypress(Space),,,,silence,-------- -------- --- --- ---- --- but ------ -- --------<br>---- --------- --- ------- ------------ ---------- ---------<br>--- ---------- ------- ---------- ------- -- -------- ----<br>---- --- ------ ----- ------ -- ---- --- ----- -- - -------<br>-------- -- --- --- -- ----- ----------- ----- -----------<br>---- --- ---------- --- ---- --- -- ----------,213560.69999999925,213559.80000000075,212742.065,212745,212758.735,213575.506,,6,but
screen,html.Screen,0_4_1_0_1_7,2021-11-12T14:48:38.486Z,,,,,,,,,,,,,,,,51,,,,,,,,,,,,,,424.2940000007511,,response,,,13,D,,,,,Space,keypress(Space),,,,silence,-------- -------- --- --- ---- --- --- debate -- --------<br>---- --------- --- ------- ------------ ---------- ---------<br>--- ---------- ------- ---------- ------- -- -------- ----<br>---- --- ------ ----- ------ -- ---- --- ----- -- - -------<br>-------- -- --- --- -- ----- ----------- ----- -----------<br>---- --- ---------- --- ---- --- -- ----------,214000.6000000015,213999.80000000075,213558.837,213560.80000000075,213575.506,214009.23,,7,debate
screen,html.Screen,0_4_1_0_1_8,2021-11-12T14:48:38.958Z,,,,,,,,,,,,,,,,51,,,,,,,,,,,,,,462.5700000007346,,response,,,13,D,,,,,Space,keypress(Space),,,,silence,-------- -------- --- --- ---- --- --- ------ in --------<br>---- --------- --- ------- ------------ ---------- ---------<br>--- ---------- ------- ---------- ------- -- -------- ----<br>---- --- ------ ----- ------ -- ---- --- ----- -- - -------<br>-------- -- --- --- -- ----- ----------- ----- -----------<br>---- --- ---------- --- ---- --- -- ----------,214472.6000000015,214471.80000000075,213992.558,214000.8999999985,214009.23,214475.833,,8,in
screen,html.Screen,0_4_1_0_1_9,2021-11-12T14:48:39.606Z,,,,,,,,,,,,,,,,51,,,,,,,,,,,,,,643.8669999992417,,response,,,13,D,,,,,Space,keypress(Space),,,,silence,-------- -------- --- --- ---- --- --- ------ -- Congress<br>---- --------- --- ------- ------------ ---------- ---------<br>--- ---------- ------- ---------- ------- -- -------- ----<br>---- --- ------ ----- ------ -- ---- --- ----- -- - -------<br>-------- -- --- --- -- ----- ----------- ----- -----------<br>---- --- ---------- --- ---- --- -- ----------,215120.5,215119.69999999925,214459.163,214472.8999999985,214475.833,215126.082,,9,Congress
screen,html.Screen,0_4_1_0_1_10,2021-11-12T14:48:40.054Z,,,,,,,,,,,,,,,,51,,,,,,,,,,,,,,441.61799999926006,,response,,,13,D,,,,,Space,keypress(Space),,,,silence,-------- -------- --- --- ---- --- --- ------ -- --------<br>over --------- --- ------- ------------ ---------- ---------<br>--- ---------- ------- ---------- ------- -- -------- ----<br>---- --- ------ ----- ------ -- ---- --- ----- -- - -------<br>-------- -- --- --- -- ----- ----------- ----- -----------<br>---- --- ---------- --- ---- --- -- ----------,215568.5,215567.69999999925,215109.411,215120.80000000075,215126.082,215576.116,,10,over
screen,html.Screen,0_4_1_0_1_11,2021-11-12T14:48:40.590Z,,,,,,,,,,,,,,,,51,,,,,,,,,,,,,,527.5839999992459,,response,,,13,D,,,,,Space,keypress(Space),,,,silence,-------- -------- --- --- ---- --- --- ------ -- --------<br>---- reforming --- ------- ------------ ---------- ---------<br>--- ---------- ------- ---------- ------- -- -------- ----<br>---- --- ------ ----- ------ -- ---- --- ----- -- - -------<br>-------- -- --- --- -- ----- ----------- ----- -----------<br>---- --- ---------- --- ---- --- -- ----------,216104.5,216103.69999999925,215559.446,215568.69999999925,215576.116,216109.588,,11,reforming
screen,html.Screen,0_4_1_0_1_12,2021-11-12T14:48:41.062Z,,,,,,,,,,,,,,,,51,,,,,,,,,,,,,,466.0120000015013,,response,,,13,D,,,,,Space,keypress(Space),,,,silence,-------- -------- --- --- ---- --- --- ------ -- --------<br>---- --------- the ------- ------------ ---------- ---------<br>--- ---------- ------- ---------- ------- -- -------- ----<br>---- --- ------ ----- ------ -- ---- --- ----- -- - -------<br>-------- -- --- --- -- ----- ----------- ----- -----------<br>---- --- ---------- --- ---- --- -- ----------,216576.5,216575.6000000015,216092.918,216104.80000000075,216109.588,216593.058,,12,the
screen,html.Screen,0_4_1_0_1_13,2021-11-12T14:48:41.590Z,,,,,,,,,,,,,,,,51,,,,,,,,,,,,,,510.5420000015001,,response,,,13,D,,,,,Space,keypress(Space),,,,silence,-------- -------- --- --- ---- --- --- ------ -- --------<br>---- --------- --- federal ------------ ---------- ---------<br>--- ---------- ------- ---------- ------- -- -------- ----<br>---- --- ------ ----- ------ -- ---- --- ----- -- - -------<br>-------- -- --- --- -- ----- ----------- ----- -----------<br>---- --- ---------- --- ---- --- -- ----------,217104.5,217103.6000000015,216576.388,216576.69999999925,216593.058,217109.827,,13,federal
screen,html.Screen,0_4_1_0_1_14,2021-11-12T14:48:42.086Z,,,,,,,,,,,,,,,,51,,,,,,,,,,,,,,489.7730000014999,,response,,,13,D,,,,,Space,keypress(Space),,,,silence,-------- -------- --- --- ---- --- --- ------ -- --------<br>---- --------- --- ------- government's ---------- ---------<br>--- ---------- ------- ---------- ------- -- -------- ----<br>---- --- ------ ----- ------ -- ---- --- ----- -- - -------<br>-------- -- --- --- -- ----- ----------- ----- -----------<br>---- --- ---------- --- ---- --- -- ----------,217600.5,217599.6000000015,217093.157,217104.6000000015,217109.827,217609.987,,14,government's
screen,html.Screen,0_4_1_0_1_15,2021-11-12T14:48:42.630Z,,,,,,,,,,,,,,,,51,,,,,,,,,,,,,,533.6130000014964,,response,,,13,D,,,,,Space,keypress(Space),,,,silence,-------- -------- --- --- ---- --- --- ------ -- --------<br>---- --------- --- ------- ------------ regulatory ---------<br>--- ---------- ------- ---------- ------- -- -------- ----<br>---- --- ------ ----- ------ -- ---- --- ----- -- - -------<br>-------- -- --- --- -- ----- ----------- ----- -----------<br>---- --- ---------- --- ---- --- -- ----------,218144.3999999985,218143.6000000015,217593.317,217600.69999999925,217609.987,218159.94,,15,regulatory
screen,html.Screen,0_4_1_0_1_16,2021-11-12T14:48:44.006Z,,,,,,,,,,,,,,,,51,,,,,,,,,,,,,,1359.8600000007427,,response,,,13,D,,,,,Space,keypress(Space),,,,silence,-------- -------- --- --- ---- --- --- ------ -- --------<br>---- --------- --- ------- ------------ ---------- apparatus<br>--- ---------- ------- ---------- ------- -- -------- ----<br>---- --- ------ ----- ------ -- ---- --- ----- -- - -------<br>-------- -- --- --- -- ----- ----------- ----- -----------<br>---- --- ---------- --- ---- --- -- ----------,219520.69999999925,219519.80000000075,218143.272,218144.69999999925,218159.94,219527.271,,16,apparatus
screen,html.Screen,0_4_1_0_1_17,2021-11-12T14:48:44.965Z,,,,,,,,,,,,,,,,51,,,,,,,,,,,,,,952.128999998502,,response,,,13,D,,,,,Space,keypress(Space),,,,silence,-------- -------- --- --- ---- --- --- ------ -- --------<br>---- --------- --- ------- ------------ ---------- ---------<br>may ---------- ------- ---------- ------- -- -------- ----<br>---- --- ------ ----- ------ -- ---- --- ----- -- - -------<br>-------- -- --- --- -- ----- ----------- ----- -----------<br>---- --- ---------- --- ---- --- -- ----------,220480.19999999925,220479.3999999985,219510.599,219521,219527.271,220493.98,,17,may
screen,html.Screen,0_4_1_0_1_18,2021-11-12T14:48:46.045Z,,,,,,,,,,,,,,,,51,,,,,,,,,,,,,,1065.3200000007346,,response,,,13,D,,,,,Space,keypress(Space),,,,silence,-------- -------- --- --- ---- --- --- ------ -- --------<br>---- --------- --- ------- ------------ ---------- ---------<br>--- profoundly ------- ---------- ------- -- -------- ----<br>---- --- ------ ----- ------ -- ---- --- ----- -- - -------<br>-------- -- --- --- -- ----- ----------- ----- -----------<br>---- --- ---------- --- ---- --- -- ----------,221560.1000000015,221559.30000000075,220477.31,220480.5,220493.98,221577.578,,18,profoundly
screen,html.Screen,0_4_1_0_1_19,2021-11-12T14:48:46.869Z,,,,,,,,,,,,,,,,51,,,,,,,,,,,,,,805.7220000007364,,response,,,13,D,,,,,Space,keypress(Space),,,,silence,-------- -------- --- --- ---- --- --- ------ -- --------<br>---- --------- --- ------- ------------ ---------- ---------<br>--- ---------- improve ---------- ------- -- -------- ----<br>---- --- ------ ----- ------ -- ---- --- ----- -- - -------<br>-------- -- --- --- -- ----- ----------- ----- -----------<br>---- --- ---------- --- ---- --- -- ----------,222384,222383.30000000075,221560.908,221560.3999999985,221577.578,222394.451,,19,improve
screen,html.Screen,0_4_1_0_1_20,2021-11-12T14:48:47.413Z,,,,,,,,,,,,,,,,51,,,,,,,,,,,,,,532.748999999254,,response,,,13,D,,,,,Space,keypress(Space),,,,silence,-------- -------- --- --- ---- --- --- ------ -- --------<br>---- --------- --- ------- ------------ ---------- ---------<br>--- ---------- ------- companies' ------- -- -------- ----<br>---- --- ------ ----- ------ -- ---- --- ----- -- - -------<br>-------- -- --- --- -- ----- ----------- ----- -----------<br>---- --- ---------- --- ---- --- -- ----------,222928.1000000015,222927.19999999925,222377.781,222384.30000000075,222394.451,222944.597,,20,companies'
screen,html.Screen,0_4_1_0_1_21,2021-11-12T14:48:48.269Z,,,,,,,,,,,,,,,,51,,,,,,,,,,,,,,838.5030000014813,,response,,,13,D,,,,,Space,keypress(Space),,,,silence,-------- -------- --- --- ---- --- --- ------ -- --------<br>---- --------- --- ------- ------------ ---------- ---------<br>--- ---------- ------- ---------- ability -- -------- ----<br>---- --- ------ ----- ------ -- ---- --- ----- -- - -------<br>-------- -- --- --- -- ----- ----------- ----- -----------<br>---- --- ---------- --- ---- --- -- ----------,223784,223783.1000000015,222927.927,222928.30000000075,222944.597,223794.77,,21,ability
screen,html.Screen,0_4_1_0_1_22,2021-11-12T14:48:48.733Z,,,,,,,,,,,,,,,,51,,,,,,,,,,,,,,452.4299999992654,,response,,,13,D,,,,,Space,keypress(Space),,,,silence,-------- -------- --- --- ---- --- --- ------ -- --------<br>---- --------- --- ------- ------------ ---------- ---------<br>--- ---------- ------- ---------- ------- to -------- ----<br>---- --- ------ ----- ------ -- ---- --- ----- -- - -------<br>-------- -- --- --- -- ----- ----------- ----- -----------<br>---- --- ---------- --- ---- --- -- ----------,224248,224247.19999999925,223778.1,223784.19999999925,223794.77,224261.647,,22,to
screen,html.Screen,0_4_1_0_1_23,2021-11-12T14:48:49.221Z,,,,,,,,,,,,,,,,51,,,,,,,,,,,,,,473.4530000014929,,response,,,13,D,,,,,Space,keypress(Space),,,,silence,-------- -------- --- --- ---- --- --- ------ -- --------<br>---- --------- --- ------- ------------ ---------- ---------<br>--- ---------- ------- ---------- ------- -- survive. ----<br>---- --- ------ ----- ------ -- ---- --- ----- -- - -------<br>-------- -- --- --- -- ----- ----------- ----- -----------<br>---- --- ---------- --- ---- --- -- ----------,224736,224735.1000000015,224244.976,224248.19999999925,224261.647,224745.041,,23,survive.
screen,html.Screen,0_4_1_0_1_24,2021-11-12T14:48:49.813Z,,,,,,,,,,,,,,,,51,,,,,,,,,,,,,,582.0590000014927,,response,,,13,D,,,,,Space,keypress(Space),,,,silence,-------- -------- --- --- ---- --- --- ------ -- --------<br>---- --------- --- ------- ------------ ---------- ---------<br>--- ---------- ------- ---------- ------- -- -------- This<br>---- --- ------ ----- ------ -- ---- --- ----- -- - -------<br>-------- -- --- --- -- ----- ----------- ----- -----------<br>---- --- ---------- --- ---- --- -- ----------,225327.8999999985,225327.1000000015,224728.371,224736.1000000015,224745.041,225345.169,,24,This
screen,html.Screen,0_4_1_0_1_25,2021-11-12T14:48:50.349Z,,,,,,,,,,,,,,,,51,,,,,,,,,,,,,,517.8310000000056,,response,,,13,D,,,,,Space,keypress(Space),,,,silence,-------- -------- --- --- ---- --- --- ------ -- --------<br>---- --------- --- ------- ------------ ---------- ---------<br>--- ---------- ------- ---------- ------- -- -------- ----<br>week --- ------ ----- ------ -- ---- --- ----- -- - -------<br>-------- -- --- --- -- ----- ----------- ----- -----------<br>---- --- ---------- --- ---- --- -- ----------,225863.80000000075,225863,225328.499,225328.1000000015,225345.169,225878.628,,25,week
screen,html.Screen,0_4_1_0_1_26,2021-11-12T14:48:50.861Z,,,,,,,,,,,,,,,,51,,,,,,,,,,,,,,496.372000000003,,response,,,13,D,,,,,Space,keypress(Space),,,,silence,-------- -------- --- --- ---- --- --- ------ -- --------<br>---- --------- --- ------- ------------ ---------- ---------<br>--- ---------- ------- ---------- ------- -- -------- ----<br>---- the ------ ----- ------ -- ---- --- ----- -- - -------<br>-------- -- --- --- -- ----- ----------- ----- -----------<br>---- --- ---------- --- ---- --- -- ----------,226375.80000000075,226375,225861.958,225864.1000000015,225878.628,226378.829,,26,the
screen,html.Screen,0_4_1_0_1_27,2021-11-12T14:48:51.517Z,,,,,,,,,,,,,,,,51,,,,,,,,,,,,,,651.9710000007472,,response,,,13,D,,,,,Space,keypress(Space),,,,silence,-------- -------- --- --- ---- --- --- ------ -- --------<br>---- --------- --- ------- ------------ ---------- ---------<br>--- ---------- ------- ---------- ------- -- -------- ----<br>---- --- Senate ----- ------ -- ---- --- ----- -- - -------<br>-------- -- --- --- -- ----- ----------- ----- -----------<br>---- --- ---------- --- ---- --- -- ----------,227031.6000000015,227030.80000000075,226362.158,226376,226378.829,227045.583,,27,Senate
screen,html.Screen,0_4_1_0_1_28,2021-11-12T14:48:52.213Z,,,,,,,,,,,,,,,,51,,,,,,,,,,,,,,681.3169999984966,,response,,,13,D,,,,,Space,keypress(Space),,,,silence,-------- -------- --- --- ---- --- --- ------ -- --------<br>---- --------- --- ------- ------------ ---------- ---------<br>--- ---------- ------- ---------- ------- -- -------- ----<br>---- --- ------ seems ------ -- ---- --- ----- -- - -------<br>-------- -- --- --- -- ----- ----------- ----- -----------<br>---- --- ---------- --- ---- --- -- ----------,227727.69999999925,227726.8999999985,227028.913,227031.8999999985,227045.583,227728.944,,28,seems
screen,html.Screen,0_4_1_0_1_29,2021-11-12T14:48:52.981Z,,,,,,,,,,,,,,,,51,,,,,,,,,,,,,,765.8560000007565,,response,,,13,D,,,,,Space,keypress(Space),,,,silence,-------- -------- --- --- ---- --- --- ------ -- --------<br>---- --------- --- ------- ------------ ---------- ---------<br>--- ---------- ------- ---------- ------- -- -------- ----<br>---- --- ------ ----- poised -- ---- --- ----- -- - -------<br>-------- -- --- --- -- ----- ----------- ----- -----------<br>---- --- ---------- --- ---- --- -- ----------,228495.6000000015,228494.80000000075,227712.275,227728,227728.944,228512.681,,29,poised
screen,html.Screen,0_4_1_0_1_30,2021-11-12T14:48:53.477Z,,,,,,,,,,,,,,,,51,,,,,,,,,,,,,,478.11900000073365,,response,,,13,D,,,,,Space,keypress(Space),,,,silence,-------- -------- --- --- ---- --- --- ------ -- --------<br>---- --------- --- ------- ------------ ---------- ---------<br>--- ---------- ------- ---------- ------- -- -------- ----<br>---- --- ------ ----- ------ to ---- --- ----- -- - -------<br>-------- -- --- --- -- ----- ----------- ----- -----------<br>---- --- ---------- --- ---- --- -- ----------,228991.6000000015,228990.80000000075,228496.01,228495.8999999985,228512.681,228995.954,,30,to
screen,html.Screen,0_4_1_0_1_31,2021-11-12T14:48:54.021Z,,,,,,,,,,,,,,,,51,,,,,,,,,,,,,,539.245999999257,,response,,,13,D,,,,,Space,keypress(Space),,,,silence,-------- -------- --- --- ---- --- --- ------ -- --------<br>---- --------- --- ------- ------------ ---------- ---------<br>--- ---------- ------- ---------- ------- -- -------- ----<br>---- --- ------ ----- ------ -- join --- ----- -- - -------<br>-------- -- --- --- -- ----- ----------- ----- -----------<br>---- --- ---------- --- ---- --- -- ----------,229536,229535.19999999925,228979.285,228991.80000000075,228995.954,229546.256,,31,join
screen,html.Screen,0_4_1_0_1_32,2021-11-12T14:48:54.509Z,,,,,,,,,,,,,,,,51,,,,,,,,,,,,,,476.34400000149617,,response,,,13,D,,,,,Space,keypress(Space),,,,silence,-------- -------- --- --- ---- --- --- ------ -- --------<br>---- --------- --- ------- ------------ ---------- ---------<br>--- ---------- ------- ---------- ------- -- -------- ----<br>---- --- ------ ----- ------ -- ---- the ----- -- - -------<br>-------- -- --- --- -- ----- ----------- ----- -----------<br>---- --- ---------- --- ---- --- -- ----------,230023.3999999985,230022.6000000015,229529.585,229536.19999999925,229546.256,230029.651,,32,the
screen,html.Screen,0_4_1_0_1_33,2021-11-12T14:48:54.965Z,,,,,,,,,,,,,,,,51,,,,,,,,,,,,,,449.04899999924237,,response,,,13,D,,,,,Space,keypress(Space),,,,silence,-------- -------- --- --- ---- --- --- ------ -- --------<br>---- --------- --- ------- ------------ ---------- ---------<br>--- ---------- ------- ---------- ------- -- -------- ----<br>---- --- ------ ----- ------ -- ---- --- House -- - -------<br>-------- -- --- --- -- ----- ----------- ----- -----------<br>---- --- ---------- --- ---- --- -- ----------,230479.5,230478.69999999925,230012.981,230023.6000000015,230029.651,230496.452,,33,House
screen,html.Screen,0_4_1_0_1_34,2021-11-12T14:48:55.421Z,,,,,,,,,,,,,,,,51,,,,,,,,,,,,,,438.1480000014999,,response,,,13,D,,,,,Space,keypress(Space),,,,silence,-------- -------- --- --- ---- --- --- ------ -- --------<br>---- --------- --- ------- ------------ ---------- ---------<br>--- ---------- ------- ---------- ------- -- -------- ----<br>---- --- ------ ----- ------ -- ---- --- ----- in - -------<br>-------- -- --- --- -- ----- ----------- ----- -----------<br>---- --- ---------- --- ---- --- -- ----------,230935.5,230934.6000000015,230479.782,230479.80000000075,230496.452,230946.481,,34,in
screen,html.Screen,0_4_1_0_1_35,2021-11-12T14:48:55.901Z,,,,,,,,,,,,,,,,51,,,,,,,,,,,,,,468.11900000149035,,response,,,13,D,,,,,Space,keypress(Space),,,,silence,-------- -------- --- --- ---- --- --- ------ -- --------<br>---- --------- --- ------- ------------ ---------- ---------<br>--- ---------- ------- ---------- ------- -- -------- ----<br>---- --- ------ ----- ------ -- ---- --- ----- -- a -------<br>-------- -- --- --- -- ----- ----------- ----- -----------<br>---- --- ---------- --- ---- --- -- ----------,231415.5,231414.6000000015,230929.812,230935.80000000075,230946.481,231429.89,,35,a
screen,html.Screen,0_4_1_0_1_36,2021-11-12T14:48:56.381Z,,,,,,,,,,,,,,,,51,,,,,,,,,,,,,,464.60999999998603,,response,,,13,D,,,,,Space,keypress(Space),,,,silence,-------- -------- --- --- ---- --- --- ------ -- --------<br>---- --------- --- ------- ------------ ---------- ---------<br>--- ---------- ------- ---------- ------- -- -------- ----<br>---- --- ------ ----- ------ -- ---- --- ----- -- - massive<br>-------- -- --- --- -- ----- ----------- ----- -----------<br>---- --- ---------- --- ---- --- -- ----------,231895.30000000075,231894.5,231413.221,231415.69999999925,231429.89,231896.874,,36,massive
screen,html.Screen,0_4_1_0_1_37,2021-11-12T14:48:56.957Z,,,,,,,,,,,,,,,,51,,,,,,,,,,,,,,573.7260000014794,,response,,,13,D,,,,,Space,keypress(Space),,,,silence,-------- -------- --- --- ---- --- --- ------ -- --------<br>---- --------- --- ------- ------------ ---------- ---------<br>--- ---------- ------- ---------- ------- -- -------- ----<br>---- --- ------ ----- ------ -- ---- --- ----- -- - -------<br>overhaul -- --- --- -- ----- ----------- ----- -----------<br>---- --- ---------- --- ---- --- -- ----------,232471.3999999985,232470.6000000015,231880.202,231895.6000000015,231896.874,232480.253,,37,overhaul
screen,html.Screen,0_4_1_0_1_38,2021-11-12T14:48:57.437Z,,,,,,,,,,,,,,,,51,,,,,,,,,,,,,,470.247000000003,,response,,,13,D,,,,,Space,keypress(Space),,,,silence,-------- -------- --- --- ---- --- --- ------ -- --------<br>---- --------- --- ------- ------------ ---------- ---------<br>--- ---------- ------- ---------- ------- -- -------- ----<br>---- --- ------ ----- ------ -- ---- --- ----- -- - -------<br>-------- of --- --- -- ----- ----------- ----- -----------<br>---- --- ---------- --- ---- --- -- ----------,232951.30000000075,232950.5,232463.583,232471.5,232480.253,232963.69,,38,of
screen,html.Screen,0_4_1_0_1_39,2021-11-12T14:48:57.901Z,,,,,,,,,,,,,,,,51,,,,,,,,,,,,,,450.70999999850756,,response,,,13,D,,,,,Space,keypress(Space),,,,silence,-------- -------- --- --- ---- --- --- ------ -- --------<br>---- --------- --- ------- ------------ ---------- ---------<br>--- ---------- ------- ---------- ------- -- -------- ----<br>---- --- ------ ----- ------ -- ---- --- ----- -- - -------<br>-------- -- the --- -- ----- ----------- ----- -----------<br>---- --- ---------- --- ---- --- -- ----------,233415.30000000075,233414.3999999985,232947.02,232951.5,232963.69,233430.367,,39,the
screen,html.Screen,0_4_1_0_1_40,2021-11-12T14:48:58.341Z,,,,,,,,,,,,,,,,51,,,,,,,,,,,,,,424.13300000000163,,response,,,13,D,,,,,Space,keypress(Space),,,,silence,-------- -------- --- --- ---- --- --- ------ -- --------<br>---- --------- --- ------- ------------ ---------- ---------<br>--- ---------- ------- ---------- ------- -- -------- ----<br>---- --- ------ ----- ------ -- ---- --- ----- -- - -------<br>-------- -- --- way -- ----- ----------- ----- -----------<br>---- --- ---------- --- ---- --- -- ----------,233855.30000000075,233854.5,233413.698,233415.5,233430.367,233864.013,,40,way
screen,html.Screen,0_4_1_0_1_41,2021-11-12T14:48:59.244Z,,,,,,,,,,,,,,,,51,,,,,,,,,,,,,,894.3869999985036,,response,,,13,D,,,,,Space,keypress(Space),,,,silence,-------- -------- --- --- ---- --- --- ------ -- --------<br>---- --------- --- ------- ------------ ---------- ---------<br>--- ---------- ------- ---------- ------- -- -------- ----<br>---- --- ------ ----- ------ -- ---- --- ----- -- - -------<br>-------- -- --- --- in ----- ----------- ----- -----------<br>---- --- ---------- --- ---- --- -- ----------,234759.19999999925,234758.3999999985,233847.341,233855.5,233864.013,234764.1,,41,in
screen,html.Screen,0_4_1_0_1_42,2021-11-12T14:48:59.780Z,,,,,,,,,,,,,,,,51,,,,,,,,,,,,,,530.2000000007392,,response,,,13,D,,,,,Space,keypress(Space),,,,silence,-------- -------- --- --- ---- --- --- ------ -- --------<br>---- --------- --- ------- ------------ ---------- ---------<br>--- ---------- ------- ---------- ------- -- -------- ----<br>---- --- ------ ----- ------ -- ---- --- ----- -- - -------<br>-------- -- --- --- -- which ----------- ----- -----------<br>---- --- ---------- --- ---- --- -- ----------,235295.19999999925,235294.30000000075,234747.43,234759.3999999985,234764.1,235297.567,,42,which
screen,html.Screen,0_4_1_0_1_43,2021-11-12T14:49:01.020Z,,,,,,,,,,,,,,,,51,,,,,,,,,,,,,,1236.733000000735,,response,,,13,D,,,,,Space,keypress(Space),,,,silence,-------- -------- --- --- ---- --- --- ------ -- --------<br>---- --------- --- ------- ------------ ---------- ---------<br>--- ---------- ------- ---------- ------- -- -------- ----<br>---- --- ------ ----- ------ -- ---- --- ----- -- - -------<br>-------- -- --- --- -- ----- bureaucrats ----- -----------<br>---- --- ---------- --- ---- --- -- ----------,236535.1000000015,236534.30000000075,235280.897,235295.5,235297.567,236547.879,,43,bureaucrats
screen,html.Screen,0_4_1_0_1_44,2021-11-12T14:49:01.620Z,,,,,,,,,,,,,,,,51,,,,,,,,,,,,,,586.3209999992687,,response,,,13,D,,,,,Space,keypress(Space),,,,silence,-------- -------- --- --- ---- --- --- ------ -- --------<br>---- --------- --- ------- ------------ ---------- ---------<br>--- ---------- ------- ---------- ------- -- -------- ----<br>---- --- ------ ----- ------ -- ---- --- ----- -- - -------<br>-------- -- --- --- -- ----- ----------- enact -----------<br>---- --- ---------- --- ---- --- -- ----------,237135.19999999925,237134.19999999925,236531.209,236535.30000000075,236547.879,237147.89,,44,enact
screen,html.Screen,0_4_1_0_1_45,2021-11-12T14:49:07.196Z,,,,,,,,,,,,,,,,51,,,,,,,,,,,,,,5562.410000000731,,response,,,13,D,,,,,Space,keypress(Space),,,,silence,-------- -------- --- --- ---- --- --- ------ -- --------<br>---- --------- --- ------- ------------ ---------- ---------<br>--- ---------- ------- ---------- ------- -- -------- ----<br>---- --- ------ ----- ------ -- ---- --- ----- -- - -------<br>-------- -- --- --- -- ----- ----------- ----- regulations<br>---- --- ---------- --- ---- --- -- ----------,242711,242710.30000000075,237131.221,237135.3999999985,237147.89,242715.863,,45,regulations
screen,html.Screen,0_4_1_0_1_46,2021-11-12T14:49:07.916Z,,,,,,,,,,,,,,,,51,,,,,,,,,,,,,,713.937000000733,,response,,,13,D,,,,,Space,keypress(Space),,,,silence,-------- -------- --- --- ---- --- --- ------ -- --------<br>---- --------- --- ------- ------------ ---------- ---------<br>--- ---------- ------- ---------- ------- -- -------- ----<br>---- --- ------ ----- ------ -- ---- --- ----- -- - -------<br>-------- -- --- --- -- ----- ----------- ----- -----------<br>that --- ---------- --- ---- --- -- ----------,243430.69999999925,243429.80000000075,242699.193,242711.30000000075,242715.863,243432.876,,46,that
screen,html.Screen,0_4_1_0_1_47,2021-11-12T14:49:08.532Z,,,,,,,,,,,,,,,,51,,,,,,,,,,,,,,612.9240000007558,,response,,,13,D,,,,,Space,keypress(Space),,,,silence,-------- -------- --- --- ---- --- --- ------ -- --------<br>---- --------- --- ------- ------------ ---------- ---------<br>--- ---------- ------- ---------- ------- -- -------- ----<br>---- --- ------ ----- ------ -- ---- --- ----- -- - -------<br>-------- -- --- --- -- ----- ----------- ----- -----------<br>---- are ---------- --- ---- --- -- ----------,244046.6000000015,244045.80000000075,243416.206,243431,243432.876,244049.695,,47,are
screen,html.Screen,0_4_1_0_1_48,2021-11-12T14:49:09.644Z,,,,,,,,,,,,,,,,51,,,,,,,,,,,,,,1108.004999999248,,response,,,13,D,,,,,Space,keypress(Space),,,,silence,-------- -------- --- --- ---- --- --- ------ -- --------<br>---- --------- --- ------- ------------ ---------- ---------<br>--- ---------- ------- ---------- ------- -- -------- ----<br>---- --- ------ ----- ------ -- ---- --- ----- -- - -------<br>-------- -- --- --- -- ----- ----------- ----- -----------<br>---- --- strangling --- ---- --- -- ----------,245158.5,245157.69999999925,244033.025,244046.80000000075,244049.695,245166.722,,48,strangling
screen,html.Screen,0_4_1_0_1_49,2021-11-12T14:49:10.632Z,,,,,,,,,,,,,,,,51,,,,,,,,,,,,,,974.8780000014813,,response,,,13,D,,,,,Space,keypress(Space),,,,silence,-------- -------- --- --- ---- --- --- ------ -- --------<br>---- --------- --- ------- ------------ ---------- ---------<br>--- ---------- ------- ---------- ------- -- -------- ----<br>---- --- ------ ----- ------ -- ---- --- ----- -- - -------<br>-------- -- --- --- -- ----- ----------- ----- -----------<br>---- --- ---------- the ---- --- -- ----------,246142.3999999985,246141.6000000015,245150.051,245158.80000000075,245166.722,246150.171,,49,the
screen,html.Screen,0_4_1_0_1_50,2021-11-12T14:49:12.256Z,,,,,,,,,,,,,,,,51,,,,,,,,,,,,,,1615.328999999998,,response,,,13,D,,,,,Space,keypress(Space),,,,silence,-------- -------- --- --- ---- --- --- ------ -- --------<br>---- --------- --- ------- ------------ ---------- ---------<br>--- ---------- ------- ---------- ------- -- -------- ----<br>---- --- ------ ----- ------ -- ---- --- ----- -- - -------<br>-------- -- --- --- -- ----- ----------- ----- -----------<br>---- --- ---------- --- life --- -- ----------,247766.30000000075,247765.5,246133.501,246142.69999999925,246150.171,247767.215,,50,life
