sender,sender_type,sender_id,timestamp,meta,,Blues,Classical,Country,Dance,Electronic,Folk,Gospel,Hip-Hop,Jazz,Latin,Musical/Film,New-age,Pop,Provo_ID,R&B,Rap,Reggae,Religious,Rock,Soul,Swing,Traditional,age,artist_name,correct,correctResponse,distraction,duration,education,ended_on,familiarity,gender,item,list,music_frequency,offensiveness,pleasantness,preference,response,response_action,snippet_file,song_name,song_rating,sound,text,time_commit,time_end,time_render,time_run,time_show,time_switch,url,word,word_ID
Instructions,html.Page,0_0,2021-11-25T15:48:40.274Z,"{""labjs_version"":""20.2.3"",""labjs_build"":{""flavor"":""production"",""commit"":""7ea907d66ca8aeef8054924ca5d82ffbe11e34e5""},""location"":""https://run.pavlovia.org/mvasilev/lab_music_a/"",""userAgent"":""Mozilla/5.0 (Windows NT 6.1; Win64; x64) AppleWebKit/537.36 (KHTML, like Gecko) Chrome/96.0.4664.45 Safari/537.36"",""platform"":""Win32"",""language"":""en-GB"",""locale"":""en-GB"",""timeZone"":""Europe/London"",""timezoneOffset"":0,""screen_width"":1920,""screen_height"":1080,""scroll_width"":1920,""scroll_height"":921,""window_innerWidth"":1920,""window_innerHeight"":969,""devicePixelRatio"":1}",,,,,,,,,,,,,,,,,,,,,,,,,,,,,18572.746999952316,,form submission,,,,,,,,,,,,,,,,24280.599999964237,24279.299999952316,5689.887,5706.699999988079,5706.553,24272.477,{},,
Headphones,html.Page,0_1,2021-11-25T15:48:43.425Z,,,,,,,,,,,,,,,,,,,,,,,,,,,,,,3159.023000000001,,form submission,,,,,,,,,,,,,,,,27431.69999998808,27431.5,24255.811,24281.299999952316,24272.477,27439.017,,,
Holding screen,html.Screen,0_2_0_0,2021-11-25T15:48:53.420Z,,,,,,,,,,,,,,,,,,,,,,,,,,,,,,9999.599999999999,,timeout,,,,,,,,,,,,,,,,37426.799999952316,37421.951,27422.351,27432,27439.017,37438.617,,,
screen,html.Screen,0_2_0_1_0,2021-11-25T15:48:54.920Z,,,,,,,,,,,,,,,,53,,,,,,,,,,,,,,1486.682999952318,,response,,,99,,,,,,Space,keypress(Space),,,,,When -- ----- -- ------ - ------- --- ----------<br>------------- ------ ------ ---- ---- ------- ----- -- ----<br>-------- ------- -- ---------- --- - --- ----- ----- ----<br>---- --- --- ----- --- ---- ---- ------- ----- ---- -------<br>--- --- -- ----- -- --- ---- -- --- ---- -- ------ ------<br>--- ----- -- ----,38926.69999998808,38925.299999952316,37421.951,37427.09999996424,37438.617,38938.557,,0,When
screen,html.Screen,0_2_0_1_1,2021-11-25T15:48:55.487Z,,,,,,,,,,,,,,,,53,,,,,,,,,,,,,,554.0429999642365,,response,,,99,,,,,,Space,keypress(Space),,,,,---- it ----- -- ------ - ------- --- ----------<br>------------- ------ ------ ---- ---- ------- ----- -- ----<br>-------- ------- -- ---------- --- - --- ----- ----- ----<br>---- --- --- ----- --- ---- ---- ------- ----- ---- -------<br>--- --- -- ----- -- --- ---- -- --- ---- -- ------ ------<br>--- ----- -- ----,39493.39999997616,39492.59999996424,38921.891,38927,38938.557,39505.201,,1,it
screen,html.Screen,0_2_0_1_2,2021-11-25T15:48:56.615Z,,,,,,,,,,,,,,,,53,,,,,,,,,,,,,,1115.4989999880781,,response,,,99,,,,,,Space,keypress(Space),,,,,---- -- comes -- ------ - ------- --- ----------<br>------------- ------ ------ ---- ---- ------- ----- -- ----<br>-------- ------- -- ---------- --- - --- ----- ----- ----<br>---- --- --- ----- --- ---- ---- ------- ----- ---- -------<br>--- --- -- ----- -- --- ---- -- --- ---- -- ------ ------<br>--- ----- -- ----,40621.69999998808,40620.69999998808,39488.535,39493.69999998808,39505.201,40638.489,,2,comes
screen,html.Screen,0_2_0_1_3,2021-11-25T15:48:57.103Z,,,,,,,,,,,,,,,,53,,,,,,,,,,,,,,470.2109999880777,,response,,,99,,,,,,Space,keypress(Space),,,,,---- -- ----- to ------ - ------- --- ----------<br>------------- ------ ------ ---- ---- ------- ----- -- ----<br>-------- ------- -- ---------- --- - --- ----- ----- ----<br>---- --- --- ----- --- ---- ---- ------- ----- ---- -------<br>--- --- -- ----- -- --- ---- -- --- ---- -- ------ ------<br>--- ----- -- ----,41109.69999998808,41108.69999998808,40621.823,40621.89999997616,40638.489,41121.803,,3,to
screen,html.Screen,0_2_0_1_4,2021-11-25T15:48:57.519Z,,,,,,,,,,,,,,,,53,,,,,,,,,,,,,,402.79699996423733,,response,,,99,,,,,,Space,keypress(Space),,,,,---- -- ----- -- having - ------- --- ----------<br>------------- ------ ------ ---- ---- ------- ----- -- ----<br>-------- ------- -- ---------- --- - --- ----- ----- ----<br>---- --- --- ----- --- ---- ---- ------- ----- ---- -------<br>--- --- -- ----- -- --- ---- -- --- ---- -- ------ ------<br>--- ----- -- ----,41525.69999998808,41524.59999996424,41105.137,41110.299999952316,41121.803,41538.453,,4,having
screen,html.Screen,0_2_0_1_5,2021-11-25T15:48:57.855Z,,,,,,,,,,,,,,,,53,,,,,,,,,,,,,,322.1469999642359,,response,,,99,,,,,,Space,keypress(Space),,,,,---- -- ----- -- ------ a ------- --- ----------<br>------------- ------ ------ ---- ---- ------- ----- -- ----<br>-------- ------- -- ---------- --- - --- ----- ----- ----<br>---- --- --- ----- --- ---- ---- ------- ----- ---- -------<br>--- --- -- ----- -- --- ---- -- --- ---- -- ------ ------<br>--- ----- -- ----,41861.5,41860.59999996424,41521.787,41525.89999997616,41538.453,41871.773,,5,a
screen,html.Screen,0_2_0_1_6,2021-11-25T15:48:58.239Z,,,,,,,,,,,,,,,,53,,,,,,,,,,,,,,372.82699996423617,,response,,,99,,,,,,Space,keypress(Space),,,,,---- -- ----- -- ------ - lasting --- ----------<br>------------- ------ ------ ---- ---- ------- ----- -- ----<br>-------- ------- -- ---------- --- - --- ----- ----- ----<br>---- --- --- ----- --- ---- ---- ------- ----- ---- -------<br>--- --- -- ----- -- --- ---- -- --- ---- -- ------ ------<br>--- ----- -- ----,42245.59999996424,42244.59999996424,41855.107,41862.299999952316,41871.773,42255.091,,6,lasting
screen,html.Screen,0_2_0_1_7,2021-11-25T15:48:58.647Z,,,,,,,,,,,,,,,,53,,,,,,,,,,,,,,397.50899996423686,,response,,,99,,,,,,Space,keypress(Space),,,,,---- -- ----- -- ------ - ------- and ----------<br>------------- ------ ------ ---- ---- ------- ----- -- ----<br>-------- ------- -- ---------- --- - --- ----- ----- ----<br>---- --- --- ----- --- ---- ---- ------- ----- ---- -------<br>--- --- -- ----- -- --- ---- -- --- ---- -- ------ ------<br>--- ----- -- ----,42653.59999996424,42652.59999996424,42238.425,42245.89999997616,42255.091,42655.075,,7,and
screen,html.Screen,0_2_0_1_8,2021-11-25T15:48:59.023Z,,,,,,,,,,,,,,,,53,,,,,,,,,,,,,,373.4250000000029,,response,,,99,,,,,,Space,keypress(Space),,,,,---- -- ----- -- ------ - ------- --- fulfilling<br>------------- ------ ------ ---- ---- ------- ----- -- ----<br>-------- ------- -- ---------- --- - --- ----- ----- ----<br>---- --- --- ----- --- ---- ---- ------- ----- ---- -------<br>--- --- -- ----- -- --- ---- -- --- ---- -- ------ ------<br>--- ----- -- ----,43029.799999952316,43028.5,42638.409,42653.89999997616,42655.075,43038.393,,8,fulfilling
screen,html.Screen,0_2_0_1_9,2021-11-25T15:48:59.471Z,,,,,,,,,,,,,,,,53,,,,,,,,,,,,,,438.1070000000036,,response,,,99,,,,,,Space,keypress(Space),,,,,"---- -- ----- -- ------ - ------- --- ----------<br>relationship, ------ ------ ---- ---- ------- ----- -- ----<br>-------- ------- -- ---------- --- - --- ----- ----- ----<br>---- --- --- ----- --- ---- ---- ------- ----- ---- -------<br>--- --- -- ----- -- --- ---- -- --- ---- -- ------ ------<br>--- ----- -- ----",43477.5,43476.5,43021.727,43030.09999996424,43038.393,43488.375,,9,"relationship,"
screen,html.Screen,0_2_0_1_10,2021-11-25T15:48:59.783Z,,,,,,,,,,,,,,,,53,,,,,,,,,,,,,,300.125,,response,,,99,,,,,,Space,keypress(Space),,,,,---- -- ----- -- ------ - ------- --- ----------<br>------------- common ------ ---- ---- ------- ----- -- ----<br>-------- ------- -- ---------- --- - --- ----- ----- ----<br>---- --- --- ----- --- ---- ---- ------- ----- ---- -------<br>--- --- -- ----- -- --- ---- -- --- ---- -- ------ ------<br>--- ----- -- ----,43789.5,43788.5,43471.709,43477.799999952316,43488.375,43805.029,,10,common
screen,html.Screen,0_2_0_1_11,2021-11-25T15:49:00.399Z,,,,,,,,,,,,,,,,53,,,,,,,,,,,,,,599.4709999999977,,response,,,99,,,,,,Space,keypress(Space),,,,,---- -- ----- -- ------ - ------- --- ----------<br>------------- ------ wisdom ---- ---- ------- ----- -- ----<br>-------- ------- -- ---------- --- - --- ----- ----- ----<br>---- --- --- ----- --- ---- ---- ------- ----- ---- -------<br>--- --- -- ----- -- --- ---- -- --- ---- -- ------ ------<br>--- ----- -- ----,44405.39999997616,44404.5,43788.363,43789.799999952316,43805.029,44421.671,,11,wisdom
screen,html.Screen,0_2_0_1_12,2021-11-25T15:49:01.431Z,,,,,,,,,,,,,,,,53,,,,,,,,,,,,,,1014.728999976156,,response,,,99,,,,,,Space,keypress(Space),,,,,---- -- ----- -- ------ - ------- --- ----------<br>------------- ------ ------ says ---- ------- ----- -- ----<br>-------- ------- -- ---------- --- - --- ----- ----- ----<br>---- --- --- ----- --- ---- ---- ------- ----- ---- -------<br>--- --- -- ----- -- --- ---- -- --- ---- -- ------ ------<br>--- ----- -- ----,45437.59999996424,45436.39999997616,44405.005,44405.69999998808,44421.671,45454.963,,12,says
screen,html.Screen,0_2_0_1_13,2021-11-25T15:49:01.735Z,,,,,,,,,,,,,,,,53,,,,,,,,,,,,,,285.43699997615477,,response,,,99,,,,,,Space,keypress(Space),,,,,---- -- ----- -- ------ - ------- --- ----------<br>------------- ------ ------ ---- that ------- ----- -- ----<br>-------- ------- -- ---------- --- - --- ----- ----- ----<br>---- --- --- ----- --- ---- ---- ------- ----- ---- -------<br>--- --- -- ----- -- --- ---- -- --- ---- -- ------ ------<br>--- ----- -- ----,45741.299999952316,45740.39999997616,45438.297,45437.89999997616,45454.963,45754.951,,13,that
screen,html.Screen,0_2_0_1_14,2021-11-25T15:49:02.015Z,,,,,,,,,,,,,,,,53,,,,,,,,,,,,,,265.4489999761572,,response,,,99,,,,,,Space,keypress(Space),,,,,---- -- ----- -- ------ - ------- --- ----------<br>------------- ------ ------ ---- ---- feeling ----- -- ----<br>-------- ------- -- ---------- --- - --- ----- ----- ----<br>---- --- --- ----- --- ---- ---- ------- ----- ---- -------<br>--- --- -- ----- -- --- ---- -- --- ---- -- ------ ------<br>--- ----- -- ----,46021.19999998808,46020.39999997616,45738.285,45741.59999996424,45754.951,46038.273,,14,feeling
screen,html.Screen,0_2_0_1_15,2021-11-25T15:49:02.263Z,,,,,,,,,,,,,,,,53,,,,,,,,,,,,,,230.02699995231524,,response,,,99,,,,,,Space,keypress(Space),,,,,---- -- ----- -- ------ - ------- --- ----------<br>------------- ------ ------ ---- ---- ------- close -- ----<br>-------- ------- -- ---------- --- - --- ----- ----- ----<br>---- --- --- ----- --- ---- ---- ------- ----- ---- -------<br>--- --- -- ----- -- --- ---- -- --- ---- -- ------ ------<br>--- ----- -- ----,46269.299999952316,46268.299999952316,46021.607,46021.5,46038.273,46271.597,,15,close
screen,html.Screen,0_2_0_1_16,2021-11-25T15:49:02.535Z,,,,,,,,,,,,,,,,53,,,,,,,,,,,,,,268.80299997615657,,response,,,99,,,,,,Space,keypress(Space),,,,,---- -- ----- -- ------ - ------- --- ----------<br>------------- ------ ------ ---- ---- ------- ----- to ----<br>-------- ------- -- ---------- --- - --- ----- ----- ----<br>---- --- --- ----- --- ---- ---- ------- ----- ---- -------<br>--- --- -- ----- -- --- ---- -- --- ---- -- ------ ------<br>--- ----- -- ----,46541.299999952316,46540.39999997616,46254.931,46269.5,46271.597,46554.919,,16,to
screen,html.Screen,0_2_0_1_17,2021-11-25T15:49:02.855Z,,,,,,,,,,,,,,,,53,,,,,,,,,,,,,,305.3809999523146,,response,,,99,,,,,,Space,keypress(Space),,,,,---- -- ----- -- ------ - ------- --- ----------<br>------------- ------ ------ ---- ---- ------- ----- -- your<br>-------- ------- -- ---------- --- - --- ----- ----- ----<br>---- --- --- ----- --- ---- ---- ------- ----- ---- -------<br>--- --- -- ----- -- --- ---- -- --- ---- -- ------ ------<br>--- ----- -- ----,46861.19999998808,46860.299999952316,46538.253,46541.59999996424,46554.919,46871.573,,17,your
screen,html.Screen,0_2_0_1_18,2021-11-25T15:49:03.183Z,,,,,,,,,,,,,,,,53,,,,,,,,,,,,,,316.82699997616146,,response,,,99,,,,,,Space,keypress(Space),,,,,---- -- ----- -- ------ - ------- --- ----------<br>------------- ------ ------ ---- ---- ------- ----- -- ----<br>romantic ------- -- ---------- --- - --- ----- ----- ----<br>---- --- --- ----- --- ---- ---- ------- ----- ---- -------<br>--- --- -- ----- -- --- ---- -- --- ---- -- ------ ------<br>--- ----- -- ----,47189.19999998808,47188.39999997616,46854.907,46861.39999997616,46871.573,47204.893,,18,romantic
screen,html.Screen,0_2_0_1_19,2021-11-25T15:49:03.462Z,,,,,,,,,,,,,,,,53,,,,,,,,,,,,,,263.4069999523199,,response,,,99,,,,,,Space,keypress(Space),,,,,---- -- ----- -- ------ - ------- --- ----------<br>------------- ------ ------ ---- ---- ------- ----- -- ----<br>-------- partner -- ---------- --- - --- ----- ----- ----<br>---- --- --- ----- --- ---- ---- ------- ----- ---- -------<br>--- --- -- ----- -- --- ---- -- --- ---- -- ------ ------<br>--- ----- -- ----,47469.09999996424,47468.299999952316,47188.227,47189.5,47204.893,47471.549,,19,partner
screen,html.Screen,0_2_0_1_20,2021-11-25T15:49:03.710Z,,,,,,,,,,,,,,,,53,,,,,,,,,,,,,,244.75099995231722,,response,,,99,,,,,,Space,keypress(Space),,,,,---- -- ----- -- ------ - ------- --- ----------<br>------------- ------ ------ ---- ---- ------- ----- -- ----<br>-------- ------- is ---------- --- - --- ----- ----- ----<br>---- --- --- ----- --- ---- ---- ------- ----- ---- -------<br>--- --- -- ----- -- --- ---- -- --- ---- -- ------ ------<br>--- ----- -- ----,47717.19999998808,47716.299999952316,47454.883,47469.39999997616,47471.549,47721.539,,20,is
screen,html.Screen,0_2_0_1_21,2021-11-25T15:49:03.966Z,,,,,,,,,,,,,,,,53,,,,,,,,,,,,,,250.76099995231925,,response,,,99,,,,,,Space,keypress(Space),,,,,---- -- ----- -- ------ - ------- --- ----------<br>------------- ------ ------ ---- ---- ------- ----- -- ----<br>-------- ------- -- paramount. --- - --- ----- ----- ----<br>---- --- --- ----- --- ---- ---- ------- ----- ---- -------<br>--- --- -- ----- -- --- ---- -- --- ---- -- ------ ------<br>--- ----- -- ----,47973.09999996424,47972.299999952316,47704.873,47717.39999997616,47721.539,47988.195,,21,paramount.
screen,html.Screen,0_2_0_1_22,2021-11-25T15:49:04.334Z,,,,,,,,,,,,,,,,53,,,,,,,,,,,,,,352.1049999523166,,response,,,99,,,,,,Space,keypress(Space),,,,,---- -- ----- -- ------ - ------- --- ----------<br>------------- ------ ------ ---- ---- ------- ----- -- ----<br>-------- ------- -- ---------- But - --- ----- ----- ----<br>---- --- --- ----- --- ---- ---- ------- ----- ---- -------<br>--- --- -- ----- -- --- ---- -- --- ---- -- ------ ------<br>--- ----- -- ----,48341.09999996424,48340.299999952316,47971.529,47973.69999998808,47988.195,48354.847,,22,But
screen,html.Screen,0_2_0_1_23,2021-11-25T15:49:04.631Z,,,,,,,,,,,,,,,,53,,,,,,,,,,,,,,281.25299996423564,,response,,,99,,,,,,Space,keypress(Space),,,,,---- -- ----- -- ------ - ------- --- ----------<br>------------- ------ ------ ---- ---- ------- ----- -- ----<br>-------- ------- -- ---------- --- a --- ----- ----- ----<br>---- --- --- ----- --- ---- ---- ------- ----- ---- -------<br>--- --- -- ----- -- --- ---- -- --- ---- -- ------ ------<br>--- ----- -- ----,48637.19999998808,48636.09999996424,48338.181,48341.299999952316,48354.847,48654.835,,23,a
screen,html.Screen,0_2_0_1_24,2021-11-25T15:49:04.878Z,,,,,,,,,,,,,,,,53,,,,,,,,,,,,,,229.36499998807994,,response,,,99,,,,,,Space,keypress(Space),,,,,---- -- ----- -- ------ - ------- --- ----------<br>------------- ------ ------ ---- ---- ------- ----- -- ----<br>-------- ------- -- ---------- --- - new ----- ----- ----<br>---- --- --- ----- --- ---- ---- ------- ----- ---- -------<br>--- --- -- ----- -- --- ---- -- --- ---- -- ------ ------<br>--- ----- -- ----,48885,48884.19999998808,48638.169,48637.5,48654.835,48888.159,,24,new
screen,html.Screen,0_2_0_1_25,2021-11-25T15:49:05.119Z,,,,,,,,,,,,,,,,53,,,,,,,,,,,,,,236.54099998807942,,response,,,99,,,,,,Space,keypress(Space),,,,,---- -- ----- -- ------ - ------- --- ----------<br>------------- ------ ------ ---- ---- ------- ----- -- ----<br>-------- ------- -- ---------- --- - --- study ----- ----<br>---- --- --- ----- --- ---- ---- ------- ----- ---- -------<br>--- --- -- ----- -- --- ---- -- --- ---- -- ------ ------<br>--- ----- -- ----,49125.5,49124.69999998808,48871.493,48885.299999952316,48888.159,49138.149,,25,study
screen,html.Screen,0_2_0_1_26,2021-11-25T15:49:05.334Z,,,,,,,,,,,,,,,,53,,,,,,,,,,,,,,202.05099998808146,,response,,,99,,,,,,Space,keypress(Space),,,,,---- -- ----- -- ------ - ------- --- ----------<br>------------- ------ ------ ---- ---- ------- ----- -- ----<br>-------- ------- -- ---------- --- - --- ----- finds ----<br>---- --- --- ----- --- ---- ---- ------- ----- ---- -------<br>--- --- -- ----- -- --- ---- -- --- ---- -- ------ ------<br>--- ----- -- ----,49341,49340.19999998808,49121.483,49125.799999952316,49138.149,49354.807,,26,finds
screen,html.Screen,0_2_0_1_27,2021-11-25T15:49:05.518Z,,,,,,,,,,,,,,,,53,,,,,,,,,,,,,,169.39299998807837,,response,,,99,,,,,,Space,keypress(Space),,,,,---- -- ----- -- ------ - ------- --- ----------<br>------------- ------ ------ ---- ---- ------- ----- -- ----<br>-------- ------- -- ---------- --- - --- ----- ----- that<br>---- --- --- ----- --- ---- ---- ------- ----- ---- -------<br>--- --- -- ----- -- --- ---- -- --- ---- -- ------ ------<br>--- ----- -- ----,49525.09999996424,49524.19999998808,49338.141,49341.299999952316,49354.807,49538.133,,27,that
screen,html.Screen,0_2_0_1_28,2021-11-25T15:49:05.982Z,,,,,,,,,,,,,,,,53,,,,,,,,,,,,,,449.9669999642356,,response,,,99,,,,,,Space,keypress(Space),,,,,---- -- ----- -- ------ - ------- --- ----------<br>------------- ------ ------ ---- ---- ------- ----- -- ----<br>-------- ------- -- ---------- --- - --- ----- ----- ----<br>it's --- --- ----- --- ---- ---- ------- ----- ---- -------<br>--- --- -- ----- -- --- ---- -- --- ---- -- ------ ------<br>--- ----- -- ----,49989,49988.09999996424,49521.467,49525.299999952316,49538.133,50004.781,,28,it's
screen,html.Screen,0_2_0_1_29,2021-11-25T15:49:06.230Z,,,,,,,,,,,,,,,,53,,,,,,,,,,,,,,231.4189999880764,,response,,,99,,,,,,Space,keypress(Space),,,,,---- -- ----- -- ------ - ------- --- ----------<br>------------- ------ ------ ---- ---- ------- ----- -- ----<br>-------- ------- -- ---------- --- - --- ----- ----- ----<br>---- not --- ----- --- ---- ---- ------- ----- ---- -------<br>--- --- -- ----- -- --- ---- -- --- ---- -- ------ ------<br>--- ----- -- ----,50237,50236.19999998808,49988.115,49989.299999952316,50004.781,50238.105,,29,not
screen,html.Screen,0_2_0_1_30,2021-11-25T15:49:06.446Z,,,,,,,,,,,,,,,,53,,,,,,,,,,,,,,214.09499998807587,,response,,,99,,,,,,Space,keypress(Space),,,,,---- -- ----- -- ------ - ------- --- ----------<br>------------- ------ ------ ---- ---- ------- ----- -- ----<br>-------- ------- -- ---------- --- - --- ----- ----- ----<br>---- --- how ----- --- ---- ---- ------- ----- ---- -------<br>--- --- -- ----- -- --- ---- -- --- ---- -- ------ ------<br>--- ----- -- ----,50453,50452.19999998808,50221.439,50237.299999952316,50238.105,50454.763,,30,how
screen,html.Screen,0_2_0_1_31,2021-11-25T15:49:06.902Z,,,,,,,,,,,,,,,,53,,,,,,,,,,,,,,453.3369999642382,,response,,,99,,,,,,Space,keypress(Space),,,,,---- -- ----- -- ------ - ------- --- ----------<br>------------- ------ ------ ---- ---- ------- ----- -- ----<br>-------- ------- -- ---------- --- - --- ----- ----- ----<br>---- --- --- close --- ---- ---- ------- ----- ---- -------<br>--- --- -- ----- -- --- ---- -- --- ---- -- ------ ------<br>--- ----- -- ----,50908.89999997616,50908.09999996424,50438.097,50453.299999952316,50454.763,50921.411,,31,close
screen,html.Screen,0_2_0_1_32,2021-11-25T15:49:07.158Z,,,,,,,,,,,,,,,,53,,,,,,,,,,,,,,242.68899996423715,,response,,,99,,,,,,Space,keypress(Space),,,,,---- -- ----- -- ------ - ------- --- ----------<br>------------- ------ ------ ---- ---- ------- ----- -- ----<br>-------- ------- -- ---------- --- - --- ----- ----- ----<br>---- --- --- ----- you ---- ---- ------- ----- ---- -------<br>--- --- -- ----- -- --- ---- -- --- ---- -- ------ ------<br>--- ----- -- ----,51165,51164.09999996424,50904.745,50910.799999952316,50921.411,51171.401,,32,you
screen,html.Screen,0_2_0_1_33,2021-11-25T15:49:07.438Z,,,,,,,,,,,,,,,,53,,,,,,,,,,,,,,272.6989999642392,,response,,,99,,,,,,Space,keypress(Space),,,,,---- -- ----- -- ------ - ------- --- ----------<br>------------- ------ ------ ---- ---- ------- ----- -- ----<br>-------- ------- -- ---------- --- - --- ----- ----- ----<br>---- --- --- ----- --- feel ---- ------- ----- ---- -------<br>--- --- -- ----- -- --- ---- -- --- ---- -- ------ ------<br>--- ----- -- ----,51444.799999952316,51444.09999996424,51154.735,51165.299999952316,51171.401,51454.723,,33,feel
screen,html.Screen,0_2_0_1_34,2021-11-25T15:49:07.686Z,,,,,,,,,,,,,,,,53,,,,,,,,,,,,,,237.27700000000186,,response,,,99,,,,,,Space,keypress(Space),,,,,---- -- ----- -- ------ - ------- --- ----------<br>------------- ------ ------ ---- ---- ------- ----- -- ----<br>-------- ------- -- ---------- --- - --- ----- ----- ----<br>---- --- --- ----- --- ---- that ------- ----- ---- -------<br>--- --- -- ----- -- --- ---- -- --- ---- -- ------ ------<br>--- ----- -- ----,51692.89999997616,51692,51438.057,51445.09999996424,51454.723,51704.713,,34,that
screen,html.Screen,0_2_0_1_35,2021-11-25T15:49:07.942Z,,,,,,,,,,,,,,,,53,,,,,,,,,,,,,,243.38699996423384,,response,,,99,,,,,,Space,keypress(Space),,,,,---- -- ----- -- ------ - ------- --- ----------<br>------------- ------ ------ ---- ---- ------- ----- -- ----<br>-------- ------- -- ---------- --- - --- ----- ----- ----<br>---- --- --- ----- --- ---- ---- matters ----- ---- -------<br>--- --- -- ----- -- --- ---- -- --- ---- -- ------ ------<br>--- ----- -- ----,51948.89999997616,51948.09999996424,51688.047,51693.299999952316,51704.713,51954.703,,35,matters
screen,html.Screen,0_2_0_1_36,2021-11-25T15:49:08.215Z,,,,,,,,,,,,,,,,53,,,,,,,,,,,,,,265.29699999999866,,response,,,99,,,,,,Space,keypress(Space),,,,,"---- -- ----- -- ------ - ------- --- ----------<br>------------- ------ ------ ---- ---- ------- ----- -- ----<br>-------- ------- -- ---------- --- - --- ----- ----- ----<br>---- --- --- ----- --- ---- ---- ------- most, ---- -------<br>--- --- -- ----- -- --- ---- -- --- ---- -- ------ ------<br>--- ----- -- ----",52221.19999998808,52220,51938.037,51949.09999996424,51954.703,52238.025,,36,"most,"
screen,html.Screen,0_2_0_1_37,2021-11-25T15:49:08.494Z,,,,,,,,,,,,,,,,53,,,,,,,,,,,,,,261.97499999999854,,response,,,99,,,,,,Space,keypress(Space),,,,,---- -- ----- -- ------ - ------- --- ----------<br>------------- ------ ------ ---- ---- ------- ----- -- ----<br>-------- ------- -- ---------- --- - --- ----- ----- ----<br>---- --- --- ----- --- ---- ---- ------- ----- it's -------<br>--- --- -- ----- -- --- ---- -- --- ---- -- ------ ------<br>--- ----- -- ----,52500.89999997616,52500,52221.359,52221.5,52238.025,52504.681,,37,it's
screen,html.Screen,0_2_0_1_38,2021-11-25T15:49:08.742Z,,,,,,,,,,,,,,,,53,,,,,,,,,,,,,,243.31900000000314,,response,,,99,,,,,,Space,keypress(Space),,,,,---- -- ----- -- ------ - ------- --- ----------<br>------------- ------ ------ ---- ---- ------- ----- -- ----<br>-------- ------- -- ---------- --- - --- ----- ----- ----<br>---- --- --- ----- --- ---- ---- ------- ----- ---- whether<br>--- --- -- ----- -- --- ---- -- --- ---- -- ------ ------<br>--- ----- -- ----,52748.799999952316,52748,52488.015,52501.09999996424,52504.681,52754.671,,38,whether
screen,html.Screen,0_2_0_1_39,2021-11-25T15:49:09.126Z,,,,,,,,,,,,,,,,53,,,,,,,,,,,,,,377.3289999999979,,response,,,99,,,,,,Space,keypress(Space),,,,,---- -- ----- -- ------ - ------- --- ----------<br>------------- ------ ------ ---- ---- ------- ----- -- ----<br>-------- ------- -- ---------- --- - --- ----- ----- ----<br>---- --- --- ----- --- ---- ---- ------- ----- ---- -------<br>you --- -- ----- -- --- ---- -- --- ---- -- ------ ------<br>--- ----- -- ----,53132.89999997616,53132,52738.005,52749.09999996424,52754.671,53137.989,,39,you
screen,html.Screen,0_2_0_1_40,2021-11-25T15:49:09.366Z,,,,,,,,,,,,,,,,53,,,,,,,,,,,,,,234.0109999999986,,response,,,99,,,,,,Space,keypress(Space),,,,,---- -- ----- -- ------ - ------- --- ----------<br>------------- ------ ------ ---- ---- ------- ----- -- ----<br>-------- ------- -- ---------- --- - --- ----- ----- ----<br>---- --- --- ----- --- ---- ---- ------- ----- ---- -------<br>--- are -- ----- -- --- ---- -- --- ---- -- ------ ------<br>--- ----- -- ----,53372.89999997616,53372,53121.323,53133.09999996424,53137.989,53387.979,,40,are
screen,html.Screen,0_2_0_1_41,2021-11-25T15:49:09.566Z,,,,,,,,,,,,,,,,53,,,,,,,,,,,,,,184.02100000000064,,response,,,99,,,,,,Space,keypress(Space),,,,,---- -- ----- -- ------ - ------- --- ----------<br>------------- ------ ------ ---- ---- ------- ----- -- ----<br>-------- ------- -- ---------- --- - --- ----- ----- ----<br>---- --- --- ----- --- ---- ---- ------- ----- ---- -------<br>--- --- as ----- -- --- ---- -- --- ---- -- ------ ------<br>--- ----- -- ----,53572.69999998808,53572,53371.313,53373.09999996424,53387.979,53587.971,,41,as
screen,html.Screen,0_2_0_1_42,2021-11-25T15:49:09.734Z,,,,,,,,,,,,,,,,53,,,,,,,,,,,,,,151.82899995231855,,response,,,99,,,,,,Space,keypress(Space),,,,,---- -- ----- -- ------ - ------- --- ----------<br>------------- ------ ------ ---- ---- ------- ----- -- ----<br>-------- ------- -- ---------- --- - --- ----- ----- ----<br>---- --- --- ----- --- ---- ---- ------- ----- ---- -------<br>--- --- -- close -- --- ---- -- --- ---- -- ------ ------<br>--- ----- -- ----,53740.39999997616,53739.799999952316,53571.305,53573,53587.971,53754.631,,42,close
screen,html.Screen,0_2_0_1_43,2021-11-25T15:49:09.894Z,,,,,,,,,,,,,,,,53,,,,,,,,,,,,,,145.26899997615692,,response,,,99,,,,,,Space,keypress(Space),,,,,---- -- ----- -- ------ - ------- --- ----------<br>------------- ------ ------ ---- ---- ------- ----- -- ----<br>-------- ------- -- ---------- --- - --- ----- ----- ----<br>---- --- --- ----- --- ---- ---- ------- ----- ---- -------<br>--- --- -- ----- as --- ---- -- --- ---- -- ------ ------<br>--- ----- -- ----,53900.69999998808,53899.89999997616,53737.965,53740.59999996424,53754.631,53904.625,,43,as
screen,html.Screen,0_2_0_1_44,2021-11-25T15:49:10.070Z,,,,,,,,,,,,,,,,53,,,,,,,,,,,,,,171.375,,response,,,99,,,,,,Space,keypress(Space),,,,,---- -- ----- -- ------ - ------- --- ----------<br>------------- ------ ------ ---- ---- ------- ----- -- ----<br>-------- ------- -- ---------- --- - --- ----- ----- ----<br>---- --- --- ----- --- ---- ---- ------- ----- ---- -------<br>--- --- -- ----- -- you ---- -- --- ---- -- ------ ------<br>--- ----- -- ----,54076.799999952316,54076,53887.959,53900.89999997616,53904.625,54087.951,,44,you
screen,html.Screen,0_2_0_1_45,2021-11-25T15:49:10.262Z,,,,,,,,,,,,,,,,53,,,,,,,,,,,,,,179.9489999761572,,response,,,99,,,,,,Space,keypress(Space),,,,,---- -- ----- -- ------ - ------- --- ----------<br>------------- ------ ------ ---- ---- ------- ----- -- ----<br>-------- ------- -- ---------- --- - --- ----- ----- ----<br>---- --- --- ----- --- ---- ---- ------- ----- ---- -------<br>--- --- -- ----- -- --- want -- --- ---- -- ------ ------<br>--- ----- -- ----,54268.69999998808,54267.89999997616,54071.285,54077,54087.951,54271.277,,45,want
screen,html.Screen,0_2_0_1_46,2021-11-25T15:49:10.446Z,,,,,,,,,,,,,,,,53,,,,,,,,,,,,,,180.62299997615628,,response,,,99,,,,,,Space,keypress(Space),,,,,---- -- ----- -- ------ - ------- --- ----------<br>------------- ------ ------ ---- ---- ------- ----- -- ----<br>-------- ------- -- ---------- --- - --- ----- ----- ----<br>---- --- --- ----- --- ---- ---- ------- ----- ---- -------<br>--- --- -- ----- -- --- ---- to --- ---- -- ------ ------<br>--- ----- -- ----,54452.799999952316,54451.89999997616,54254.611,54269,54271.277,54454.603,,46,to
screen,html.Screen,0_2_0_1_47,2021-11-25T15:49:10.654Z,,,,,,,,,,,,,,,,53,,,,,,,,,,,,,,205.29699997615535,,response,,,99,,,,,,Space,keypress(Space),,,,,"---- -- ----- -- ------ - ------- --- ----------<br>------------- ------ ------ ---- ---- ------- ----- -- ----<br>-------- ------- -- ---------- --- - --- ----- ----- ----<br>---- --- --- ----- --- ---- ---- ------- ----- ---- -------<br>--- --- -- ----- -- --- ---- -- be, ---- -- ------ ------<br>--- ----- -- ----",54660.799999952316,54659.89999997616,54437.937,54453,54454.603,54671.261,,47,"be,"
screen,html.Screen,0_2_0_1_48,2021-11-25T15:49:10.878Z,,,,,,,,,,,,,,,,53,,,,,,,,,,,,,,212.63899997615954,,response,,,99,,,,,,Space,keypress(Space),,,,,---- -- ----- -- ------ - ------- --- ----------<br>------------- ------ ------ ---- ---- ------- ----- -- ----<br>-------- ------- -- ---------- --- - --- ----- ----- ----<br>---- --- --- ----- --- ---- ---- ------- ----- ---- -------<br>--- --- -- ----- -- --- ---- -- --- even -- ------ ------<br>--- ----- -- ----,54884.69999998808,54883.89999997616,54654.595,54661,54671.261,54887.919,,48,even
screen,html.Screen,0_2_0_1_49,2021-11-25T15:49:11.062Z,,,,,,,,,,,,,,,,53,,,,,,,,,,,,,,179.98099997615645,,response,,,99,,,,,,Space,keypress(Space),,,,,---- -- ----- -- ------ - ------- --- ----------<br>------------- ------ ------ ---- ---- ------- ----- -- ----<br>-------- ------- -- ---------- --- - --- ----- ----- ----<br>---- --- --- ----- --- ---- ---- ------- ----- ---- -------<br>--- --- -- ----- -- --- ---- -- --- ---- if ------ ------<br>--- ----- -- ----,55068.69999998808,55067.89999997616,54871.253,54884.89999997616,54887.919,55071.245,,49,if
screen,html.Screen,0_2_0_1_50,2021-11-25T15:49:11.254Z,,,,,,,,,,,,,,,,53,,,,,,,,,,,,,,188.55499995231366,,response,,,99,,,,,,Space,keypress(Space),,,,,---- -- ----- -- ------ - ------- --- ----------<br>------------- ------ ------ ---- ---- ------- ----- -- ----<br>-------- ------- -- ---------- --- - --- ----- ----- ----<br>---- --- --- ----- --- ---- ---- ------- ----- ---- -------<br>--- --- -- ----- -- --- ---- -- --- ---- -- that's ------<br>--- ----- -- ----,55260.69999998808,55259.799999952316,55054.579,55069,55071.245,55271.237,,50,that's
screen,html.Screen,0_2_0_1_51,2021-11-25T15:49:11.422Z,,,,,,,,,,,,,,,,53,,,,,,,,,,,,,,156.66299997615715,,response,,,99,,,,,,Space,keypress(Space),,,,,---- -- ----- -- ------ - ------- --- ----------<br>------------- ------ ------ ---- ---- ------- ----- -- ----<br>-------- ------- -- ---------- --- - --- ----- ----- ----<br>---- --- --- ----- --- ---- ---- ------- ----- ---- -------<br>--- --- -- ----- -- --- ---- -- --- ---- -- ------ really<br>--- ----- -- ----,55428.59999996424,55427.89999997616,55254.571,55261,55271.237,55437.897,,51,really
screen,html.Screen,0_2_0_1_52,2021-11-25T15:49:11.846Z,,,,,,,,,,,,,,,,53,,,,,,,,,,,,,,413.80299998808187,,response,,,99,,,,,,Space,keypress(Space),,,,,---- -- ----- -- ------ - ------- --- ----------<br>------------- ------ ------ ---- ---- ------- ----- -- ----<br>-------- ------- -- ---------- --- - --- ----- ----- ----<br>---- --- --- ----- --- ---- ---- ------- ----- ---- -------<br>--- --- -- ----- -- --- ---- -- --- ---- -- ------ ------<br>not ----- -- ----,55852.5,55851.69999998808,55421.231,55428.89999997616,55437.897,55854.547,,52,not
screen,html.Screen,0_2_0_1_53,2021-11-25T15:49:12.038Z,,,,,,,,,,,,,,,,53,,,,,,,,,,,,,,189.25299995231762,,response,,,99,,,,,,Space,keypress(Space),,,,,---- -- ----- -- ------ - ------- --- ----------<br>------------- ------ ------ ---- ---- ------- ----- -- ----<br>-------- ------- -- ---------- --- - --- ----- ----- ----<br>---- --- --- ----- --- ---- ---- ------- ----- ---- -------<br>--- --- -- ----- -- --- ---- -- --- ---- -- ------ ------<br>--- close -- ----,56044.59999996424,56043.799999952316,55837.881,55852.799999952316,55854.547,56054.539,,53,close
screen,html.Screen,0_2_0_1_54,2021-11-25T15:49:12.190Z,,,,,,,,,,,,,,,,53,,,,,,,,,,,,,,141.26099995231925,,response,,,99,,,,,,Space,keypress(Space),,,,,---- -- ----- -- ------ - ------- --- ----------<br>------------- ------ ------ ---- ---- ------- ----- -- ----<br>-------- ------- -- ---------- --- - --- ----- ----- ----<br>---- --- --- ----- --- ---- ---- ------- ----- ---- -------<br>--- --- -- ----- -- --- ---- -- --- ---- -- ------ ------<br>--- ----- at ----,56196.59999996424,56195.799999952316,56037.873,56044.89999997616,56054.539,56204.533,,54,at
screen,html.Screen,0_2_0_1_55,2021-11-25T15:49:12.558Z,,,,,,,,,,,,,,,,53,,,,,,,,,,,,,,359.166999988076,,response,,,99,,,,,,Space,keypress(Space),,,,,---- -- ----- -- ------ - ------- --- ----------<br>------------- ------ ------ ---- ---- ------- ----- -- ----<br>-------- ------- -- ---------- --- - --- ----- ----- ----<br>---- --- --- ----- --- ---- ---- ------- ----- ---- -------<br>--- --- -- ----- -- --- ---- -- --- ---- -- ------ ------<br>--- ----- -- all.,56564.59999996424,56563.69999998808,56187.867,56196.89999997616,56204.533,56587.851,,55,all.
Item 99,flow.Loop,0_2_0_1,2021-11-25T15:49:12.563Z,,,,,,,,,,,,,,,,,,,,,,,,,,,,,,19125.08299998808,,completion,,,,A,,,,,,,,,,silence,,56569.69999998808,56563.69999998808,37421.951,37427.09999996424,37438.617,56587.851,,,
Question 1,html.Screen,0_2_0_2,2021-11-25T15:49:16.156Z,,,,,,,,,,,,,,,,,,,,,,,,,,,true,FALSE,,3569.6489999999976,,response,,,99,A,,,,,FALSE,click #choice-2,,,,silence,,60158.89999997616,60157.5,56554.519,56570,56587.851,60171.041,,,
Question 2,html.Screen,0_2_0_3,2021-11-25T15:49:19.188Z,,,,,,,,,,,,,,,,,,,,,,,,,,,true,TRUE,,3018.258999952319,,response,,,99,A,,,,,TRUE,click #choice-1,,,,silence,,63190.59999996424,63189.299999952316,60154.375,60159.39999997616,60171.041,63220.919,,,
Item 99,flow.Sequence,0_2_0,2021-11-25T15:49:19.188Z,,,,,,,,,,,,,,,,,,,,,,,,,,,,,,35750.28299995232,,completion,,,,,,,,,,,,,,,,63191.09999996424,63189.299999952316,27422.351,27431.899999976158,27439.017,63220.919,,,
Holding screen,html.Screen,0_2_1_0,2021-11-25T15:49:29.203Z,,,,,,,,,,,,,,,,,,,,,,,,,,,,,,9999.599999999999,,timeout,,,,,,,,,,,,,,,,73206.39999997616,73203.853,63204.253,63191.5,63220.919,73220.519,,,
screen,html.Screen,0_2_1_1_0,2021-11-25T15:49:30.753Z,,,,,,,,,,,,,,,,54,,,,,,,,,,,,,,1534.880999976158,,response,,,100,,,,,,Space,keypress(Space),,,,,At --- ---- --- ------ ----- ------- ---- -- --- ------- --<br>------- ---------- ------ -- ----- -- ----- -- ---- ------<br>--- ----- --- --- ------ -------- ----- --- ------ ----- --<br>----- ----- ---------- --- --- ------ ------ ---- -- ------<br>------- --- ------ ----- --- ---- ------- -- ---- --- --<br>------- ------,74756.29999995232,74755.39999997616,73203.853,73206.79999995232,73220.519,74770.457,,0,At
screen,html.Screen,0_2_1_1_1,2021-11-25T15:49:31.128Z,,,,,,,,,,,,,,,,54,,,,,,,,,,,,,,360.0430000000051,,response,,,100,,,,,,Space,keypress(Space),,,,,-- the ---- --- ------ ----- ------- ---- -- --- ------- --<br>------- ---------- ------ -- ----- -- ----- -- ---- ------<br>--- ----- --- --- ------ -------- ----- --- ------ ----- --<br>----- ----- ---------- --- --- ------ ------ ---- -- ------<br>------- --- ------ ----- --- ---- ------- -- ---- --- --<br>------- ------,75131.09999996424,75130.5,74753.791,74756.59999996424,74770.457,75137.109,,1,the
screen,html.Screen,0_2_1_1_2,2021-11-25T15:49:31.537Z,,,,,,,,,,,,,,,,54,,,,,,,,,,,,,,401.69099995231954,,response,,,100,,,,,,Space,keypress(Space),,,,,-- --- time --- ------ ----- ------- ---- -- --- ------- --<br>------- ---------- ------ -- ----- -- ----- -- ---- ------<br>--- ----- --- --- ------ -------- ----- --- ------ ----- --<br>----- ----- ---------- --- --- ------ ------ ---- -- ------<br>------- --- ------ ----- --- ---- ------- -- ---- --- --<br>------- ------,75539.59999996424,75538.79999995232,75120.443,75131.19999998808,75137.109,75553.759,,2,time
screen,html.Screen,0_2_1_1_3,2021-11-25T15:49:31.785Z,,,,,,,,,,,,,,,,54,,,,,,,,,,,,,,232.9409999880736,,response,,,100,,,,,,Space,keypress(Space),,,,,-- --- ---- the ------ ----- ------- ---- -- --- ------- --<br>------- ---------- ------ -- ----- -- ----- -- ---- ------<br>--- ----- --- --- ------ -------- ----- --- ------ ----- --<br>----- ----- ---------- --- --- ------ ------ ---- -- ------<br>------- --- ------ ----- --- ---- ------- -- ---- --- --<br>------- ------,75787.59999996424,75786.69999998808,75537.093,75539.79999995232,75553.759,75803.749,,3,the
screen,html.Screen,0_2_1_1_4,2021-11-25T15:49:32.000Z,,,,,,,,,,,,,,,,54,,,,,,,,,,,,,,198.9509999880829,,response,,,100,,,,,,Space,keypress(Space),,,,,-- --- ---- --- French ----- ------- ---- -- --- ------- --<br>------- ---------- ------ -- ----- -- ----- -- ---- ------<br>--- ----- --- --- ------ -------- ----- --- ------ ----- --<br>----- ----- ---------- --- --- ------ ------ ---- -- ------<br>------- --- ------ ----- --- ---- ------- -- ---- --- --<br>------- ------,76003.59999996424,76002.69999998808,75787.083,75787.89999997616,75803.749,76020.407,,4,French
screen,html.Screen,0_2_1_1_5,2021-11-25T15:49:32.472Z,,,,,,,,,,,,,,,,54,,,,,,,,,,,,,,454.29299998807255,,response,,,100,,,,,,Space,keypress(Space),,,,,-- --- ---- --- ------ crown ------- ---- -- --- ------- --<br>------- ---------- ------ -- ----- -- ----- -- ---- ------<br>--- ----- --- --- ------ -------- ----- --- ------ ----- --<br>----- ----- ---------- --- --- ------ ------ ---- -- ------<br>------- --- ------ ----- --- ---- ------- -- ---- --- --<br>------- ------,76475.5,76474.69999998808,76003.741,76003.89999997616,76020.407,76487.055,,5,crown
screen,html.Screen,0_2_1_1_6,2021-11-25T15:49:32.705Z,,,,,,,,,,,,,,,,54,,,,,,,,,,,,,,219.64499998808606,,response,,,100,,,,,,Space,keypress(Space),,,,,-- --- ---- --- ------ ----- secured ---- -- --- ------- --<br>------- ---------- ------ -- ----- -- ----- -- ---- ------<br>--- ----- --- --- ------ -------- ----- --- ------ ----- --<br>----- ----- ---------- --- --- ------ ------ ---- -- ------<br>------- --- ------ ----- --- ---- ------- -- ---- --- --<br>------- ------,76707.59999996424,76706.69999998808,76470.389,76475.79999995232,76487.055,76720.379,,6,secured
screen,html.Screen,0_2_1_1_7,2021-11-25T15:49:32.976Z,,,,,,,,,,,,,,,,54,,,,,,,,,,,,,,258.2209999642364,,response,,,100,,,,,,Space,keypress(Space),,,,,-- --- ---- --- ------ ----- ------- much -- --- ------- --<br>------- ---------- ------ -- ----- -- ----- -- ---- ------<br>--- ----- --- --- ------ -------- ----- --- ------ ----- --<br>----- ----- ---------- --- --- ------ ------ ---- -- ------<br>------- --- ------ ----- --- ---- ------- -- ---- --- --<br>------- ------,76979.5,76978.59999996424,76703.713,76707.79999995232,76720.379,76987.035,,7,much
screen,html.Screen,0_2_1_1_8,2021-11-25T15:49:33.232Z,,,,,,,,,,,,,,,,54,,,,,,,,,,,,,,247.66499998807558,,response,,,100,,,,,,Space,keypress(Space),,,,,-- --- ---- --- ------ ----- ------- ---- of --- ------- --<br>------- ---------- ------ -- ----- -- ----- -- ---- ------<br>--- ----- --- --- ------ -------- ----- --- ------ ----- --<br>----- ----- ---------- --- --- ------ ------ ---- -- ------<br>------- --- ------ ----- --- ---- ------- -- ---- --- --<br>------- ------,77235.5,77234.69999998808,76970.369,76979.69999998808,76987.035,77237.025,,8,of
screen,html.Screen,0_2_1_1_9,2021-11-25T15:49:33.732Z,,,,,,,,,,,,,,,,54,,,,,,,,,,,,,,497.2749999523221,,response,,,100,,,,,,Space,keypress(Space),,,,,-- --- ---- --- ------ ----- ------- ---- -- its ------- --<br>------- ---------- ------ -- ----- -- ----- -- ---- ------<br>--- ----- --- --- ------ -------- ----- --- ------ ----- --<br>----- ----- ---------- --- --- ------ ------ ---- -- ------<br>------- --- ------ ----- --- ---- ------- -- ---- --- --<br>------- ------,77735.19999998808,77734.29999995232,77220.359,77235.69999998808,77237.025,77737.005,,9,its
screen,html.Screen,0_2_1_1_10,2021-11-25T15:49:33.783Z,,,,,,,,,,,,,,,,54,,,,,,,,,,,,,,48.49499999999534,,response,,,100,,,,,,Space,keypress(Space),,,,,-- --- ---- --- ------ ----- ------- ---- -- --- revenue --<br>------- ---------- ------ -- ----- -- ----- -- ---- ------<br>--- ----- --- --- ------ -------- ----- --- ------ ----- --<br>----- ----- ---------- --- --- ------ ------ ---- -- ------<br>------- --- ------ ----- --- ---- ------- -- ---- --- --<br>------- ------,77786.39999997616,77785.5,77720.339,77735.5,77737.005,77803.669,,10,revenue
screen,html.Screen,0_2_1_1_11,2021-11-25T15:49:33.798Z,,,,,,,,,,,,,,,,54,,,,,,,,,,,,,,13.296999952319311,,response,,,100,,,,,,Space,keypress(Space),,,,,-- --- ---- --- ------ ----- ------- ---- -- --- ------- by<br>------- ---------- ------ -- ----- -- ----- -- ---- ------<br>--- ----- --- --- ------ -------- ----- --- ------ ----- --<br>----- ----- ---------- --- --- ------ ------ ---- -- ------<br>------- --- ------ ----- --- ---- ------- -- ---- --- --<br>------- ------,77801.19999998808,77800.29999995232,77787.003,77786.59999996424,,77820.335,,11,by
screen,html.Screen,0_2_1_1_12,2021-11-25T15:49:33.920Z,,,,,,,,,,,,,,,,54,,,,,,,,,,,,,,102.26499996423081,,response,,,100,,,,,,Space,keypress(Space),,,,,-- --- ---- --- ------ ----- ------- ---- -- --- ------- --<br>issuing ---------- ------ -- ----- -- ----- -- ---- ------<br>--- ----- --- --- ------ -------- ----- --- ------ ----- --<br>----- ----- ---------- --- --- ------ ------ ---- -- ------<br>------- --- ------ ----- --- ---- ------- -- ---- --- --<br>------- ------,77923.5,77922.59999996424,77803.669,77801.39999997616,77820.335,77936.997,,12,issuing
screen,html.Screen,0_2_1_1_13,2021-11-25T15:49:34.432Z,,,,,,,,,,,,,,,,54,,,,,,,,,,,,,,497.6029999642342,,response,,,100,,,,,,Space,keypress(Space),,,,,-- --- ---- --- ------ ----- ------- ---- -- --- ------- --<br>------- government ------ -- ----- -- ----- -- ---- ------<br>--- ----- --- --- ------ -------- ----- --- ------ ----- --<br>----- ----- ---------- --- --- ------ ------ ---- -- ------<br>------- --- ------ ----- --- ---- ------- -- ---- --- --<br>------- ------,78435.39999997616,78434.59999996424,77920.331,77923.69999998808,77936.997,78436.977,,13,government
screen,html.Screen,0_2_1_1_14,2021-11-25T15:49:34.672Z,,,,,,,,,,,,,,,,54,,,,,,,,,,,,,,237.62299996423826,,response,,,100,,,,,,Space,keypress(Space),,,,,-- --- ---- --- ------ ----- ------- ---- -- --- ------- --<br>------- ---------- bonds. -- ----- -- ----- -- ---- ------<br>--- ----- --- --- ------ -------- ----- --- ------ ----- --<br>----- ----- ---------- --- --- ------ ------ ---- -- ------<br>------- --- ------ ----- --- ---- ------- -- ---- --- --<br>------- ------,78675.39999997616,78674.59999996424,78420.311,78435.69999998808,78436.977,78686.967,,14,bonds.
screen,html.Screen,0_2_1_1_15,2021-11-25T15:49:34.960Z,,,,,,,,,,,,,,,,54,,,,,,,,,,,,,,275.632999964233,,response,,,100,,,,,,Space,keypress(Space),,,,,-- --- ---- --- ------ ----- ------- ---- -- --- ------- --<br>------- ---------- ------ In ----- -- ----- -- ---- ------<br>--- ----- --- --- ------ -------- ----- --- ------ ----- --<br>----- ----- ---------- --- --- ------ ------ ---- -- ------<br>------- --- ------ ----- --- ---- ------- -- ---- --- --<br>------- ------,78963.5,78962.59999996424,78670.301,78675.69999998808,78686.967,78970.289,,15,In
screen,html.Screen,0_2_1_1_16,2021-11-25T15:49:35.224Z,,,,,,,,,,,,,,,,54,,,,,,,,,,,,,,256.2109999999957,,response,,,100,,,,,,Space,keypress(Space),,,,,"-- --- ---- --- ------ ----- ------- ---- -- --- ------- --<br>------- ---------- ------ -- 1727, -- ----- -- ---- ------<br>--- ----- --- --- ------ -------- ----- --- ------ ----- --<br>----- ----- ---------- --- --- ------ ------ ---- -- ------<br>------- --- ------ ----- --- ---- ------- -- ---- --- --<br>------- ------",79227.39999997616,79226.5,78953.623,78963.69999998808,78970.289,79236.945,,16,"1727,"
screen,html.Screen,0_2_1_1_17,2021-11-25T15:49:35.528Z,,,,,,,,,,,,,,,,54,,,,,,,,,,,,,,293.554999999993,,response,,,100,,,,,,Space,keypress(Space),,,,,-- --- ---- --- ------ ----- ------- ---- -- --- ------- --<br>------- ---------- ------ -- ----- in ----- -- ---- ------<br>--- ----- --- --- ------ -------- ----- --- ------ ----- --<br>----- ----- ---------- --- --- ------ ------ ---- -- ------<br>------- --- ------ ----- --- ---- ------- -- ---- --- --<br>------- ------,79531.29999995232,79530.5,79220.279,79227.69999998808,79236.945,79536.933,,17,in
screen,html.Screen,0_2_1_1_18,2021-11-25T15:49:35.824Z,,,,,,,,,,,,,,,,54,,,,,,,,,,,,,,289.56699999999546,,response,,,100,,,,,,Space,keypress(Space),,,,,-- --- ---- --- ------ ----- ------- ---- -- --- ------- --<br>------- ---------- ------ -- ----- -- order -- ---- ------<br>--- ----- --- --- ------ -------- ----- --- ------ ----- --<br>----- ----- ---------- --- --- ------ ------ ---- -- ------<br>------- --- ------ ----- --- ---- ------- -- ---- --- --<br>------- ------,79827.39999997616,79826.5,79520.267,79531.69999998808,79536.933,79836.921,,18,order
screen,html.Screen,0_2_1_1_19,2021-11-25T15:49:36.240Z,,,,,,,,,,,,,,,,54,,,,,,,,,,,,,,405.47899997615605,,response,,,100,,,,,,Space,keypress(Space),,,,,-- --- ---- --- ------ ----- ------- ---- -- --- ------- --<br>------- ---------- ------ -- ----- -- ----- to ---- ------<br>--- ----- --- --- ------ -------- ----- --- ------ ----- --<br>----- ----- ---------- --- --- ------ ------ ---- -- ------<br>------- --- ------ ----- --- ---- ------- -- ---- --- --<br>------- ------,80243.29999995232,80242.39999997616,79820.255,79827.59999996424,79836.921,80253.571,,19,to
screen,html.Screen,0_2_1_1_20,2021-11-25T15:49:36.528Z,,,,,,,,,,,,,,,,54,,,,,,,,,,,,,,276.82899997616187,,response,,,100,,,,,,Space,keypress(Space),,,,,-- --- ---- --- ------ ----- ------- ---- -- --- ------- --<br>------- ---------- ------ -- ----- -- ----- -- save ------<br>--- ----- --- --- ------ -------- ----- --- ------ ----- --<br>----- ----- ---------- --- --- ------ ------ ---- -- ------<br>------- --- ------ ----- --- ---- ------- -- ---- --- --<br>------- ------,80531.29999995232,80530.39999997616,80236.905,80243.5,80253.571,80536.893,,20,save
screen,html.Screen,0_2_1_1_21,2021-11-25T15:49:36.920Z,,,,,,,,,,,,,,,,54,,,,,,,,,,,,,,385.50699997616175,,response,,,100,,,,,,Space,keypress(Space),,,,,"-- --- ---- --- ------ ----- ------- ---- -- --- ------- --<br>------- ---------- ------ -- ----- -- ----- -- ---- money,<br>--- ----- --- --- ------ -------- ----- --- ------ ----- --<br>----- ----- ---------- --- --- ------ ------ ---- -- ------<br>------- --- ------ ----- --- ---- ------- -- ---- --- --<br>------- ------",80923.19999998808,80922.39999997616,80520.227,80531.59999996424,80536.893,80936.877,,21,"money,"
screen,html.Screen,0_2_1_1_22,2021-11-25T15:49:37.216Z,,,,,,,,,,,,,,,,54,,,,,,,,,,,,,,281.522999976165,,response,,,100,,,,,,Space,keypress(Space),,,,,-- --- ---- --- ------ ----- ------- ---- -- --- ------- --<br>------- ---------- ------ -- ----- -- ----- -- ---- ------<br>the ----- --- --- ------ -------- ----- --- ------ ----- --<br>----- ----- ---------- --- --- ------ ------ ---- -- ------<br>------- --- ------ ----- --- ---- ------- -- ---- --- --<br>------- ------,81219.39999997616,81218.39999997616,80920.211,80923.39999997616,80936.877,81236.865,,22,the
screen,html.Screen,0_2_1_1_23,2021-11-25T15:49:37.456Z,,,,,,,,,,,,,,,,54,,,,,,,,,,,,,,221.5349999761529,,response,,,100,,,,,,Space,keypress(Space),,,,,-- --- ---- --- ------ ----- ------- ---- -- --- ------- --<br>------- ---------- ------ -- ----- -- ----- -- ---- ------<br>--- state --- --- ------ -------- ----- --- ------ ----- --<br>----- ----- ---------- --- --- ------ ------ ---- -- ------<br>------- --- ------ ----- --- ---- ------- -- ---- --- --<br>------- ------,81459.29999995232,81458.39999997616,81220.199,81219.69999998808,81236.865,81470.189,,23,state
screen,html.Screen,0_2_1_1_24,2021-11-25T15:49:37.712Z,,,,,,,,,,,,,,,,54,,,,,,,,,,,,,,244.3110000000015,,response,,,100,,,,,,Space,keypress(Space),,,,,-- --- ---- --- ------ ----- ------- ---- -- --- ------- --<br>------- ---------- ------ -- ----- -- ----- -- ---- ------<br>--- ----- cut --- ------ -------- ----- --- ------ ----- --<br>----- ----- ---------- --- --- ------ ------ ---- -- ------<br>------- --- ------ ----- --- ---- ------- -- ---- --- --<br>------- ------,81715.29999995232,81714.5,81453.523,81459.5,81470.189,81720.179,,24,cut
screen,html.Screen,0_2_1_1_25,2021-11-25T15:49:37.952Z,,,,,,,,,,,,,,,,54,,,,,,,,,,,,,,234.22099997615442,,response,,,100,,,,,,Space,keypress(Space),,,,,-- --- ---- --- ------ ----- ------- ---- -- --- ------- --<br>------- ---------- ------ -- ----- -- ----- -- ---- ------<br>--- ----- --- the ------ -------- ----- --- ------ ----- --<br>----- ----- ---------- --- --- ------ ------ ---- -- ------<br>------- --- ------ ----- --- ---- ------- -- ---- --- --<br>------- ------,81955.29999995232,81954.39999997616,81703.513,81715.59999996424,81720.179,81970.169,,25,the
screen,html.Screen,0_2_1_1_26,2021-11-25T15:49:38.248Z,,,,,,,,,,,,,,,,54,,,,,,,,,,,,,,280.23099997616373,,response,,,100,,,,,,Space,keypress(Space),,,,,-- --- ---- --- ------ ----- ------- ---- -- --- ------- --<br>------- ---------- ------ -- ----- -- ----- -- ---- ------<br>--- ----- --- --- bonds' -------- ----- --- ------ ----- --<br>----- ----- ---------- --- --- ------ ------ ---- -- ------<br>------- --- ------ ----- --- ---- ------- -- ---- --- --<br>------- ------,82251.29999995232,82250.39999997616,81953.503,81955.5,81970.169,82253.491,,26,bonds'
screen,html.Screen,0_2_1_1_27,2021-11-25T15:49:38.520Z,,,,,,,,,,,,,,,,54,,,,,,,,,,,,,,268.9089999761636,,response,,,100,,,,,,Space,keypress(Space),,,,,-- --- ---- --- ------ ----- ------- ---- -- --- ------- --<br>------- ---------- ------ -- ----- -- ----- -- ---- ------<br>--- ----- --- --- ------ interest ----- --- ------ ----- --<br>----- ----- ---------- --- --- ------ ------ ---- -- ------<br>------- --- ------ ----- --- ---- ------- -- ---- --- --<br>------- ------,82523.29999995232,82522.39999997616,82236.825,82251.59999996424,82253.491,82536.813,,27,interest
screen,html.Screen,0_2_1_1_28,2021-11-25T15:49:38.776Z,,,,,,,,,,,,,,,,54,,,,,,,,,,,,,,241.5869999761635,,response,,,100,,,,,,Space,keypress(Space),,,,,-- --- ---- --- ------ ----- ------- ---- -- --- ------- --<br>------- ---------- ------ -- ----- -- ----- -- ---- ------<br>--- ----- --- --- ------ -------- rate. --- ------ ----- --<br>----- ----- ---------- --- --- ------ ------ ---- -- ------<br>------- --- ------ ----- --- ---- ------- -- ---- --- --<br>------- ------,82779.29999995232,82778.39999997616,82520.147,82523.5,82536.813,82786.803,,28,rate.
screen,html.Screen,0_2_1_1_29,2021-11-25T15:49:39.056Z,,,,,,,,,,,,,,,,54,,,,,,,,,,,,,,271.4969999523164,,response,,,100,,,,,,Space,keypress(Space),,,,,-- --- ---- --- ------ ----- ------- ---- -- --- ------- --<br>------- ---------- ------ -- ----- -- ----- -- ---- ------<br>--- ----- --- --- ------ -------- ----- The ------ ----- --<br>----- ----- ---------- --- --- ------ ------ ---- -- ------<br>------- --- ------ ----- --- ---- ------- -- ---- --- --<br>------- ------,83059.19999998808,83058.29999995232,82770.137,82779.5,82786.803,83070.125,,29,The
screen,html.Screen,0_2_1_1_30,2021-11-25T15:49:39.432Z,,,,,,,,,,,,,,,,54,,,,,,,,,,,,,,364.1749999523163,,response,,,100,,,,,,Space,keypress(Space),,,,,-- --- ---- --- ------ ----- ------- ---- -- --- ------- --<br>------- ---------- ------ -- ----- -- ----- -- ---- ------<br>--- ----- --- --- ------ -------- ----- --- market ----- --<br>----- ----- ---------- --- --- ------ ------ ---- -- ------<br>------- --- ------ ----- --- ---- ------- -- ---- --- --<br>------- ------,83435.19999998808,83434.29999995232,83053.459,83059.39999997616,83070.125,83436.777,,30,market
screen,html.Screen,0_2_1_1_31,2021-11-25T15:49:39.832Z,,,,,,,,,,,,,,,,54,,,,,,,,,,,,,,397.5229999523144,,response,,,100,,,,,,Space,keypress(Space),,,,,-- --- ---- --- ------ ----- ------- ---- -- --- ------- --<br>------- ---------- ------ -- ----- -- ----- -- ---- ------<br>--- ----- --- --- ------ -------- ----- --- ------ value --<br>----- ----- ---------- --- --- ------ ------ ---- -- ------<br>------- --- ------ ----- --- ---- ------- -- ---- --- --<br>------- ------,83835.19999998808,83834.29999995232,83420.111,83435.5,83436.777,83836.761,,31,value
screen,html.Screen,0_2_1_1_32,2021-11-25T15:49:40.200Z,,,,,,,,,,,,,,,,54,,,,,,,,,,,,,,365.5389999523177,,response,,,100,,,,,,Space,keypress(Space),,,,,-- --- ---- --- ------ ----- ------- ---- -- --- ------- --<br>------- ---------- ------ -- ----- -- ----- -- ---- ------<br>--- ----- --- --- ------ -------- ----- --- ------ ----- of<br>----- ----- ---------- --- --- ------ ------ ---- -- ------<br>------- --- ------ ----- --- ---- ------- -- ---- --- --<br>------- ------,84203.09999996424,84202.29999995232,83820.095,83835.39999997616,83836.761,84220.079,,32,of
screen,html.Screen,0_2_1_1_33,2021-11-25T15:49:40.632Z,,,,,,,,,,,,,,,,54,,,,,,,,,,,,,,414.2209999523184,,response,,,100,,,,,,Space,keypress(Space),,,,,-- --- ---- --- ------ ----- ------- ---- -- --- ------- --<br>------- ---------- ------ -- ----- -- ----- -- ---- ------<br>--- ----- --- --- ------ -------- ----- --- ------ ----- --<br>these ----- ---------- --- --- ------ ------ ---- -- ------<br>------- --- ------ ----- --- ---- ------- -- ---- --- --<br>------- ------,84635.09999996424,84634.29999995232,84203.413,84203.39999997616,84220.079,84636.729,,33,these
screen,html.Screen,0_2_1_1_34,2021-11-25T15:49:40.824Z,,,,,,,,,,,,,,,,54,,,,,,,,,,,,,,189.97099998807244,,response,,,100,,,,,,Space,keypress(Space),,,,,-- --- ---- --- ------ ----- ------- ---- -- --- ------- --<br>------- ---------- ------ -- ----- -- ----- -- ---- ------<br>--- ----- --- --- ------ -------- ----- --- ------ ----- --<br>----- bonds ---------- --- --- ------ ------ ---- -- ------<br>------- --- ------ ----- --- ---- ------- -- ---- --- --<br>------- ------,84827.59999996424,84826.69999998808,84620.063,84635.39999997616,84636.729,84836.721,,34,bonds
screen,html.Screen,0_2_1_1_35,2021-11-25T15:49:41.016Z,,,,,,,,,,,,,,,,54,,,,,,,,,,,,,,181.47899998807407,,response,,,100,,,,,,Space,keypress(Space),,,,,"-- --- ---- --- ------ ----- ------- ---- -- --- ------- --<br>------- ---------- ------ -- ----- -- ----- -- ---- ------<br>--- ----- --- --- ------ -------- ----- --- ------ ----- --<br>----- ----- plummeted, --- --- ------ ------ ---- -- ------<br>------- --- ------ ----- --- ---- ------- -- ---- --- --<br>------- ------",85019.09999996424,85018.19999998808,84820.055,84827.79999995232,84836.721,85036.713,,35,"plummeted,"
screen,html.Screen,0_2_1_1_36,2021-11-25T15:49:41.496Z,,,,,,,,,,,,,,,,54,,,,,,,,,,,,,,461.4869999880757,,response,,,100,,,,,,Space,keypress(Space),,,,,-- --- ---- --- ------ ----- ------- ---- -- --- ------- --<br>------- ---------- ------ -- ----- -- ----- -- ---- ------<br>--- ----- --- --- ------ -------- ----- --- ------ ----- --<br>----- ----- ---------- and --- ------ ------ ---- -- ------<br>------- --- ------ ----- --- ---- ------- -- ---- --- --<br>------- ------,85499,85498.19999998808,85020.047,85019.39999997616,85036.713,85503.361,,36,and
screen,html.Screen,0_2_1_1_37,2021-11-25T15:49:41.784Z,,,,,,,,,,,,,,,,54,,,,,,,,,,,,,,282.83899998807465,,response,,,100,,,,,,Space,keypress(Space),,,,,-- --- ---- --- ------ ----- ------- ---- -- --- ------- --<br>------- ---------- ------ -- ----- -- ----- -- ---- ------<br>--- ----- --- --- ------ -------- ----- --- ------ ----- --<br>----- ----- ---------- --- the ------ ------ ---- -- ------<br>------- --- ------ ----- --- ---- ------- -- ---- --- --<br>------- ------,85787.09999996424,85786.19999998808,85486.695,85499.29999995232,85503.361,85803.349,,37,the
screen,html.Screen,0_2_1_1_38,2021-11-25T15:49:41.968Z,,,,,,,,,,,,,,,,54,,,,,,,,,,,,,,166.8509999880771,,response,,,100,,,,,,Space,keypress(Space),,,,,-- --- ---- --- ------ ----- ------- ---- -- --- ------- --<br>------- ---------- ------ -- ----- -- ----- -- ---- ------<br>--- ----- --- --- ------ -------- ----- --- ------ ----- --<br>----- ----- ---------- --- --- market ------ ---- -- ------<br>------- --- ------ ----- --- ---- ------- -- ---- --- --<br>------- ------,85971,85970.19999998808,85786.683,85787.29999995232,85803.349,85986.675,,38,market
screen,html.Screen,0_2_1_1_39,2021-11-25T15:49:42.408Z,,,,,,,,,,,,,,,,54,,,,,,,,,,,,,,423.4249999642343,,response,,,100,,,,,,Space,keypress(Space),,,,,-- --- ---- --- ------ ----- ------- ---- -- --- ------- --<br>------- ---------- ------ -- ----- -- ----- -- ---- ------<br>--- ----- --- --- ------ -------- ----- --- ------ ----- --<br>----- ----- ---------- --- --- ------ became ---- -- ------<br>------- --- ------ ----- --- ---- ------- -- ---- --- --<br>------- ------,86411,86410.09999996424,85970.009,85971.29999995232,85986.675,86419.991,,39,became
screen,html.Screen,0_2_1_1_40,2021-11-25T15:49:42.680Z,,,,,,,,,,,,,,,,54,,,,,,,,,,,,,,262.1089999642427,,response,,,100,,,,,,Space,keypress(Space),,,,,-- --- ---- --- ------ ----- ------- ---- -- --- ------- --<br>------- ---------- ------ -- ----- -- ----- -- ---- ------<br>--- ----- --- --- ------ -------- ----- --- ------ ----- --<br>----- ----- ---------- --- --- ------ ------ wary -- ------<br>------- --- ------ ----- --- ---- ------- -- ---- --- --<br>------- ------,86683,86682.09999996424,86403.325,86411.29999995232,86419.991,86686.647,,40,wary
screen,html.Screen,0_2_1_1_41,2021-11-25T15:49:42.968Z,,,,,,,,,,,,,,,,54,,,,,,,,,,,,,,283.45299996424,,response,,,100,,,,,,Space,keypress(Space),,,,,-- --- ---- --- ------ ----- ------- ---- -- --- ------- --<br>------- ---------- ------ -- ----- -- ----- -- ---- ------<br>--- ----- --- --- ------ -------- ----- --- ------ ----- --<br>----- ----- ---------- --- --- ------ ------ ---- of ------<br>------- --- ------ ----- --- ---- ------- -- ---- --- --<br>------- ------,86971,86970.09999996424,86669.981,86683.19999998808,86686.647,86986.635,,41,of
screen,html.Screen,0_2_1_1_42,2021-11-25T15:49:43.232Z,,,,,,,,,,,,,,,,54,,,,,,,,,,,,,,247.46499996424245,,response,,,100,,,,,,Space,keypress(Space),,,,,-- --- ---- --- ------ ----- ------- ---- -- --- ------- --<br>------- ---------- ------ -- ----- -- ----- -- ---- ------<br>--- ----- --- --- ------ -------- ----- --- ------ ----- --<br>----- ----- ---------- --- --- ------ ------ ---- -- French<br>------- --- ------ ----- --- ---- ------- -- ---- --- --<br>------- ------,87235,87234.09999996424,86969.969,86971.19999998808,86986.635,87236.625,,42,French
screen,html.Screen,0_2_1_1_43,2021-11-25T15:49:43.856Z,,,,,,,,,,,,,,,,54,,,,,,,,,,,,,,621.4749999642372,,response,,,100,,,,,,Space,keypress(Space),,,,,-- --- ---- --- ------ ----- ------- ---- -- --- ------- --<br>------- ---------- ------ -- ----- -- ----- -- ---- ------<br>--- ----- --- --- ------ -------- ----- --- ------ ----- --<br>----- ----- ---------- --- --- ------ ------ ---- -- ------<br>credit. --- ------ ----- --- ---- ------- -- ---- --- --<br>------- ------,87859,87858.09999996424,87219.959,87235.19999998808,87236.625,87869.933,,43,credit.
screen,html.Screen,0_2_1_1_44,2021-11-25T15:49:44.416Z,,,,,,,,,,,,,,,,54,,,,,,,,,,,,,,548.1669999642327,,response,,,100,,,,,,Space,keypress(Space),,,,,-- --- ---- --- ------ ----- ------- ---- -- --- ------- --<br>------- ---------- ------ -- ----- -- ----- -- ---- ------<br>--- ----- --- --- ------ -------- ----- --- ------ ----- --<br>----- ----- ---------- --- --- ------ ------ ---- -- ------<br>------- The ------ ----- --- ---- ------- -- ---- --- --<br>------- ------,88418.89999997616,88418.09999996424,87853.267,87859.29999995232,87869.933,88419.911,,44,The
screen,html.Screen,0_2_1_1_45,2021-11-25T15:49:44.864Z,,,,,,,,,,,,,,,,54,,,,,,,,,,,,,,446.0890000000072,,response,,,100,,,,,,Space,keypress(Space),,,,,-- --- ---- --- ------ ----- ------- ---- -- --- ------- --<br>------- ---------- ------ -- ----- -- ----- -- ---- ------<br>--- ----- --- --- ------ -------- ----- --- ------ ----- --<br>----- ----- ---------- --- --- ------ ------ ---- -- ------<br>------- --- French ----- --- ---- ------- -- ---- --- --<br>------- ------,88866.89999997616,88866,88403.245,88419.19999998808,88419.911,88869.893,,45,French
screen,html.Screen,0_2_1_1_46,2021-11-25T15:49:45.288Z,,,,,,,,,,,,,,,,54,,,,,,,,,,,,,,420.1070000000036,,response,,,100,,,,,,Space,keypress(Space),,,,,-- --- ---- --- ------ ----- ------- ---- -- --- ------- --<br>------- ---------- ------ -- ----- -- ----- -- ---- ------<br>--- ----- --- --- ------ -------- ----- --- ------ ----- --<br>----- ----- ---------- --- --- ------ ------ ---- -- ------<br>------- --- ------ state --- ---- ------- -- ---- --- --<br>------- ------,89290.89999997616,89290,88853.227,88867.19999998808,88869.893,89303.209,,46,state
screen,html.Screen,0_2_1_1_47,2021-11-25T15:49:45.560Z,,,,,,,,,,,,,,,,54,,,,,,,,,,,,,,258.79099999999744,,response,,,100,,,,,,Space,keypress(Space),,,,,-- --- ---- --- ------ ----- ------- ---- -- --- ------- --<br>------- ---------- ------ -- ----- -- ----- -- ---- ------<br>--- ----- --- --- ------ -------- ----- --- ------ ----- --<br>----- ----- ---------- --- --- ------ ------ ---- -- ------<br>------- --- ------ ----- was ---- ------- -- ---- --- --<br>------- ------,89562.79999995232,89562,89286.543,89291.19999998808,89303.209,89569.865,,47,was
screen,html.Screen,0_2_1_1_48,2021-11-25T15:49:46.280Z,,,,,,,,,,,,,,,,54,,,,,,,,,,,,,,712.1349999999948,,response,,,100,,,,,,Space,keypress(Space),,,,,-- --- ---- --- ------ ----- ------- ---- -- --- ------- --<br>------- ---------- ------ -- ----- -- ----- -- ---- ------<br>--- ----- --- --- ------ -------- ----- --- ------ ----- --<br>----- ----- ---------- --- --- ------ ------ ---- -- ------<br>------- --- ------ ----- --- left ------- -- ---- --- --<br>------- ------,90282.89999997616,90282,89553.199,89563.09999996424,89569.865,90286.503,,48,left
screen,html.Screen,0_2_1_1_49,2021-11-25T15:49:46.664Z,,,,,,,,,,,,,,,,54,,,,,,,,,,,,,,379.39699997616117,,response,,,100,,,,,,Space,keypress(Space),,,,,-- --- ---- --- ------ ----- ------- ---- -- --- ------- --<br>------- ---------- ------ -- ----- -- ----- -- ---- ------<br>--- ----- --- --- ------ -------- ----- --- ------ ----- --<br>----- ----- ---------- --- --- ------ ------ ---- -- ------<br>------- --- ------ ----- --- ---- without -- ---- --- --<br>------- ------,90666.79999995232,90665.89999997616,90269.837,90283.19999998808,90286.503,90669.821,,49,without
screen,html.Screen,0_2_1_1_50,2021-11-25T15:49:46.896Z,,,,,,,,,,,,,,,,54,,,,,,,,,,,,,,228.07899997616187,,response,,,100,,,,,,Space,keypress(Space),,,,,-- --- ---- --- ------ ----- ------- ---- -- --- ------- --<br>------- ---------- ------ -- ----- -- ----- -- ---- ------<br>--- ----- --- --- ------ -------- ----- --- ------ ----- --<br>----- ----- ---------- --- --- ------ ------ ---- -- ------<br>------- --- ------ ----- --- ---- ------- an ---- --- --<br>------- ------,90898.79999995232,90897.89999997616,90653.155,90667,90669.821,90903.145,,50,an
screen,html.Screen,0_2_1_1_51,2021-11-25T15:49:47.112Z,,,,,,,,,,,,,,,,54,,,,,,,,,,,,,,210.75499997615407,,response,,,100,,,,,,Space,keypress(Space),,,,,-- --- ---- --- ------ ----- ------- ---- -- --- ------- --<br>------- ---------- ------ -- ----- -- ----- -- ---- ------<br>--- ----- --- --- ------ -------- ----- --- ------ ----- --<br>----- ----- ---------- --- --- ------ ------ ---- -- ------<br>------- --- ------ ----- --- ---- ------- -- easy --- --<br>------- ------,91114.79999995232,91113.89999997616,90886.479,90899,90903.145,91119.803,,51,easy
screen,html.Screen,0_2_1_1_52,2021-11-25T15:49:47.320Z,,,,,,,,,,,,,,,,54,,,,,,,,,,,,,,202.09699997615826,,response,,,100,,,,,,Space,keypress(Space),,,,,-- --- ---- --- ------ ----- ------- ---- -- --- ------- --<br>------- ---------- ------ -- ----- -- ----- -- ---- ------<br>--- ----- --- --- ------ -------- ----- --- ------ ----- --<br>----- ----- ---------- --- --- ------ ------ ---- -- ------<br>------- --- ------ ----- --- ---- ------- -- ---- way --<br>------- ------,91322.79999995232,91321.89999997616,91103.137,91115,91119.803,91336.461,,52,way
screen,html.Screen,0_2_1_1_53,2021-11-25T15:49:48.040Z,,,,,,,,,,,,,,,,54,,,,,,,,,,,,,,705.3389999523206,,response,,,100,,,,,,Space,keypress(Space),,,,,-- --- ---- --- ------ ----- ------- ---- -- --- ------- --<br>------- ---------- ------ -- ----- -- ----- -- ---- ------<br>--- ----- --- --- ------ -------- ----- --- ------ ----- --<br>----- ----- ---------- --- --- ------ ------ ---- -- ------<br>------- --- ------ ----- --- ---- ------- -- ---- --- of<br>------- ------,92042.69999998808,92041.79999995232,91319.795,91323,91336.461,92053.099,,53,of
screen,html.Screen,0_2_1_1_54,2021-11-25T15:49:48.312Z,,,,,,,,,,,,,,,,54,,,,,,,,,,,,,,260.80099997615616,,response,,,100,,,,,,Space,keypress(Space),,,,,-- --- ---- --- ------ ----- ------- ---- -- --- ------- --<br>------- ---------- ------ -- ----- -- ----- -- ---- ------<br>--- ----- --- --- ------ -------- ----- --- ------ ----- --<br>----- ----- ---------- --- --- ------ ------ ---- -- ------<br>------- --- ------ ----- --- ---- ------- -- ---- --- --<br>raising ------,92314.69999998808,92313.89999997616,92036.433,92043,92053.099,92319.755,,54,raising
screen,html.Screen,0_2_1_1_55,2021-11-25T15:49:48.816Z,,,,,,,,,,,,,,,,54,,,,,,,,,,,,,,498.0449999523116,,response,,,100,,,,,,Space,keypress(Space),,,,,-- --- ---- --- ------ ----- ------- ---- -- --- ------- --<br>------- ---------- ------ -- ----- -- ----- -- ---- ------<br>--- ----- --- --- ------ -------- ----- --- ------ ----- --<br>----- ----- ---------- --- --- ------ ------ ---- -- ------<br>------- --- ------ ----- --- ---- ------- -- ---- --- --<br>------- money.,92818.59999996424,92817.79999995232,92303.089,92315,92319.755,92836.401,,55,money.
Item 100,flow.Loop,0_2_1_1,2021-11-25T15:49:48.816Z,,,,,,,,,,,,,,,,,,,,,,,,,,,,,,19597.280999952316,,completion,,,,A,,,,,,,,,,silence,,92819.09999996424,92817.79999995232,73203.853,73206.59999996424,73220.519,92836.401,,,
Question 1,html.Screen,0_2_1_2,2021-11-25T15:49:51.434Z,,,,,,,,,,,,,,,,,,,,,,,,,,,true,TRUE,,2599.099000000002,,response,,,100,A,,,,,TRUE,click #choice-1,,,,silence,,95436.79999995232,95435.5,92819.735,92819.29999995232,92836.401,95452.963,,,
Question 2,html.Screen,0_2_1_3,2021-11-25T15:49:53.818Z,,,,,,,,,,,,,,,,,,,,,,,,,,,true,FALSE,,2366.7369999880757,,response,,,100,A,,,,,FALSE,click #choice-2,,,,silence,,97821,97819.69999998808,95436.297,95437.09999996424,95452.963,97836.201,,,
Item 100,flow.Sequence,0_2_1,2021-11-25T15:49:53.818Z,,,,,,,,,,,,,,,,,,,,,,,,,,,,,,34598.78099998808,,completion,,,,,,,,,,,,,,,,97821.39999997616,97819.69999998808,63204.253,63191.5,63220.919,97836.201,,,
End of Practice,html.Page,0_2_2,2021-11-25T15:50:02.050Z,,,,,,,,,,,,,,,,,,,,,,,,,,,,,,8216.398999964236,,form submission,,,,,,,,,,,,,,,,106053.29999995232,106052.59999996424,97819.535,97821.59999996424,97836.201,106052.539,,,
Practice,flow.Sequence,0_2,2021-11-25T15:50:02.051Z,,,,,,,,,,,,,,,,,,,,,,,,,,,,,,78613.58299996424,,completion,,,,,,,,,,,,,,,,106053.79999995232,106052.59999996424,27422.351,27431.899999976158,27439.017,106052.539,,,
Trap_instruction,html.Page,0_3_0,2021-11-25T15:50:05.994Z,,,,,,,,,,,,,,,,,,,,,,,,,,,,,,3943.6609999880748,,form submission,,,,,,,,,,,,,,,,109996.69999998808,109996.19999998808,106035.873,106054.09999996424,106052.539,110035.713,,,
trap_trial,html.Screen,0_3_1,2021-11-25T15:50:09.593Z,,,,,,,,,,,,,,,,,,,,,,,,,,,true,1,,3558.7869999999966,,response,,,,,,,,,1,click #choice-1,,,,,,113595.89999997616,113594.5,109985.715,109997,110035.713,113602.237,,,
end of trap trial,html.Page,0_3_2,2021-11-25T15:50:11.465Z,,,,,,,,,,,,,,,,,,,,,,,,,,,,,,1865.7630000000063,,form submission,,,,,,,,,,,,,,,,115468.5,115468,113585.571,113596.09999996424,113602.237,115468.829,,,
Trap 1,flow.Sequence,0_3,2021-11-25T15:50:11.466Z,,,,,,,,,,,,,,,,,,,,,,,,,,,,,,9415.460999999996,,completion,,,,,,,,,,,,,,,,115468.89999997616,115468,106035.873,106054.09999996424,106052.539,115468.829,,,
Standby,html.Page,0_4_0,2021-11-25T15:50:19.453Z,,,,,,,,,,,,,,,,,,,,,,,,,,,,,,7999.680000000008,,timeout,,,,,,,,,,,,,,,,123452.89999997616,123451.843,115452.163,115469.29999995232,115468.829,123468.509,,,
Holding screen,html.Screen,0_4_1_0_0,2021-11-25T15:50:26.453Z,,,,,,,,,,,,,,,,,,,,,,,,,,,,,,6999.720000000001,,timeout,,,,,,,,,,,,,,,,130452.89999997616,130451.563,123451.843,123453.29999995232,123468.509,130468.229,,,
screen,html.Screen,0_4_1_0_1_0,2021-11-25T15:50:28.585Z,,,,,,,,,,,,,,,,48,,,,,,,,,,,,,,2115.9709999880724,,response,,,10,A,,,,,Space,keypress(Space),,,,silence,As -- --- ------ ------- --------- ----------- --------<br>--------- -------- --- ------- -- ------- ---- -- ------<br>-- --- -------- -------- ---------- ---- ---- ---- ------<br>-- --------- -- ---- -- --- -- --- ------- -- - -----<br>---------- -- -- -- ---- ----- -- ------ -- --- ------<br>-------,132585.19999998808,132584.19999998808,130451.563,130453.29999995232,130468.229,132601.477,,0,As
screen,html.Screen,0_4_1_0_1_1,2021-11-25T15:50:29.512Z,,,,,,,,,,,,,,,,48,,,,,,,,,,,,,,910.0229999999865,,response,,,10,A,,,,,Space,keypress(Space),,,,silence,-- in --- ------ ------- --------- ----------- --------<br>--------- -------- --- ------- -- ------- ---- -- ------<br>-- --- -------- -------- ---------- ---- ---- ---- ------<br>-- --------- -- ---- -- --- -- --- ------- -- - -----<br>---------- -- -- -- ---- ----- -- ------ -- --- ------<br>-------,133512.39999997616,133511.5,132584.811,132585.5,132601.477,133518.107,,1,in
screen,html.Screen,0_4_1_0_1_2,2021-11-25T15:50:29.896Z,,,,,,,,,,,,,,,,48,,,,,,,,,,,,,,377.39300000001094,,response,,,10,A,,,,,Space,keypress(Space),,,,silence,-- -- the ------ ------- --------- ----------- --------<br>--------- -------- --- ------- -- ------- ---- -- ------<br>-- --- -------- -------- ---------- ---- ---- ---- ------<br>-- --------- -- ---- -- --- -- --- ------- -- - -----<br>---------- -- -- -- ---- ----- -- ------ -- --- ------<br>-------,133896.29999995232,133895.5,133501.441,133512.59999996424,133518.107,133901.425,,2,the
screen,html.Screen,0_4_1_0_1_3,2021-11-25T15:50:30.265Z,,,,,,,,,,,,,,,,48,,,,,,,,,,,,,,362.07500000001164,,response,,,10,A,,,,,Space,keypress(Space),,,,silence,-- -- --- United ------- --------- ----------- --------<br>--------- -------- --- ------- -- ------- ---- -- ------<br>-- --- -------- -------- ---------- ---- ---- ---- ------<br>-- --------- -- ---- -- --- -- --- ------- -- - -----<br>---------- -- -- -- ---- ----- -- ------ -- --- ------<br>-------,134264.39999997616,134263.5,133884.759,133896.5,133901.425,134268.077,,3,United
screen,html.Screen,0_4_1_0_1_4,2021-11-25T15:50:30.576Z,,,,,,,,,,,,,,,,48,,,,,,,,,,,,,,307.4230000000098,,response,,,10,A,,,,,Space,keypress(Space),,,,silence,"-- -- --- ------ States, --------- ----------- --------<br>--------- -------- --- ------- -- ------- ---- -- ------<br>-- --- -------- -------- ---------- ---- ---- ---- ------<br>-- --------- -- ---- -- --- -- --- ------- -- - -----<br>---------- -- -- -- ---- ----- -- ------ -- --- ------<br>-------",134576.29999995232,134575.5,134251.411,134264.69999998808,134268.077,134584.731,,4,"States,"
screen,html.Screen,0_4_1_0_1_5,2021-11-25T15:50:30.912Z,,,,,,,,,,,,,,,,48,,,,,,,,,,,,,,326.76900000000023,,response,,,10,A,,,,,Space,keypress(Space),,,,silence,-- -- --- ------ ------- Colombian ----------- --------<br>--------- -------- --- ------- -- ------- ---- -- ------<br>-- --- -------- -------- ---------- ---- ---- ---- ------<br>-- --------- -- ---- -- --- -- --- ------- -- - -----<br>---------- -- -- -- ---- ----- -- ------ -- --- ------<br>-------,134912.29999995232,134911.5,134568.065,134576.5,134584.731,134918.051,,5,Colombian
screen,html.Screen,0_4_1_0_1_6,2021-11-25T15:50:31.625Z,,,,,,,,,,,,,,,,48,,,,,,,,,,,,,,705.4489999999932,,response,,,10,A,,,,,Space,keypress(Space),,,,silence,-- -- --- ------ ------- --------- legislation --------<br>--------- -------- --- ------- -- ------- ---- -- ------<br>-- --- -------- -------- ---------- ---- ---- ---- ------<br>-- --------- -- ---- -- --- -- --- ------- -- - -----<br>---------- -- -- -- ---- ----- -- ------ -- --- ------<br>-------,135624.39999997616,135623.5,134901.385,134912.59999996424,134918.051,135634.689,,6,legislation
screen,html.Screen,0_4_1_0_1_7,2021-11-25T15:50:31.984Z,,,,,,,,,,,,,,,,48,,,,,,,,,,,,,,348.81099999998696,,response,,,10,A,,,,,Space,keypress(Space),,,,silence,-- -- --- ------ ------- --------- ----------- requires<br>--------- -------- --- ------- -- ------- ---- -- ------<br>-- --- -------- -------- ---------- ---- ---- ---- ------<br>-- --------- -- ---- -- --- -- --- ------- -- - -----<br>---------- -- -- -- ---- ----- -- ------ -- --- ------<br>-------,135984.29999995232,135983.5,135618.023,135624.69999998808,135634.689,136001.341,,7,requires
screen,html.Screen,0_4_1_0_1_8,2021-11-25T15:50:32.576Z,,,,,,,,,,,,,,,,48,,,,,,,,,,,,,,574.0589999761723,,response,,,10,A,,,,,Space,keypress(Space),,,,silence,-- -- --- ------ ------- --------- ----------- --------<br>travelers -------- --- ------- -- ------- ---- -- ------<br>-- --- -------- -------- ---------- ---- ---- ---- ------<br>-- --------- -- ---- -- --- -- --- ------- -- - -----<br>---------- -- -- -- ---- ----- -- ------ -- --- ------<br>-------,136576.29999995232,136575.39999997616,135984.675,135984.5,136001.341,136584.651,,8,travelers
screen,html.Screen,0_4_1_0_1_9,2021-11-25T15:50:32.984Z,,,,,,,,,,,,,,,,48,,,,,,,,,,,,,,398.74899997614557,,response,,,10,A,,,,,Space,keypress(Space),,,,silence,-- -- --- ------ ------- --------- ----------- --------<br>--------- entering --- ------- -- ------- ---- -- ------<br>-- --- -------- -------- ---------- ---- ---- ---- ------<br>-- --------- -- ---- -- --- -- --- ------- -- - -----<br>---------- -- -- -- ---- ----- -- ------ -- --- ------<br>-------,136984.19999998808,136983.39999997616,136567.985,136576.59999996424,136584.651,137001.301,,9,entering
screen,html.Screen,0_4_1_0_1_10,2021-11-25T15:50:33.576Z,,,,,,,,,,,,,,,,48,,,,,,,,,,,,,,574.0989999761514,,response,,,10,A,,,,,Space,keypress(Space),,,,silence,-- -- --- ------ ------- --------- ----------- --------<br>--------- -------- the ------- -- ------- ---- -- ------<br>-- --- -------- -------- ---------- ---- ---- ---- ------<br>-- --------- -- ---- -- --- -- --- ------- -- - -----<br>---------- -- -- -- ---- ----- -- ------ -- --- ------<br>-------,137576.29999995232,137575.39999997616,136984.635,136984.5,137001.301,137584.611,,10,the
screen,html.Screen,0_4_1_0_1_11,2021-11-25T15:50:34.104Z,,,,,,,,,,,,,,,,48,,,,,,,,,,,,,,518.6889999523119,,response,,,10,A,,,,,Space,keypress(Space),,,,silence,-- -- --- ------ ------- --------- ----------- --------<br>--------- -------- --- country -- ------- ---- -- ------<br>-- --- -------- -------- ---------- ---- ---- ---- ------<br>-- --------- -- ---- -- --- -- --- ------- -- - -----<br>---------- -- -- -- ---- ----- -- ------ -- --- ------<br>-------,138104.09999996424,138103.29999995232,137567.945,137576.69999998808,137584.611,138117.923,,11,country
screen,html.Screen,0_4_1_0_1_12,2021-11-25T15:50:34.568Z,,,,,,,,,,,,,,,,48,,,,,,,,,,,,,,449.3769999523065,,response,,,10,A,,,,,Space,keypress(Space),,,,silence,-- -- --- ------ ------- --------- ----------- --------<br>--------- -------- --- ------- to ------- ---- -- ------<br>-- --- -------- -------- ---------- ---- ---- ---- ------<br>-- --------- -- ---- -- --- -- --- ------- -- - -----<br>---------- -- -- -- ---- ----- -- ------ -- --- ------<br>-------,138568.09999996424,138567.29999995232,138101.257,138104.39999997616,138117.923,138584.571,,12,to
screen,html.Screen,0_4_1_0_1_13,2021-11-25T15:50:35.128Z,,,,,,,,,,,,,,,,48,,,,,,,,,,,,,,542.72899995232,,response,,,10,A,,,,,Space,keypress(Space),,,,silence,-- -- --- ------ ------- --------- ----------- --------<br>--------- -------- --- ------- -- declare ---- -- ------<br>-- --- -------- -------- ---------- ---- ---- ---- ------<br>-- --------- -- ---- -- --- -- --- ------- -- - -----<br>---------- -- -- -- ---- ----- -- ------ -- --- ------<br>-------,139128.09999996424,139127.29999995232,138567.905,138568.39999997616,138584.571,139134.549,,13,declare
screen,html.Screen,0_4_1_0_1_14,2021-11-25T15:50:35.512Z,,,,,,,,,,,,,,,,48,,,,,,,,,,,,,,376.65099998808,,response,,,10,A,,,,,Space,keypress(Space),,,,silence,-- -- --- ------ ------- --------- ----------- --------<br>--------- -------- --- ------- -- ------- cash -- ------<br>-- --- -------- -------- ---------- ---- ---- ---- ------<br>-- --------- -- ---- -- --- -- --- ------- -- - -----<br>---------- -- -- -- ---- ----- -- ------ -- --- ------<br>-------,139512.09999996424,139511.19999998808,139117.883,139128.29999995232,139134.549,139517.867,,14,cash
screen,html.Screen,0_4_1_0_1_15,2021-11-25T15:50:36.024Z,,,,,,,,,,,,,,,,48,,,,,,,,,,,,,,505.4329999523179,,response,,,10,A,,,,,Space,keypress(Space),,,,silence,-- -- --- ------ ------- --------- ----------- --------<br>--------- -------- --- ------- -- ------- ---- in ------<br>-- --- -------- -------- ---------- ---- ---- ---- ------<br>-- --------- -- ---- -- --- -- --- ------- -- - -----<br>---------- -- -- -- ---- ----- -- ------ -- --- ------<br>-------,140024,140023.29999995232,139501.201,139512.39999997616,139517.867,140034.513,,15,in
screen,html.Screen,0_4_1_0_1_16,2021-11-25T15:50:36.464Z,,,,,,,,,,,,,,,,48,,,,,,,,,,,,,,428.6869999880728,,response,,,10,A,,,,,Space,keypress(Space),,,,silence,-- -- --- ------ ------- --------- ----------- --------<br>--------- -------- --- ------- -- ------- ---- -- excess<br>-- --- -------- -------- ---------- ---- ---- ---- ------<br>-- --------- -- ---- -- --- -- --- ------- -- - -----<br>---------- -- -- -- ---- ----- -- ------ -- --- ------<br>-------,140464.09999996424,140463.19999998808,140017.847,140024.19999998808,140034.513,140467.829,,16,excess
screen,html.Screen,0_4_1_0_1_17,2021-11-25T15:50:37.000Z,,,,,,,,,,,,,,,,48,,,,,,,,,,,,,,531.2709999642393,,response,,,10,A,,,,,Space,keypress(Space),,,,silence,-- -- --- ------ ------- --------- ----------- --------<br>--------- -------- --- ------- -- ------- ---- -- ------<br>of --- -------- -------- ---------- ---- ---- ---- ------<br>-- --------- -- ---- -- --- -- --- ------- -- - -----<br>---------- -- -- -- ---- ----- -- ------ -- --- ------<br>-------,140999.89999997616,140999.09999996424,140451.163,140464.29999995232,140467.829,141001.141,,17,of
screen,html.Screen,0_4_1_0_1_18,2021-11-25T15:50:37.448Z,,,,,,,,,,,,,,,,48,,,,,,,,,,,,,,445.95899996423395,,response,,,10,A,,,,,Space,keypress(Space),,,,silence,-- -- --- ------ ------- --------- ----------- --------<br>--------- -------- --- ------- -- ------- ---- -- ------<br>-- ten -------- -------- ---------- ---- ---- ---- ------<br>-- --------- -- ---- -- --- -- --- ------- -- - -----<br>---------- -- -- -- ---- ----- -- ------ -- --- ------<br>-------,141448,141447.09999996424,140984.475,141000.19999998808,141001.141,141451.123,,18,ten
screen,html.Screen,0_4_1_0_1_19,2021-11-25T15:50:37.832Z,,,,,,,,,,,,,,,,48,,,,,,,,,,,,,,379.9769999642449,,response,,,10,A,,,,,Space,keypress(Space),,,,silence,-- -- --- ------ ------- --------- ----------- --------<br>--------- -------- --- ------- -- ------- ---- -- ------<br>-- --- thousand -------- ---------- ---- ---- ---- ------<br>-- --------- -- ---- -- --- -- --- ------- -- - -----<br>---------- -- -- -- ---- ----- -- ------ -- --- ------<br>-------,141831.89999997616,141831.09999996424,141434.457,141448.29999995232,141451.123,141834.441,,19,thousand
screen,html.Screen,0_4_1_0_1_20,2021-11-25T15:50:38.216Z,,,,,,,,,,,,,,,,48,,,,,,,,,,,,,,380.6589999642456,,response,,,10,A,,,,,Space,keypress(Space),,,,silence,-- -- --- ------ ------- --------- ----------- --------<br>--------- -------- --- ------- -- ------- ---- -- ------<br>-- --- -------- dollars. ---------- ---- ---- ---- ------<br>-- --------- -- ---- -- --- -- --- ------- -- - -----<br>---------- -- -- -- ---- ----- -- ------ -- --- ------<br>-------,142216,142215.09999996424,141817.775,141832.19999998808,141834.441,142217.759,,20,dollars.
screen,html.Screen,0_4_1_0_1_21,2021-11-25T15:50:38.625Z,,,,,,,,,,,,,,,,48,,,,,,,,,,,,,,405.7410000000091,,response,,,10,A,,,,,Space,keypress(Space),,,,silence,-- -- --- ------ ------- --------- ----------- --------<br>--------- -------- --- ------- -- ------- ---- -- ------<br>-- --- -------- -------- Concealing ---- ---- ---- ------<br>-- --------- -- ---- -- --- -- --- ------- -- - -----<br>---------- -- -- -- ---- ----- -- ------ -- --- ------<br>-------,142624.39999997616,142623.5,142201.093,142216.29999995232,142217.759,142634.409,,21,Concealing
screen,html.Screen,0_4_1_0_1_22,2021-11-25T15:50:39.040Z,,,,,,,,,,,,,,,,48,,,,,,,,,,,,,,404.5909999999858,,response,,,10,A,,,,,Space,keypress(Space),,,,silence,-- -- --- ------ ------- --------- ----------- --------<br>--------- -------- --- ------- -- ------- ---- -- ------<br>-- --- -------- -------- ---------- more ---- ---- ------<br>-- --------- -- ---- -- --- -- --- ------- -- - -----<br>---------- -- -- -- ---- ----- -- ------ -- --- ------<br>-------,143039.89999997616,143039,142617.743,142624.59999996424,142634.409,143051.059,,22,more
screen,html.Screen,0_4_1_0_1_23,2021-11-25T15:50:39.456Z,,,,,,,,,,,,,,,,48,,,,,,,,,,,,,,403.9409999999916,,response,,,10,A,,,,,Space,keypress(Space),,,,silence,-- -- --- ------ ------- --------- ----------- --------<br>--------- -------- --- ------- -- ------- ---- -- ------<br>-- --- -------- -------- ---------- ---- than ---- ------<br>-- --------- -- ---- -- --- -- --- ------- -- - -----<br>---------- -- -- -- ---- ----- -- ------ -- --- ------<br>-------,143455.79999995232,143455,143034.393,143040.09999996424,143051.059,143467.709,,23,than
screen,html.Screen,0_4_1_0_1_24,2021-11-25T15:50:39.744Z,,,,,,,,,,,,,,,,48,,,,,,,,,,,,,,275.29099999999744,,response,,,10,A,,,,,Space,keypress(Space),,,,silence,-- -- --- ------ ------- --------- ----------- --------<br>--------- -------- --- ------- -- ------- ---- -- ------<br>-- --- -------- -------- ---------- ---- ---- that ------<br>-- --------- -- ---- -- --- -- --- ------- -- - -----<br>---------- -- -- -- ---- ----- -- ------ -- --- ------<br>-------,143743.79999995232,143743,143451.043,143456.09999996424,143467.709,143751.031,,24,that
screen,html.Screen,0_4_1_0_1_25,2021-11-25T15:50:40.040Z,,,,,,,,,,,,,,,,48,,,,,,,,,,,,,,287.9690000000119,,response,,,10,A,,,,,Space,keypress(Space),,,,silence,-- -- --- ------ ------- --------- ----------- --------<br>--------- -------- --- ------- -- ------- ---- -- ------<br>-- --- -------- -------- ---------- ---- ---- ---- amount<br>-- --------- -- ---- -- --- -- --- ------- -- - -----<br>---------- -- -- -- ---- ----- -- ------ -- --- ------<br>-------,144039.79999995232,144039,143734.365,143744.09999996424,143751.031,144051.019,,25,amount
screen,html.Screen,0_4_1_0_1_26,2021-11-25T15:50:40.384Z,,,,,,,,,,,,,,,,48,,,,,,,,,,,,,,332.080999964237,,response,,,10,A,,,,,Space,keypress(Space),,,,silence,-- -- --- ------ ------- --------- ----------- --------<br>--------- -------- --- ------- -- ------- ---- -- ------<br>-- --- -------- -------- ---------- ---- ---- ---- ------<br>to --------- -- ---- -- --- -- --- ------- -- - -----<br>---------- -- -- -- ---- ----- -- ------ -- --- ------<br>-------,144383.89999997616,144383.09999996424,144034.353,144040.09999996424,144051.019,144401.005,,26,to
screen,html.Screen,0_4_1_0_1_27,2021-11-25T15:50:40.744Z,,,,,,,,,,,,,,,,48,,,,,,,,,,,,,,341.99499999999534,,response,,,10,A,,,,,Space,keypress(Space),,,,silence,-- -- --- ------ ------- --------- ----------- --------<br>--------- -------- --- ------- -- ------- ---- -- ------<br>-- --- -------- -------- ---------- ---- ---- ---- ------<br>-- transport -- ---- -- --- -- --- ------- -- - -----<br>---------- -- -- -- ---- ----- -- ------ -- --- ------<br>-------,144743.79999995232,144743,144384.339,144384.19999998808,144401.005,144750.991,,27,transport
screen,html.Screen,0_4_1_0_1_28,2021-11-25T15:50:41.112Z,,,,,,,,,,,,,,,,48,,,,,,,,,,,,,,359.90899997614906,,response,,,10,A,,,,,Space,keypress(Space),,,,silence,-- -- --- ------ ------- --------- ----------- --------<br>--------- -------- --- ------- -- ------- ---- -- ------<br>-- --- -------- -------- ---------- ---- ---- ---- ------<br>-- --------- it ---- -- --- -- --- ------- -- - -----<br>---------- -- -- -- ---- ----- -- ------ -- --- ------<br>-------,145111.79999995232,145110.89999997616,144734.325,144744,144750.991,145117.643,,28,it
screen,html.Screen,0_4_1_0_1_29,2021-11-25T15:50:41.432Z,,,,,,,,,,,,,,,,48,,,,,,,,,,,,,,313.2569999761472,,response,,,10,A,,,,,Space,keypress(Space),,,,silence,-- -- --- ------ ------- --------- ----------- --------<br>--------- -------- --- ------- -- ------- ---- -- ------<br>-- --- -------- -------- ---------- ---- ---- ---- ------<br>-- --------- -- into -- --- -- --- ------- -- - -----<br>---------- -- -- -- ---- ----- -- ------ -- --- ------<br>-------,145431.69999998808,145430.89999997616,145100.977,145112,145117.643,145434.297,,29,into
screen,html.Screen,0_4_1_0_1_30,2021-11-25T15:50:41.744Z,,,,,,,,,,,,,,,,48,,,,,,,,,,,,,,308.60299997616676,,response,,,10,A,,,,,Space,keypress(Space),,,,silence,-- -- --- ------ ------- --------- ----------- --------<br>--------- -------- --- ------- -- ------- ---- -- ------<br>-- --- -------- -------- ---------- ---- ---- ---- ------<br>-- --------- -- ---- or --- -- --- ------- -- - -----<br>---------- -- -- -- ---- ----- -- ------ -- --- ------<br>-------,145743.79999995232,145742.89999997616,145417.631,145432,145434.297,145750.951,,30,or
screen,html.Screen,0_4_1_0_1_31,2021-11-25T15:50:42.064Z,,,,,,,,,,,,,,,,48,,,,,,,,,,,,,,311.9489999761572,,response,,,10,A,,,,,Space,keypress(Space),,,,silence,-- -- --- ------ ------- --------- ----------- --------<br>--------- -------- --- ------- -- ------- ---- -- ------<br>-- --- -------- -------- ---------- ---- ---- ---- ------<br>-- --------- -- ---- -- out -- --- ------- -- - -----<br>---------- -- -- -- ---- ----- -- ------ -- --- ------<br>-------,146063.69999998808,146062.89999997616,145734.285,145744.09999996424,145750.951,146067.605,,31,out
screen,html.Screen,0_4_1_0_1_32,2021-11-25T15:50:42.312Z,,,,,,,,,,,,,,,,48,,,,,,,,,,,,,,243.29499997614766,,response,,,10,A,,,,,Space,keypress(Space),,,,silence,-- -- --- ------ ------- --------- ----------- --------<br>--------- -------- --- ------- -- ------- ---- -- ------<br>-- --- -------- -------- ---------- ---- ---- ---- ------<br>-- --------- -- ---- -- --- of --- ------- -- - -----<br>---------- -- -- -- ---- ----- -- ------ -- --- ------<br>-------,146311.69999998808,146310.89999997616,146050.939,146063.89999997616,146067.605,146317.595,,32,of
screen,html.Screen,0_4_1_0_1_33,2021-11-25T15:50:42.520Z,,,,,,,,,,,,,,,,48,,,,,,,,,,,,,,201.20499995231512,,response,,,10,A,,,,,Space,keypress(Space),,,,silence,-- -- --- ------ ------- --------- ----------- --------<br>--------- -------- --- ------- -- ------- ---- -- ------<br>-- --- -------- -------- ---------- ---- ---- ---- ------<br>-- --------- -- ---- -- --- -- the ------- -- - -----<br>---------- -- -- -- ---- ----- -- ------ -- --- ------<br>-------,146519.59999996424,146518.79999995232,146300.929,146311.89999997616,146317.595,146534.253,,33,the
screen,html.Screen,0_4_1_0_1_34,2021-11-25T15:50:42.752Z,,,,,,,,,,,,,,,,48,,,,,,,,,,,,,,216.4469999880821,,response,,,10,A,,,,,Space,keypress(Space),,,,silence,-- -- --- ------ ------- --------- ----------- --------<br>--------- -------- --- ------- -- ------- ---- -- ------<br>-- --- -------- -------- ---------- ---- ---- ---- ------<br>-- --------- -- ---- -- --- -- --- country -- - -----<br>---------- -- -- -- ---- ----- -- ------ -- --- ------<br>-------,146751.69999998808,146750.69999998808,146517.587,146520,146534.253,146767.577,,34,country
screen,html.Screen,0_4_1_0_1_35,2021-11-25T15:50:42.992Z,,,,,,,,,,,,,,,,48,,,,,,,,,,,,,,223.32299997616792,,response,,,10,A,,,,,Space,keypress(Space),,,,silence,-- -- --- ------ ------- --------- ----------- --------<br>--------- -------- --- ------- -- ------- ---- -- ------<br>-- --- -------- -------- ---------- ---- ---- ---- ------<br>-- --------- -- ---- -- --- -- --- ------- is - -----<br>---------- -- -- -- ---- ----- -- ------ -- --- ------<br>-------,146991.59999996424,146990.89999997616,146750.911,146751.79999995232,146767.577,147000.901,,35,is
screen,html.Screen,0_4_1_0_1_36,2021-11-25T15:50:43.232Z,,,,,,,,,,,,,,,,48,,,,,,,,,,,,,,229.8989999523037,,response,,,10,A,,,,,Space,keypress(Space),,,,silence,-- -- --- ------ ------- --------- ----------- --------<br>--------- -------- --- ------- -- ------- ---- -- ------<br>-- --- -------- -------- ---------- ---- ---- ---- ------<br>-- --------- -- ---- -- --- -- --- ------- -- a -----<br>---------- -- -- -- ---- ----- -- ------ -- --- ------<br>-------,147231.59999996424,147230.79999995232,146984.235,146991.89999997616,147000.901,147234.225,,36,a
screen,html.Screen,0_4_1_0_1_37,2021-11-25T15:50:43.608Z,,,,,,,,,,,,,,,,48,,,,,,,,,,,,,,372.57499995231046,,response,,,10,A,,,,,Space,keypress(Space),,,,silence,-- -- --- ------ ------- --------- ----------- --------<br>--------- -------- --- ------- -- ------- ---- -- ------<br>-- --- -------- -------- ---------- ---- ---- ---- ------<br>-- --------- -- ---- -- --- -- --- ------- -- - crime<br>---------- -- -- -- ---- ----- -- ------ -- --- ------<br>-------,147607.59999996424,147606.79999995232,147217.559,147231.79999995232,147234.225,147617.543,,37,crime
screen,html.Screen,0_4_1_0_1_38,2021-11-25T15:50:43.968Z,,,,,,,,,,,,,,,,48,,,,,,,,,,,,,,349.25699995231116,,response,,,10,A,,,,,Space,keypress(Space),,,,silence,-- -- --- ------ ------- --------- ----------- --------<br>--------- -------- --- ------- -- ------- ---- -- ------<br>-- --- -------- -------- ---------- ---- ---- ---- ------<br>-- --------- -- ---- -- --- -- --- ------- -- - -----<br>punishable -- -- -- ---- ----- -- ------ -- --- ------<br>-------,147967.59999996424,147966.79999995232,147600.877,147607.89999997616,147617.543,147984.195,,38,punishable
screen,html.Screen,0_4_1_0_1_39,2021-11-25T15:50:44.248Z,,,,,,,,,,,,,,,,48,,,,,,,,,,,,,,262.6049999523093,,response,,,10,A,,,,,Space,keypress(Space),,,,silence,-- -- --- ------ ------- --------- ----------- --------<br>--------- -------- --- ------- -- ------- ---- -- ------<br>-- --- -------- -------- ---------- ---- ---- ---- ------<br>-- --------- -- ---- -- --- -- --- ------- -- - -----<br>---------- by -- -- ---- ----- -- ------ -- --- ------<br>-------,148247.59999996424,148246.79999995232,147967.529,147967.89999997616,147984.195,148250.851,,39,by
screen,html.Screen,0_4_1_0_1_40,2021-11-25T15:50:44.712Z,,,,,,,,,,,,,,,,48,,,,,,,,,,,,,,459.84899998808396,,response,,,10,A,,,,,Space,keypress(Space),,,,silence,-- -- --- ------ ------- --------- ----------- --------<br>--------- -------- --- ------- -- ------- ---- -- ------<br>-- --- -------- -------- ---------- ---- ---- ---- ------<br>-- --------- -- ---- -- --- -- --- ------- -- - -----<br>---------- -- up -- ---- ----- -- ------ -- --- ------<br>-------,148711.5,148710.69999998808,148234.185,148247.89999997616,148250.851,148717.499,,40,up
screen,html.Screen,0_4_1_0_1_41,2021-11-25T15:50:45.080Z,,,,,,,,,,,,,,,,48,,,,,,,,,,,,,,361.20099998806836,,response,,,10,A,,,,,Space,keypress(Space),,,,silence,-- -- --- ------ ------- --------- ----------- --------<br>--------- -------- --- ------- -- ------- ---- -- ------<br>-- --- -------- -------- ---------- ---- ---- ---- ------<br>-- --------- -- ---- -- --- -- --- ------- -- - -----<br>---------- -- -- to ---- ----- -- ------ -- --- ------<br>-------,149079.5,149078.69999998808,148700.833,148711.69999998808,148717.499,149084.151,,41,to
screen,html.Screen,0_4_1_0_1_42,2021-11-25T15:50:45.344Z,,,,,,,,,,,,,,,,48,,,,,,,,,,,,,,258.5489999880665,,response,,,10,A,,,,,Space,keypress(Space),,,,silence,-- -- --- ------ ------- --------- ----------- --------<br>--------- -------- --- ------- -- ------- ---- -- ------<br>-- --- -------- -------- ---------- ---- ---- ---- ------<br>-- --------- -- ---- -- --- -- --- ------- -- - -----<br>---------- -- -- -- five ----- -- ------ -- --- ------<br>-------,149343.59999996424,149342.69999998808,149067.485,149079.79999995232,149084.151,149350.807,,42,five
screen,html.Screen,0_4_1_0_1_43,2021-11-25T15:50:45.560Z,,,,,,,,,,,,,,,,48,,,,,,,,,,,,,,207.89299998807837,,response,,,10,A,,,,,Space,keypress(Space),,,,silence,-- -- --- ------ ------- --------- ----------- --------<br>--------- -------- --- ------- -- ------- ---- -- ------<br>-- --- -------- -------- ---------- ---- ---- ---- ------<br>-- --------- -- ---- -- --- -- --- ------- -- - -----<br>---------- -- -- -- ---- years -- ------ -- --- ------<br>-------,149559.5,149558.69999998808,149334.141,149343.69999998808,149350.807,149567.465,,43,years
screen,html.Screen,0_4_1_0_1_44,2021-11-25T15:50:45.760Z,,,,,,,,,,,,,,,,48,,,,,,,,,,,,,,191.1349999642407,,response,,,10,A,,,,,Space,keypress(Space),,,,silence,-- -- --- ------ ------- --------- ----------- --------<br>--------- -------- --- ------- -- ------- ---- -- ------<br>-- --- -------- -------- ---------- ---- ---- ---- ------<br>-- --------- -- ---- -- --- -- --- ------- -- - -----<br>---------- -- -- -- ---- ----- in ------ -- --- ------<br>-------,149759.59999996424,149758.59999996424,149550.799,149559.69999998808,149567.465,149767.457,,44,in
screen,html.Screen,0_4_1_0_1_45,2021-11-25T15:50:45.968Z,,,,,,,,,,,,,,,,48,,,,,,,,,,,,,,199.2429999880842,,response,,,10,A,,,,,Space,keypress(Space),,,,silence,-- -- --- ------ ------- --------- ----------- --------<br>--------- -------- --- ------- -- ------- ---- -- ------<br>-- --- -------- -------- ---------- ---- ---- ---- ------<br>-- --------- -- ---- -- --- -- --- ------- -- - -----<br>---------- -- -- -- ---- ----- -- prison -- --- ------<br>-------,149967.59999996424,149966.69999998808,149750.791,149759.79999995232,149767.457,149984.115,,45,prison
screen,html.Screen,0_4_1_0_1_46,2021-11-25T15:50:46.168Z,,,,,,,,,,,,,,,,48,,,,,,,,,,,,,,182.58499998808838,,response,,,10,A,,,,,Space,keypress(Space),,,,silence,-- -- --- ------ ------- --------- ----------- --------<br>--------- -------- --- ------- -- ------- ---- -- ------<br>-- --- -------- -------- ---------- ---- ---- ---- ------<br>-- --------- -- ---- -- --- -- --- ------- -- - -----<br>---------- -- -- -- ---- ----- -- ------ in --- ------<br>-------,150167.5,150166.69999998808,149967.449,149967.79999995232,149984.115,150184.107,,46,in
screen,html.Screen,0_4_1_0_1_47,2021-11-25T15:50:46.440Z,,,,,,,,,,,,,,,,48,,,,,,,,,,,,,,254.59299998809,,response,,,10,A,,,,,Space,keypress(Space),,,,silence,-- -- --- ------ ------- --------- ----------- --------<br>--------- -------- --- ------- -- ------- ---- -- ------<br>-- --- -------- -------- ---------- ---- ---- ---- ------<br>-- --------- -- ---- -- --- -- --- ------- -- - -----<br>---------- -- -- -- ---- ----- -- ------ -- the ------<br>-------,150439.5,150438.69999998808,150167.441,150167.69999998808,150184.107,150450.763,,47,the
screen,html.Screen,0_4_1_0_1_48,2021-11-25T15:50:46.664Z,,,,,,,,,,,,,,,,48,,,,,,,,,,,,,,211.7369999999937,,response,,,10,A,,,,,Space,keypress(Space),,,,silence,-- -- --- ------ ------- --------- ----------- --------<br>--------- -------- --- ------- -- ------- ---- -- ------<br>-- --- -------- -------- ---------- ---- ---- ---- ------<br>-- --------- -- ---- -- --- -- --- ------- -- - -----<br>---------- -- -- -- ---- ----- -- ------ -- --- United<br>-------,150663.39999997616,150662.5,150434.097,150439.79999995232,150450.763,150667.421,,48,United
screen,html.Screen,0_4_1_0_1_49,2021-11-25T15:50:47.048Z,,,,,,,,,,,,,,,,48,,,,,,,,,,,,,,379.1789999642351,,response,,,10,A,,,,,Space,keypress(Space),,,,silence,-- -- --- ------ ------- --------- ----------- --------<br>--------- -------- --- ------- -- ------- ---- -- ------<br>-- --- -------- -------- ---------- ---- ---- ---- ------<br>-- --------- -- ---- -- --- -- --- ------- -- - -----<br>---------- -- -- -- ---- ----- -- ------ -- --- ------<br>States.,151047.39999997616,151046.59999996424,150650.755,150665.19999998808,150667.421,151050.739,,49,States.
Item 10,flow.Loop,0_4_1_0_1,2021-11-25T15:50:47.048Z,,,,,,,,,,,,,,,,,,,,,,,,,,,,,,20578.37099996423,,completion,,,,,,,,,,,,,,,,151047.89999997616,151046.59999996424,130451.563,130453.19999998808,130468.229,151050.739,,,
Question 1,html.Screen,0_4_1_0_2,2021-11-25T15:50:49.330Z,,,,,,,,,,,,,,,,,,,,,,,,,,,true,TRUE,,2277.560999952315,,response,,,10,A,,,,,TRUE,click #choice-1,,,,silence,,153329.69999998808,153328.29999995232,151034.073,151048.09999996424,151050.739,153333.981,,,
Question 2,html.Screen,0_4_1_0_3,2021-11-25T15:50:54.521Z,,,,,,,,,,,,,,,,,,,,,,,,,,,true,TRUE,,5186.019,,response,,,10,A,,,,,TRUE,click #choice-1,,,,silence,,158521.19999998808,158520,153317.315,153329.89999997616,153333.981,158533.773,,,
Item 10,flow.Sequence,0_4_1_0,2021-11-25T15:50:54.522Z,,,,,,,,,,,,,,,,,,,,,,,,,,,,,,35051.490999999995,,completion,,,,,,,,,,,,,,,,158521.69999998808,158520,123451.843,123453.19999998808,123468.509,158533.773,,,
Holding screen,html.Screen,0_4_1_1_0,2021-11-25T15:51:01.518Z,,,,,,,,,,,,,,,,,,,,,,,,,,,,,,6999.720000000001,,timeout,,,,,,,,,,,,,,,,165517.79999995232,165516.827,158517.107,158521.89999997616,158533.773,165533.493,,,
screen,html.Screen,0_4_1_1_1_0,2021-11-25T15:51:02.870Z,,,,,,,,,,,,,,,,2,,,,,,,,,,,,,,1336.2069999880914,,response,,,1,A,,,,,Space,keypress(Space),,,,silence,Two ---- ------ --- ------- ---------- ------- ----------<br>--- --------- --- ----------- ------- ----- ------- ---<br>--------- ---- -- --- ---- -- --------- -- ---- -------<br>-- --------- ------ --- ----- ------ ---- --- --------- --<br>------ - ---- -- --- ----------- ------- ---- ----- -----<br>--- -------- - ------ ---- -- ----- ---- --- --- -----------<br>-- -------,166870.29999995232,166869.69999998808,165516.827,165518.5,165533.493,166883.439,,0,Two
screen,html.Screen,0_4_1_1_1_1,2021-11-25T15:51:03.279Z,,,,,,,,,,,,,,,,2,,,,,,,,,,,,,,394.26099998806603,,response,,,1,A,,,,,Space,keypress(Space),,,,silence,--- days ------ --- ------- ---------- ------- ----------<br>--- --------- --- ----------- ------- ----- ------- ---<br>--------- ---- -- --- ---- -- --------- -- ---- -------<br>-- --------- ------ --- ----- ------ ---- --- --------- --<br>------ - ---- -- --- ----------- ------- ---- ----- -----<br>--- -------- - ------ ---- -- ----- ---- --- --- -----------<br>-- -------,167278.5,167277.69999998808,166866.773,166870.39999997616,166883.439,167283.423,,1,days
screen,html.Screen,0_4_1_1_1_2,2021-11-25T15:51:03.591Z,,,,,,,,,,,,,,,,2,,,,,,,,,,,,,,306.2769999880693,,response,,,1,A,,,,,Space,keypress(Space),,,,silence,"--- ---- later, --- ------- ---------- ------- ----------<br>--- --------- --- ----------- ------- ----- ------- ---<br>--------- ---- -- --- ---- -- --------- -- ---- -------<br>-- --------- ------ --- ----- ------ ---- --- --------- --<br>------ - ---- -- --- ----------- ------- ---- ----- -----<br>--- -------- - ------ ---- -- ----- ---- --- --- -----------<br>-- -------",167590.5,167589.69999998808,167266.757,167278.79999995232,167283.423,167600.077,,2,"later,"
screen,html.Screen,0_4_1_1_1_3,2021-11-25T15:51:03.879Z,,,,,,,,,,,,,,,,2,,,,,,,,,,,,,,277.522999964247,,response,,,1,A,,,,,Space,keypress(Space),,,,silence,--- ---- ------ the ------- ---------- ------- ----------<br>--- --------- --- ----------- ------- ----- ------- ---<br>--------- ---- -- --- ---- -- --------- -- ---- -------<br>-- --------- ------ --- ----- ------ ---- --- --------- --<br>------ - ---- -- --- ----------- ------- ---- ----- -----<br>--- -------- - ------ ---- -- ----- ---- --- --- -----------<br>-- -------,167878.59999996424,167877.59999996424,167583.411,167590.59999996424,167600.077,167883.399,,3,the
