sender,sender_type,sender_id,timestamp,meta,,Blues,Classical,Country,Dance,Electronic,Folk,Gospel,Hip-Hop,Jazz,Latin,Musical/Film,New-age,Pop,Provo_ID,R&B,Rap,Reggae,Religious,Rock,Soul,Swing,Traditional,age,artist_name,correct,correctResponse,distraction,duration,education,ended_on,familiarity,gender,item,list,music_frequency,offensiveness,pleasantness,preference,response,response_action,snippet_file,song_name,song_rating,sound,text,time_commit,time_end,time_render,time_run,time_show,time_switch,url,word,word_ID
Instructions,html.Page,0_0,2021-11-05T14:24:26.340Z,"{""labjs_version"":""20.2.3"",""labjs_build"":{""flavor"":""production"",""commit"":""7ea907d66ca8aeef8054924ca5d82ffbe11e34e5""},""location"":""https://run.pavlovia.org/mvasilev/lab_music_e/"",""userAgent"":""Mozilla/5.0 (Windows NT 6.1; Win64; x64) AppleWebKit/537.36 (KHTML, like Gecko) Chrome/95.0.4638.69 Safari/537.36"",""platform"":""Win32"",""language"":""en-US"",""locale"":""en-US"",""timeZone"":""Europe/London"",""timezoneOffset"":0,""screen_width"":1920,""screen_height"":1080,""scroll_width"":1920,""scroll_height"":959,""window_innerWidth"":1920,""window_innerHeight"":1007,""devicePixelRatio"":1}",,,,,,,,,,,,,,,,,,,,,,,,,,,,,17672.044000002978,,form submission,,,,,,,,,,,,,,,,26390.5,26389.20000000298,8683.814,8691.5,8717.156,26388.644,{},,
Headphones,html.Page,0_1,2021-11-05T14:24:29.814Z,,,,,,,,,,,,,,,,,,,,,,,,,,,,,,3475.2560000059602,,form submission,,,,,,,,,,,,,,,,29864.40000000596,29863.90000000596,26371.973,26391.20000000298,26388.644,29872.908,,,
Holding screen,html.Screen,0_2_0_0,2021-11-05T14:24:39.813Z,,,,,,,,,,,,,,,,,,,,,,,,,,,,,,10002.452999999998,,timeout,,,,,,,,,,,,,,,,39864,39858.692,29856.236,29865.10000000894,29872.908,39875.361,,,
screen,html.Screen,0_2_0_1_0,2021-11-05T14:24:42.053Z,,,,,,,,,,,,,,,,53,,,,,,,,,,,,,,2227.339000002983,,response,,,99,,,,,,Space,keypress(Space),,,,,When -- ----- -- ------ - ------- --- ----------<br>------------- ------ ------ ---- ---- ------- ----- -- ----<br>-------- ------- -- ---------- --- - --- ----- ----- ----<br>---- --- --- ----- --- ---- ---- ------- ----- ---- -------<br>--- --- -- ----- -- --- ---- -- --- ---- -- ------ ------<br>--- ----- -- ----,42104.10000000894,42102.70000000298,39858.692,39864.40000000596,39875.361,42109.685,,0,When
screen,html.Screen,0_2_0_1_1,2021-11-05T14:24:42.844Z,,,,,,,,,,,,,,,,53,,,,,,,,,,,,,,784.5150000029826,,response,,,99,,,,,,Space,keypress(Space),,,,,---- it ----- -- ------ - ------- --- ----------<br>------------- ------ ------ ---- ---- ------- ----- -- ----<br>-------- ------- -- ---------- --- - --- ----- ----- ----<br>---- --- --- ----- --- ---- ---- ------- ----- ---- -------<br>--- --- -- ----- -- --- ---- -- --- ---- -- ------ ------<br>--- ----- -- ----,42895.10000000894,42894.20000000298,42093.013,42104.5,42109.685,42909.614,,1,it
screen,html.Screen,0_2_0_1_2,2021-11-05T14:24:43.516Z,,,,,,,,,,,,,,,,53,,,,,,,,,,,,,,656.6859999970184,,response,,,99,,,,,,Space,keypress(Space),,,,,---- -- comes -- ------ - ------- --- ----------<br>------------- ------ ------ ---- ---- ------- ----- -- ----<br>-------- ------- -- ---------- --- - --- ----- ----- ----<br>---- --- --- ----- --- ---- ---- ------- ----- ---- -------<br>--- --- -- ----- -- --- ---- -- --- ---- -- ------ ------<br>--- ----- -- ----,43567.10000000894,43566.29999999702,42892.944,42895.40000000596,42909.614,43576.614,,2,comes
screen,html.Screen,0_2_0_1_3,2021-11-05T14:24:44.012Z,,,,,,,,,,,,,,,,53,,,,,,,,,,,,,,485.58600000297884,,response,,,99,,,,,,Space,keypress(Space),,,,,---- -- ----- to ------ - ------- --- ----------<br>------------- ------ ------ ---- ---- ------- ----- -- ----<br>-------- ------- -- ---------- --- - --- ----- ----- ----<br>---- --- --- ----- --- ---- ---- ------- ----- ---- -------<br>--- --- -- ----- -- --- ---- -- --- ---- -- ------ ------<br>--- ----- -- ----,44063.10000000894,44062.20000000298,43559.943,43567.40000000596,43576.614,44076.746,,3,to
screen,html.Screen,0_2_0_1_4,2021-11-05T14:24:44.421Z,,,,,,,,,,,,,,,,53,,,,,,,,,,,,,,393.3540000089415,,response,,,99,,,,,,Space,keypress(Space),,,,,---- -- ----- -- having - ------- --- ----------<br>------------- ------ ------ ---- ---- ------- ----- -- ----<br>-------- ------- -- ---------- --- - --- ----- ----- ----<br>---- --- --- ----- --- ---- ---- ------- ----- ---- -------<br>--- --- -- ----- -- --- ---- -- --- ---- -- ------ ------<br>--- ----- -- ----,44471.29999999702,44470.10000000894,44060.075,44063.60000000894,44076.746,44476.732,,4,having
screen,html.Screen,0_2_0_1_5,2021-11-05T14:24:44.756Z,,,,,,,,,,,,,,,,53,,,,,,,,,,,,,,329.3680000089371,,response,,,99,,,,,,Space,keypress(Space),,,,,---- -- ----- -- ------ a ------- --- ----------<br>------------- ------ ------ ---- ---- ------- ----- -- ----<br>-------- ------- -- ---------- --- - --- ----- ----- ----<br>---- --- --- ----- --- ---- ---- ------- ----- ---- -------<br>--- --- -- ----- -- --- ---- -- --- ---- -- ------ ------<br>--- ----- -- ----,44807,44806.10000000894,44460.063,44471.60000000894,44476.732,44810.321,,5,a
screen,html.Screen,0_2_0_1_6,2021-11-05T14:24:45.132Z,,,,,,,,,,,,,,,,53,,,,,,,,,,,,,,371.77900000893715,,response,,,99,,,,,,Space,keypress(Space),,,,,---- -- ----- -- ------ - lasting --- ----------<br>------------- ------ ------ ---- ---- ------- ----- -- ----<br>-------- ------- -- ---------- --- - --- ----- ----- ----<br>---- --- --- ----- --- ---- ---- ------- ----- ---- -------<br>--- --- -- ----- -- --- ---- -- --- ---- -- ------ ------<br>--- ----- -- ----,45183.10000000894,45182.10000000894,44793.649,44807.60000000894,44810.321,45193.676,,6,lasting
screen,html.Screen,0_2_0_1_7,2021-11-05T14:24:45.484Z,,,,,,,,,,,,,,,,53,,,,,,,,,,,,,,340.3240000000005,,response,,,99,,,,,,Space,keypress(Space),,,,,---- -- ----- -- ------ - ------- and ----------<br>------------- ------ ------ ---- ---- ------- ----- -- ----<br>-------- ------- -- ---------- --- - --- ----- ----- ----<br>---- --- --- ----- --- ---- ---- ------- ----- ---- -------<br>--- --- -- ----- -- --- ---- -- --- ---- -- ------ ------<br>--- ----- -- ----,45535,45534,45177.006,45183.40000000596,45193.676,45543.868,,7,and
screen,html.Screen,0_2_0_1_8,2021-11-05T14:24:45.845Z,,,,,,,,,,,,,,,,53,,,,,,,,,,,,,,350.2320000089385,,response,,,99,,,,,,Space,keypress(Space),,,,,---- -- ----- -- ------ - ------- --- fulfilling<br>------------- ------ ------ ---- ---- ------- ----- -- ----<br>-------- ------- -- ---------- --- - --- ----- ----- ----<br>---- --- --- ----- --- ---- ---- ------- ----- ---- -------<br>--- --- -- ----- -- --- ---- -- --- ---- -- ------ ------<br>--- ----- -- ----,45895.29999999702,45894.10000000894,45527.196,45535.29999999702,45543.868,45910.54,,8,fulfilling
screen,html.Screen,0_2_0_1_9,2021-11-05T14:24:46.461Z,,,,,,,,,,,,,,,,53,,,,,,,,,,,,,,599.8600000059596,,response,,,99,,,,,,Space,keypress(Space),,,,,"---- -- ----- -- ------ - ------- --- ----------<br>relationship, ------ ------ ---- ---- ------- ----- -- ----<br>-------- ------- -- ---------- --- - --- ----- ----- ----<br>---- --- --- ----- --- ---- ---- ------- ----- ---- -------<br>--- --- -- ----- -- --- ---- -- --- ---- -- ------ ------<br>--- ----- -- ----",46511.20000000298,46510.40000000596,45893.87,45895.60000000894,45910.54,46527.416,,9,"relationship,"
screen,html.Screen,0_2_0_1_10,2021-11-05T14:24:46.868Z,,,,,,,,,,,,,,,,53,,,,,,,,,,,,,,390.58400000000256,,response,,,99,,,,,,Space,keypress(Space),,,,,---- -- ----- -- ------ - ------- --- ----------<br>------------- common ------ ---- ---- ------- ----- -- ----<br>-------- ------- -- ---------- --- - --- ----- ----- ----<br>---- --- --- ----- --- ---- ---- ------- ----- ---- -------<br>--- --- -- ----- -- --- ---- -- --- ---- -- ------ ------<br>--- ----- -- ----,46919,46918,46510.745,46511.5,46527.416,46927.459,,10,common
screen,html.Screen,0_2_0_1_11,2021-11-05T14:24:47.324Z,,,,,,,,,,,,,,,,53,,,,,,,,,,,,,,446.4410000059579,,response,,,99,,,,,,Space,keypress(Space),,,,,---- -- ----- -- ------ - ------- --- ----------<br>------------- ------ wisdom ---- ---- ------- ----- -- ----<br>-------- ------- -- ---------- --- - --- ----- ----- ----<br>---- --- --- ----- --- ---- ---- ------- ----- ---- -------<br>--- --- -- ----- -- --- ---- -- --- ---- -- ------ ------<br>--- ----- -- ----,47374.79999999702,47373.90000000596,46910.789,46919.29999999702,46927.459,47377.665,,11,wisdom
screen,html.Screen,0_2_0_1_12,2021-11-05T14:24:47.676Z,,,,,,,,,,,,,,,,53,,,,,,,,,,,,,,348.1349999970189,,response,,,99,,,,,,Space,keypress(Space),,,,,---- -- ----- -- ------ - ------- --- ----------<br>------------- ------ ------ says ---- ------- ----- -- ----<br>-------- ------- -- ---------- --- - --- ----- ----- ----<br>---- --- --- ----- --- ---- ---- ------- ----- ---- -------<br>--- --- -- ----- -- --- ---- -- --- ---- -- ------ ------<br>--- ----- -- ----,47726.79999999702,47725.79999999702,47360.994,47375,47377.665,47744.385,,12,says
screen,html.Screen,0_2_0_1_13,2021-11-05T14:24:47.988Z,,,,,,,,,,,,,,,,53,,,,,,,,,,,,,,293.61499999999796,,response,,,99,,,,,,Space,keypress(Space),,,,,---- -- ----- -- ------ - ------- --- ----------<br>------------- ------ ------ ---- that ------- ----- -- ----<br>-------- ------- -- ---------- --- - --- ----- ----- ----<br>---- --- --- ----- --- ---- ---- ------- ----- ---- -------<br>--- --- -- ----- -- --- ---- -- --- ---- -- ------ ------<br>--- ----- -- ----,48038.79999999702,48038,47727.715,47727.10000000894,47744.385,48044.346,,13,that
screen,html.Screen,0_2_0_1_14,2021-11-05T14:24:48.340Z,,,,,,,,,,,,,,,,53,,,,,,,,,,,,,,345.65400000000227,,response,,,99,,,,,,Space,keypress(Space),,,,,---- -- ----- -- ------ - ------- --- ----------<br>------------- ------ ------ ---- ---- feeling ----- -- ----<br>-------- ------- -- ---------- --- - --- ----- ----- ----<br>---- --- --- ----- --- ---- ---- ------- ----- ---- -------<br>--- --- -- ----- -- --- ---- -- --- ---- -- ------ ------<br>--- ----- -- ----,48390.79999999702,48390,48027.678,48039.10000000894,48044.346,48394.669,,14,feeling
screen,html.Screen,0_2_0_1_15,2021-11-05T14:24:48.644Z,,,,,,,,,,,,,,,,53,,,,,,,,,,,,,,299.2310000059588,,response,,,99,,,,,,Space,keypress(Space),,,,,---- -- ----- -- ------ - ------- --- ----------<br>------------- ------ ------ ---- ---- ------- close -- ----<br>-------- ------- -- ---------- --- - --- ----- ----- ----<br>---- --- --- ----- --- ---- ---- ------- ----- ---- -------<br>--- --- -- ----- -- --- ---- -- --- ---- -- ------ ------<br>--- ----- -- ----,48694.79999999702,48693.90000000596,48377.996,48391.10000000894,48394.669,48711.299,,15,close
screen,html.Screen,0_2_0_1_16,2021-11-05T14:24:48.964Z,,,,,,,,,,,,,,,,53,,,,,,,,,,,,,,302.6010000059614,,response,,,99,,,,,,Space,keypress(Space),,,,,---- -- ----- -- ------ - ------- --- ----------<br>------------- ------ ------ ---- ---- ------- ----- to ----<br>-------- ------- -- ---------- --- - --- ----- ----- ----<br>---- --- --- ----- --- ---- ---- ------- ----- ---- -------<br>--- --- -- ----- -- --- ---- -- --- ---- -- ------ ------<br>--- ----- -- ----,49014.60000000894,49013.90000000596,48694.629,48695,48711.299,49028.095,,16,to
screen,html.Screen,0_2_0_1_17,2021-11-05T14:24:49.244Z,,,,,,,,,,,,,,,,53,,,,,,,,,,,,,,265.7049999970186,,response,,,99,,,,,,Space,keypress(Space),,,,,---- -- ----- -- ------ - ------- --- ----------<br>------------- ------ ------ ---- ---- ------- ----- -- your<br>-------- ------- -- ---------- --- - --- ----- ----- ----<br>---- --- --- ----- --- ---- ---- ------- ----- ---- -------<br>--- --- -- ----- -- --- ---- -- --- ---- -- ------ ------<br>--- ----- -- ----,49294.60000000894,49293.79999999702,49011.424,49014.90000000596,49028.095,49311.509,,17,your
screen,html.Screen,0_2_0_1_18,2021-11-05T14:24:49.612Z,,,,,,,,,,,,,,,,53,,,,,,,,,,,,,,350.4910000000018,,response,,,99,,,,,,Space,keypress(Space),,,,,---- -- ----- -- ------ - ------- --- ----------<br>------------- ------ ------ ---- ---- ------- ----- -- ----<br>romantic ------- -- ---------- --- - --- ----- ----- ----<br>---- --- --- ----- --- ---- ---- ------- ----- ---- -------<br>--- --- -- ----- -- --- ---- -- --- ---- -- ------ ------<br>--- ----- -- ----,49662.70000000298,49662,49294.838,49294.90000000596,49311.509,49678.217,,18,romantic
screen,html.Screen,0_2_0_1_19,2021-11-05T14:24:49.956Z,,,,,,,,,,,,,,,,53,,,,,,,,,,,,,,327.58299999702285,,response,,,99,,,,,,Space,keypress(Space),,,,,---- -- ----- -- ------ - ------- --- ----------<br>------------- ------ ------ ---- ---- ------- ----- -- ----<br>-------- partner -- ---------- --- - --- ----- ----- ----<br>---- --- --- ----- --- ---- ---- ------- ----- ---- -------<br>--- --- -- ----- -- --- ---- -- --- ---- -- ------ ------<br>--- ----- -- ----,50006.60000000894,50005.79999999702,49661.547,49663,49678.217,50011.689,,19,partner
screen,html.Screen,0_2_0_1_20,2021-11-05T14:24:50.308Z,,,,,,,,,,,,,,,,53,,,,,,,,,,,,,,346.1109999970213,,response,,,99,,,,,,Space,keypress(Space),,,,,---- -- ----- -- ------ - ------- --- ----------<br>------------- ------ ------ ---- ---- ------- ----- -- ----<br>-------- ------- is ---------- --- - --- ----- ----- ----<br>---- --- --- ----- --- ---- ---- ------- ----- ---- -------<br>--- --- -- ----- -- --- ---- -- --- ---- -- ------ ------<br>--- ----- -- ----,50358.60000000894,50357.79999999702,49995.018,50006.90000000596,50011.689,50361.79,,20,is
screen,html.Screen,0_2_0_1_21,2021-11-05T14:24:50.732Z,,,,,,,,,,,,,,,,53,,,,,,,,,,,,,,420.0099999970189,,response,,,99,,,,,,Space,keypress(Space),,,,,---- -- ----- -- ------ - ------- --- ----------<br>------------- ------ ------ ---- ---- ------- ----- -- ----<br>-------- ------- -- paramount. --- - --- ----- ----- ----<br>---- --- --- ----- --- ---- ---- ------- ----- ---- -------<br>--- --- -- ----- -- --- ---- -- --- ---- -- ------ ------<br>--- ----- -- ----,50782.70000000298,50781.79999999702,50345.119,50358.79999999702,50361.79,50795.185,,21,paramount.
screen,html.Screen,0_2_0_1_22,2021-11-05T14:24:51.180Z,,,,,,,,,,,,,,,,53,,,,,,,,,,,,,,434.7150000059628,,response,,,99,,,,,,Space,keypress(Space),,,,,---- -- ----- -- ------ - ------- --- ----------<br>------------- ------ ------ ---- ---- ------- ----- -- ----<br>-------- ------- -- ---------- But - --- ----- ----- ----<br>---- --- --- ----- --- ---- ---- ------- ----- ---- -------<br>--- --- -- ----- -- --- ---- -- --- ---- -- ------ ------<br>--- ----- -- ----,51230.70000000298,51229.90000000596,50778.515,50783.10000000894,50795.185,51245.344,,22,But
screen,html.Screen,0_2_0_1_23,2021-11-05T14:24:51.588Z,,,,,,,,,,,,,,,,53,,,,,,,,,,,,,,392.55600000596314,,response,,,99,,,,,,Space,keypress(Space),,,,,---- -- ----- -- ------ - ------- --- ----------<br>------------- ------ ------ ---- ---- ------- ----- -- ----<br>-------- ------- -- ---------- --- a --- ----- ----- ----<br>---- --- --- ----- --- ---- ---- ------- ----- ---- -------<br>--- --- -- ----- -- --- ---- -- --- ---- -- ------ ------<br>--- ----- -- ----,51638.70000000298,51637.90000000596,51228.673,51230.90000000596,51245.344,51645.449,,23,a
screen,html.Screen,0_2_0_1_24,2021-11-05T14:24:52.004Z,,,,,,,,,,,,,,,,53,,,,,,,,,,,,,,408.2510000029797,,response,,,99,,,,,,Space,keypress(Space),,,,,---- -- ----- -- ------ - ------- --- ----------<br>------------- ------ ------ ---- ---- ------- ----- -- ----<br>-------- ------- -- ---------- --- - new ----- ----- ----<br>---- --- --- ----- --- ---- ---- ------- ----- ---- -------<br>--- --- -- ----- -- --- ---- -- --- ---- -- ------ ------<br>--- ----- -- ----,52054.5,52053.70000000298,51628.778,51638.90000000596,51645.449,52062.229,,24,new
screen,html.Screen,0_2_0_1_25,2021-11-05T14:24:52.380Z,,,,,,,,,,,,,,,,53,,,,,,,,,,,,,,367.9710000029809,,response,,,99,,,,,,Space,keypress(Space),,,,,---- -- ----- -- ------ - ------- --- ----------<br>------------- ------ ------ ---- ---- ------- ----- -- ----<br>-------- ------- -- ---------- --- - --- study ----- ----<br>---- --- --- ----- --- ---- ---- ------- ----- ---- -------<br>--- --- -- ----- -- --- ---- -- --- ---- -- ------ ------<br>--- ----- -- ----,52431,52430.20000000298,52045.558,52054.70000000298,52062.229,52445.669,,25,study
screen,html.Screen,0_2_0_1_26,2021-11-05T14:24:52.764Z,,,,,,,,,,,,,,,,53,,,,,,,,,,,,,,368.1309999970181,,response,,,99,,,,,,Space,keypress(Space),,,,,---- -- ----- -- ------ - ------- --- ----------<br>------------- ------ ------ ---- ---- ------- ----- -- ----<br>-------- ------- -- ---------- --- - --- ----- finds ----<br>---- --- --- ----- --- ---- ---- ------- ----- ---- -------<br>--- --- -- ----- -- --- ---- -- --- ---- -- ------ ------<br>--- ----- -- ----,52814.5,52813.79999999702,52428.998,52431.29999999702,52445.669,52829.074,,26,finds
screen,html.Screen,0_2_0_1_27,2021-11-05T14:24:53.132Z,,,,,,,,,,,,,,,,53,,,,,,,,,,,,,,352.72599999701924,,response,,,99,,,,,,Space,keypress(Space),,,,,---- -- ----- -- ------ - ------- --- ----------<br>------------- ------ ------ ---- ---- ------- ----- -- ----<br>-------- ------- -- ---------- --- - --- ----- ----- that<br>---- --- --- ----- --- ---- ---- ------- ----- ---- -------<br>--- --- -- ----- -- --- ---- -- --- ---- -- ------ ------<br>--- ----- -- ----,53182.5,53181.79999999702,52812.404,52814.79999999702,52829.074,53195.82,,27,that
screen,html.Screen,0_2_0_1_28,2021-11-05T14:24:53.588Z,,,,,,,,,,,,,,,,53,,,,,,,,,,,,,,441.97999999702006,,response,,,99,,,,,,Space,keypress(Space),,,,,---- -- ----- -- ------ - ------- --- ----------<br>------------- ------ ------ ---- ---- ------- ----- -- ----<br>-------- ------- -- ---------- --- - --- ----- ----- ----<br>it's --- --- ----- --- ---- ---- ------- ----- ---- -------<br>--- --- -- ----- -- --- ---- -- --- ---- -- ------ ------<br>--- ----- -- ----,53638.60000000894,53637.79999999702,53179.15,53182.79999999702,53195.82,53646.051,,28,it's
screen,html.Screen,0_2_0_1_29,2021-11-05T14:24:53.980Z,,,,,,,,,,,,,,,,53,,,,,,,,,,,,,,383.7489999970203,,response,,,99,,,,,,Space,keypress(Space),,,,,---- -- ----- -- ------ - ------- --- ----------<br>------------- ------ ------ ---- ---- ------- ----- -- ----<br>-------- ------- -- ---------- --- - --- ----- ----- ----<br>---- not --- ----- --- ---- ---- ------- ----- ---- -------<br>--- --- -- ----- -- --- ---- -- --- ---- -- ------ ------<br>--- ----- -- ----,54030.70000000298,54029.79999999702,53629.379,53638.79999999702,53646.051,54046.056,,29,not
screen,html.Screen,0_2_0_1_30,2021-11-05T14:24:54.324Z,,,,,,,,,,,,,,,,53,,,,,,,,,,,,,,327.6440000029834,,response,,,99,,,,,,Space,keypress(Space),,,,,---- -- ----- -- ------ - ------- --- ----------<br>------------- ------ ------ ---- ---- ------- ----- -- ----<br>-------- ------- -- ---------- --- - --- ----- ----- ----<br>---- --- how ----- --- ---- ---- ------- ----- ---- -------<br>--- --- -- ----- -- --- ---- -- --- ---- -- ------ ------<br>--- ----- -- ----,54374.60000000894,54373.70000000298,54029.386,54030.90000000596,54046.056,54379.475,,30,how
screen,html.Screen,0_2_0_1_31,2021-11-05T14:24:54.644Z,,,,,,,,,,,,,,,,53,,,,,,,,,,,,,,314.2250000029817,,response,,,99,,,,,,Space,keypress(Space),,,,,---- -- ----- -- ------ - ------- --- ----------<br>------------- ------ ------ ---- ---- ------- ----- -- ----<br>-------- ------- -- ---------- --- - --- ----- ----- ----<br>---- --- --- close --- ---- ---- ------- ----- ---- -------<br>--- --- -- ----- -- --- ---- -- --- ---- -- ------ ------<br>--- ----- -- ----,54694.5,54693.70000000298,54362.805,54374.79999999702,54379.475,54696.299,,31,close
screen,html.Screen,0_2_0_1_32,2021-11-05T14:24:54.996Z,,,,,,,,,,,,,,,,53,,,,,,,,,,,,,,349.40100000298116,,response,,,99,,,,,,Space,keypress(Space),,,,,---- -- ----- -- ------ - ------- --- ----------<br>------------- ------ ------ ---- ---- ------- ----- -- ----<br>-------- ------- -- ---------- --- - --- ----- ----- ----<br>---- --- --- ----- you ---- ---- ------- ----- ---- -------<br>--- --- -- ----- -- --- ---- -- --- ---- -- ------ ------<br>--- ----- -- ----,55046.5,55045.70000000298,54679.628,54694.70000000298,54696.299,55063.006,,32,you
screen,html.Screen,0_2_0_1_33,2021-11-05T14:24:55.324Z,,,,,,,,,,,,,,,,53,,,,,,,,,,,,,,310.694000002979,,response,,,99,,,,,,Space,keypress(Space),,,,,---- -- ----- -- ------ - ------- --- ----------<br>------------- ------ ------ ---- ---- ------- ----- -- ----<br>-------- ------- -- ---------- --- - --- ----- ----- ----<br>---- --- --- ----- --- feel ---- ------- ----- ---- -------<br>--- --- -- ----- -- --- ---- -- --- ---- -- ------ ------<br>--- ----- -- ----,55374.40000000596,55373.70000000298,55046.336,55046.79999999702,55063.006,55379.789,,33,feel
screen,html.Screen,0_2_0_1_34,2021-11-05T14:24:55.660Z,,,,,,,,,,,,,,,,53,,,,,,,,,,,,,,329.9110000029832,,response,,,99,,,,,,Space,keypress(Space),,,,,---- -- ----- -- ------ - ------- --- ----------<br>------------- ------ ------ ---- ---- ------- ----- -- ----<br>-------- ------- -- ---------- --- - --- ----- ----- ----<br>---- --- --- ----- --- ---- that ------- ----- ---- -------<br>--- --- -- ----- -- --- ---- -- --- ---- -- ------ ------<br>--- ----- -- ----,55710.5,55709.70000000298,55363.118,55374.79999999702,55379.789,55713.051,,34,that
screen,html.Screen,0_2_0_1_35,2021-11-05T14:24:56.004Z,,,,,,,,,,,,,,,,53,,,,,,,,,,,,,,340.4490000000005,,response,,,99,,,,,,Space,keypress(Space),,,,,---- -- ----- -- ------ - ------- --- ----------<br>------------- ------ ------ ---- ---- ------- ----- -- ----<br>-------- ------- -- ---------- --- - --- ----- ----- ----<br>---- --- --- ----- --- ---- ---- matters ----- ---- -------<br>--- --- -- ----- -- --- ---- -- --- ---- -- ------ ------<br>--- ----- -- ----,56054.60000000894,56053.5,55696.383,55710.70000000298,55713.051,56063.378,,35,matters
screen,html.Screen,0_2_0_1_36,2021-11-05T14:24:56.364Z,,,,,,,,,,,,,,,,53,,,,,,,,,,,,,,350.2220000089437,,response,,,99,,,,,,Space,keypress(Space),,,,,"---- -- ----- -- ------ - ------- --- ----------<br>------------- ------ ------ ---- ---- ------- ----- -- ----<br>-------- ------- -- ---------- --- - --- ----- ----- ----<br>---- --- --- ----- --- ---- ---- ------- most, ---- -------<br>--- --- -- ----- -- --- ---- -- --- ---- -- ------ ------<br>--- ----- -- ----",56414.70000000298,56413.60000000894,56046.705,56054.79999999702,56063.378,56430.042,,36,"most,"
screen,html.Screen,0_2_0_1_37,2021-11-05T14:24:56.700Z,,,,,,,,,,,,,,,,53,,,,,,,,,,,,,,319.5580000089394,,response,,,99,,,,,,Space,keypress(Space),,,,,---- -- ----- -- ------ - ------- --- ----------<br>------------- ------ ------ ---- ---- ------- ----- -- ----<br>-------- ------- -- ---------- --- - --- ----- ----- ----<br>---- --- --- ----- --- ---- ---- ------- ----- it's -------<br>--- --- -- ----- -- --- ---- -- --- ---- -- ------ ------<br>--- ----- -- ----,56750.40000000596,56749.60000000894,56413.372,56414.90000000596,56430.042,56763.46,,37,it's
screen,html.Screen,0_2_0_1_38,2021-11-05T14:24:57.052Z,,,,,,,,,,,,,,,,53,,,,,,,,,,,,,,338.14000000894157,,response,,,99,,,,,,Space,keypress(Space),,,,,---- -- ----- -- ------ - ------- --- ----------<br>------------- ------ ------ ---- ---- ------- ----- -- ----<br>-------- ------- -- ---------- --- - --- ----- ----- ----<br>---- --- --- ----- --- ---- ---- ------- ----- ---- whether<br>--- --- -- ----- -- --- ---- -- --- ---- -- ------ ------<br>--- ----- -- ----,57102.29999999702,57101.60000000894,56746.79,56750.70000000298,56763.46,57113.605,,38,whether
screen,html.Screen,0_2_0_1_39,2021-11-05T14:24:57.428Z,,,,,,,,,,,,,,,,53,,,,,,,,,,,,,,363.8949999999968,,response,,,99,,,,,,Space,keypress(Space),,,,,---- -- ----- -- ------ - ------- --- ----------<br>------------- ------ ------ ---- ---- ------- ----- -- ----<br>-------- ------- -- ---------- --- - --- ----- ----- ----<br>---- --- --- ----- --- ---- ---- ------- ----- ---- -------<br>you --- -- ----- -- --- ---- -- --- ---- -- ------ ------<br>--- ----- -- ----,57478.29999999702,57477.5,57096.934,57102.60000000894,57113.605,57480.357,,39,you
screen,html.Screen,0_2_0_1_40,2021-11-05T14:24:57.804Z,,,,,,,,,,,,,,,,53,,,,,,,,,,,,,,373.2430000089371,,response,,,99,,,,,,Space,keypress(Space),,,,,---- -- ----- -- ------ - ------- --- ----------<br>------------- ------ ------ ---- ---- ------- ----- -- ----<br>-------- ------- -- ---------- --- - --- ----- ----- ----<br>---- --- --- ----- --- ---- ---- ------- ----- ---- -------<br>--- are -- ----- -- --- ---- -- --- ---- -- ------ ------<br>--- ----- -- ----,57854.40000000596,57853.60000000894,57463.686,57478.60000000894,57480.357,57863.672,,40,are
screen,html.Screen,0_2_0_1_41,2021-11-05T14:24:58.116Z,,,,,,,,,,,,,,,,53,,,,,,,,,,,,,,301.82800000000134,,response,,,99,,,,,,Space,keypress(Space),,,,,---- -- ----- -- ------ - ------- --- ----------<br>------------- ------ ------ ---- ---- ------- ----- -- ----<br>-------- ------- -- ---------- --- - --- ----- ----- ----<br>---- --- --- ----- --- ---- ---- ------- ----- ---- -------<br>--- --- as ----- -- --- ---- -- --- ---- -- ------ ------<br>--- ----- -- ----,58166.29999999702,58165.5,57847.003,57854.60000000894,57863.672,58180.582,,41,as
screen,html.Screen,0_2_0_1_42,2021-11-05T14:24:58.420Z,,,,,,,,,,,,,,,,53,,,,,,,,,,,,,,288.91799999999785,,response,,,99,,,,,,Space,keypress(Space),,,,,---- -- ----- -- ------ - ------- --- ----------<br>------------- ------ ------ ---- ---- ------- ----- -- ----<br>-------- ------- -- ---------- --- - --- ----- ----- ----<br>---- --- --- ----- --- ---- ---- ------- ----- ---- -------<br>--- --- -- close -- --- ---- -- --- ---- -- ------ ------<br>--- ----- -- ----,58470.29999999702,58469.5,58163.91,58166.5,58180.582,58480.592,,42,close
screen,html.Screen,0_2_0_1_43,2021-11-05T14:24:58.756Z,,,,,,,,,,,,,,,,53,,,,,,,,,,,,,,325.0080000089438,,response,,,99,,,,,,Space,keypress(Space),,,,,---- -- ----- -- ------ - ------- --- ----------<br>------------- ------ ------ ---- ---- ------- ----- -- ----<br>-------- ------- -- ---------- --- - --- ----- ----- ----<br>---- --- --- ----- --- ---- ---- ------- ----- ---- -------<br>--- --- -- ----- as --- ---- -- --- ---- -- ------ ------<br>--- ----- -- ----,58806.29999999702,58805.60000000894,58463.922,58470.5,58480.592,58814.061,,43,as
screen,html.Screen,0_2_0_1_44,2021-11-05T14:24:59.076Z,,,,,,,,,,,,,,,,53,,,,,,,,,,,,,,311.5390000089392,,response,,,99,,,,,,Space,keypress(Space),,,,,---- -- ----- -- ------ - ------- --- ----------<br>------------- ------ ------ ---- ---- ------- ----- -- ----<br>-------- ------- -- ---------- --- - --- ----- ----- ----<br>---- --- --- ----- --- ---- ---- ------- ----- ---- -------<br>--- --- -- ----- -- you ---- -- --- ---- -- ------ ------<br>--- ----- -- ----,59126.29999999702,59125.60000000894,58797.39,58806.60000000894,58814.061,59130.813,,44,you
screen,html.Screen,0_2_0_1_45,2021-11-05T14:24:59.388Z,,,,,,,,,,,,,,,,53,,,,,,,,,,,,,,306.6869999999981,,response,,,99,,,,,,Space,keypress(Space),,,,,---- -- ----- -- ------ - ------- --- ----------<br>------------- ------ ------ ---- ---- ------- ----- -- ----<br>-------- ------- -- ---------- --- - --- ----- ----- ----<br>---- --- --- ----- --- ---- ---- ------- ----- ---- -------<br>--- --- -- ----- -- --- want -- --- ---- -- ------ ------<br>--- ----- -- ----,59438.29999999702,59437.5,59114.142,59126.60000000894,59130.813,59447.429,,45,want
screen,html.Screen,0_2_0_1_46,2021-11-05T14:24:59.756Z,,,,,,,,,,,,,,,,53,,,,,,,,,,,,,,358.07100000000355,,response,,,99,,,,,,Space,keypress(Space),,,,,---- -- ----- -- ------ - ------- --- ----------<br>------------- ------ ------ ---- ---- ------- ----- -- ----<br>-------- ------- -- ---------- --- - --- ----- ----- ----<br>---- --- --- ----- --- ---- ---- ------- ----- ---- -------<br>--- --- -- ----- -- --- ---- to --- ---- -- ------ ------<br>--- ----- -- ----,59806.29999999702,59805.5,59430.761,59438.5,59447.429,59814.372,,46,to
screen,html.Screen,0_2_0_1_47,2021-11-05T14:25:00.142Z,,,,,,,,,,,,,,,,53,,,,,,,,,,,,,,375.127999999997,,response,,,99,,,,,,Space,keypress(Space),,,,,"---- -- ----- -- ------ - ------- --- ----------<br>------------- ------ ------ ---- ---- ------- ----- -- ----<br>-------- ------- -- ---------- --- - --- ----- ----- ----<br>---- --- --- ----- --- ---- ---- ------- ----- ---- -------<br>--- --- -- ----- -- --- ---- -- be, ---- -- ------ ------<br>--- ----- -- ----",60190.29999999702,60189.5,59797.7,59806.5,59814.372,60197.756,,47,"be,"
screen,html.Screen,0_2_0_1_48,2021-11-05T14:25:00.518Z,,,,,,,,,,,,,,,,53,,,,,,,,,,,,,,367.64400000595924,,response,,,99,,,,,,Space,keypress(Space),,,,,---- -- ----- -- ------ - ------- --- ----------<br>------------- ------ ------ ---- ---- ------- ----- -- ----<br>-------- ------- -- ---------- --- - --- ----- ----- ----<br>---- --- --- ----- --- ---- ---- ------- ----- ---- -------<br>--- --- -- ----- -- --- ---- -- --- even -- ------ ------<br>--- ----- -- ----,60566.20000000298,60565.40000000596,60181.085,60190.5,60197.756,60581.192,,48,even
screen,html.Screen,0_2_0_1_49,2021-11-05T14:25:00.862Z,,,,,,,,,,,,,,,,53,,,,,,,,,,,,,,328.30799999999726,,response,,,99,,,,,,Space,keypress(Space),,,,,---- -- ----- -- ------ - ------- --- ----------<br>------------- ------ ------ ---- ---- ------- ----- -- ----<br>-------- ------- -- ---------- --- - --- ----- ----- ----<br>---- --- --- ----- --- ---- ---- ------- ----- ---- -------<br>--- --- -- ----- -- --- ---- -- --- ---- if ------ ------<br>--- ----- -- ----,60910.20000000298,60909.5,60564.521,60566.40000000596,60581.192,60914.617,,49,if
screen,html.Screen,0_2_0_1_50,2021-11-05T14:25:01.262Z,,,,,,,,,,,,,,,,53,,,,,,,,,,,,,,394.7830000059621,,response,,,99,,,,,,Space,keypress(Space),,,,,---- -- ----- -- ------ - ------- --- ----------<br>------------- ------ ------ ---- ---- ------- ----- -- ----<br>-------- ------- -- ---------- --- - --- ----- ----- ----<br>---- --- --- ----- --- ---- ---- ------- ----- ---- -------<br>--- --- -- ----- -- --- ---- -- --- ---- -- that's ------<br>--- ----- -- ----,61310.20000000298,61309.40000000596,60897.946,60910.5,60914.617,61314.687,,50,that's
screen,html.Screen,0_2_0_1_51,2021-11-05T14:25:01.606Z,,,,,,,,,,,,,,,,53,,,,,,,,,,,,,,338.7130000059624,,response,,,99,,,,,,Space,keypress(Space),,,,,---- -- ----- -- ------ - ------- --- ----------<br>------------- ------ ------ ---- ---- ------- ----- -- ----<br>-------- ------- -- ---------- --- - --- ----- ----- ----<br>---- --- --- ----- --- ---- ---- ------- ----- ---- -------<br>--- --- -- ----- -- --- ---- -- --- ---- -- ------ really<br>--- ----- -- ----,61654.20000000298,61653.40000000596,61298.017,61310.40000000596,61314.687,61664.811,,51,really
screen,html.Screen,0_2_0_1_52,2021-11-05T14:25:01.966Z,,,,,,,,,,,,,,,,53,,,,,,,,,,,,,,348.58900000595895,,response,,,99,,,,,,Space,keypress(Space),,,,,---- -- ----- -- ------ - ------- --- ----------<br>------------- ------ ------ ---- ---- ------- ----- -- ----<br>-------- ------- -- ---------- --- - --- ----- ----- ----<br>---- --- --- ----- --- ---- ---- ------- ----- ---- -------<br>--- --- -- ----- -- --- ---- -- --- ---- -- ------ ------<br>not ----- -- ----,62014.20000000298,62013.40000000596,61648.14,61654.40000000596,61664.811,62031.575,,52,not
screen,html.Screen,0_2_0_1_53,2021-11-05T14:25:02.318Z,,,,,,,,,,,,,,,,53,,,,,,,,,,,,,,333.8250000059634,,response,,,99,,,,,,Space,keypress(Space),,,,,---- -- ----- -- ------ - ------- --- ----------<br>------------- ------ ------ ---- ---- ------- ----- -- ----<br>-------- ------- -- ---------- --- - --- ----- ----- ----<br>---- --- --- ----- --- ---- ---- ------- ----- ---- -------<br>--- --- -- ----- -- --- ---- -- --- ---- -- ------ ------<br>--- close -- ----,62366.20000000298,62365.40000000596,62014.904,62014.40000000596,62031.575,62381.615,,53,close
screen,html.Screen,0_2_0_1_54,2021-11-05T14:25:02.678Z,,,,,,,,,,,,,,,,53,,,,,,,,,,,,,,343.98500000894273,,response,,,99,,,,,,Space,keypress(Space),,,,,---- -- ----- -- ------ - ------- --- ----------<br>------------- ------ ------ ---- ---- ------- ----- -- ----<br>-------- ------- -- ---------- --- - --- ----- ----- ----<br>---- --- --- ----- --- ---- ---- ------- ----- ---- -------<br>--- --- -- ----- -- --- ---- -- --- ---- -- ------ ------<br>--- ----- at ----,62726.29999999702,62725.60000000894,62364.945,62366.40000000596,62381.615,62731.787,,54,at
screen,html.Screen,0_2_0_1_55,2021-11-05T14:25:03.086Z,,,,,,,,,,,,,,,,53,,,,,,,,,,,,,,401.61300000596384,,response,,,99,,,,,,Space,keypress(Space),,,,,---- -- ----- -- ------ - ------- --- ----------<br>------------- ------ ------ ---- ---- ------- ----- -- ----<br>-------- ------- -- ---------- --- - --- ----- ----- ----<br>---- --- --- ----- --- ---- ---- ------- ----- ---- -------<br>--- --- -- ----- -- --- ---- -- --- ---- -- ------ ------<br>--- ----- -- all.,63134.20000000298,63133.40000000596,62715.116,62726.60000000894,62731.787,63148.548,,55,all.
Item 99,flow.Loop,0_2_0_1,2021-11-05T14:25:03.091Z,,,,,,,,,,,,,,,,,,,,,,,,,,,,,,23258.039000005963,,completion,,,,E,,,,,,,,,,silence,,63138.5,63133.40000000596,39858.692,39864.40000000596,39875.361,63148.548,,,
Question 1,html.Screen,0_2_0_2,2021-11-05T14:25:05.966Z,,,,,,,,,,,,,,,,,,,,,,,,,,,true,FALSE,,2864.4519999999975,,response,,,99,E,,,,,FALSE,click #choice-2,,,,silence,,66014.40000000596,66013,63131.877,63138.90000000596,63148.548,66015.947,,,
Question 2,html.Screen,0_2_0_3,2021-11-05T14:25:09.230Z,,,,,,,,,,,,,,,,,,,,,,,,,,,true,TRUE,,3260.9530000059603,,response,,,99,E,,,,,TRUE,click #choice-1,,,,silence,,69278.10000000894,69276.90000000596,65999.277,66014.70000000298,66015.947,69283.479,,,
Item 99,flow.Sequence,0_2_0,2021-11-05T14:25:09.231Z,,,,,,,,,,,,,,,,,,,,,,,,,,,,,,39403.992000005965,,completion,,,,,,,,,,,,,,,,69278.40000000596,69276.90000000596,29856.236,29865,29872.908,69283.479,,,
Holding screen,html.Screen,0_2_1_0,2021-11-05T14:25:19.223Z,,,,,,,,,,,,,,,,,,,,,,,,,,,,,,10002.663,,timeout,,,,,,,,,,,,,,,,79270.60000000894,79269.471,69266.808,69278.79999999702,69283.479,79286.142,,,
screen,html.Screen,0_2_1_1_0,2021-11-05T14:25:20.382Z,,,,,,,,,,,,,,,,54,,,,,,,,,,,,,,1142.9580000089336,,response,,,100,,,,,,Space,keypress(Space),,,,,At --- ---- --- ------ ----- ------- ---- -- --- ------- --<br>------- ---------- ------ -- ----- -- ----- -- ---- ------<br>--- ----- --- --- ------ -------- ----- --- ------ ----- --<br>----- ----- ---------- --- --- ------ ------ ---- -- ------<br>------- --- ------ ----- --- ---- ------- -- ---- --- --<br>------- ------,80429.90000000596,80429.10000000894,79269.471,79270.90000000596,79286.142,80436.649,,0,At
screen,html.Screen,0_2_1_1_1,2021-11-05T14:25:20.893Z,,,,,,,,,,,,,,,,54,,,,,,,,,,,,,,503.8509999999951,,response,,,100,,,,,,Space,keypress(Space),,,,,-- the ---- --- ------ ----- ------- ---- -- --- ------- --<br>------- ---------- ------ -- ----- -- ----- -- ---- ------<br>--- ----- --- --- ------ -------- ----- --- ------ ----- --<br>----- ----- ---------- --- --- ------ ------ ---- -- ------<br>------- --- ------ ----- --- ---- ------- -- ---- --- --<br>------- ------,80941.29999999702,80940.5,80419.977,80430.20000000298,80436.649,80953.271,,1,the
screen,html.Screen,0_2_1_1_2,2021-11-05T14:25:21.293Z,,,,,,,,,,,,,,,,54,,,,,,,,,,,,,,387.22900000000664,,response,,,100,,,,,,Space,keypress(Space),,,,,-- --- time --- ------ ----- ------- ---- -- --- ------- --<br>------- ---------- ------ -- ----- -- ----- -- ---- ------<br>--- ----- --- --- ------ -------- ----- --- ------ ----- --<br>----- ----- ---------- --- --- ------ ------ ---- -- ------<br>------- --- ------ ----- --- ---- ------- -- ---- --- --<br>------- ------,81341.29999999702,81340.5,80936.601,80941.5,80953.271,81353.392,,2,time
screen,html.Screen,0_2_1_1_3,2021-11-05T14:25:21.677Z,,,,,,,,,,,,,,,,54,,,,,,,,,,,,,,371.00800000595336,,response,,,100,,,,,,Space,keypress(Space),,,,,-- --- ---- the ------ ----- ------- ---- -- --- ------- --<br>------- ---------- ------ -- ----- -- ----- -- ---- ------<br>--- ----- --- --- ------ -------- ----- --- ------ ----- --<br>----- ----- ---------- --- --- ------ ------ ---- -- ------<br>------- --- ------ ----- --- ---- ------- -- ---- --- --<br>------- ------,81725.20000000298,81724.40000000596,81336.722,81341.60000000894,81353.392,81736.878,,3,the
screen,html.Screen,0_2_1_1_4,2021-11-05T14:25:22.213Z,,,,,,,,,,,,,,,,54,,,,,,,,,,,,,,523.5220000059635,,response,,,100,,,,,,Space,keypress(Space),,,,,-- --- ---- --- French ----- ------- ---- -- --- ------- --<br>------- ---------- ------ -- ----- -- ----- -- ---- ------<br>--- ----- --- --- ------ -------- ----- --- ------ ----- --<br>----- ----- ---------- --- --- ------ ------ ---- -- ------<br>------- --- ------ ----- --- ---- ------- -- ---- --- --<br>------- ------,82261.29999999702,82260.40000000596,81720.207,81725.60000000894,81736.878,82270.359,,4,French
screen,html.Screen,0_2_1_1_5,2021-11-05T14:25:22.694Z,,,,,,,,,,,,,,,,54,,,,,,,,,,,,,,470.14100000000326,,response,,,100,,,,,,Space,keypress(Space),,,,,-- --- ---- --- ------ crown ------- ---- -- --- ------- --<br>------- ---------- ------ -- ----- -- ----- -- ---- ------<br>--- ----- --- --- ------ -------- ----- --- ------ ----- --<br>----- ----- ---------- --- --- ------ ------ ---- -- ------<br>------- --- ------ ----- --- ---- ------- -- ---- --- --<br>------- ------,82741.40000000596,82740.5,82253.688,82261.5,82270.359,82753.817,,5,crown
screen,html.Screen,0_2_1_1_6,2021-11-05T14:25:23.133Z,,,,,,,,,,,,,,,,54,,,,,,,,,,,,,,426.583000005965,,response,,,100,,,,,,Space,keypress(Space),,,,,-- --- ---- --- ------ ----- secured ---- -- --- ------- --<br>------- ---------- ------ -- ----- -- ----- -- ---- ------<br>--- ----- --- --- ------ -------- ----- --- ------ ----- --<br>----- ----- ---------- --- --- ------ ------ ---- -- ------<br>------- --- ------ ----- --- ---- ------- -- ---- --- --<br>------- ------,83181.29999999702,83180.40000000596,82737.146,82741.70000000298,82753.817,83187.221,,6,secured
screen,html.Screen,0_2_1_1_7,2021-11-05T14:25:23.669Z,,,,,,,,,,,,,,,,54,,,,,,,,,,,,,,529.278999999995,,response,,,100,,,,,,Space,keypress(Space),,,,,-- --- ---- --- ------ ----- ------- much -- --- ------- --<br>------- ---------- ------ -- ----- -- ----- -- ---- ------<br>--- ----- --- --- ------ -------- ----- --- ------ ----- --<br>----- ----- ---------- --- --- ------ ------ ---- -- ------<br>------- --- ------ ----- --- ---- ------- -- ---- --- --<br>------- ------,83717.40000000596,83716.5,83170.551,83182.29999999702,83187.221,83720.746,,7,much
screen,html.Screen,0_2_1_1_8,2021-11-05T14:25:24.037Z,,,,,,,,,,,,,,,,54,,,,,,,,,,,,,,363.6540000059613,,response,,,100,,,,,,Space,keypress(Space),,,,,-- --- ---- --- ------ ----- ------- ---- of --- ------- --<br>------- ---------- ------ -- ----- -- ----- -- ---- ------<br>--- ----- --- --- ------ -------- ----- --- ------ ----- --<br>----- ----- ---------- --- --- ------ ------ ---- -- ------<br>------- --- ------ ----- --- ---- ------- -- ---- --- --<br>------- ------,84085.20000000298,84084.40000000596,83704.075,83717.70000000298,83720.746,84087.507,,8,of
screen,html.Screen,0_2_1_1_9,2021-11-05T14:25:24.365Z,,,,,,,,,,,,,,,,54,,,,,,,,,,,,,,324.792999997022,,response,,,100,,,,,,Space,keypress(Space),,,,,-- --- ---- --- ------ ----- ------- ---- -- its ------- --<br>------- ---------- ------ -- ----- -- ----- -- ---- ------<br>--- ----- --- --- ------ -------- ----- --- ------ ----- --<br>----- ----- ---------- --- --- ------ ------ ---- -- ------<br>------- --- ------ ----- --- ---- ------- -- ---- --- --<br>------- ------,84413.20000000298,84412.29999999702,84070.836,84085.5,84087.507,84420.932,,9,its
screen,html.Screen,0_2_1_1_10,2021-11-05T14:25:24.933Z,,,,,,,,,,,,,,,,54,,,,,,,,,,,,,,559.4680000059598,,response,,,100,,,,,,Space,keypress(Space),,,,,-- --- ---- --- ------ ----- ------- ---- -- --- revenue --<br>------- ---------- ------ -- ----- -- ----- -- ---- ------<br>--- ----- --- --- ------ -------- ----- --- ------ ----- --<br>----- ----- ---------- --- --- ------ ------ ---- -- ------<br>------- --- ------ ----- --- ---- ------- -- ---- --- --<br>------- ------,84981.20000000298,84980.40000000596,84404.261,84413.40000000596,84420.932,84987.682,,10,revenue
screen,html.Screen,0_2_1_1_11,2021-11-05T14:25:25.349Z,,,,,,,,,,,,,,,,54,,,,,,,,,,,,,,408.71800000595977,,response,,,100,,,,,,Space,keypress(Space),,,,,-- --- ---- --- ------ ----- ------- ---- -- --- ------- by<br>------- ---------- ------ -- ----- -- ----- -- ---- ------<br>--- ----- --- --- ------ -------- ----- --- ------ ----- --<br>----- ----- ---------- --- --- ------ ------ ---- -- ------<br>------- --- ------ ----- --- ---- ------- -- ---- --- --<br>------- ------,85397.10000000894,85396.40000000596,84971.012,84981.5,84987.682,85404.557,,11,by
screen,html.Screen,0_2_1_1_12,2021-11-05T14:25:26.013Z,,,,,,,,,,,,,,,,54,,,,,,,,,,,,,,655.7429999970191,,response,,,100,,,,,,Space,keypress(Space),,,,,-- --- ---- --- ------ ----- ------- ---- -- --- ------- --<br>issuing ---------- ------ -- ----- -- ----- -- ---- ------<br>--- ----- --- --- ------ -------- ----- --- ------ ----- --<br>----- ----- ---------- --- --- ------ ------ ---- -- ------<br>------- --- ------ ----- --- ---- ------- -- ---- --- --<br>------- ------,86061.20000000298,86060.29999999702,85387.886,85397.40000000596,85404.557,86071.319,,12,issuing
screen,html.Screen,0_2_1_1_13,2021-11-05T14:25:26.805Z,,,,,,,,,,,,,,,,54,,,,,,,,,,,,,,780.9809999970166,,response,,,100,,,,,,Space,keypress(Space),,,,,-- --- ---- --- ------ ----- ------- ---- -- --- ------- --<br>------- government ------ -- ----- -- ----- -- ---- ------<br>--- ----- --- --- ------ -------- ----- --- ------ ----- --<br>----- ----- ---------- --- --- ------ ------ ---- -- ------<br>------- --- ------ ----- --- ---- ------- -- ---- --- --<br>------- ------,86853,86852.29999999702,86054.649,86061.40000000596,86071.319,86854.904,,13,government
screen,html.Screen,0_2_1_1_14,2021-11-05T14:25:27.237Z,,,,,,,,,,,,,,,,54,,,,,,,,,,,,,,429.3959999970248,,response,,,100,,,,,,Space,keypress(Space),,,,,-- --- ---- --- ------ ----- ------- ---- -- --- ------- --<br>------- ---------- bonds. -- ----- -- ----- -- ---- ------<br>--- ----- --- --- ------ -------- ----- --- ------ ----- --<br>----- ----- ---------- --- --- ------ ------ ---- -- ------<br>------- --- ------ ----- --- ---- ------- -- ---- --- --<br>------- ------,87285.10000000894,87284.29999999702,86838.233,86853.40000000596,86854.904,87288.355,,14,bonds.
screen,html.Screen,0_2_1_1_15,2021-11-05T14:25:27.605Z,,,,,,,,,,,,,,,,54,,,,,,,,,,,,,,363.94499999702384,,response,,,100,,,,,,Space,keypress(Space),,,,,-- --- ---- --- ------ ----- ------- ---- -- --- ------- --<br>------- ---------- ------ In ----- -- ----- -- ---- ------<br>--- ----- --- --- ------ -------- ----- --- ------ ----- --<br>----- ----- ---------- --- --- ------ ------ ---- -- ------<br>------- --- ------ ----- --- ---- ------- -- ---- --- --<br>------- ------,87653,87652.29999999702,87271.684,87285.40000000596,87288.355,87655.14,,15,In
screen,html.Screen,0_2_1_1_16,2021-11-05T14:25:28.181Z,,,,,,,,,,,,,,,,54,,,,,,,,,,,,,,573.0600000029808,,response,,,100,,,,,,Space,keypress(Space),,,,,"-- --- ---- --- ------ ----- ------- ---- -- --- ------- --<br>------- ---------- ------ -- 1727, -- ----- -- ---- ------<br>--- ----- --- --- ------ -------- ----- --- ------ ----- --<br>----- ----- ---------- --- --- ------ ------ ---- -- ------<br>------- --- ------ ----- --- ---- ------- -- ---- --- --<br>------- ------",88229.10000000894,88228.20000000298,87638.469,87653.29999999702,87655.14,88238.625,,16,"1727,"
screen,html.Screen,0_2_1_1_17,2021-11-05T14:25:28.605Z,,,,,,,,,,,,,,,,54,,,,,,,,,,,,,,413.57500000298023,,response,,,100,,,,,,Space,keypress(Space),,,,,-- --- ---- --- ------ ----- ------- ---- -- --- ------- --<br>------- ---------- ------ -- ----- in ----- -- ---- ------<br>--- ----- --- --- ------ -------- ----- --- ------ ----- --<br>----- ----- ---------- --- --- ------ ------ ---- -- ------<br>------- --- ------ ----- --- ---- ------- -- ---- --- --<br>------- ------,88653,88652.20000000298,88221.954,88229.29999999702,88238.625,88655.407,,17,in
screen,html.Screen,0_2_1_1_18,2021-11-05T14:25:29.053Z,,,,,,,,,,,,,,,,54,,,,,,,,,,,,,,444.7930000029737,,response,,,100,,,,,,Space,keypress(Space),,,,,-- --- ---- --- ------ ----- ------- ---- -- --- ------- --<br>------- ---------- ------ -- ----- -- order -- ---- ------<br>--- ----- --- --- ------ -------- ----- --- ------ ----- --<br>----- ----- ---------- --- --- ------ ------ ---- -- ------<br>------- --- ------ ----- --- ---- ------- -- ---- --- --<br>------- ------,89101,89100.20000000298,88638.736,88653.29999999702,88655.407,89105.483,,18,order
screen,html.Screen,0_2_1_1_19,2021-11-05T14:25:29.421Z,,,,,,,,,,,,,,,,54,,,,,,,,,,,,,,362.71700000298733,,response,,,100,,,,,,Space,keypress(Space),,,,,-- --- ---- --- ------ ----- ------- ---- -- --- ------- --<br>------- ---------- ------ -- ----- -- ----- to ---- ------<br>--- ----- --- --- ------ -------- ----- --- ------ ----- --<br>----- ----- ---------- --- --- ------ ------ ---- -- ------<br>------- --- ------ ----- --- ---- ------- -- ---- --- --<br>------- ------,89469.10000000894,89468.20000000298,89088.813,89101.29999999702,89105.483,89472.31,,19,to
screen,html.Screen,0_2_1_1_20,2021-11-05T14:25:29.797Z,,,,,,,,,,,,,,,,54,,,,,,,,,,,,,,371.89000000298256,,response,,,100,,,,,,Space,keypress(Space),,,,,-- --- ---- --- ------ ----- ------- ---- -- --- ------- --<br>------- ---------- ------ -- ----- -- ----- -- save ------<br>--- ----- --- --- ------ -------- ----- --- ------ ----- --<br>----- ----- ---------- --- --- ------ ------ ---- -- ------<br>------- --- ------ ----- --- ---- ------- -- ---- --- --<br>------- ------,89845,89844.20000000298,89455.639,89469.20000000298,89472.31,89855.697,,20,save
screen,html.Screen,0_2_1_1_21,2021-11-05T14:25:30.133Z,,,,,,,,,,,,,,,,54,,,,,,,,,,,,,,324.5030000029801,,response,,,100,,,,,,Space,keypress(Space),,,,,"-- --- ---- --- ------ ----- ------- ---- -- --- ------- --<br>------- ---------- ------ -- ----- -- ----- -- ---- money,<br>--- ----- --- --- ------ -------- ----- --- ------ ----- --<br>----- ----- ---------- --- --- ------ ------ ---- -- ------<br>------- --- ------ ----- --- ---- ------- -- ---- --- --<br>------- ------",90181,90180.20000000298,89839.027,89845.20000000298,89855.697,90189.161,,21,"money,"
screen,html.Screen,0_2_1_1_22,2021-11-05T14:25:30.574Z,,,,,,,,,,,,,,,,54,,,,,,,,,,,,,,431.7390000059677,,response,,,100,,,,,,Space,keypress(Space),,,,,-- --- ---- --- ------ ----- ------- ---- -- --- ------- --<br>------- ---------- ------ -- ----- -- ----- -- ---- ------<br>the ----- --- --- ------ -------- ----- --- ------ ----- --<br>----- ----- ---------- --- --- ------ ------ ---- -- ------<br>------- --- ------ ----- --- ---- ------- -- ---- --- --<br>------- ------,90621.60000000894,90620.90000000596,90172.49,90181.20000000298,90189.161,90622.555,,22,the
screen,html.Screen,0_2_1_1_23,2021-11-05T14:25:31.013Z,,,,,,,,,,,,,,,,54,,,,,,,,,,,,,,437.5450000089477,,response,,,100,,,,,,Space,keypress(Space),,,,,-- --- ---- --- ------ ----- ------- ---- -- --- ------- --<br>------- ---------- ------ -- ----- -- ----- -- ---- ------<br>--- state --- --- ------ -------- ----- --- ------ ----- --<br>----- ----- ---------- --- --- ------ ------ ---- -- ------<br>------- --- ------ ----- --- ---- ------- -- ---- --- --<br>------- ------,91060.90000000596,91060.10000000894,90605.885,90621.90000000596,90622.555,91072.674,,23,state
screen,html.Screen,0_2_1_1_24,2021-11-05T14:25:31.453Z,,,,,,,,,,,,,,,,54,,,,,,,,,,,,,,427.4260000089416,,response,,,100,,,,,,Space,keypress(Space),,,,,-- --- ---- --- ------ ----- ------- ---- -- --- ------- --<br>------- ---------- ------ -- ----- -- ----- -- ---- ------<br>--- ----- cut --- ------ -------- ----- --- ------ ----- --<br>----- ----- ---------- --- --- ------ ------ ---- -- ------<br>------- --- ------ ----- --- ---- ------- -- ---- --- --<br>------- ------,91500.79999999702,91500.10000000894,91056.004,91061.20000000298,91072.674,91506.156,,24,cut
screen,html.Screen,0_2_1_1_25,2021-11-05T14:25:31.789Z,,,,,,,,,,,,,,,,54,,,,,,,,,,,,,,329.944000008938,,response,,,100,,,,,,Space,keypress(Space),,,,,-- --- ---- --- ------ ----- ------- ---- -- --- ------- --<br>------- ---------- ------ -- ----- -- ----- -- ---- ------<br>--- ----- --- the ------ -------- ----- --- ------ ----- --<br>----- ----- ---------- --- --- ------ ------ ---- -- ------<br>------- --- ------ ----- --- ---- ------- -- ---- --- --<br>------- ------,91836.79999999702,91836.10000000894,91489.485,91501.10000000894,91506.156,91839.598,,25,the
screen,html.Screen,0_2_1_1_26,2021-11-05T14:25:32.229Z,,,,,,,,,,,,,,,,54,,,,,,,,,,,,,,436.50200000894256,,response,,,100,,,,,,Space,keypress(Space),,,,,-- --- ---- --- ------ ----- ------- ---- -- --- ------- --<br>------- ---------- ------ -- ----- -- ----- -- ---- ------<br>--- ----- --- --- bonds' -------- ----- --- ------ ----- --<br>----- ----- ---------- --- --- ------ ------ ---- -- ------<br>------- --- ------ ----- --- ---- ------- -- ---- --- --<br>------- ------,92276.90000000596,92276.10000000894,91822.927,91837.10000000894,91839.598,92289.712,,26,bonds'
screen,html.Screen,0_2_1_1_27,2021-11-05T14:25:32.589Z,,,,,,,,,,,,,,,,54,,,,,,,,,,,,,,346.38800000894116,,response,,,100,,,,,,Space,keypress(Space),,,,,-- --- ---- --- ------ ----- ------- ---- -- --- ------- --<br>------- ---------- ------ -- ----- -- ----- -- ---- ------<br>--- ----- --- --- ------ interest ----- --- ------ ----- --<br>----- ----- ---------- --- --- ------ ------ ---- -- ------<br>------- --- ------ ----- --- ---- ------- -- ---- --- --<br>------- ------,92636.90000000596,92636.10000000894,92273.041,92277.10000000894,92289.712,92639.817,,27,interest
screen,html.Screen,0_2_1_1_28,2021-11-05T14:25:32.885Z,,,,,,,,,,,,,,,,54,,,,,,,,,,,,,,292.28300000894524,,response,,,100,,,,,,Space,keypress(Space),,,,,-- --- ---- --- ------ ----- ------- ---- -- --- ------- --<br>------- ---------- ------ -- ----- -- ----- -- ---- ------<br>--- ----- --- --- ------ -------- rate. --- ------ ----- --<br>----- ----- ---------- --- --- ------ ------ ---- -- ------<br>------- --- ------ ----- --- ---- ------- -- ---- --- --<br>------- ------,92932.79999999702,92932.10000000894,92623.146,92637.10000000894,92639.817,92939.859,,28,rate.
screen,html.Screen,0_2_1_1_29,2021-11-05T14:25:33.221Z,,,,,,,,,,,,,,,,54,,,,,,,,,,,,,,328.14100000000326,,response,,,100,,,,,,Space,keypress(Space),,,,,-- --- ---- --- ------ ----- ------- ---- -- --- ------- --<br>------- ---------- ------ -- ----- -- ----- -- ---- ------<br>--- ----- --- --- ------ -------- ----- The ------ ----- --<br>----- ----- ---------- --- --- ------ ------ ---- -- ------<br>------- --- ------ ----- --- ---- ------- -- ---- --- --<br>------- ------,93268.79999999702,93268,92923.189,92933,92939.859,93273.22,,29,The
screen,html.Screen,0_2_1_1_30,2021-11-05T14:25:33.565Z,,,,,,,,,,,,,,,,54,,,,,,,,,,,,,,338.88000000893953,,response,,,100,,,,,,Space,keypress(Space),,,,,-- --- ---- --- ------ ----- ------- ---- -- --- ------- --<br>------- ---------- ------ -- ----- -- ----- -- ---- ------<br>--- ----- --- --- ------ -------- ----- --- market ----- --<br>----- ----- ---------- --- --- ------ ------ ---- -- ------<br>------- --- ------ ----- --- ---- ------- -- ---- --- --<br>------- ------,93612.79999999702,93612.10000000894,93256.551,93269,93273.22,93623.435,,30,market
screen,html.Screen,0_2_1_1_31,2021-11-05T14:25:33.853Z,,,,,,,,,,,,,,,,54,,,,,,,,,,,,,,276.5650000000023,,response,,,100,,,,,,Space,keypress(Space),,,,,-- --- ---- --- ------ ----- ------- ---- -- --- ------- --<br>------- ---------- ------ -- ----- -- ----- -- ---- ------<br>--- ----- --- --- ------ -------- ----- --- ------ value --<br>----- ----- ---------- --- --- ------ ------ ---- -- ------<br>------- --- ------ ----- --- ---- ------- -- ---- --- --<br>------- ------,93900.79999999702,93900,93606.763,93613,93623.435,93906.817,,31,value
screen,html.Screen,0_2_1_1_32,2021-11-05T14:25:34.173Z,,,,,,,,,,,,,,,,54,,,,,,,,,,,,,,313.18300000000454,,response,,,100,,,,,,Space,keypress(Space),,,,,-- --- ---- --- ------ ----- ------- ---- -- --- ------- --<br>------- ---------- ------ -- ----- -- ----- -- ---- ------<br>--- ----- --- --- ------ -------- ----- --- ------ ----- of<br>----- ----- ---------- --- --- ------ ------ ---- -- ------<br>------- --- ------ ----- --- ---- ------- -- ---- --- --<br>------- ------,94220.90000000596,94220,93890.146,93901,93906.817,94223.425,,32,of
screen,html.Screen,0_2_1_1_33,2021-11-05T14:25:34.525Z,,,,,,,,,,,,,,,,54,,,,,,,,,,,,,,348.5749999999971,,response,,,100,,,,,,Space,keypress(Space),,,,,-- --- ---- --- ------ ----- ------- ---- -- --- ------- --<br>------- ---------- ------ -- ----- -- ----- -- ---- ------<br>--- ----- --- --- ------ -------- ----- --- ------ ----- --<br>these ----- ---------- --- --- ------ ------ ---- -- ------<br>------- --- ------ ----- --- ---- ------- -- ---- --- --<br>------- ------,94572.70000000298,94572,94206.757,94221.10000000894,94223.425,94573.727,,33,these
screen,html.Screen,0_2_1_1_34,2021-11-05T14:25:34.829Z,,,,,,,,,,,,,,,,54,,,,,,,,,,,,,,302.27300000000105,,response,,,100,,,,,,Space,keypress(Space),,,,,-- --- ---- --- ------ ----- ------- ---- -- --- ------- --<br>------- ---------- ------ -- ----- -- ----- -- ---- ------<br>--- ----- --- --- ------ -------- ----- --- ------ ----- --<br>----- bonds ---------- --- --- ------ ------ ---- -- ------<br>------- --- ------ ----- --- ---- ------- -- ---- --- --<br>------- ------,94876.79999999702,94876,94557.054,94573.10000000894,94573.727,94890.423,,34,bonds
screen,html.Screen,0_2_1_1_35,2021-11-05T14:25:35.173Z,,,,,,,,,,,,,,,,54,,,,,,,,,,,,,,329.5770000000048,,response,,,100,,,,,,Space,keypress(Space),,,,,"-- --- ---- --- ------ ----- ------- ---- -- --- ------- --<br>------- ---------- ------ -- ----- -- ----- -- ---- ------<br>--- ----- --- --- ------ -------- ----- --- ------ ----- --<br>----- ----- plummeted, --- --- ------ ------ ---- -- ------<br>------- --- ------ ----- --- ---- ------- -- ---- --- --<br>------- ------",95220.79999999702,95220,94873.752,94877.10000000894,94890.423,95223.741,,35,"plummeted,"
screen,html.Screen,0_2_1_1_36,2021-11-05T14:25:35.525Z,,,,,,,,,,,,,,,,54,,,,,,,,,,,,,,348.25900000000547,,response,,,100,,,,,,Space,keypress(Space),,,,,-- --- ---- --- ------ ----- ------- ---- -- --- ------- --<br>------- ---------- ------ -- ----- -- ----- -- ---- ------<br>--- ----- --- --- ------ -------- ----- --- ------ ----- --<br>----- ----- ---------- and --- ------ ------ ---- -- ------<br>------- --- ------ ----- --- ---- ------- -- ---- --- --<br>------- ------,95572.70000000298,95572,95207.072,95221,95223.741,95573.914,,36,and
screen,html.Screen,0_2_1_1_37,2021-11-05T14:25:35.869Z,,,,,,,,,,,,,,,,54,,,,,,,,,,,,,,341.98600000595616,,response,,,100,,,,,,Space,keypress(Space),,,,,-- --- ---- --- ------ ----- ------- ---- -- --- ------- --<br>------- ---------- ------ -- ----- -- ----- -- ---- ------<br>--- ----- --- --- ------ -------- ----- --- ------ ----- --<br>----- ----- ---------- --- the ------ ------ ---- -- ------<br>------- --- ------ ----- --- ---- ------- -- ---- --- --<br>------- ------,95916.70000000298,95915.90000000596,95557.243,95573,95573.914,95924.025,,37,the
screen,html.Screen,0_2_1_1_38,2021-11-05T14:25:36.141Z,,,,,,,,,,,,,,,,54,,,,,,,,,,,,,,263.8750000059663,,response,,,100,,,,,,Space,keypress(Space),,,,,-- --- ---- --- ------ ----- ------- ---- -- --- ------- --<br>------- ---------- ------ -- ----- -- ----- -- ---- ------<br>--- ----- --- --- ------ -------- ----- --- ------ ----- --<br>----- ----- ---------- --- --- market ------ ---- -- ------<br>------- --- ------ ----- --- ---- ------- -- ---- --- --<br>------- ------,96188.70000000298,96187.90000000596,95907.354,95917,95924.025,96190.773,,38,market
screen,html.Screen,0_2_1_1_39,2021-11-05T14:25:36.453Z,,,,,,,,,,,,,,,,54,,,,,,,,,,,,,,309.1270000059594,,response,,,100,,,,,,Space,keypress(Space),,,,,-- --- ---- --- ------ ----- ------- ---- -- --- ------- --<br>------- ---------- ------ -- ----- -- ----- -- ---- ------<br>--- ----- --- --- ------ -------- ----- --- ------ ----- --<br>----- ----- ---------- --- --- ------ became ---- -- ------<br>------- --- ------ ----- --- ---- ------- -- ---- --- --<br>------- ------,96500.70000000298,96499.90000000596,96174.102,96188.90000000596,96190.773,96507.517,,39,became
screen,html.Screen,0_2_1_1_40,2021-11-05T14:25:36.813Z,,,,,,,,,,,,,,,,54,,,,,,,,,,,,,,352.28299999701267,,response,,,100,,,,,,Space,keypress(Space),,,,,-- --- ---- --- ------ ----- ------- ---- -- --- ------- --<br>------- ---------- ------ -- ----- -- ----- -- ---- ------<br>--- ----- --- --- ------ -------- ----- --- ------ ----- --<br>----- ----- ---------- --- --- ------ ------ wary -- ------<br>------- --- ------ ----- --- ---- ------- -- ---- --- --<br>------- ------,96860.70000000298,96859.79999999702,96490.846,96500.90000000596,96507.517,96874.13,,40,wary
screen,html.Screen,0_2_1_1_41,2021-11-05T14:25:37.157Z,,,,,,,,,,,,,,,,54,,,,,,,,,,,,,,329.5700000029756,,response,,,100,,,,,,Space,keypress(Space),,,,,-- --- ---- --- ------ ----- ------- ---- -- --- ------- --<br>------- ---------- ------ -- ----- -- ----- -- ---- ------<br>--- ----- --- --- ------ -------- ----- --- ------ ----- --<br>----- ----- ---------- --- --- ------ ------ ---- of ------<br>------- --- ------ ----- --- ---- ------- -- ---- --- --<br>------- ------,97204.5,97203.70000000298,96857.462,96860.90000000596,96874.13,97207.794,,41,of
screen,html.Screen,0_2_1_1_42,2021-11-05T14:25:37.429Z,,,,,,,,,,,,,,,,54,,,,,,,,,,,,,,268.10600000596605,,response,,,100,,,,,,Space,keypress(Space),,,,,-- --- ---- --- ------ ----- ------- ---- -- --- ------- --<br>------- ---------- ------ -- ----- -- ----- -- ---- ------<br>--- ----- --- --- ------ -------- ----- --- ------ ----- --<br>----- ----- ---------- --- --- ------ ------ ---- -- French<br>------- --- ------ ----- --- ---- ------- -- ---- --- --<br>------- ------,97476.60000000894,97475.90000000596,97191.121,97206.10000000894,97207.794,97491.129,,42,French
screen,html.Screen,0_2_1_1_43,2021-11-05T14:25:37.813Z,,,,,,,,,,,,,,,,54,,,,,,,,,,,,,,368.67099999701895,,response,,,100,,,,,,Space,keypress(Space),,,,,-- --- ---- --- ------ ----- ------- ---- -- --- ------- --<br>------- ---------- ------ -- ----- -- ----- -- ---- ------<br>--- ----- --- --- ------ -------- ----- --- ------ ----- --<br>----- ----- ---------- --- --- ------ ------ ---- -- ------<br>credit. --- ------ ----- --- ---- ------- -- ---- --- --<br>------- ------,97860.60000000894,97859.79999999702,97474.458,97476.90000000596,97491.129,97874.408,,43,credit.
screen,html.Screen,0_2_1_1_44,2021-11-05T14:25:38.269Z,,,,,,,,,,,,,,,,54,,,,,,,,,,,,,,441.39199999702396,,response,,,100,,,,,,Space,keypress(Space),,,,,-- --- ---- --- ------ ----- ------- ---- -- --- ------- --<br>------- ---------- ------ -- ----- -- ----- -- ---- ------<br>--- ----- --- --- ------ -------- ----- --- ------ ----- --<br>----- ----- ---------- --- --- ------ ------ ---- -- ------<br>------- The ------ ----- --- ---- ------- -- ---- --- --<br>------- ------,98316.5,98315.79999999702,97857.74,97860.79999999702,97874.408,98324.726,,44,The
screen,html.Screen,0_2_1_1_45,2021-11-05T14:25:38.637Z,,,,,,,,,,,,,,,,54,,,,,,,,,,,,,,358.9740000029851,,response,,,100,,,,,,Space,keypress(Space),,,,,-- --- ---- --- ------ ----- ------- ---- -- --- ------- --<br>------- ---------- ------ -- ----- -- ----- -- ---- ------<br>--- ----- --- --- ------ -------- ----- --- ------ ----- --<br>----- ----- ---------- --- --- ------ ------ ---- -- ------<br>------- --- French ----- --- ---- ------- -- ---- --- --<br>------- ------,98684.40000000596,98683.70000000298,98308.054,98316.79999999702,98324.726,98691.393,,45,French
screen,html.Screen,0_2_1_1_46,2021-11-05T14:25:38.965Z,,,,,,,,,,,,,,,,54,,,,,,,,,,,,,,320.4069999970234,,response,,,100,,,,,,Space,keypress(Space),,,,,-- --- ---- --- ------ ----- ------- ---- -- --- ------- --<br>------- ---------- ------ -- ----- -- ----- -- ---- ------<br>--- ----- --- --- ------ -------- ----- --- ------ ----- --<br>----- ----- ---------- --- --- ------ ------ ---- -- ------<br>------- --- ------ state --- ---- ------- -- ---- --- --<br>------- ------,99012.5,99011.79999999702,98674.723,98684.70000000298,98691.393,99024.862,,46,state
screen,html.Screen,0_2_1_1_47,2021-11-05T14:25:39.317Z,,,,,,,,,,,,,,,,54,,,,,,,,,,,,,,338.738000008947,,response,,,100,,,,,,Space,keypress(Space),,,,,-- --- ---- --- ------ ----- ------- ---- -- --- ------- --<br>------- ---------- ------ -- ----- -- ----- -- ---- ------<br>--- ----- --- --- ------ -------- ----- --- ------ ----- --<br>----- ----- ---------- --- --- ------ ------ ---- -- ------<br>------- --- ------ ----- was ---- ------- -- ---- --- --<br>------- ------,99364.5,99363.60000000894,99008.191,99012.79999999702,99024.862,99374.961,,47,was
screen,html.Screen,0_2_1_1_48,2021-11-05T14:25:39.668Z,,,,,,,,,,,,,,,,54,,,,,,,,,,,,,,340.639000008945,,response,,,100,,,,,,Space,keypress(Space),,,,,-- --- ---- --- ------ ----- ------- ---- -- --- ------- --<br>------- ---------- ------ -- ----- -- ----- -- ---- ------<br>--- ----- --- --- ------ -------- ----- --- ------ ----- --<br>----- ----- ---------- --- --- ------ ------ ---- -- ------<br>------- --- ------ ----- --- left ------- -- ---- --- --<br>------- ------,99716.5,99715.60000000894,99358.29,99364.79999999702,99374.961,99725.003,,48,left
screen,html.Screen,0_2_1_1_49,2021-11-05T14:25:40.029Z,,,,,,,,,,,,,,,,54,,,,,,,,,,,,,,350.69700000298326,,response,,,100,,,,,,Space,keypress(Space),,,,,-- --- ---- --- ------ ----- ------- ---- -- --- ------- --<br>------- ---------- ------ -- ----- -- ----- -- ---- ------<br>--- ----- --- --- ------ -------- ----- --- ------ ----- --<br>----- ----- ---------- --- --- ------ ------ ---- -- ------<br>------- --- ------ ----- --- ---- without -- ---- --- --<br>------- ------,100076.5,100075.70000000298,99708.333,99716.60000000894,99725.003,100091.815,,49,without
screen,html.Screen,0_2_1_1_50,2021-11-05T14:25:40.364Z,,,,,,,,,,,,,,,,54,,,,,,,,,,,,,,319.78500000893837,,response,,,100,,,,,,Space,keypress(Space),,,,,-- --- ---- --- ------ ----- ------- ---- -- --- ------- --<br>------- ---------- ------ -- ----- -- ----- -- ---- ------<br>--- ----- --- --- ------ -------- ----- --- ------ ----- --<br>----- ----- ---------- --- --- ------ ------ ---- -- ------<br>------- --- ------ ----- --- ---- ------- an ---- --- --<br>------- ------,100412.5,100411.60000000894,100075.144,100076.70000000298,100091.815,100425.201,,50,an
screen,html.Screen,0_2_1_1_51,2021-11-05T14:25:40.717Z,,,,,,,,,,,,,,,,54,,,,,,,,,,,,,,338.79899999999907,,response,,,100,,,,,,Space,keypress(Space),,,,,-- --- ---- --- ------ ----- ------- ---- -- --- ------- --<br>------- ---------- ------ -- ----- -- ----- -- ---- ------<br>--- ----- --- --- ------ -------- ----- --- ------ ----- --<br>----- ----- ---------- --- --- ------ ------ ---- -- ------<br>------- --- ------ ----- --- ---- ------- -- easy --- --<br>------- ------,100764.90000000596,100764,100408.531,100412.60000000894,100425.201,100775.335,,51,easy
screen,html.Screen,0_2_1_1_52,2021-11-05T14:25:40.989Z,,,,,,,,,,,,,,,,54,,,,,,,,,,,,,,260.36500000297383,,response,,,100,,,,,,Space,keypress(Space),,,,,-- --- ---- --- ------ ----- ------- ---- -- --- ------- --<br>------- ---------- ------ -- ----- -- ----- -- ---- ------<br>--- ----- --- --- ------ -------- ----- --- ------ ----- --<br>----- ----- ---------- --- --- ------ ------ ---- -- ------<br>------- --- ------ ----- --- ---- ------- -- ---- way --<br>------- ------,101036.5,101035.70000000298,100758.664,100765.10000000894,100775.335,101042.071,,52,way
screen,html.Screen,0_2_1_1_53,2021-11-05T14:25:41.308Z,,,,,,,,,,,,,,,,54,,,,,,,,,,,,,,313.5290000089444,,response,,,100,,,,,,Space,keypress(Space),,,,,-- --- ---- --- ------ ----- ------- ---- -- --- ------- --<br>------- ---------- ------ -- ----- -- ----- -- ---- ------<br>--- ----- --- --- ------ -------- ----- --- ------ ----- --<br>----- ----- ---------- --- --- ------ ------ ---- -- ------<br>------- --- ------ ----- --- ---- ------- -- ---- --- of<br>------- ------,101356.5,101355.60000000894,101025.4,101037.20000000298,101042.071,101358.832,,53,of
screen,html.Screen,0_2_1_1_54,2021-11-05T14:25:41.636Z,,,,,,,,,,,,,,,,54,,,,,,,,,,,,,,324.7680000089458,,response,,,100,,,,,,Space,keypress(Space),,,,,-- --- ---- --- ------ ----- ------- ---- -- --- ------- --<br>------- ---------- ------ -- ----- -- ----- -- ---- ------<br>--- ----- --- --- ------ -------- ----- --- ------ ----- --<br>----- ----- ---------- --- --- ------ ------ ---- -- ------<br>------- --- ------ ----- --- ---- ------- -- ---- --- --<br>raising ------,101684.5,101683.60000000894,101342.161,101356.60000000894,101358.832,101692.211,,54,raising
screen,html.Screen,0_2_1_1_55,2021-11-05T14:25:41.924Z,,,,,,,,,,,,,,,,54,,,,,,,,,,,,,,279.389000008945,,response,,,100,,,,,,Space,keypress(Space),,,,,-- --- ---- --- ------ ----- ------- ---- -- --- ------- --<br>------- ---------- ------ -- ----- -- ----- -- ---- ------<br>--- ----- --- --- ------ -------- ----- --- ------ ----- --<br>----- ----- ---------- --- --- ------ ------ ---- -- ------<br>------- --- ------ ----- --- ---- ------- -- ---- --- --<br>------- money.,101972.40000000596,101971.60000000894,101675.541,101684.70000000298,101692.211,101975.516,,55,money.
Item 100,flow.Loop,0_2_1_1,2021-11-05T14:25:41.925Z,,,,,,,,,,,,,,,,,,,,,,,,,,,,,,22685.458000008934,,completion,,,,E,,,,,,,,,,silence,,101972.79999999702,101971.60000000894,79269.471,79270.79999999702,79286.142,101975.516,,,
Question 1,html.Screen,0_2_1_2,2021-11-05T14:25:44.437Z,,,,,,,,,,,,,,,,,,,,,,,,,,,true,TRUE,,2507.884000005957,,response,,,100,E,,,,,TRUE,click #choice-1,,,,silence,,104484.5,104483.40000000596,101958.848,101973,101975.516,104492.953,,,
Question 2,html.Screen,0_2_1_3,2021-11-05T14:25:46.828Z,,,,,,,,,,,,,,,,,,,,,,,,,,,false,FALSE,,2382.3469999970257,,response,,,100,E,,,,,TRUE,click #choice-1,,,,silence,,106876.40000000596,106875.29999999702,104476.283,104484.79999999702,104492.953,106893.585,,,
Item 100,flow.Sequence,0_2_1,2021-11-05T14:25:46.829Z,,,,,,,,,,,,,,,,,,,,,,,,,,,,,,37591.82099999701,,completion,,,,,,,,,,,,,,,,106876.70000000298,106875.29999999702,69266.808,69278.70000000298,69283.479,106893.585,,,
End of Practice,html.Page,0_2_2,2021-11-05T14:25:52.109Z,,,,,,,,,,,,,,,,,,,,,,,,,,,,,,5262.914999999994,,form submission,,,,,,,,,,,,,,,,112157.10000000894,112156.5,106876.915,106877.10000000894,106893.585,112161.479,,,
Practice,flow.Sequence,0_2,2021-11-05T14:25:52.110Z,,,,,,,,,,,,,,,,,,,,,,,,,,,,,,82283.592,,completion,,,,,,,,,,,,,,,,112157.60000000894,112156.5,29856.236,29864.90000000596,29872.908,112161.479,,,
Trap_instruction,html.Page,0_3_0,2021-11-05T14:25:56.061Z,,,,,,,,,,,,,,,,,,,,,,,,,,,,,,3946.7210000029736,,form submission,,,,,,,,,,,,,,,,116108.79999999702,116108.20000000298,112144.809,112157.79999999702,112161.479,116145.604,,,
trap_trial,html.Screen,0_3_1,2021-11-05T14:25:59.676Z,,,,,,,,,,,,,,,,,,,,,,,,,,,true,1,,3577.0960000029736,,response,,,,,,,,,1,click #choice-1,,,,,,119723.90000000596,119722.70000000298,116095.6,116109.10000000894,116145.604,119736.189,,,
end of trap trial,html.Page,0_3_2,2021-11-05T14:26:01.559Z,,,,,,,,,,,,,,,,,,,,,,,,,,,,,,1867.9110000089422,,form submission,,,,,,,,,,,,,,,,121604.70000000298,121604.10000000894,119719.569,119724.20000000298,119736.189,121614.18,,,
Trap 1,flow.Sequence,0_3,2021-11-05T14:26:01.559Z,,,,,,,,,,,,,,,,,,,,,,,,,,,,,,9442.621000008934,,completion,,,,,,,,,,,,,,,,121605.10000000894,121604.10000000894,112144.809,112157.79999999702,112161.479,121614.18,,,
Standby,html.Page,0_4_0,2021-11-05T14:26:09.555Z,,,,,,,,,,,,,,,,,,,,,,,,,,,,,,8002.165000000008,,timeout,,,,,,,,,,,,,,,,129600.90000000596,129599.674,121597.509,121605.40000000596,121614.18,129616.345,,,
Holding screen,html.Screen,0_4_1_0_0,2021-11-05T14:26:16.557Z,,,,,,,,,,,,,,,,,,,,,,,,,,,,,,7001.937999999995,,timeout,,,,,,,,,,,,,,,,136602.70000000298,136601.612,129599.674,129601.20000000298,129616.345,136618.283,,,
screen,html.Screen,0_4_1_0_1_0,2021-11-05T14:26:17.614Z,,,,,,,,,,,,,,,,51,,,,,,,,,,,,,,1040.6170000059647,,response,,,13,E,,,,,Space,keypress(Space),,,,lyrical,American -------- --- --- ---- --- --- ------ -- --------<br>---- --------- --- ------- ------------ ---------- ---------<br>--- ---------- ------- ---------- ------- -- -------- ----<br>---- --- ------ ----- ------ -- ---- --- ----- -- - -------<br>-------- -- --- --- -- ----- ----------- ----- -----------<br>---- --- ---------- --- ---- --- -- ----------,137660,137658.90000000596,136601.612,136603.20000000298,136618.283,137668.559,,0,American
screen,html.Screen,0_4_1_0_1_1,2021-11-05T14:26:18.101Z,,,,,,,,,,,,,,,,51,,,,,,,,,,,,,,477.4409999999916,,response,,,13,E,,,,,Space,keypress(Space),,,,lyrical,-------- industry --- --- ---- --- --- ------ -- --------<br>---- --------- --- ------- ------------ ---------- ---------<br>--- ---------- ------- ---------- ------- -- -------- ----<br>---- --- ------ ----- ------ -- ---- --- ----- -- - -------<br>-------- -- --- --- -- ----- ----------- ----- -----------<br>---- --- ---------- --- ---- --- -- ----------,138146.90000000596,138146,137651.888,137660.29999999702,137668.559,138151.972,,1,industry
screen,html.Screen,0_4_1_0_1_2,2021-11-05T14:26:18.517Z,,,,,,,,,,,,,,,,51,,,,,,,,,,,,,,410.02799999999115,,response,,,13,E,,,,,Space,keypress(Space),,,,lyrical,-------- -------- may --- ---- --- --- ------ -- --------<br>---- --------- --- ------- ------------ ---------- ---------<br>--- ---------- ------- ---------- ------- -- -------- ----<br>---- --- ------ ----- ------ -- ---- --- ----- -- - -------<br>-------- -- --- --- -- ----- ----------- ----- -----------<br>---- --- ---------- --- ---- --- -- ----------,138562.90000000596,138562,138135.302,138147.20000000298,138151.972,138568.805,,2,may
screen,html.Screen,0_4_1_0_1_3,2021-11-05T14:26:18.869Z,,,,,,,,,,,,,,,,51,,,,,,,,,,,,,,345.2950000089477,,response,,,13,E,,,,,Space,keypress(Space),,,,lyrical,-------- -------- --- not ---- --- --- ------ -- --------<br>---- --------- --- ------- ------------ ---------- ---------<br>--- ---------- ------- ---------- ------- -- -------- ----<br>---- --- ------ ----- ------ -- ---- --- ----- -- - -------<br>-------- -- --- --- -- ----- ----------- ----- -----------<br>---- --- ---------- --- ---- --- -- ----------,138914.90000000596,138914.10000000894,138552.134,138563.10000000894,138568.805,138918.914,,3,not
screen,html.Screen,0_4_1_0_1_4,2021-11-05T14:26:19.157Z,,,,,,,,,,,,,,,,51,,,,,,,,,,,,,,283.08600000001024,,response,,,13,E,,,,,Space,keypress(Space),,,,lyrical,-------- -------- --- --- know --- --- ------ -- --------<br>---- --------- --- ------- ------------ ---------- ---------<br>--- ---------- ------- ---------- ------- -- -------- ----<br>---- --- ------ ----- ------ -- ---- --- ----- -- - -------<br>-------- -- --- --- -- ----- ----------- ----- -----------<br>---- --- ---------- --- ---- --- -- ----------,139202.90000000596,139202,138902.243,138915.29999999702,138918.914,139218.999,,4,know
screen,html.Screen,0_4_1_0_1_5,2021-11-05T14:26:19.525Z,,,,,,,,,,,,,,,,51,,,,,,,,,,,,,,351.0009999999893,,response,,,13,E,,,,,Space,keypress(Space),,,,lyrical,"-------- -------- --- --- ---- it, --- ------ -- --------<br>---- --------- --- ------- ------------ ---------- ---------<br>--- ---------- ------- ---------- ------- -- -------- ----<br>---- --- ------ ----- ------ -- ---- --- ----- -- - -------<br>-------- -- --- --- -- ----- ----------- ----- -----------<br>---- --- ---------- --- ---- --- -- ----------",139570.90000000596,139570,139202.328,139203.20000000298,139218.999,139585.759,,5,"it,"
screen,html.Screen,0_4_1_0_1_6,2021-11-05T14:26:19.917Z,,,,,,,,,,,,,,,,51,,,,,,,,,,,,,,376.2410000000091,,response,,,13,E,,,,,Space,keypress(Space),,,,lyrical,-------- -------- --- --- ---- --- but ------ -- --------<br>---- --------- --- ------- ------------ ---------- ---------<br>--- ---------- ------- ---------- ------- -- -------- ----<br>---- --- ------ ----- ------ -- ---- --- ----- -- - -------<br>-------- -- --- --- -- ----- ----------- ----- -----------<br>---- --- ---------- --- ---- --- -- ----------,139962.79999999702,139962,139569.088,139571.20000000298,139585.759,139969.163,,6,but
screen,html.Screen,0_4_1_0_1_7,2021-11-05T14:26:20.253Z,,,,,,,,,,,,,,,,51,,,,,,,,,,,,,,328.6369999970193,,response,,,13,E,,,,,Space,keypress(Space),,,,lyrical,-------- -------- --- --- ---- --- --- debate -- --------<br>---- --------- --- ------- ------------ ---------- ---------<br>--- ---------- ------- ---------- ------- -- -------- ----<br>---- --- ------ ----- ------ -- ---- --- ----- -- - -------<br>-------- -- --- --- -- ----- ----------- ----- -----------<br>---- --- ---------- --- ---- --- -- ----------,140298.70000000298,140297.79999999702,139952.493,139963.10000000894,139969.163,140302.615,,7,debate
screen,html.Screen,0_4_1_0_1_8,2021-11-05T14:26:20.573Z,,,,,,,,,,,,,,,,51,,,,,,,,,,,,,,315.2850000059698,,response,,,13,E,,,,,Space,keypress(Space),,,,lyrical,-------- -------- --- --- ---- --- --- ------ in --------<br>---- --------- --- ------- ------------ ---------- ---------<br>--- ---------- ------- ---------- ------- -- -------- ----<br>---- --- ------ ----- ------ -- ---- --- ----- -- - -------<br>-------- -- --- --- -- ----- ----------- ----- -----------<br>---- --- ---------- --- ---- --- -- ----------,140618.60000000894,140617.90000000596,140285.944,140298.90000000596,140302.615,140636.038,,8,in
screen,html.Screen,0_4_1_0_1_9,2021-11-05T14:26:20.917Z,,,,,,,,,,,,,,,,51,,,,,,,,,,,,,,325.96199999999953,,response,,,13,E,,,,,Space,keypress(Space),,,,lyrical,-------- -------- --- --- ---- --- --- ------ -- Congress<br>---- --------- --- ------- ------------ ---------- ---------<br>--- ---------- ------- ---------- ------- -- -------- ----<br>---- --- ------ ----- ------ -- ---- --- ----- -- - -------<br>-------- -- --- --- -- ----- ----------- ----- -----------<br>---- --- ---------- --- ---- --- -- ----------,140962.79999999702,140962,140619.367,140618.90000000596,140636.038,140969.429,,9,Congress
screen,html.Screen,0_4_1_0_1_10,2021-11-05T14:26:21.317Z,,,,,,,,,,,,,,,,51,,,,,,,,,,,,,,392.47100000595674,,response,,,13,E,,,,,Space,keypress(Space),,,,lyrical,-------- -------- --- --- ---- --- --- ------ -- --------<br>over --------- --- ------- ------------ ---------- ---------<br>--- ---------- ------- ---------- ------- -- -------- ----<br>---- --- ------ ----- ------ -- ---- --- ----- -- - -------<br>-------- -- --- --- -- ----- ----------- ----- -----------<br>---- --- ---------- --- ---- --- -- ----------,141362.79999999702,141361.90000000596,140952.759,140963.10000000894,140969.429,141369.447,,10,over
screen,html.Screen,0_4_1_0_1_11,2021-11-05T14:26:21.701Z,,,,,,,,,,,,,,,,51,,,,,,,,,,,,,,376.4530000059749,,response,,,13,E,,,,,Space,keypress(Space),,,,lyrical,-------- -------- --- --- ---- --- --- ------ -- --------<br>---- reforming --- ------- ------------ ---------- ---------<br>--- ---------- ------- ---------- ------- -- -------- ----<br>---- --- ------ ----- ------ -- ---- --- ----- -- - -------<br>-------- -- --- --- -- ----- ----------- ----- -----------<br>---- --- ---------- --- ---- --- -- ----------,141746.70000000298,141745.90000000596,141352.778,141363.10000000894,141369.447,141753.052,,11,reforming
screen,html.Screen,0_4_1_0_1_12,2021-11-05T14:26:22.029Z,,,,,,,,,,,,,,,,51,,,,,,,,,,,,,,320.7479999970237,,response,,,13,E,,,,,Space,keypress(Space),,,,lyrical,-------- -------- --- --- ---- --- --- ------ -- --------<br>---- --------- the ------- ------------ ---------- ---------<br>--- ---------- ------- ---------- ------- -- -------- ----<br>---- --- ------ ----- ------ -- ---- --- ----- -- - -------<br>-------- -- --- --- -- ----- ----------- ----- -----------<br>---- --- ---------- --- ---- --- -- ----------,142074.60000000894,142073.79999999702,141736.38,141747,141753.052,142086.431,,12,the
screen,html.Screen,0_4_1_0_1_13,2021-11-05T14:26:22.381Z,,,,,,,,,,,,,,,,51,,,,,,,,,,,,,,339.46900000594906,,response,,,13,E,,,,,Space,keypress(Space),,,,lyrical,-------- -------- --- --- ---- --- --- ------ -- --------<br>---- --------- --- federal ------------ ---------- ---------<br>--- ---------- ------- ---------- ------- -- -------- ----<br>---- --- ------ ----- ------ -- ---- --- ----- -- - -------<br>-------- -- --- --- -- ----- ----------- ----- -----------<br>---- --- ---------- --- ---- --- -- ----------,142426.70000000298,142425.90000000596,142069.76,142074.90000000596,142086.431,142436.521,,13,federal
screen,html.Screen,0_4_1_0_1_14,2021-11-05T14:26:22.789Z,,,,,,,,,,,,,,,,51,,,,,,,,,,,,,,397.27899999701185,,response,,,13,E,,,,,Space,keypress(Space),,,,lyrical,-------- -------- --- --- ---- --- --- ------ -- --------<br>---- --------- --- ------- government's ---------- ---------<br>--- ---------- ------- ---------- ------- -- -------- ----<br>---- --- ------ ----- ------ -- ---- --- ----- -- - -------<br>-------- -- --- --- -- ----- ----------- ----- -----------<br>---- --- ---------- --- ---- --- -- ----------,142834.70000000298,142833.79999999702,142419.85,142427,142436.521,142836.626,,14,government's
screen,html.Screen,0_4_1_0_1_15,2021-11-05T14:26:23.189Z,,,,,,,,,,,,,,,,51,,,,,,,,,,,,,,397.2740000059712,,response,,,13,E,,,,,Space,keypress(Space),,,,lyrical,-------- -------- --- --- ---- --- --- ------ -- --------<br>---- --------- --- ------- ------------ regulatory ---------<br>--- ---------- ------- ---------- ------- -- -------- ----<br>---- --- ------ ----- ------ -- ---- --- ----- -- - -------<br>-------- -- --- --- -- ----- ----------- ----- -----------<br>---- --- ---------- --- ---- --- -- ----------,143234.60000000894,143233.90000000596,142819.955,142834.90000000596,142836.626,143236.736,,15,regulatory
screen,html.Screen,0_4_1_0_1_16,2021-11-05T14:26:23.565Z,,,,,,,,,,,,,,,,51,,,,,,,,,,,,,,373.16400000595604,,response,,,13,E,,,,,Space,keypress(Space),,,,lyrical,-------- -------- --- --- ---- --- --- ------ -- --------<br>---- --------- --- ------- ------------ ---------- apparatus<br>--- ---------- ------- ---------- ------- -- -------- ----<br>---- --- ------ ----- ------ -- ---- --- ----- -- - -------<br>-------- -- --- --- -- ----- ----------- ----- -----------<br>---- --- ---------- --- ---- --- -- ----------,143610.60000000894,143609.90000000596,143220.065,143234.90000000596,143236.736,143620.137,,16,apparatus
screen,html.Screen,0_4_1_0_1_17,2021-11-05T14:26:23.965Z,,,,,,,,,,,,,,,,51,,,,,,,,,,,,,,389.6629999970319,,response,,,13,E,,,,,Space,keypress(Space),,,,lyrical,-------- -------- --- --- ---- --- --- ------ -- --------<br>---- --------- --- ------- ------------ ---------- ---------<br>may ---------- ------- ---------- ------- -- -------- ----<br>---- --- ------ ----- ------ -- ---- --- ----- -- - -------<br>-------- -- --- --- -- ----- ----------- ----- -----------<br>---- --- ---------- --- ---- --- -- ----------,144010.60000000894,144009.79999999702,143603.467,143611,143620.137,144020.289,,17,may
screen,html.Screen,0_4_1_0_1_18,2021-11-05T14:26:24.301Z,,,,,,,,,,,,,,,,51,,,,,,,,,,,,,,325.51099999703,,response,,,13,E,,,,,Space,keypress(Space),,,,lyrical,-------- -------- --- --- ---- --- --- ------ -- --------<br>---- --------- --- ------- ------------ ---------- ---------<br>--- profoundly ------- ---------- ------- -- -------- ----<br>---- --- ------ ----- ------ -- ---- --- ----- -- - -------<br>-------- -- --- --- -- ----- ----------- ----- -----------<br>---- --- ---------- --- ---- --- -- ----------,144346.5,144345.79999999702,144003.618,144010.79999999702,144020.289,144353.541,,18,profoundly
screen,html.Screen,0_4_1_0_1_19,2021-11-05T14:26:24.621Z,,,,,,,,,,,,,,,,51,,,,,,,,,,,,,,312.25899999702233,,response,,,13,E,,,,,Space,keypress(Space),,,,lyrical,-------- -------- --- --- ---- --- --- ------ -- --------<br>---- --------- --- ------- ------------ ---------- ---------<br>--- ---------- improve ---------- ------- -- -------- ----<br>---- --- ------ ----- ------ -- ---- --- ----- -- - -------<br>-------- -- --- --- -- ----- ----------- ----- -----------<br>---- --- ---------- --- ---- --- -- ----------,144666.60000000894,144665.79999999702,144336.873,144346.79999999702,144353.541,144670.408,,19,improve
screen,html.Screen,0_4_1_0_1_20,2021-11-05T14:26:25.005Z,,,,,,,,,,,,,,,,51,,,,,,,,,,,,,,379.39199999702396,,response,,,13,E,,,,,Space,keypress(Space),,,,lyrical,-------- -------- --- --- ---- --- --- ------ -- --------<br>---- --------- --- ------- ------------ ---------- ---------<br>--- ---------- ------- companies' ------- -- -------- ----<br>---- --- ------ ----- ------ -- ---- --- ----- -- - -------<br>-------- -- --- --- -- ----- ----------- ----- -----------<br>---- --- ---------- --- ---- --- -- ----------,145050.60000000894,145049.79999999702,144653.737,144666.79999999702,144670.408,145053.844,,20,companies'
screen,html.Screen,0_4_1_0_1_21,2021-11-05T14:26:25.364Z,,,,,,,,,,,,,,,,51,,,,,,,,,,,,,,355.85600000296836,,response,,,13,E,,,,,Space,keypress(Space),,,,lyrical,-------- -------- --- --- ---- --- --- ------ -- --------<br>---- --------- --- ------- ------------ ---------- ---------<br>--- ---------- ------- ---------- ability -- -------- ----<br>---- --- ------ ----- ------ -- ---- --- ----- -- - -------<br>-------- -- --- --- -- ----- ----------- ----- -----------<br>---- --- ---------- --- ---- --- -- ----------,145410.5,145409.70000000298,145037.173,145050.79999999702,145053.844,145420.609,,21,ability
screen,html.Screen,0_4_1_0_1_22,2021-11-05T14:26:25.733Z,,,,,,,,,,,,,,,,51,,,,,,,,,,,,,,356.99100000894396,,response,,,13,E,,,,,Space,keypress(Space),,,,lyrical,-------- -------- --- --- ---- --- --- ------ -- --------<br>---- --------- --- ------- ------------ ---------- ---------<br>--- ---------- ------- ---------- ------- to -------- ----<br>---- --- ------ ----- ------ -- ---- --- ----- -- - -------<br>-------- -- --- --- -- ----- ----------- ----- -----------<br>---- --- ---------- --- ---- --- -- ----------,145778.5,145777.60000000894,145403.938,145410.70000000298,145420.609,145787.375,,22,to
screen,html.Screen,0_4_1_0_1_23,2021-11-05T14:26:26.085Z,,,,,,,,,,,,,,,,51,,,,,,,,,,,,,,342.32500000298023,,response,,,13,E,,,,,Space,keypress(Space),,,,lyrical,-------- -------- --- --- ---- --- --- ------ -- --------<br>---- --------- --- ------- ------------ ---------- ---------<br>--- ---------- ------- ---------- ------- -- survive. ----<br>---- --- ------ ----- ------ -- ---- --- ----- -- - -------<br>-------- -- --- --- -- ----- ----------- ----- -----------<br>---- --- ---------- --- ---- --- -- ----------,146130.60000000894,146129.70000000298,145770.704,145778.79999999702,145787.375,146137.469,,23,survive.
screen,html.Screen,0_4_1_0_1_24,2021-11-05T14:26:26.492Z,,,,,,,,,,,,,,,,51,,,,,,,,,,,,,,400.0309999999881,,response,,,13,E,,,,,Space,keypress(Space),,,,lyrical,-------- -------- --- --- ---- --- --- ------ -- --------<br>---- --------- --- ------- ------------ ---------- ---------<br>--- ---------- ------- ---------- ------- -- -------- This<br>---- --- ------ ----- ------ -- ---- --- ----- -- - -------<br>-------- -- --- --- -- ----- ----------- ----- -----------<br>---- --- ---------- --- ---- --- -- ----------,146538.40000000596,146537.5,146120.798,146130.79999999702,146137.469,146554.345,,24,This
screen,html.Screen,0_4_1_0_1_25,2021-11-05T14:26:27.204Z,,,,,,,,,,,,,,,,51,,,,,,,,,,,,,,695.3550000029791,,response,,,13,E,,,,,Space,keypress(Space),,,,lyrical,-------- -------- --- --- ---- --- --- ------ -- --------<br>---- --------- --- ------- ------------ ---------- ---------<br>--- ---------- ------- ---------- ------- -- -------- ----<br>week --- ------ ----- ------ -- ---- --- ----- -- - -------<br>-------- -- --- --- -- ----- ----------- ----- -----------<br>---- --- ---------- --- ---- --- -- ----------,147250.5,147249.70000000298,146537.673,146538.60000000894,146554.345,147254.489,,25,week
screen,html.Screen,0_4_1_0_1_26,2021-11-05T14:26:27.620Z,,,,,,,,,,,,,,,,51,,,,,,,,,,,,,,411.1110000089393,,response,,,13,E,,,,,Space,keypress(Space),,,,lyrical,-------- -------- --- --- ---- --- --- ------ -- --------<br>---- --------- --- ------- ------------ ---------- ---------<br>--- ---------- ------- ---------- ------- -- -------- ----<br>---- the ------ ----- ------ -- ---- --- ----- -- - -------<br>-------- -- --- --- -- ----- ----------- ----- -----------<br>---- --- ---------- --- ---- --- -- ----------,147666.40000000596,147665.60000000894,147237.818,147250.60000000894,147254.489,147671.217,,26,the
screen,html.Screen,0_4_1_0_1_27,2021-11-05T14:26:27.965Z,,,,,,,,,,,,,,,,51,,,,,,,,,,,,,,338.8830000089365,,response,,,13,E,,,,,Space,keypress(Space),,,,lyrical,-------- -------- --- --- ---- --- --- ------ -- --------<br>---- --------- --- ------- ------------ ---------- ---------<br>--- ---------- ------- ---------- ------- -- -------- ----<br>---- --- Senate ----- ------ -- ---- --- ----- -- - -------<br>-------- -- --- --- -- ----- ----------- ----- -----------<br>---- --- ---------- --- ---- --- -- ----------,148010.90000000596,148010.10000000894,147654.547,147666.70000000298,147671.217,148021.267,,27,Senate
screen,html.Screen,0_4_1_0_1_28,2021-11-05T14:26:28.316Z,,,,,,,,,,,,,,,,51,,,,,,,,,,,,,,340.33300000894815,,response,,,13,E,,,,,Space,keypress(Space),,,,lyrical,-------- -------- --- --- ---- --- --- ------ -- --------<br>---- --------- --- ------- ------------ ---------- ---------<br>--- ---------- ------- ---------- ------- -- -------- ----<br>---- --- ------ seems ------ -- ---- --- ----- -- - -------<br>-------- -- --- --- -- ----- ----------- ----- -----------<br>---- --- ---------- --- ---- --- -- ----------,148362.40000000596,148361.60000000894,148004.597,148011.10000000894,148021.267,148371.492,,28,seems
screen,html.Screen,0_4_1_0_1_29,2021-11-05T14:26:28.620Z,,,,,,,,,,,,,,,,51,,,,,,,,,,,,,,294.20800000298186,,response,,,13,E,,,,,Space,keypress(Space),,,,lyrical,-------- -------- --- --- ---- --- --- ------ -- --------<br>---- --------- --- ------- ------------ ---------- ---------<br>--- ---------- ------- ---------- ------- -- -------- ----<br>---- --- ------ ----- poised -- ---- --- ----- -- - -------<br>-------- -- --- --- -- ----- ----------- ----- -----------<br>---- --- ---------- --- ---- --- -- ----------,148666.40000000596,148665.70000000298,148354.82,148362.60000000894,148371.492,148671.388,,29,poised
screen,html.Screen,0_4_1_0_1_30,2021-11-05T14:26:28.948Z,,,,,,,,,,,,,,,,51,,,,,,,,,,,,,,322.2120000089344,,response,,,13,E,,,,,Space,keypress(Space),,,,lyrical,-------- -------- --- --- ---- --- --- ------ -- --------<br>---- --------- --- ------- ------------ ---------- ---------<br>--- ---------- ------- ---------- ------- -- -------- ----<br>---- --- ------ ----- ------ to ---- --- ----- -- - -------<br>-------- -- --- --- -- ----- ----------- ----- -----------<br>---- --- ---------- --- ---- --- -- ----------,148994.40000000596,148993.60000000894,148654.72,148666.60000000894,148671.388,149005.026,,30,to
screen,html.Screen,0_4_1_0_1_31,2021-11-05T14:26:29.252Z,,,,,,,,,,,,,,,,51,,,,,,,,,,,,,,292.3740000059479,,response,,,13,E,,,,,Space,keypress(Space),,,,lyrical,-------- -------- --- --- ---- --- --- ------ -- --------<br>---- --------- --- ------- ------------ ---------- ---------<br>--- ---------- ------- ---------- ------- -- -------- ----<br>---- --- ------ ----- ------ -- join --- ----- -- - -------<br>-------- -- --- --- -- ----- ----------- ----- -----------<br>---- --- ---------- --- ---- --- -- ----------,149298.20000000298,149297.40000000596,148988.353,148994.70000000298,149005.026,149305.032,,31,join
screen,html.Screen,0_4_1_0_1_32,2021-11-05T14:26:29.572Z,,,,,,,,,,,,,,,,51,,,,,,,,,,,,,,312.36800000595395,,response,,,13,E,,,,,Space,keypress(Space),,,,lyrical,-------- -------- --- --- ---- --- --- ------ -- --------<br>---- --------- --- ------- ------------ ---------- ---------<br>--- ---------- ------- ---------- ------- -- -------- ----<br>---- --- ------ ----- ------ -- ---- the ----- -- - -------<br>-------- -- --- --- -- ----- ----------- ----- -----------<br>---- --- ---------- --- ---- --- -- ----------,149618.20000000298,149617.40000000596,149288.361,149298.5,149305.032,149621.797,,32,the
screen,html.Screen,0_4_1_0_1_33,2021-11-05T14:26:29.868Z,,,,,,,,,,,,,,,,51,,,,,,,,,,,,,,291.8030000089493,,response,,,13,E,,,,,Space,keypress(Space),,,,lyrical,-------- -------- --- --- ---- --- --- ------ -- --------<br>---- --------- --- ------- ------------ ---------- ---------<br>--- ---------- ------- ---------- ------- -- -------- ----<br>---- --- ------ ----- ------ -- ---- --- House -- - -------<br>-------- -- --- --- -- ----- ----------- ----- -----------<br>---- --- ---------- --- ---- --- -- ----------,149914.29999999702,149913.60000000894,149605.126,149618.5,149621.797,149921.774,,33,House
screen,html.Screen,0_4_1_0_1_34,2021-11-05T14:26:30.196Z,,,,,,,,,,,,,,,,51,,,,,,,,,,,,,,319.7259999999951,,response,,,13,E,,,,,Space,keypress(Space),,,,lyrical,-------- -------- --- --- ---- --- --- ------ -- --------<br>---- --------- --- ------- ------------ ---------- ---------<br>--- ---------- ------- ---------- ------- -- -------- ----<br>---- --- ------ ----- ------ -- ---- --- ----- in - -------<br>-------- -- --- --- -- ----- ----------- ----- -----------<br>---- --- ---------- --- ---- --- -- ----------,150242.29999999702,150241.5,149905.105,149914.60000000894,149921.774,150255.182,,34,in
screen,html.Screen,0_4_1_0_1_35,2021-11-05T14:26:30.492Z,,,,,,,,,,,,,,,,51,,,,,,,,,,,,,,282.21800000595977,,response,,,13,E,,,,,Space,keypress(Space),,,,lyrical,-------- -------- --- --- ---- --- --- ------ -- --------<br>---- --------- --- ------- ------------ ---------- ---------<br>--- ---------- ------- ---------- ------- -- -------- ----<br>---- --- ------ ----- ------ -- ---- --- ----- -- a -------<br>-------- -- --- --- -- ----- ----------- ----- -----------<br>---- --- ---------- --- ---- --- -- ----------,150538.20000000298,150537.40000000596,150238.513,150242.5,150255.182,150555.462,,35,a
screen,html.Screen,0_4_1_0_1_36,2021-11-05T14:26:30.740Z,,,,,,,,,,,,,,,,51,,,,,,,,,,,,,,230.03800000000047,,response,,,13,E,,,,,Space,keypress(Space),,,,lyrical,-------- -------- --- --- ---- --- --- ------ -- --------<br>---- --------- --- ------- ------------ ---------- ---------<br>--- ---------- ------- ---------- ------- -- -------- ----<br>---- --- ------ ----- ------ -- ---- --- ----- -- - massive<br>-------- -- --- --- -- ----- ----------- ----- -----------<br>---- --- ---------- --- ---- --- -- ----------,150786.29999999702,150785.5,150538.789,150538.40000000596,150555.462,150788.737,,36,massive
screen,html.Screen,0_4_1_0_1_37,2021-11-05T14:26:31.172Z,,,,,,,,,,,,,,,,51,,,,,,,,,,,,,,428.56299999702605,,response,,,13,E,,,,,Space,keypress(Space),,,,lyrical,-------- -------- --- --- ---- --- --- ------ -- --------<br>---- --------- --- ------- ------------ ---------- ---------<br>--- ---------- ------- ---------- ------- -- -------- ----<br>---- --- ------ ----- ------ -- ---- --- ----- -- - -------<br>overhaul -- --- --- -- ----- ----------- ----- -----------<br>---- --- ---------- --- ---- --- -- ----------,151218.29999999702,151217.29999999702,150772.067,150786.5,150788.737,151222.21,,37,overhaul
screen,html.Screen,0_4_1_0_1_38,2021-11-05T14:26:31.500Z,,,,,,,,,,,,,,,,51,,,,,,,,,,,,,,323.29000000000815,,response,,,13,E,,,,,Space,keypress(Space),,,,lyrical,-------- -------- --- --- ---- --- --- ------ -- --------<br>---- --------- --- ------- ------------ ---------- ---------<br>--- ---------- ------- ---------- ------- -- -------- ----<br>---- --- ------ ----- ------ -- ---- --- ----- -- - -------<br>-------- of --- --- -- ----- ----------- ----- -----------<br>---- --- ---------- --- ---- --- -- ----------,151546.29999999702,151545.5,151205.539,151218.70000000298,151222.21,151555.415,,38,of
screen,html.Screen,0_4_1_0_1_39,2021-11-05T14:26:31.804Z,,,,,,,,,,,,,,,,51,,,,,,,,,,,,,,294.08499999999185,,response,,,13,E,,,,,Space,keypress(Space),,,,lyrical,-------- -------- --- --- ---- --- --- ------ -- --------<br>---- --------- --- ------- ------------ ---------- ---------<br>--- ---------- ------- ---------- ------- -- -------- ----<br>---- --- ------ ----- ------ -- ---- --- ----- -- - -------<br>-------- -- the --- -- ----- ----------- ----- -----------<br>---- --- ---------- --- ---- --- -- ----------,151850.20000000298,151849.5,151538.748,151546.60000000894,151555.415,151855.788,,39,the
screen,html.Screen,0_4_1_0_1_40,2021-11-05T14:26:32.116Z,,,,,,,,,,,,,,,,51,,,,,,,,,,,,,,305.61200000596,,response,,,13,E,,,,,Space,keypress(Space),,,,lyrical,-------- -------- --- --- ---- --- --- ------ -- --------<br>---- --------- --- ------- ------------ ---------- ---------<br>--- ---------- ------- ---------- ------- -- -------- ----<br>---- --- ------ ----- ------ -- ---- --- ----- -- - -------<br>-------- -- --- way -- ----- ----------- ----- -----------<br>---- --- ---------- --- ---- --- -- ----------,152162.20000000298,152161.40000000596,151839.115,151850.5,151855.788,152172.364,,40,way
screen,html.Screen,0_4_1_0_1_41,2021-11-05T14:26:32.444Z,,,,,,,,,,,,,,,,51,,,,,,,,,,,,,,317.1359999999986,,response,,,13,E,,,,,Space,keypress(Space),,,,lyrical,-------- -------- --- --- ---- --- --- ------ -- --------<br>---- --------- --- ------- ------------ ---------- ---------<br>--- ---------- ------- ---------- ------- -- -------- ----<br>---- --- ------ ----- ------ -- ---- --- ----- -- - -------<br>-------- -- --- --- in ----- ----------- ----- -----------<br>---- --- ---------- --- ---- --- -- ----------,152490.29999999702,152489.5,152155.695,152162.5,152172.364,152505.971,,41,in
screen,html.Screen,0_4_1_0_1_42,2021-11-05T14:26:32.772Z,,,,,,,,,,,,,,,,51,,,,,,,,,,,,,,311.3289999970293,,response,,,13,E,,,,,Space,keypress(Space),,,,lyrical,-------- -------- --- --- ---- --- --- ------ -- --------<br>---- --------- --- ------- ------------ ---------- ---------<br>--- ---------- ------- ---------- ------- -- -------- ----<br>---- --- ------ ----- ------ -- ---- --- ----- -- - -------<br>-------- -- --- --- -- which ----------- ----- -----------<br>---- --- ---------- --- ---- --- -- ----------,152818.10000000894,152817.29999999702,152489.298,152490.60000000894,152505.971,152822.65,,42,which
screen,html.Screen,0_4_1_0_1_43,2021-11-05T14:26:33.116Z,,,,,,,,,,,,,,,,51,,,,,,,,,,,,,,338.7500000059663,,response,,,13,E,,,,,Space,keypress(Space),,,,lyrical,-------- -------- --- --- ---- --- --- ------ -- --------<br>---- --------- --- ------- ------------ ---------- ---------<br>--- ---------- ------- ---------- ------- -- -------- ----<br>---- --- ------ ----- ------ -- ---- --- ----- -- - -------<br>-------- -- --- --- -- ----- bureaucrats ----- -----------<br>---- --- ---------- --- ---- --- -- ----------,153162.20000000298,153161.40000000596,152805.979,152818.29999999702,152822.65,153172.744,,43,bureaucrats
screen,html.Screen,0_4_1_0_1_44,2021-11-05T14:26:33.428Z,,,,,,,,,,,,,,,,51,,,,,,,,,,,,,,300.6560000059544,,response,,,13,E,,,,,Space,keypress(Space),,,,lyrical,-------- -------- --- --- ---- --- --- ------ -- --------<br>---- --------- --- ------- ------------ ---------- ---------<br>--- ---------- ------- ---------- ------- -- -------- ----<br>---- --- ------ ----- ------ -- ---- --- ----- -- - -------<br>-------- -- --- --- -- ----- ----------- enact -----------<br>---- --- ---------- --- ---- --- -- ----------,153474.20000000298,153473.40000000596,153156.073,153162.5,153172.744,153489.338,,44,enact
screen,html.Screen,0_4_1_0_1_45,2021-11-05T14:26:33.740Z,,,,,,,,,,,,,,,,51,,,,,,,,,,,,,,296.06200000597164,,response,,,13,E,,,,,Space,keypress(Space),,,,lyrical,-------- -------- --- --- ---- --- --- ------ -- --------<br>---- --------- --- ------- ------------ ---------- ---------<br>--- ---------- ------- ---------- ------- -- -------- ----<br>---- --- ------ ----- ------ -- ---- --- ----- -- - -------<br>-------- -- --- --- -- ----- ----------- ----- regulations<br>---- --- ---------- --- ---- --- -- ----------,153786.20000000298,153785.40000000596,153472.67,153474.5,153489.338,153789.639,,45,regulations
screen,html.Screen,0_4_1_0_1_46,2021-11-05T14:26:34.084Z,,,,,,,,,,,,,,,,51,,,,,,,,,,,,,,339.7610000059649,,response,,,13,E,,,,,Space,keypress(Space),,,,lyrical,-------- -------- --- --- ---- --- --- ------ -- --------<br>---- --------- --- ------- ------------ ---------- ---------<br>--- ---------- ------- ---------- ------- -- -------- ----<br>---- --- ------ ----- ------ -- ---- --- ----- -- - -------<br>-------- -- --- --- -- ----- ----------- ----- -----------<br>that --- ---------- --- ---- --- -- ----------,154130.10000000894,154129.40000000596,153772.966,153786.40000000596,153789.639,154139.556,,46,that
screen,html.Screen,0_4_1_0_1_47,2021-11-05T14:26:34.396Z,,,,,,,,,,,,,,,,51,,,,,,,,,,,,,,301.84400000594906,,response,,,13,E,,,,,Space,keypress(Space),,,,lyrical,-------- -------- --- --- ---- --- --- ------ -- --------<br>---- --------- --- ------- ------------ ---------- ---------<br>--- ---------- ------- ---------- ------- -- -------- ----<br>---- --- ------ ----- ------ -- ---- --- ----- -- - -------<br>-------- -- --- --- -- ----- ----------- ----- -----------<br>---- are ---------- --- ---- --- -- ----------,154442.20000000298,154441.40000000596,154122.887,154130.40000000596,154139.556,154456.466,,47,are
screen,html.Screen,0_4_1_0_1_48,2021-11-05T14:26:34.700Z,,,,,,,,,,,,,,,,51,,,,,,,,,,,,,,288.83399999703397,,response,,,13,E,,,,,Space,keypress(Space),,,,lyrical,-------- -------- --- --- ---- --- --- ------ -- --------<br>---- --------- --- ------- ------------ ---------- ---------<br>--- ---------- ------- ---------- ------- -- -------- ----<br>---- --- ------ ----- ------ -- ---- --- ----- -- - -------<br>-------- -- --- --- -- ----- ----------- ----- -----------<br>---- --- strangling --- ---- --- -- ----------,154746.20000000298,154745.29999999702,154439.794,154442.40000000596,154456.466,154756.361,,48,strangling
screen,html.Screen,0_4_1_0_1_49,2021-11-05T14:26:35.012Z,,,,,,,,,,,,,,,,51,,,,,,,,,,,,,,300.7390000089363,,response,,,13,E,,,,,Space,keypress(Space),,,,lyrical,-------- -------- --- --- ---- --- --- ------ -- --------<br>---- --------- --- ------- ------------ ---------- ---------<br>--- ---------- ------- ---------- ------- -- -------- ----<br>---- --- ------ ----- ------ -- ---- --- ----- -- - -------<br>-------- -- --- --- -- ----- ----------- ----- -----------<br>---- --- ---------- the ---- --- -- ----------,155058,155057.10000000894,154739.693,154746.5,154756.361,155073.329,,49,the
screen,html.Screen,0_4_1_0_1_50,2021-11-05T14:26:35.284Z,,,,,,,,,,,,,,,,51,,,,,,,,,,,,,,255.97099999702186,,response,,,13,E,,,,,Space,keypress(Space),,,,lyrical,-------- -------- --- --- ---- --- --- ------ -- --------<br>---- --------- --- ------- ------------ ---------- ---------<br>--- ---------- ------- ---------- ------- -- -------- ----<br>---- --- ------ ----- ------ -- ---- --- ----- -- - -------<br>-------- -- --- --- -- ----- ----------- ----- -----------<br>---- --- ---------- --- life --- -- ----------,155330.10000000894,155329.29999999702,155056.656,155058.29999999702,155073.329,155339.847,,50,life
