sender,sender_type,sender_id,timestamp,meta,,Blues,Classical,Country,Dance,Electronic,Folk,Gospel,Hip-Hop,Jazz,Latin,Musical/Film,New-age,Pop,Provo_ID,R&B,Rap,Reggae,Religious,Rock,Soul,Swing,Traditional,age,artist_name,correct,correctResponse,distraction,duration,education,ended_on,familiarity,gender,item,list,music_frequency,offensiveness,pleasantness,preference,response,response_action,snippet_file,song_name,song_rating,sound,text,time_commit,time_end,time_render,time_run,time_show,time_switch,url,word,word_ID
Instructions,html.Page,0_0,2021-12-10T11:21:32.855Z,"{""labjs_version"":""20.2.3"",""labjs_build"":{""flavor"":""production"",""commit"":""7ea907d66ca8aeef8054924ca5d82ffbe11e34e5""},""location"":""https://run.pavlovia.org/mvasilev/lab_music_a/"",""userAgent"":""Mozilla/5.0 (Windows NT 6.1; Win64; x64) AppleWebKit/537.36 (KHTML, like Gecko) Chrome/96.0.4664.93 Safari/537.36"",""platform"":""Win32"",""language"":""en-US"",""locale"":""en-US"",""timeZone"":""Europe/London"",""timezoneOffset"":0,""screen_width"":1920,""screen_height"":1080,""scroll_width"":1920,""scroll_height"":959,""window_innerWidth"":1920,""window_innerHeight"":1007,""devicePixelRatio"":1}",,,,,,,,,,,,,,,,,,,,,,,,,,,,,23218.93699998808,,form submission,,,,,,,,,,,,,,,,37766,37764.69999998808,14495.753,14514.300000011921,14545.763,37770.324,{},,
Headphones,html.Page,0_1,2021-12-10T11:21:36.136Z,,,,,,,,,,,,,,,,,,,,,,,,,,,,,,3276.0759999761576,,form submission,,,,,,,,,,,,,,,,41046.89999997616,41046.39999997616,37753.588,37766.60000002384,37770.324,41052.586,,,
Holding screen,html.Screen,0_2_0_0,2021-12-10T11:21:46.134Z,,,,,,,,,,,,,,,,,,,,,,,,,,,,,,10002.394999999997,,timeout,,,,,,,,,,,,,,,,51044.30000001192,51038.311,41035.916,41047.39999997616,41052.586,51054.981,,,
screen,html.Screen,0_2_0_1_0,2021-12-10T11:21:48.339Z,,,,,,,,,,,,,,,,53,,,,,,,,,,,,,,2193.5190000000002,,response,,,99,,,,,,Space,keypress(Space),,,,,When -- ----- -- ------ - ------- --- ----------<br>------------- ------ ------ ---- ---- ------- ----- -- ----<br>-------- ------- -- ---------- --- - --- ----- ----- ----<br>---- --- --- ----- --- ---- ---- ------- ----- ---- -------<br>--- --- -- ----- -- --- ---- -- --- ---- -- ------ ------<br>--- ----- -- ----,53250,53248.5,51038.311,51044.80000001192,51054.981,53255.74,,0,When
screen,html.Screen,0_2_0_1_1,2021-12-10T11:21:49.338Z,,,,,,,,,,,,,,,,53,,,,,,,,,,,,,,992.1599999761602,,response,,,99,,,,,,Space,keypress(Space),,,,,---- it ----- -- ------ - ------- --- ----------<br>------------- ------ ------ ---- ---- ------- ----- -- ----<br>-------- ------- -- ---------- --- - --- ----- ----- ----<br>---- --- --- ----- --- ---- ---- ------- ----- ---- -------<br>--- --- -- ----- -- --- ---- -- --- ---- -- ------ ------<br>--- ----- -- ----,54248.80000001192,54247.89999997616,53239.069,53250.30000001192,53255.74,54255.786,,1,it
screen,html.Screen,0_2_0_1_2,2021-12-10T11:21:50.146Z,,,,,,,,,,,,,,,,53,,,,,,,,,,,,,,800.0140000119209,,response,,,99,,,,,,Space,keypress(Space),,,,,---- -- comes -- ------ - ------- --- ----------<br>------------- ------ ------ ---- ---- ------- ----- -- ----<br>-------- ------- -- ---------- --- - --- ----- ----- ----<br>---- --- --- ----- --- ---- ---- ------- ----- ---- -------<br>--- --- -- ----- -- --- ---- -- --- ---- -- ------ ------<br>--- ----- -- ----,55056.80000001192,55055.80000001192,54239.116,54249.10000002384,54255.786,55072.656,,2,comes
screen,html.Screen,0_2_0_1_3,2021-12-10T11:21:50.738Z,,,,,,,,,,,,,,,,53,,,,,,,,,,,,,,575.1440000119183,,response,,,99,,,,,,Space,keypress(Space),,,,,---- -- ----- to ------ - ------- --- ----------<br>------------- ------ ------ ---- ---- ------- ----- -- ----<br>-------- ------- -- ---------- --- - --- ----- ----- ----<br>---- --- --- ----- --- ---- ---- ------- ----- ---- -------<br>--- --- -- ----- -- --- ---- -- --- ---- -- ------ ------<br>--- ----- -- ----,55648.80000001192,55647.80000001192,55055.986,55057.10000002384,55072.656,55656.307,,3,to
screen,html.Screen,0_2_0_1_4,2021-12-10T11:21:51.242Z,,,,,,,,,,,,,,,,53,,,,,,,,,,,,,,495.3929999880784,,response,,,99,,,,,,Space,keypress(Space),,,,,---- -- ----- -- having - ------- --- ----------<br>------------- ------ ------ ---- ---- ------- ----- -- ----<br>-------- ------- -- ---------- --- - --- ----- ----- ----<br>---- --- --- ----- --- ---- ---- ------- ----- ---- -------<br>--- --- -- ----- -- --- ---- -- --- ---- -- ------ ------<br>--- ----- -- ----,56152.89999997616,56151.69999998808,55639.636,55649.39999997616,55656.307,56156.302,,4,having
screen,html.Screen,0_2_0_1_5,2021-12-10T11:21:51.826Z,,,,,,,,,,,,,,,,53,,,,,,,,,,,,,,579.3979999880758,,response,,,99,,,,,,Space,keypress(Space),,,,,---- -- ----- -- ------ a ------- --- ----------<br>------------- ------ ------ ---- ---- ------- ----- -- ----<br>-------- ------- -- ---------- --- - --- ----- ----- ----<br>---- --- --- ----- --- ---- ---- ------- ----- ---- -------<br>--- --- -- ----- -- --- ---- -- --- ---- -- ------ ------<br>--- ----- -- ----,56736.69999998808,56735.69999998808,56139.632,56153.30000001192,56156.302,56739.815,,5,a
screen,html.Screen,0_2_0_1_6,2021-12-10T11:21:52.794Z,,,,,,,,,,,,,,,,53,,,,,,,,,,,,,,963.8849999880767,,response,,,99,,,,,,Space,keypress(Space),,,,,---- -- ----- -- ------ - lasting --- ----------<br>------------- ------ ------ ---- ---- ------- ----- -- ----<br>-------- ------- -- ---------- --- - --- ----- ----- ----<br>---- --- --- ----- --- ---- ---- ------- ----- ---- -------<br>--- --- -- ----- -- --- ---- -- --- ---- -- ------ ------<br>--- ----- -- ----,57704.60000002384,57703.69999998808,56723.145,56737.19999998808,56739.815,57706.695,,6,lasting
screen,html.Screen,0_2_0_1_7,2021-12-10T11:21:53.682Z,,,,,,,,,,,,,,,,53,,,,,,,,,,,,,,884.9050000238421,,response,,,99,,,,,,Space,keypress(Space),,,,,---- -- ----- -- ------ - ------- and ----------<br>------------- ------ ------ ---- ---- ------- ----- -- ----<br>-------- ------- -- ---------- --- - --- ----- ----- ----<br>---- --- --- ----- --- ---- ---- ------- ----- ---- -------<br>--- --- -- ----- -- --- ---- -- --- ---- -- ------ ------<br>--- ----- -- ----,58592.60000002384,58591.60000002384,57690.025,57705,57706.695,58606.941,,7,and
screen,html.Screen,0_2_0_1_8,2021-12-10T11:21:54.410Z,,,,,,,,,,,,,,,,53,,,,,,,,,,,,,,712.659000023843,,response,,,99,,,,,,Space,keypress(Space),,,,,---- -- ----- -- ------ - ------- --- fulfilling<br>------------- ------ ------ ---- ---- ------- ----- -- ----<br>-------- ------- -- ---------- --- - --- ----- ----- ----<br>---- --- --- ----- --- ---- ---- ------- ----- ---- -------<br>--- --- -- ----- -- --- ---- -- --- ---- -- ------ ------<br>--- ----- -- ----,59320.80000001192,59319.60000002384,58590.271,58592.89999997616,58606.941,59323.744,,8,fulfilling
screen,html.Screen,0_2_0_1_9,2021-12-10T11:21:56.215Z,,,,,,,,,,,,,,,,53,,,,,,,,,,,,,,1795.7560000000012,,response,,,99,,,,,,Space,keypress(Space),,,,,"---- -- ----- -- ------ - ------- --- ----------<br>relationship, ------ ------ ---- ---- ------- ----- -- ----<br>-------- ------- -- ---------- --- - --- ----- ----- ----<br>---- --- --- ----- --- ---- ---- ------- ----- ---- -------<br>--- --- -- ----- -- --- ---- -- --- ---- -- ------ ------<br>--- ----- -- ----",61120.5,61119.5,59307.074,59321.10000002384,59323.744,61124.154,,9,"relationship,"
screen,html.Screen,0_2_0_1_10,2021-12-10T11:21:56.903Z,,,,,,,,,,,,,,,,53,,,,,,,,,,,,,,683.2459999761559,,response,,,99,,,,,,Space,keypress(Space),,,,,---- -- ----- -- ------ - ------- --- ----------<br>------------- common ------ ---- ---- ------- ----- -- ----<br>-------- ------- -- ---------- --- - --- ----- ----- ----<br>---- --- --- ----- --- ---- ---- ------- ----- ---- -------<br>--- --- -- ----- -- --- ---- -- --- ---- -- ------ ------<br>--- ----- -- ----,61808.39999997616,61807.39999997616,61107.484,61120.80000001192,61124.154,61824.36,,10,common
screen,html.Screen,0_2_0_1_11,2021-12-10T11:21:57.703Z,,,,,,,,,,,,,,,,53,,,,,,,,,,,,,,782.9400000119203,,response,,,99,,,,,,Space,keypress(Space),,,,,---- -- ----- -- ------ - ------- --- ----------<br>------------- ------ wisdom ---- ---- ------- ----- -- ----<br>-------- ------- -- ---------- --- - --- ----- ----- ----<br>---- --- --- ----- --- ---- ---- ------- ----- ---- -------<br>--- --- -- ----- -- --- ---- -- --- ---- -- ------ ------<br>--- ----- -- ----,62608.19999998808,62607.30000001192,61807.69,61808.60000002384,61824.36,62624.49,,11,wisdom
screen,html.Screen,0_2_0_1_12,2021-12-10T11:21:58.423Z,,,,,,,,,,,,,,,,53,,,,,,,,,,,,,,703.310000011923,,response,,,99,,,,,,Space,keypress(Space),,,,,---- -- ----- -- ------ - ------- --- ----------<br>------------- ------ ------ says ---- ------- ----- -- ----<br>-------- ------- -- ---------- --- - --- ----- ----- ----<br>---- --- --- ----- --- ---- ---- ------- ----- ---- -------<br>--- --- -- ----- -- --- ---- -- --- ---- -- ------ ------<br>--- ----- -- ----,63328.69999998808,63327.80000001192,62607.82,62608.60000002384,62624.49,63341.582,,12,says
screen,html.Screen,0_2_0_1_13,2021-12-10T11:21:58.942Z,,,,,,,,,,,,,,,,53,,,,,,,,,,,,,,505.6179999880769,,response,,,99,,,,,,Space,keypress(Space),,,,,---- -- ----- -- ------ - ------- --- ----------<br>------------- ------ ------ ---- that ------- ----- -- ----<br>-------- ------- -- ---------- --- - --- ----- ----- ----<br>---- --- --- ----- --- ---- ---- ------- ----- ---- -------<br>--- --- -- ----- -- --- ---- -- --- ---- -- ------ ------<br>--- ----- -- ----,63848.10000002384,63847.19999998808,63324.91,63329,63341.582,63858.173,,13,that
screen,html.Screen,0_2_0_1_14,2021-12-10T11:21:59.390Z,,,,,,,,,,,,,,,,53,,,,,,,,,,,,,,437.02699998807657,,response,,,99,,,,,,Space,keypress(Space),,,,,---- -- ----- -- ------ - ------- --- ----------<br>------------- ------ ------ ---- ---- feeling ----- -- ----<br>-------- ------- -- ---------- --- - --- ----- ----- ----<br>---- --- --- ----- --- ---- ---- ------- ----- ---- -------<br>--- --- -- ----- -- --- ---- -- --- ---- -- ------ ------<br>--- ----- -- ----,64296.10000002384,64295.19999998808,63841.503,63848.30000001192,63858.173,64308.307,,14,feeling
screen,html.Screen,0_2_0_1_15,2021-12-10T11:22:00.134Z,,,,,,,,,,,,,,,,53,,,,,,,,,,,,,,730.8929999880784,,response,,,99,,,,,,Space,keypress(Space),,,,,---- -- ----- -- ------ - ------- --- ----------<br>------------- ------ ------ ---- ---- ------- close -- ----<br>-------- ------- -- ---------- --- - --- ----- ----- ----<br>---- --- --- ----- --- ---- ---- ------- ----- ---- -------<br>--- --- -- ----- -- --- ---- -- --- ---- -- ------ ------<br>--- ----- -- ----,65040,65039.19999998808,64291.637,64296.39999997616,64308.307,65041.81,,15,close
screen,html.Screen,0_2_0_1_16,2021-12-10T11:22:00.574Z,,,,,,,,,,,,,,,,53,,,,,,,,,,,,,,437.2900000238442,,response,,,99,,,,,,Space,keypress(Space),,,,,---- -- ----- -- ------ - ------- --- ----------<br>------------- ------ ------ ---- ---- ------- ----- to ----<br>-------- ------- -- ---------- --- - --- ----- ----- ----<br>---- --- --- ----- --- ---- ---- ------- ----- ---- -------<br>--- --- -- ----- -- --- ---- -- --- ---- -- ------ ------<br>--- ----- -- ----,65480,65479.10000002384,65025.14,65040.30000001192,65041.81,65491.943,,16,to
screen,html.Screen,0_2_0_1_17,2021-12-10T11:22:01.118Z,,,,,,,,,,,,,,,,53,,,,,,,,,,,,,,531.1570000238426,,response,,,99,,,,,,Space,keypress(Space),,,,,---- -- ----- -- ------ - ------- --- ----------<br>------------- ------ ------ ---- ---- ------- ----- -- your<br>-------- ------- -- ---------- --- - --- ----- ----- ----<br>---- --- --- ----- --- ---- ---- ------- ----- ---- -------<br>--- --- -- ----- -- --- ---- -- --- ---- -- ------ ------<br>--- ----- -- ----,66023.89999997616,66023.10000002384,65475.273,65480.19999998808,65491.943,66025.404,,17,your
screen,html.Screen,0_2_0_1_18,2021-12-10T11:22:02.078Z,,,,,,,,,,,,,,,,53,,,,,,,,,,,,,,957.596000000005,,response,,,99,,,,,,Space,keypress(Space),,,,,---- -- ----- -- ------ - ------- --- ----------<br>------------- ------ ------ ---- ---- ------- ----- -- ----<br>romantic ------- -- ---------- --- - --- ----- ----- ----<br>---- --- --- ----- --- ---- ---- ------- ----- ---- -------<br>--- --- -- ----- -- --- ---- -- --- ---- -- ------ ------<br>--- ----- -- ----,66983.80000001192,66983,66008.734,66024.19999998808,66025.404,66992.07,,18,romantic
screen,html.Screen,0_2_0_1_19,2021-12-10T11:22:02.981Z,,,,,,,,,,,,,,,,53,,,,,,,,,,,,,,894.6299999880721,,response,,,99,,,,,,Space,keypress(Space),,,,,---- -- ----- -- ------ - ------- --- ----------<br>------------- ------ ------ ---- ---- ------- ----- -- ----<br>-------- partner -- ---------- --- - --- ----- ----- ----<br>---- --- --- ----- --- ---- ---- ------- ----- ---- -------<br>--- --- -- ----- -- --- ---- -- --- ---- -- ------ ------<br>--- ----- -- ----,67887,67886.69999998808,66975.402,66984.19999998808,66992.07,67892.409,,19,partner
screen,html.Screen,0_2_0_1_20,2021-12-10T11:22:03.534Z,,,,,,,,,,,,,,,,53,,,,,,,,,,,,,,546.4909999761585,,response,,,99,,,,,,Space,keypress(Space),,,,,---- -- ----- -- ------ - ------- --- ----------<br>------------- ------ ------ ---- ---- ------- ----- -- ----<br>-------- ------- is ---------- --- - --- ----- ----- ----<br>---- --- --- ----- --- ---- ---- ------- ----- ---- -------<br>--- --- -- ----- -- --- ---- -- --- ---- -- ------ ------<br>--- ----- -- ----,68439.69999998808,68438.89999997616,67875.739,67887.19999998808,67892.409,68442.702,,20,is
screen,html.Screen,0_2_0_1_21,2021-12-10T11:22:05.301Z,,,,,,,,,,,,,,,,53,,,,,,,,,,,,,,1763.5980000119162,,response,,,99,,,,,,Space,keypress(Space),,,,,---- -- ----- -- ------ - ------- --- ----------<br>------------- ------ ------ ---- ---- ------- ----- -- ----<br>-------- ------- -- paramount. --- - --- ----- ----- ----<br>---- --- --- ----- --- ---- ---- ------- ----- ---- -------<br>--- --- -- ----- -- --- ---- -- --- ---- -- ------ ------<br>--- ----- -- ----,70206.89999997616,70206.30000001192,68426.031,68440.10000002384,68442.702,70209.699,,21,paramount.
screen,html.Screen,0_2_0_1_22,2021-12-10T11:22:06.198Z,,,,,,,,,,,,,,,,53,,,,,,,,,,,,,,893.0009999880858,,response,,,99,,,,,,Space,keypress(Space),,,,,---- -- ----- -- ------ - ------- --- ----------<br>------------- ------ ------ ---- ---- ------- ----- -- ----<br>-------- ------- -- ---------- But - --- ----- ----- ----<br>---- --- --- ----- --- ---- ---- ------- ----- ---- -------<br>--- --- -- ----- -- --- ---- -- --- ---- -- ------ ------<br>--- ----- -- ----,71103.60000002384,71102.69999998808,70193.029,70207,70209.699,71109.912,,22,But
screen,html.Screen,0_2_0_1_23,2021-12-10T11:22:06.693Z,,,,,,,,,,,,,,,,53,,,,,,,,,,,,,,488.3880000119243,,response,,,99,,,,,,Space,keypress(Space),,,,,---- -- ----- -- ------ - ------- --- ----------<br>------------- ------ ------ ---- ---- ------- ----- -- ----<br>-------- ------- -- ---------- --- a --- ----- ----- ----<br>---- --- --- ----- --- ---- ---- ------- ----- ---- -------<br>--- --- -- ----- -- --- ---- -- --- ---- -- ------ ------<br>--- ----- -- ----,71598.80000001192,71598.30000001192,71093.242,71103.80000001192,71109.912,71609.994,,23,a
screen,html.Screen,0_2_0_1_24,2021-12-10T11:22:07.093Z,,,,,,,,,,,,,,,,53,,,,,,,,,,,,,,388.205999988073,,response,,,99,,,,,,Space,keypress(Space),,,,,---- -- ----- -- ------ - ------- --- ----------<br>------------- ------ ------ ---- ---- ------- ----- -- ----<br>-------- ------- -- ---------- --- - new ----- ----- ----<br>---- --- --- ----- --- ---- ---- ------- ----- ---- -------<br>--- --- -- ----- -- --- ---- -- --- ---- -- ------ ------<br>--- ----- -- ----,71998.80000001192,71998.19999998808,71593.324,71598.89999997616,71609.994,72010.252,,24,new
screen,html.Screen,0_2_0_1_25,2021-12-10T11:22:07.494Z,,,,,,,,,,,,,,,,53,,,,,,,,,,,,,,388.44799998808594,,response,,,99,,,,,,Space,keypress(Space),,,,,---- -- ----- -- ------ - ------- --- ----------<br>------------- ------ ------ ---- ---- ------- ----- -- ----<br>-------- ------- -- ---------- --- - --- study ----- ----<br>---- --- --- ----- --- ---- ---- ------- ----- ---- -------<br>--- --- -- ----- -- --- ---- -- --- ---- -- ------ ------<br>--- ----- -- ----,72399.5,72398.69999998808,71993.581,71998.89999997616,72010.252,72410.278,,25,study
screen,html.Screen,0_2_0_1_26,2021-12-10T11:22:07.902Z,,,,,,,,,,,,,,,,53,,,,,,,,,,,,,,396.32200002383615,,response,,,99,,,,,,Space,keypress(Space),,,,,---- -- ----- -- ------ - ------- --- ----------<br>------------- ------ ------ ---- ---- ------- ----- -- ----<br>-------- ------- -- ---------- --- - --- ----- finds ----<br>---- --- --- ----- --- ---- ---- ------- ----- ---- -------<br>--- --- -- ----- -- --- ---- -- --- ---- -- ------ ------<br>--- ----- -- ----,72807.39999997616,72806.60000002384,72393.608,72399.69999998808,72410.278,72810.191,,26,finds
screen,html.Screen,0_2_0_1_27,2021-12-10T11:22:08.317Z,,,,,,,,,,,,,,,,53,,,,,,,,,,,,,,411.9090000238357,,response,,,99,,,,,,Space,keypress(Space),,,,,---- -- ----- -- ------ - ------- --- ----------<br>------------- ------ ------ ---- ---- ------- ----- -- ----<br>-------- ------- -- ---------- --- - --- ----- ----- that<br>---- --- --- ----- --- ---- ---- ------- ----- ---- -------<br>--- --- -- ----- -- --- ---- -- --- ---- -- ------ ------<br>--- ----- -- ----,73222.5,73222.10000002384,72793.524,72807.69999998808,72810.191,73227.292,,27,that
screen,html.Screen,0_2_0_1_28,2021-12-10T11:22:08.814Z,,,,,,,,,,,,,,,,53,,,,,,,,,,,,,,491.7079999999987,,response,,,99,,,,,,Space,keypress(Space),,,,,---- -- ----- -- ------ - ------- --- ----------<br>------------- ------ ------ ---- ---- ------- ----- -- ----<br>-------- ------- -- ---------- --- - --- ----- ----- ----<br>it's --- --- ----- --- ---- ---- ------- ----- ---- -------<br>--- --- -- ----- -- --- ---- -- --- ---- -- ------ ------<br>--- ----- -- ----,73719.89999997616,73719,73210.619,73222.69999998808,73227.292,73727.257,,28,it's
screen,html.Screen,0_2_0_1_29,2021-12-10T11:22:09.222Z,,,,,,,,,,,,,,,,53,,,,,,,,,,,,,,399.2430000000022,,response,,,99,,,,,,Space,keypress(Space),,,,,---- -- ----- -- ------ - ------- --- ----------<br>------------- ------ ------ ---- ---- ------- ----- -- ----<br>-------- ------- -- ---------- --- - --- ----- ----- ----<br>---- not --- ----- --- ---- ---- ------- ----- ---- -------<br>--- --- -- ----- -- --- ---- -- --- ---- -- ------ ------<br>--- ----- -- ----,74127.39999997616,74126.5,73710.587,73720.10000002384,73727.257,74143.938,,29,not
screen,html.Screen,0_2_0_1_30,2021-12-10T11:22:09.574Z,,,,,,,,,,,,,,,,53,,,,,,,,,,,,,,334.56200000000536,,response,,,99,,,,,,Space,keypress(Space),,,,,---- -- ----- -- ------ - ------- --- ----------<br>------------- ------ ------ ---- ---- ------- ----- -- ----<br>-------- ------- -- ---------- --- - --- ----- ----- ----<br>---- --- how ----- --- ---- ---- ------- ----- ---- -------<br>--- --- -- ----- -- --- ---- -- --- ---- -- ------ ------<br>--- ----- -- ----,74479.39999997616,74478.5,74127.269,74127.69999998808,74143.938,74494.183,,30,how
screen,html.Screen,0_2_0_1_31,2021-12-10T11:22:10.046Z,,,,,,,,,,,,,,,,53,,,,,,,,,,,,,,456.2169999761536,,response,,,99,,,,,,Space,keypress(Space),,,,,---- -- ----- -- ------ - ------- --- ----------<br>------------- ------ ------ ---- ---- ------- ----- -- ----<br>-------- ------- -- ---------- --- - --- ----- ----- ----<br>---- --- --- close --- ---- ---- ------- ----- ---- -------<br>--- --- -- ----- -- --- ---- -- --- ---- -- ------ ------<br>--- ----- -- ----,74951.5,74950.39999997616,74477.512,74479.60000002384,74494.183,74960.921,,31,close
screen,html.Screen,0_2_0_1_32,2021-12-10T11:22:10.446Z,,,,,,,,,,,,,,,,53,,,,,,,,,,,,,,389.47899997615605,,response,,,99,,,,,,Space,keypress(Space),,,,,---- -- ----- -- ------ - ------- --- ----------<br>------------- ------ ------ ---- ---- ------- ----- -- ----<br>-------- ------- -- ---------- --- - --- ----- ----- ----<br>---- --- --- ----- you ---- ---- ------- ----- ---- -------<br>--- --- -- ----- -- --- ---- -- --- ---- -- ------ ------<br>--- ----- -- ----,75351.30000001192,75350.39999997616,74944.251,74951.69999998808,74960.921,75360.999,,32,you
screen,html.Screen,0_2_0_1_33,2021-12-10T11:22:11.030Z,,,,,,,,,,,,,,,,53,,,,,,,,,,,,,,573.400999976162,,response,,,99,,,,,,Space,keypress(Space),,,,,---- -- ----- -- ------ - ------- --- ----------<br>------------- ------ ------ ---- ---- ------- ----- -- ----<br>-------- ------- -- ---------- --- - --- ----- ----- ----<br>---- --- --- ----- --- feel ---- ------- ----- ---- -------<br>--- --- -- ----- -- --- ---- -- --- ---- -- ------ ------<br>--- ----- -- ----,75935.19999998808,75934.39999997616,75344.329,75351.60000002384,75360.999,75944.474,,33,feel
screen,html.Screen,0_2_0_1_34,2021-12-10T11:22:11.525Z,,,,,,,,,,,,,,,,53,,,,,,,,,,,,,,485.92599997615616,,response,,,99,,,,,,Space,keypress(Space),,,,,---- -- ----- -- ------ - ------- --- ----------<br>------------- ------ ------ ---- ---- ------- ----- -- ----<br>-------- ------- -- ---------- --- - --- ----- ----- ----<br>---- --- --- ----- --- ---- that ------- ----- ---- -------<br>--- --- -- ----- -- --- ---- -- --- ---- -- ------ ------<br>--- ----- -- ----,76431.19999998808,76430.39999997616,75927.804,75935.5,75944.474,76444.596,,34,that
screen,html.Screen,0_2_0_1_35,2021-12-10T11:22:11.997Z,,,,,,,,,,,,,,,,53,,,,,,,,,,,,,,457.80399997615314,,response,,,99,,,,,,Space,keypress(Space),,,,,---- -- ----- -- ------ - ------- --- ----------<br>------------- ------ ------ ---- ---- ------- ----- -- ----<br>-------- ------- -- ---------- --- - --- ----- ----- ----<br>---- --- --- ----- --- ---- ---- matters ----- ---- -------<br>--- --- -- ----- -- --- ---- -- --- ---- -- ------ ------<br>--- ----- -- ----,76903.19999998808,76902.39999997616,76427.926,76431.5,76444.596,76911.276,,35,matters
screen,html.Screen,0_2_0_1_36,2021-12-10T11:22:12.710Z,,,,,,,,,,,,,,,,53,,,,,,,,,,,,,,703.0240000119229,,response,,,99,,,,,,Space,keypress(Space),,,,,"---- -- ----- -- ------ - ------- --- ----------<br>------------- ------ ------ ---- ---- ------- ----- -- ----<br>-------- ------- -- ---------- --- - --- ----- ----- ----<br>---- --- --- ----- --- ---- ---- ------- most, ---- -------<br>--- --- -- ----- -- --- ---- -- --- ---- -- ------ ------<br>--- ----- -- ----",77615.39999997616,77614.30000001192,76894.607,76903.39999997616,76911.276,77628.335,,36,"most,"
screen,html.Screen,0_2_0_1_37,2021-12-10T11:22:13.205Z,,,,,,,,,,,,,,,,53,,,,,,,,,,,,,,481.9650000119145,,response,,,99,,,,,,Space,keypress(Space),,,,,---- -- ----- -- ------ - ------- --- ----------<br>------------- ------ ------ ---- ---- ------- ----- -- ----<br>-------- ------- -- ---------- --- - --- ----- ----- ----<br>---- --- --- ----- --- ---- ---- ------- ----- it's -------<br>--- --- -- ----- -- --- ---- -- --- ---- -- ------ ------<br>--- ----- -- ----,78111.10000002384,78110.30000001192,77611.663,77615.60000002384,77628.335,78128.345,,37,it's
screen,html.Screen,0_2_0_1_38,2021-12-10T11:22:13.669Z,,,,,,,,,,,,,,,,53,,,,,,,,,,,,,,445.7550000238407,,response,,,99,,,,,,Space,keypress(Space),,,,,---- -- ----- -- ------ - ------- --- ----------<br>------------- ------ ------ ---- ---- ------- ----- -- ----<br>-------- ------- -- ---------- --- - --- ----- ----- ----<br>---- --- --- ----- --- ---- ---- ------- ----- ---- whether<br>--- --- -- ----- -- --- ---- -- --- ---- -- ------ ------<br>--- ----- -- ----,78574.89999997616,78574.10000002384,78111.675,78111.30000001192,78128.345,78578.444,,38,whether
screen,html.Screen,0_2_0_1_39,2021-12-10T11:22:14.085Z,,,,,,,,,,,,,,,,53,,,,,,,,,,,,,,411.6560000238387,,response,,,99,,,,,,Space,keypress(Space),,,,,---- -- ----- -- ------ - ------- --- ----------<br>------------- ------ ------ ---- ---- ------- ----- -- ----<br>-------- ------- -- ---------- --- - --- ----- ----- ----<br>---- --- --- ----- --- ---- ---- ------- ----- ---- -------<br>you --- -- ----- -- --- ---- -- --- ---- -- ------ ------<br>--- ----- -- ----,78991,78990.10000002384,78561.774,78575.10000002384,78578.444,78995.272,,39,you
screen,html.Screen,0_2_0_1_40,2021-12-10T11:22:14.470Z,,,,,,,,,,,,,,,,53,,,,,,,,,,,,,,379.32800002384465,,response,,,99,,,,,,Space,keypress(Space),,,,,---- -- ----- -- ------ - ------- --- ----------<br>------------- ------ ------ ---- ---- ------- ----- -- ----<br>-------- ------- -- ---------- --- - --- ----- ----- ----<br>---- --- --- ----- --- ---- ---- ------- ----- ---- -------<br>--- are -- ----- -- --- ---- -- --- ---- -- ------ ------<br>--- ----- -- ----,79375.5,79374.60000002384,78978.601,78991.30000001192,78995.272,79378.582,,40,are
screen,html.Screen,0_2_0_1_41,2021-12-10T11:22:14.877Z,,,,,,,,,,,,,,,,53,,,,,,,,,,,,,,403.4180000000051,,response,,,99,,,,,,Space,keypress(Space),,,,,---- -- ----- -- ------ - ------- --- ----------<br>------------- ------ ------ ---- ---- ------- ----- -- ----<br>-------- ------- -- ---------- --- - --- ----- ----- ----<br>---- --- --- ----- --- ---- ---- ------- ----- ---- -------<br>--- --- as ----- -- --- ---- -- --- ---- -- ------ ------<br>--- ----- -- ----,79783,79782,79361.913,79375.80000001192,79378.582,79795.479,,41,as
screen,html.Screen,0_2_0_1_42,2021-12-10T11:22:15.285Z,,,,,,,,,,,,,,,,53,,,,,,,,,,,,,,394.6210000238352,,response,,,99,,,,,,Space,keypress(Space),,,,,---- -- ----- -- ------ - ------- --- ----------<br>------------- ------ ------ ---- ---- ------- ----- -- ----<br>-------- ------- -- ---------- --- - --- ----- ----- ----<br>---- --- --- ----- --- ---- ---- ------- ----- ---- -------<br>--- --- -- close -- --- ---- -- --- ---- -- ------ ------<br>--- ----- -- ----,80190.89999997616,80190.10000002384,79778.807,79783.30000001192,79795.479,80195.522,,42,close
screen,html.Screen,0_2_0_1_43,2021-12-10T11:22:15.653Z,,,,,,,,,,,,,,,,53,,,,,,,,,,,,,,362.57800002384465,,response,,,99,,,,,,Space,keypress(Space),,,,,---- -- ----- -- ------ - ------- --- ----------<br>------------- ------ ------ ---- ---- ------- ----- -- ----<br>-------- ------- -- ---------- --- - --- ----- ----- ----<br>---- --- --- ----- --- ---- ---- ------- ----- ---- -------<br>--- --- -- ----- as --- ---- -- --- ---- -- ------ ------<br>--- ----- -- ----,80558.89999997616,80558.10000002384,80178.852,80191.10000002384,80195.522,80562.259,,43,as
screen,html.Screen,0_2_0_1_44,2021-12-10T11:22:16.053Z,,,,,,,,,,,,,,,,53,,,,,,,,,,,,,,395.74099999999453,,response,,,99,,,,,,Space,keypress(Space),,,,,---- -- ----- -- ------ - ------- --- ----------<br>------------- ------ ------ ---- ---- ------- ----- -- ----<br>-------- ------- -- ---------- --- - --- ----- ----- ----<br>---- --- --- ----- --- ---- ---- ------- ----- ---- -------<br>--- --- -- ----- -- you ---- -- --- ---- -- ------ ------<br>--- ----- -- ----,80958.89999997616,80958,80545.589,80559.10000002384,80562.259,80962.366,,44,you
screen,html.Screen,0_2_0_1_45,2021-12-10T11:22:16.477Z,,,,,,,,,,,,,,,,53,,,,,,,,,,,,,,419.73400002384733,,response,,,99,,,,,,Space,keypress(Space),,,,,---- -- ----- -- ------ - ------- --- ----------<br>------------- ------ ------ ---- ---- ------- ----- -- ----<br>-------- ------- -- ---------- --- - --- ----- ----- ----<br>---- --- --- ----- --- ---- ---- ------- ----- ---- -------<br>--- --- -- ----- -- --- want -- --- ---- -- ------ ------<br>--- ----- -- ----,81382.80000001192,81382.10000002384,80945.696,80959,80962.366,81395.673,,45,want
screen,html.Screen,0_2_0_1_46,2021-12-10T11:22:16.877Z,,,,,,,,,,,,,,,,53,,,,,,,,,,,,,,386.3270000000048,,response,,,99,,,,,,Space,keypress(Space),,,,,---- -- ----- -- ------ - ------- --- ----------<br>------------- ------ ------ ---- ---- ------- ----- -- ----<br>-------- ------- -- ---------- --- - --- ----- ----- ----<br>---- --- --- ----- --- ---- ---- ------- ----- ---- -------<br>--- --- -- ----- -- --- ---- to --- ---- -- ------ ------<br>--- ----- -- ----,81782.80000001192,81782,81379.005,81383.10000002384,81395.673,81795.941,,46,to
screen,html.Screen,0_2_0_1_47,2021-12-10T11:22:17.277Z,,,,,,,,,,,,,,,,53,,,,,,,,,,,,,,385.958999976152,,response,,,99,,,,,,Space,keypress(Space),,,,,"---- -- ----- -- ------ - ------- --- ----------<br>------------- ------ ------ ---- ---- ------- ----- -- ----<br>-------- ------- -- ---------- --- - --- ----- ----- ----<br>---- --- --- ----- --- ---- ---- ------- ----- ---- -------<br>--- --- -- ----- -- --- ---- -- be, ---- -- ------ ------<br>--- ----- -- ----",82182.80000001192,82181.89999997616,81779.27,81783,81795.941,82196.041,,47,"be,"
screen,html.Screen,0_2_0_1_48,2021-12-10T11:22:18.253Z,,,,,,,,,,,,,,,,53,,,,,,,,,,,,,,961.8589999761607,,response,,,99,,,,,,Space,keypress(Space),,,,,---- -- ----- -- ------ - ------- --- ----------<br>------------- ------ ------ ---- ---- ------- ----- -- ----<br>-------- ------- -- ---------- --- - --- ----- ----- ----<br>---- --- --- ----- --- ---- ---- ------- ----- ---- -------<br>--- --- -- ----- -- --- ---- -- --- even -- ------ ------<br>--- ----- -- ----,83158.69999998808,83157.89999997616,82179.37,82183,82196.041,83162.885,,48,even
screen,html.Screen,0_2_0_1_49,2021-12-10T11:22:18.726Z,,,,,,,,,,,,,,,,53,,,,,,,,,,,,,,467.5149999761634,,response,,,99,,,,,,Space,keypress(Space),,,,,---- -- ----- -- ------ - ------- --- ----------<br>------------- ------ ------ ---- ---- ------- ----- -- ----<br>-------- ------- -- ---------- --- - --- ----- ----- ----<br>---- --- --- ----- --- ---- ---- ------- ----- ---- -------<br>--- --- -- ----- -- --- ---- -- --- ---- if ------ ------<br>--- ----- -- ----,83631.30000001192,83630.39999997616,83146.215,83159,83162.885,83646.098,,49,if
screen,html.Screen,0_2_0_1_50,2021-12-10T11:22:19.221Z,,,,,,,,,,,,,,,,53,,,,,,,,,,,,,,480.10199998808093,,response,,,99,,,,,,Space,keypress(Space),,,,,---- -- ----- -- ------ - ------- --- ----------<br>------------- ------ ------ ---- ---- ------- ----- -- ----<br>-------- ------- -- ---------- --- - --- ----- ----- ----<br>---- --- --- ----- --- ---- ---- ------- ----- ---- -------<br>--- --- -- ----- -- --- ---- -- --- ---- -- that's ------<br>--- ----- -- ----,84127.10000002384,84126.19999998808,83629.43,83631.5,83646.098,84129.844,,50,that's
screen,html.Screen,0_2_0_1_51,2021-12-10T11:22:19.701Z,,,,,,,,,,,,,,,,53,,,,,,,,,,,,,,475.9560000119236,,response,,,99,,,,,,Space,keypress(Space),,,,,---- -- ----- -- ------ - ------- --- ----------<br>------------- ------ ------ ---- ---- ------- ----- -- ----<br>-------- ------- -- ---------- --- - --- ----- ----- ----<br>---- --- --- ----- --- ---- ---- ------- ----- ---- -------<br>--- --- -- ----- -- --- ---- -- --- ---- -- ------ really<br>--- ----- -- ----,84606.80000001192,84605.80000001192,84113.173,84127.39999997616,84129.844,84613.255,,51,really
screen,html.Screen,0_2_0_1_52,2021-12-10T11:22:20.109Z,,,,,,,,,,,,,,,,53,,,,,,,,,,,,,,400.5450000119163,,response,,,99,,,,,,Space,keypress(Space),,,,,---- -- ----- -- ------ - ------- --- ----------<br>------------- ------ ------ ---- ---- ------- ----- -- ----<br>-------- ------- -- ---------- --- - --- ----- ----- ----<br>---- --- --- ----- --- ---- ---- ------- ----- ---- -------<br>--- --- -- ----- -- --- ---- -- --- ---- -- ------ ------<br>not ----- -- ----,85014.5,85013.80000001192,84596.585,84607,84613.255,85030.03,,52,not
screen,html.Screen,0_2_0_1_53,2021-12-10T11:22:20.557Z,,,,,,,,,,,,,,,,53,,,,,,,,,,,,,,431.66999998808024,,response,,,99,,,,,,Space,keypress(Space),,,,,---- -- ----- -- ------ - ------- --- ----------<br>------------- ------ ------ ---- ---- ------- ----- -- ----<br>-------- ------- -- ---------- --- - --- ----- ----- ----<br>---- --- --- ----- --- ---- ---- ------- ----- ---- -------<br>--- --- -- ----- -- --- ---- -- --- ---- -- ------ ------<br>--- close -- ----,85462.5,85461.69999998808,85013.36,85014.80000001192,85030.03,85479.995,,53,close
screen,html.Screen,0_2_0_1_54,2021-12-10T11:22:20.973Z,,,,,,,,,,,,,,,,53,,,,,,,,,,,,,,397.7049999880837,,response,,,99,,,,,,Space,keypress(Space),,,,,---- -- ----- -- ------ - ------- --- ----------<br>------------- ------ ------ ---- ---- ------- ----- -- ----<br>-------- ------- -- ---------- --- - --- ----- ----- ----<br>---- --- --- ----- --- ---- ---- ------- ----- ---- -------<br>--- --- -- ----- -- --- ---- -- --- ---- -- ------ ------<br>--- ----- at ----,85878.5,85877.69999998808,85463.327,85462.80000001192,85479.995,85880.206,,54,at
screen,html.Screen,0_2_0_1_55,2021-12-10T11:22:21.629Z,,,,,,,,,,,,,,,,53,,,,,,,,,,,,,,653.4939999880735,,response,,,99,,,,,,Space,keypress(Space),,,,,---- -- ----- -- ------ - ------- --- ----------<br>------------- ------ ------ ---- ---- ------- ----- -- ----<br>-------- ------- -- ---------- --- - --- ----- ----- ----<br>---- --- --- ----- --- ---- ---- ------- ----- ---- -------<br>--- --- -- ----- -- --- ---- -- --- ---- -- ------ ------<br>--- ----- -- all.,86534.5,86533.69999998808,85863.536,85878.80000001192,85880.206,86547.117,,55,all.
Item 99,flow.Loop,0_2_0_1,2021-12-10T11:22:21.633Z,,,,,,,,,,,,,,,,,,,,,,,,,,,,,,35478.71899998808,,completion,,,,A,,,,,,,,,,silence,,86539,86533.69999998808,51038.311,51044.60000002384,51054.981,86547.117,,,
Question 1,html.Screen,0_2_0_2,2021-12-10T11:22:31.089Z,,,,,,,,,,,,,,,,,,,,,,,,,,,true,FALSE,,9445.883000000002,,response,,,99,A,,,,,FALSE,click #choice-2,,,,silence,,95994.69999998808,95993,86530.446,86539.30000001192,86547.117,95999.413,,,
Question 2,html.Screen,0_2_0_3,2021-12-10T11:22:36.038Z,,,,,,,,,,,,,,,,,,,,,,,,,,,true,TRUE,,4942.986999976158,,response,,,99,A,,,,,TRUE,click #choice-1,,,,silence,,100943.60000002384,100942.39999997616,95982.741,95995,95999.413,100950.22,,,
Item 99,flow.Sequence,0_2_0,2021-12-10T11:22:36.038Z,,,,,,,,,,,,,,,,,,,,,,,,,,,,,,59889.813999976155,,completion,,,,,,,,,,,,,,,,100944.10000002384,100942.39999997616,41035.916,41047.30000001192,41052.586,100950.22,,,
Holding screen,html.Screen,0_2_1_0,2021-12-10T11:22:46.031Z,,,,,,,,,,,,,,,,,,,,,,,,,,,,,,10002.644,,timeout,,,,,,,,,,,,,,,,110937.19999998808,110936.194,100933.556,100944.39999997616,100950.22,110952.864,,,
screen,html.Screen,0_2_1_1_0,2021-12-10T11:22:47.220Z,,,,,,,,,,,,,,,,54,,,,,,,,,,,,,,1171.5359999761567,,response,,,100,,,,,,Space,keypress(Space),,,,,At --- ---- --- ------ ----- ------- ---- -- --- ------- --<br>------- ---------- ------ -- ----- -- ----- -- ---- ------<br>--- ----- --- --- ------ -------- ----- --- ------ ----- --<br>----- ----- ---------- --- --- ------ ------ ---- -- ------<br>------- --- ------ ----- --- ---- ------- -- ---- --- --<br>------- ------,112125.19999998808,112124.39999997616,110936.194,110937.60000002384,110952.864,112136.696,,0,At
screen,html.Screen,0_2_1_1_1,2021-12-10T11:22:47.659Z,,,,,,,,,,,,,,,,54,,,,,,,,,,,,,,427.20399997616187,,response,,,100,,,,,,Space,keypress(Space),,,,,-- the ---- --- ------ ----- ------- ---- -- --- ------- --<br>------- ---------- ------ -- ----- -- ----- -- ---- ------<br>--- ----- --- --- ------ -------- ----- --- ------ ----- --<br>----- ----- ---------- --- --- ------ ------ ---- -- ------<br>------- --- ------ ----- --- ---- ------- -- ---- --- --<br>------- ------,112564.69999998808,112563.89999997616,112120.025,112125.5,112136.696,112570.04,,1,the
screen,html.Screen,0_2_1_1_2,2021-12-10T11:22:48.099Z,,,,,,,,,,,,,,,,54,,,,,,,,,,,,,,433.85999997616454,,response,,,100,,,,,,Space,keypress(Space),,,,,-- --- time --- ------ ----- ------- ---- -- --- ------- --<br>------- ---------- ------ -- ----- -- ----- -- ---- ------<br>--- ----- --- --- ------ -------- ----- --- ------ ----- --<br>----- ----- ---------- --- --- ------ ------ ---- -- ------<br>------- --- ------ ----- --- ---- ------- -- ---- --- --<br>------- ------,113004.60000002384,113003.89999997616,112553.37,112564.89999997616,112570.04,113020.123,,2,time
screen,html.Screen,0_2_1_1_3,2021-12-10T11:22:48.547Z,,,,,,,,,,,,,,,,54,,,,,,,,,,,,,,431.67700001191406,,response,,,100,,,,,,Space,keypress(Space),,,,,-- --- ---- the ------ ----- ------- ---- -- --- ------- --<br>------- ---------- ------ -- ----- -- ----- -- ---- ------<br>--- ----- --- --- ------ -------- ----- --- ------ ----- --<br>----- ----- ---------- --- --- ------ ------ ---- -- ------<br>------- --- ------ ----- --- ---- ------- -- ---- --- --<br>------- ------,113452.60000002384,113451.80000001192,113003.453,113004.89999997616,113020.123,113453.642,,3,the
screen,html.Screen,0_2_1_1_4,2021-12-10T11:22:49.083Z,,,,,,,,,,,,,,,,54,,,,,,,,,,,,,,534.1580000119138,,response,,,100,,,,,,Space,keypress(Space),,,,,-- --- ---- --- French ----- ------- ---- -- --- ------- --<br>------- ---------- ------ -- ----- -- ----- -- ---- ------<br>--- ----- --- --- ------ -------- ----- --- ------ ----- --<br>----- ----- ---------- --- --- ------ ------ ---- -- ------<br>------- --- ------ ----- --- ---- ------- -- ---- --- --<br>------- ------,113988.60000002384,113987.80000001192,113436.971,113452.89999997616,113453.642,114003.722,,4,French
screen,html.Screen,0_2_1_1_5,2021-12-10T11:22:49.891Z,,,,,,,,,,,,,,,,54,,,,,,,,,,,,,,791.9779999880848,,response,,,100,,,,,,Space,keypress(Space),,,,,-- --- ---- --- ------ crown ------- ---- -- --- ------- --<br>------- ---------- ------ -- ----- -- ----- -- ---- ------<br>--- ----- --- --- ------ -------- ----- --- ------ ----- --<br>----- ----- ---------- --- --- ------ ------ ---- -- ------<br>------- --- ------ ----- --- ---- ------- -- ---- --- --<br>------- ------,114796.60000002384,114795.69999998808,113987.052,113988.80000001192,114003.722,114803.92,,5,crown
screen,html.Screen,0_2_1_1_6,2021-12-10T11:22:50.643Z,,,,,,,,,,,,,,,,54,,,,,,,,,,,,,,743.7799999880808,,response,,,100,,,,,,Space,keypress(Space),,,,,-- --- ---- --- ------ ----- secured ---- -- --- ------- --<br>------- ---------- ------ -- ----- -- ----- -- ---- ------<br>--- ----- --- --- ------ -------- ----- --- ------ ----- --<br>----- ----- ---------- --- --- ------ ------ ---- -- ------<br>------- --- ------ ----- --- ---- ------- -- ---- --- --<br>------- ------,115548.5,115547.69999998808,114787.25,114796.89999997616,114803.92,115554.046,,6,secured
screen,html.Screen,0_2_1_1_7,2021-12-10T11:22:51.595Z,,,,,,,,,,,,,,,,54,,,,,,,,,,,,,,945.5540000238398,,response,,,100,,,,,,Space,keypress(Space),,,,,-- --- ---- --- ------ ----- ------- much -- --- ------- --<br>------- ---------- ------ -- ----- -- ----- -- ---- ------<br>--- ----- --- --- ------ -------- ----- --- ------ ----- --<br>----- ----- ---------- --- --- ------ ------ ---- -- ------<br>------- --- ------ ----- --- ---- ------- -- ---- --- --<br>------- ------,116500.39999997616,116499.60000002384,115537.376,115548.69999998808,115554.046,116504.267,,7,much
screen,html.Screen,0_2_1_1_8,2021-12-10T11:22:52.066Z,,,,,,,,,,,,,,,,54,,,,,,,,,,,,,,467.13299997615104,,response,,,100,,,,,,Space,keypress(Space),,,,,-- --- ---- --- ------ ----- ------- ---- of --- ------- --<br>------- ---------- ------ -- ----- -- ----- -- ---- ------<br>--- ----- --- --- ------ -------- ----- --- ------ ----- --<br>----- ----- ---------- --- --- ------ ------ ---- -- ------<br>------- --- ------ ----- --- ---- ------- -- ---- --- --<br>------- ------,116971.80000001192,116971.39999997616,116487.597,116500.60000002384,116504.267,116987.783,,8,of
screen,html.Screen,0_2_1_1_9,2021-12-10T11:22:52.555Z,,,,,,,,,,,,,,,,54,,,,,,,,,,,,,,471.81700002384605,,response,,,100,,,,,,Space,keypress(Space),,,,,-- --- ---- --- ------ ----- ------- ---- -- its ------- --<br>------- ---------- ------ -- ----- -- ----- -- ---- ------<br>--- ----- --- --- ------ -------- ----- --- ------ ----- --<br>----- ----- ---------- --- --- ------ ------ ---- -- ------<br>------- --- ------ ----- --- ---- ------- -- ---- --- --<br>------- ------,117460.39999997616,117459.60000002384,116971.113,116971.89999997616,116987.783,117471.249,,9,its
screen,html.Screen,0_2_1_1_10,2021-12-10T11:22:53.155Z,,,,,,,,,,,,,,,,54,,,,,,,,,,,,,,588.2510000000038,,response,,,100,,,,,,Space,keypress(Space),,,,,-- --- ---- --- ------ ----- ------- ---- -- --- revenue --<br>------- ---------- ------ -- ----- -- ----- -- ---- ------<br>--- ----- --- --- ------ -------- ----- --- ------ ----- --<br>----- ----- ---------- --- --- ------ ------ ---- -- ------<br>------- --- ------ ----- --- ---- ------- -- ---- --- --<br>------- ------,118060.30000001192,118059.5,117454.579,117460.60000002384,117471.249,118071.354,,10,revenue
screen,html.Screen,0_2_1_1_11,2021-12-10T11:22:53.666Z,,,,,,,,,,,,,,,,54,,,,,,,,,,,,,,499.9460000119143,,response,,,100,,,,,,Space,keypress(Space),,,,,-- --- ---- --- ------ ----- ------- ---- -- --- ------- by<br>------- ---------- ------ -- ----- -- ----- -- ---- ------<br>--- ----- --- --- ------ -------- ----- --- ------ ----- --<br>----- ----- ---------- --- --- ------ ------ ---- -- ------<br>------- --- ------ ----- --- ---- ------- -- ---- --- --<br>------- ------,118571.80000001192,118571.30000001192,118054.684,118060.60000002384,118071.354,118588.168,,11,by
screen,html.Screen,0_2_1_1_12,2021-12-10T11:22:54.155Z,,,,,,,,,,,,,,,,54,,,,,,,,,,,,,,471.231999976153,,response,,,100,,,,,,Space,keypress(Space),,,,,-- --- ---- --- ------ ----- ------- ---- -- --- ------- --<br>issuing ---------- ------ -- ----- -- ----- -- ---- ------<br>--- ----- --- --- ------ -------- ----- --- ------ ----- --<br>----- ----- ---------- --- --- ------ ------ ---- -- ------<br>------- --- ------ ----- --- ---- ------- -- ---- --- --<br>------- ------,119060.19999998808,119059.39999997616,118571.498,118571.89999997616,118588.168,119071.634,,12,issuing
screen,html.Screen,0_2_1_1_13,2021-12-10T11:22:54.722Z,,,,,,,,,,,,,,,,54,,,,,,,,,,,,,,555.6660000119155,,response,,,100,,,,,,Space,keypress(Space),,,,,-- --- ---- --- ------ ----- ------- ---- -- --- ------- --<br>------- government ------ -- ----- -- ----- -- ---- ------<br>--- ----- --- --- ------ -------- ----- --- ------ ----- --<br>----- ----- ---------- --- --- ------ ------ ---- -- ------<br>------- --- ------ ----- --- ---- ------- -- ---- --- --<br>------- ------,119628.19999998808,119627.30000001192,119054.964,119060.5,119071.634,119638.419,,13,government
screen,html.Screen,0_2_1_1_14,2021-12-10T11:22:56.327Z,,,,,,,,,,,,,,,,54,,,,,,,,,,,,,,1588.8810000119265,,response,,,100,,,,,,Space,keypress(Space),,,,,-- --- ---- --- ------ ----- ------- ---- -- --- ------- --<br>------- ---------- bonds. -- ----- -- ----- -- ---- ------<br>--- ----- --- --- ------ -------- ----- --- ------ ----- --<br>----- ----- ---------- --- --- ------ ------ ---- -- ------<br>------- --- ------ ----- --- ---- ------- -- ---- --- --<br>------- ------,121228,121227.30000001192,119621.749,119628.39999997616,119638.419,121238.751,,14,bonds.
screen,html.Screen,0_2_1_1_15,2021-12-10T11:22:56.855Z,,,,,,,,,,,,,,,,54,,,,,,,,,,,,,,516.4489999880752,,response,,,100,,,,,,Space,keypress(Space),,,,,-- --- ---- --- ------ ----- ------- ---- -- --- ------- --<br>------- ---------- ------ In ----- -- ----- -- ---- ------<br>--- ----- --- --- ------ -------- ----- --- ------ ----- --<br>----- ----- ---------- --- --- ------ ------ ---- -- ------<br>------- --- ------ ----- --- ---- ------- -- ---- --- --<br>------- ------,121756,121755.19999998808,121222.081,121228.30000001192,121238.751,121772.268,,15,In
screen,html.Screen,0_2_1_1_16,2021-12-10T11:22:57.895Z,,,,,,,,,,,,,,,,54,,,,,,,,,,,,,,1023.4319999880827,,response,,,100,,,,,,Space,keypress(Space),,,,,"-- --- ---- --- ------ ----- ------- ---- -- --- ------- --<br>------- ---------- ------ -- 1727, -- ----- -- ---- ------<br>--- ----- --- --- ------ -------- ----- --- ------ ----- --<br>----- ----- ---------- --- --- ------ ------ ---- -- ------<br>------- --- ------ ----- --- ---- ------- -- ---- --- --<br>------- ------",122796.39999997616,122795.69999998808,121755.598,121756.30000001192,121772.268,122805.845,,16,"1727,"
screen,html.Screen,0_2_1_1_17,2021-12-10T11:22:58.694Z,,,,,,,,,,,,,,,,54,,,,,,,,,,,,,,789.1549999999988,,response,,,100,,,,,,Space,keypress(Space),,,,,-- --- ---- --- ------ ----- ------- ---- -- --- ------- --<br>------- ---------- ------ -- ----- in ----- -- ---- ------<br>--- ----- --- --- ------ -------- ----- --- ------ ----- --<br>----- ----- ---------- --- --- ------ ------ ---- -- ------<br>------- --- ------ ----- --- ---- ------- -- ---- --- --<br>------- ------,123595.80000001192,123595,122789.175,122796.60000002384,122805.845,123606.007,,17,in
screen,html.Screen,0_2_1_1_18,2021-12-10T11:22:59.327Z,,,,,,,,,,,,,,,,54,,,,,,,,,,,,,,620.9930000000022,,response,,,100,,,,,,Space,keypress(Space),,,,,-- --- ---- --- ------ ----- ------- ---- -- --- ------- --<br>------- ---------- ------ -- ----- -- order -- ---- ------<br>--- ----- --- --- ------ -------- ----- --- ------ ----- --<br>----- ----- ---------- --- --- ------ ------ ---- -- ------<br>------- --- ------ ----- --- ---- ------- -- ---- --- --<br>------- ------,124227.80000001192,124227,123589.337,123596,123606.007,124239.52,,18,order
screen,html.Screen,0_2_1_1_19,2021-12-10T11:22:59.687Z,,,,,,,,,,,,,,,,54,,,,,,,,,,,,,,347.4799999999959,,response,,,100,,,,,,Space,keypress(Space),,,,,-- --- ---- --- ------ ----- ------- ---- -- --- ------- --<br>------- ---------- ------ -- ----- -- ----- to ---- ------<br>--- ----- --- --- ------ -------- ----- --- ------ ----- --<br>----- ----- ---------- --- --- ------ ------ ---- -- ------<br>------- --- ------ ----- --- ---- ------- -- ---- --- --<br>------- ------,124587.80000001192,124587,124222.85,124228.10000002384,124239.52,124589.638,,19,to
screen,html.Screen,0_2_1_1_20,2021-12-10T11:23:00.119Z,,,,,,,,,,,,,,,,54,,,,,,,,,,,,,,429.3619999999937,,response,,,100,,,,,,Space,keypress(Space),,,,,-- --- ---- --- ------ ----- ------- ---- -- --- ------- --<br>------- ---------- ------ -- ----- -- ----- -- save ------<br>--- ----- --- --- ------ -------- ----- --- ------ ----- --<br>----- ----- ---------- --- --- ------ ------ ---- -- ------<br>------- --- ------ ----- --- ---- ------- -- ---- --- --<br>------- ------,125019.80000001192,125019,124572.968,124588.10000002384,124589.638,125022.998,,20,save
screen,html.Screen,0_2_1_1_21,2021-12-10T11:23:00.982Z,,,,,,,,,,,,,,,,54,,,,,,,,,,,,,,859.9019999761513,,response,,,100,,,,,,Space,keypress(Space),,,,,"-- --- ---- --- ------ ----- ------- ---- -- --- ------- --<br>------- ---------- ------ -- ----- -- ----- -- ---- money,<br>--- ----- --- --- ------ -------- ----- --- ------ ----- --<br>----- ----- ---------- --- --- ------ ------ ---- -- ------<br>------- --- ------ ----- --- ---- ------- -- ---- --- --<br>------- ------",125883.69999998808,125882.89999997616,125006.329,125020.10000002384,125022.998,125890.082,,21,"money,"
screen,html.Screen,0_2_1_1_22,2021-12-10T11:23:01.702Z,,,,,,,,,,,,,,,,54,,,,,,,,,,,,,,712.718000011926,,response,,,100,,,,,,Space,keypress(Space),,,,,-- --- ---- --- ------ ----- ------- ---- -- --- ------- --<br>------- ---------- ------ -- ----- -- ----- -- ---- ------<br>the ----- --- --- ------ -------- ----- --- ------ ----- --<br>----- ----- ---------- --- --- ------ ------ ---- -- ------<br>------- --- ------ ----- --- ---- ------- -- ---- --- --<br>------- ------,126603.5,126602.80000001192,125873.41,125884,125890.082,126606.759,,22,the
screen,html.Screen,0_2_1_1_23,2021-12-10T11:23:02.190Z,,,,,,,,,,,,,,,,54,,,,,,,,,,,,,,484.04100001191546,,response,,,100,,,,,,Space,keypress(Space),,,,,-- --- ---- --- ------ ----- ------- ---- -- --- ------- --<br>------- ---------- ------ -- ----- -- ----- -- ---- ------<br>--- state --- --- ------ -------- ----- --- ------ ----- --<br>----- ----- ---------- --- --- ------ ------ ---- -- ------<br>------- --- ------ ----- --- ---- ------- -- ---- --- --<br>------- ------,127091.60000002384,127090.80000001192,126590.089,126603.89999997616,126606.759,127106.909,,23,state
screen,html.Screen,0_2_1_1_24,2021-12-10T11:23:03.086Z,,,,,,,,,,,,,,,,54,,,,,,,,,,,,,,879.7909999880794,,response,,,100,,,,,,Space,keypress(Space),,,,,-- --- ---- --- ------ ----- ------- ---- -- --- ------- --<br>------- ---------- ------ -- ----- -- ----- -- ---- ------<br>--- ----- cut --- ------ -------- ----- --- ------ ----- --<br>----- ----- ---------- --- --- ------ ------ ---- -- ------<br>------- --- ------ ----- --- ---- ------- -- ---- --- --<br>------- ------,127987.5,127986.69999998808,127090.239,127091.89999997616,127106.909,127990.283,,24,cut
screen,html.Screen,0_2_1_1_25,2021-12-10T11:23:03.454Z,,,,,,,,,,,,,,,,54,,,,,,,,,,,,,,364.41699998808326,,response,,,100,,,,,,Space,keypress(Space),,,,,-- --- ---- --- ------ ----- ------- ---- -- --- ------- --<br>------- ---------- ------ -- ----- -- ----- -- ---- ------<br>--- ----- --- the ------ -------- ----- --- ------ ----- --<br>----- ----- ---------- --- --- ------ ------ ---- -- ------<br>------- --- ------ ----- --- ---- ------- -- ---- --- --<br>------- ------,128355.5,128354.69999998808,127973.614,127987.80000001192,127990.283,128357.309,,25,the
screen,html.Screen,0_2_1_1_26,2021-12-10T11:23:03.918Z,,,,,,,,,,,,,,,,54,,,,,,,,,,,,,,461.39099998808524,,response,,,100,,,,,,Space,keypress(Space),,,,,-- --- ---- --- ------ ----- ------- ---- -- --- ------- --<br>------- ---------- ------ -- ----- -- ----- -- ---- ------<br>--- ----- --- --- bonds' -------- ----- --- ------ ----- --<br>----- ----- ---------- --- --- ------ ------ ---- -- ------<br>------- --- ------ ----- --- ---- ------- -- ---- --- --<br>------- ------,128819.60000002384,128818.69999998808,128340.637,128355.80000001192,128357.309,128823.989,,26,bonds'
screen,html.Screen,0_2_1_1_27,2021-12-10T11:23:04.686Z,,,,,,,,,,,,,,,,54,,,,,,,,,,,,,,762.6110000238405,,response,,,100,,,,,,Space,keypress(Space),,,,,-- --- ---- --- ------ ----- ------- ---- -- --- ------- --<br>------- ---------- ------ -- ----- -- ----- -- ---- ------<br>--- ----- --- --- ------ interest ----- --- ------ ----- --<br>----- ----- ---------- --- --- ------ ------ ---- -- ------<br>------- --- ------ ----- --- ---- ------- -- ---- --- --<br>------- ------,129587.60000002384,129586.60000002384,128807.319,128819.80000001192,128823.989,129590.851,,27,interest
screen,html.Screen,0_2_1_1_28,2021-12-10T11:23:05.110Z,,,,,,,,,,,,,,,,54,,,,,,,,,,,,,,419.84899998808396,,response,,,100,,,,,,Space,keypress(Space),,,,,-- --- ---- --- ------ ----- ------- ---- -- --- ------- --<br>------- ---------- ------ -- ----- -- ----- -- ---- ------<br>--- ----- --- --- ------ -------- rate. --- ------ ----- --<br>----- ----- ---------- --- --- ------ ------ ---- -- ------<br>------- --- ------ ----- --- ---- ------- -- ---- --- --<br>------- ------,130011.39999997616,130010.69999998808,129574.181,129587.89999997616,129590.851,130024.27,,28,rate.
screen,html.Screen,0_2_1_1_29,2021-12-10T11:23:05.950Z,,,,,,,,,,,,,,,,54,,,,,,,,,,,,,,826.3300000238378,,response,,,100,,,,,,Space,keypress(Space),,,,,-- --- ---- --- ------ ----- ------- ---- -- --- ------- --<br>------- ---------- ------ -- ----- -- ----- -- ---- ------<br>--- ----- --- --- ------ -------- ----- The ------ ----- --<br>----- ----- ---------- --- --- ------ ------ ---- -- ------<br>------- --- ------ ----- --- ---- ------- -- ---- --- --<br>------- ------,130851.5,130850.60000002384,130007.6,130011.69999998808,130024.27,130857.802,,29,The
screen,html.Screen,0_2_1_1_30,2021-12-10T11:23:06.366Z,,,,,,,,,,,,,,,,54,,,,,,,,,,,,,,408.7980000238458,,response,,,100,,,,,,Space,keypress(Space),,,,,-- --- ---- --- ------ ----- ------- ---- -- --- ------- --<br>------- ---------- ------ -- ----- -- ----- -- ---- ------<br>--- ----- --- --- ------ -------- ----- --- market ----- --<br>----- ----- ---------- --- --- ------ ------ ---- -- ------<br>------- --- ------ ----- --- ---- ------- -- ---- --- --<br>------- ------,131267.39999997616,131266.60000002384,130841.132,130851.69999998808,130857.802,131274.586,,30,market
screen,html.Screen,0_2_1_1_31,2021-12-10T11:23:06.742Z,,,,,,,,,,,,,,,,54,,,,,,,,,,,,,,367.91399999998976,,response,,,100,,,,,,Space,keypress(Space),,,,,-- --- ---- --- ------ ----- ------- ---- -- --- ------- --<br>------- ---------- ------ -- ----- -- ----- -- ---- ------<br>--- ----- --- --- ------ -------- ----- --- ------ value --<br>----- ----- ---------- --- --- ------ ------ ---- -- ------<br>------- --- ------ ----- --- ---- ------- -- ---- --- --<br>------- ------,131643.5,131642.5,131257.916,131267.60000002384,131274.586,131658.023,,31,value
screen,html.Screen,0_2_1_1_32,2021-12-10T11:23:07.158Z,,,,,,,,,,,,,,,,54,,,,,,,,,,,,,,400.4770000000135,,response,,,100,,,,,,Space,keypress(Space),,,,,-- --- ---- --- ------ ----- ------- ---- -- --- ------- --<br>------- ---------- ------ -- ----- -- ----- -- ---- ------<br>--- ----- --- --- ------ -------- ----- --- ------ ----- of<br>----- ----- ---------- --- --- ------ ------ ---- -- ------<br>------- --- ------ ----- --- ---- ------- -- ---- --- --<br>------- ------,132059.30000001192,132058.5,131641.353,131643.69999998808,131658.023,132074.79,,32,of
screen,html.Screen,0_2_1_1_33,2021-12-10T11:23:07.606Z,,,,,,,,,,,,,,,,54,,,,,,,,,,,,,,431.60999997615,,response,,,100,,,,,,Space,keypress(Space),,,,,-- --- ---- --- ------ ----- ------- ---- -- --- ------- --<br>------- ---------- ------ -- ----- -- ----- -- ---- ------<br>--- ----- --- --- ------ -------- ----- --- ------ ----- --<br>these ----- ---------- --- --- ------ ------ ---- -- ------<br>------- --- ------ ----- --- ---- ------- -- ---- --- --<br>------- ------,132507.39999997616,132506.39999997616,132058.12,132059.60000002384,132074.79,132524.901,,33,these
screen,html.Screen,0_2_1_1_34,2021-12-10T11:23:08.031Z,,,,,,,,,,,,,,,,54,,,,,,,,,,,,,,405.99899997614557,,response,,,100,,,,,,Space,keypress(Space),,,,,-- --- ---- --- ------ ----- ------- ---- -- --- ------- --<br>------- ---------- ------ -- ----- -- ----- -- ---- ------<br>--- ----- --- --- ------ -------- ----- --- ------ ----- --<br>----- bonds ---------- --- --- ------ ------ ---- -- ------<br>------- --- ------ ----- --- ---- ------- -- ---- --- --<br>------- ------,132931.89999997616,132930.89999997616,132508.231,132507.60000002384,132524.901,132941.644,,34,bonds
screen,html.Screen,0_2_1_1_35,2021-12-10T11:23:08.462Z,,,,,,,,,,,,,,,,54,,,,,,,,,,,,,,420.7559999761579,,response,,,100,,,,,,Space,keypress(Space),,,,,"-- --- ---- --- ------ ----- ------- ---- -- --- ------- --<br>------- ---------- ------ -- ----- -- ----- -- ---- ------<br>--- ----- --- --- ------ -------- ----- --- ------ ----- --<br>----- ----- plummeted, --- --- ------ ------ ---- -- ------<br>------- --- ------ ----- --- ---- ------- -- ---- --- --<br>------- ------",133363.30000001192,133362.39999997616,132924.974,132932.10000002384,132941.644,133375.086,,35,"plummeted,"
screen,html.Screen,0_2_1_1_36,2021-12-10T11:23:09.222Z,,,,,,,,,,,,,,,,54,,,,,,,,,,,,,,747.3139999761479,,response,,,100,,,,,,Space,keypress(Space),,,,,-- --- ---- --- ------ ----- ------- ---- -- --- ------- --<br>------- ---------- ------ -- ----- -- ----- -- ---- ------<br>--- ----- --- --- ------ -------- ----- --- ------ ----- --<br>----- ----- ---------- and --- ------ ------ ---- -- ------<br>------- --- ------ ----- --- ---- ------- -- ---- --- --<br>------- ------,134123.19999998808,134122.39999997616,133358.416,133363.5,133375.086,134125.095,,36,and
screen,html.Screen,0_2_1_1_37,2021-12-10T11:23:09.630Z,,,,,,,,,,,,,,,,54,,,,,,,,,,,,,,405.20500001191976,,response,,,100,,,,,,Space,keypress(Space),,,,,-- --- ---- --- ------ ----- ------- ---- -- --- ------- --<br>------- ---------- ------ -- ----- -- ----- -- ---- ------<br>--- ----- --- --- ------ -------- ----- --- ------ ----- --<br>----- ----- ---------- --- the ------ ------ ---- -- ------<br>------- --- ------ ----- --- ---- ------- -- ---- --- --<br>------- ------,134531.19999998808,134530.30000001192,134108.427,134123.60000002384,134125.095,134542.149,,37,the
screen,html.Screen,0_2_1_1_38,2021-12-10T11:23:10.062Z,,,,,,,,,,,,,,,,54,,,,,,,,,,,,,,420.15100001191604,,response,,,100,,,,,,Space,keypress(Space),,,,,-- --- ---- --- ------ ----- ------- ---- -- --- ------- --<br>------- ---------- ------ -- ----- -- ----- -- ---- ------<br>--- ----- --- --- ------ -------- ----- --- ------ ----- --<br>----- ----- ---------- --- --- market ------ ---- -- ------<br>------- --- ------ ----- --- ---- ------- -- ---- --- --<br>------- ------,134963.19999998808,134962.30000001192,134525.477,134531.30000001192,134542.149,134975.483,,38,market
screen,html.Screen,0_2_1_1_39,2021-12-10T11:23:10.470Z,,,,,,,,,,,,,,,,54,,,,,,,,,,,,,,394.7169999880716,,response,,,100,,,,,,Space,keypress(Space),,,,,-- --- ---- --- ------ ----- ------- ---- -- --- ------- --<br>------- ---------- ------ -- ----- -- ----- -- ---- ------<br>--- ----- --- --- ------ -------- ----- --- ------ ----- --<br>----- ----- ---------- --- --- ------ became ---- -- ------<br>------- --- ------ ----- --- ---- ------- -- ---- --- --<br>------- ------,135371,135370.19999998808,134958.813,134963.39999997616,134975.483,135375.603,,39,became
screen,html.Screen,0_2_1_1_40,2021-12-10T11:23:10.854Z,,,,,,,,,,,,,,,,54,,,,,,,,,,,,,,378.5969999880763,,response,,,100,,,,,,Space,keypress(Space),,,,,-- --- ---- --- ------ ----- ------- ---- -- --- ------- --<br>------- ---------- ------ -- ----- -- ----- -- ---- ------<br>--- ----- --- --- ------ -------- ----- --- ------ ----- --<br>----- ----- ---------- --- --- ------ ------ wary -- ------<br>------- --- ------ ----- --- ---- ------- -- ---- --- --<br>------- ------,135755.10000002384,135754.19999998808,135358.933,135371.39999997616,135375.603,135758.88,,40,wary
screen,html.Screen,0_2_1_1_41,2021-12-10T11:23:11.326Z,,,,,,,,,,,,,,,,54,,,,,,,,,,,,,,467.3199999880744,,response,,,100,,,,,,Space,keypress(Space),,,,,-- --- ---- --- ------ ----- ------- ---- -- --- ------- --<br>------- ---------- ------ -- ----- -- ----- -- ---- ------<br>--- ----- --- --- ------ -------- ----- --- ------ ----- --<br>----- ----- ---------- --- --- ------ ------ ---- of ------<br>------- --- ------ ----- --- ---- ------- -- ---- --- --<br>------- ------,136227.10000002384,136226.19999998808,135742.212,135755.30000001192,135758.88,136242.419,,41,of
screen,html.Screen,0_2_1_1_42,2021-12-10T11:23:11.742Z,,,,,,,,,,,,,,,,54,,,,,,,,,,,,,,399.68100002384745,,response,,,100,,,,,,Space,keypress(Space),,,,,-- --- ---- --- ------ ----- ------- ---- -- --- ------- --<br>------- ---------- ------ -- ----- -- ----- -- ---- ------<br>--- ----- --- --- ------ -------- ----- --- ------ ----- --<br>----- ----- ---------- --- --- ------ ------ ---- -- French<br>------- --- ------ ----- --- ---- ------- -- ---- --- --<br>------- ------,136643,136642.10000002384,136225.749,136228.80000001192,136242.419,136659.329,,42,French
screen,html.Screen,0_2_1_1_43,2021-12-10T11:23:12.118Z,,,,,,,,,,,,,,,,54,,,,,,,,,,,,,,358.87099998808117,,response,,,100,,,,,,Space,keypress(Space),,,,,-- --- ---- --- ------ ----- ------- ---- -- --- ------- --<br>------- ---------- ------ -- ----- -- ----- -- ---- ------<br>--- ----- --- --- ------ -------- ----- --- ------ ----- --<br>----- ----- ---------- --- --- ------ ------ ---- -- ------<br>credit. --- ------ ----- --- ---- ------- -- ---- --- --<br>------- ------,137018.89999997616,137018.19999998808,136642.657,136643.39999997616,136659.329,137026.006,,43,credit.
screen,html.Screen,0_2_1_1_44,2021-12-10T11:23:12.638Z,,,,,,,,,,,,,,,,54,,,,,,,,,,,,,,512.1939999880851,,response,,,100,,,,,,Space,keypress(Space),,,,,-- --- ---- --- ------ ----- ------- ---- -- --- ------- --<br>------- ---------- ------ -- ----- -- ----- -- ---- ------<br>--- ----- --- --- ------ -------- ----- --- ------ ----- --<br>----- ----- ---------- --- --- ------ ------ ---- -- ------<br>------- The ------ ----- --- ---- ------- -- ---- --- --<br>------- ------,137539,137538.19999998808,137009.336,137019.19999998808,137026.006,137542.687,,44,The
screen,html.Screen,0_2_1_1_45,2021-12-10T11:23:12.950Z,,,,,,,,,,,,,,,,54,,,,,,,,,,,,,,307.4130000238365,,response,,,100,,,,,,Space,keypress(Space),,,,,-- --- ---- --- ------ ----- ------- ---- -- --- ------- --<br>------- ---------- ------ -- ----- -- ----- -- ---- ------<br>--- ----- --- --- ------ -------- ----- --- ------ ----- --<br>----- ----- ---------- --- --- ------ ------ ---- -- ------<br>------- --- French ----- --- ---- ------- -- ---- --- --<br>------- ------,137851,137850.10000002384,137526.018,137539.19999998808,137542.687,137859.579,,45,French
screen,html.Screen,0_2_1_1_46,2021-12-10T11:23:13.326Z,,,,,,,,,,,,,,,,54,,,,,,,,,,,,,,366.52100002384395,,response,,,100,,,,,,Space,keypress(Space),,,,,-- --- ---- --- ------ ----- ------- ---- -- --- ------- --<br>------- ---------- ------ -- ----- -- ----- -- ---- ------<br>--- ----- --- --- ------ -------- ----- --- ------ ----- --<br>----- ----- ---------- --- --- ------ ------ ---- -- ------<br>------- --- ------ state --- ---- ------- -- ---- --- --<br>------- ------,138226.89999997616,138226.10000002384,137842.908,137851.19999998808,137859.579,138242.943,,46,state
screen,html.Screen,0_2_1_1_47,2021-12-10T11:23:13.662Z,,,,,,,,,,,,,,,,54,,,,,,,,,,,,,,319.15700002384256,,response,,,100,,,,,,Space,keypress(Space),,,,,-- --- ---- --- ------ ----- ------- ---- -- --- ------- --<br>------- ---------- ------ -- ----- -- ----- -- ---- ------<br>--- ----- --- --- ------ -------- ----- --- ------ ----- --<br>----- ----- ---------- --- --- ------ ------ ---- -- ------<br>------- --- ------ ----- was ---- ------- -- ---- --- --<br>------- ------,138562.89999997616,138562.10000002384,138226.273,138227.10000002384,138242.943,138576.361,,47,was
screen,html.Screen,0_2_1_1_48,2021-12-10T11:23:13.950Z,,,,,,,,,,,,,,,,54,,,,,,,,,,,,,,273.73900002383743,,response,,,100,,,,,,Space,keypress(Space),,,,,-- --- ---- --- ------ ----- ------- ---- -- --- ------- --<br>------- ---------- ------ -- ----- -- ----- -- ---- ------<br>--- ----- --- --- ------ -------- ----- --- ------ ----- --<br>----- ----- ---------- --- --- ------ ------ ---- -- ------<br>------- --- ------ ----- --- left ------- -- ---- --- --<br>------- ------,138850.89999997616,138850.10000002384,138559.691,138563.10000002384,138576.361,138859.784,,48,left
screen,html.Screen,0_2_1_1_49,2021-12-10T11:23:14.310Z,,,,,,,,,,,,,,,,54,,,,,,,,,,,,,,350.2159999999858,,response,,,100,,,,,,Space,keypress(Space),,,,,-- --- ---- --- ------ ----- ------- ---- -- --- ------- --<br>------- ---------- ------ -- ----- -- ----- -- ---- ------<br>--- ----- --- --- ------ -------- ----- --- ------ ----- --<br>----- ----- ---------- --- --- ------ ------ ---- -- ------<br>------- --- ------ ----- --- ---- without -- ---- --- --<br>------- ------,139210.80000001192,139210,138843.114,138851.19999998808,138859.784,139226.398,,49,without
screen,html.Screen,0_2_1_1_50,2021-12-10T11:23:14.638Z,,,,,,,,,,,,,,,,54,,,,,,,,,,,,,,311.6020000000135,,response,,,100,,,,,,Space,keypress(Space),,,,,-- --- ---- --- ------ ----- ------- ---- -- --- ------- --<br>------- ---------- ------ -- ----- -- ----- -- ---- ------<br>--- ----- --- --- ------ -------- ----- --- ------ ----- --<br>----- ----- ---------- --- --- ------ ------ ---- -- ------<br>------- --- ------ ----- --- ---- ------- an ---- --- --<br>------- ------,139538.80000001192,139538,139209.73,139211.10000002384,139226.398,139543.347,,50,an
screen,html.Screen,0_2_1_1_51,2021-12-10T11:23:15.166Z,,,,,,,,,,,,,,,,54,,,,,,,,,,,,,,522.6529999999912,,response,,,100,,,,,,Space,keypress(Space),,,,,-- --- ---- --- ------ ----- ------- ---- -- --- ------- --<br>------- ---------- ------ -- ----- -- ----- -- ---- ------<br>--- ----- --- --- ------ -------- ----- --- ------ ----- --<br>----- ----- ---------- --- --- ------ ------ ---- -- ------<br>------- --- ------ ----- --- ---- ------- -- easy --- --<br>------- ------,140066.80000001192,140066,139526.675,139539.10000002384,139543.347,140076.723,,51,easy
screen,html.Screen,0_2_1_1_52,2021-12-10T11:23:15.573Z,,,,,,,,,,,,,,,,54,,,,,,,,,,,,,,397.27700000000186,,response,,,100,,,,,,Space,keypress(Space),,,,,-- --- ---- --- ------ ----- ------- ---- -- --- ------- --<br>------- ---------- ------ -- ----- -- ----- -- ---- ------<br>--- ----- --- --- ------ -------- ----- --- ------ ----- --<br>----- ----- ---------- --- --- ------ ------ ---- -- ------<br>------- --- ------ ----- --- ---- ------- -- ---- way --<br>------- ------,140474.69999998808,140474,140060.053,140067.10000002384,140076.723,140476.838,,52,way
screen,html.Screen,0_2_1_1_53,2021-12-10T11:23:16.013Z,,,,,,,,,,,,,,,,54,,,,,,,,,,,,,,436.9620000119321,,response,,,100,,,,,,Space,keypress(Space),,,,,-- --- ---- --- ------ ----- ------- ---- -- --- ------- --<br>------- ---------- ------ -- ----- -- ----- -- ---- ------<br>--- ----- --- --- ------ -------- ----- --- ------ ----- --<br>----- ----- ---------- --- --- ------ ------ ---- -- ------<br>------- --- ------ ----- --- ---- ------- -- ---- --- of<br>------- ------,140914.69999998808,140913.80000001192,140460.168,140474.89999997616,140476.838,140926.95,,53,of
screen,html.Screen,0_2_1_1_54,2021-12-10T11:23:16.597Z,,,,,,,,,,,,,,,,54,,,,,,,,,,,,,,570.8500000119093,,response,,,100,,,,,,Space,keypress(Space),,,,,-- --- ---- --- ------ ----- ------- ---- -- --- ------- --<br>------- ---------- ------ -- ----- -- ----- -- ---- ------<br>--- ----- --- --- ------ -------- ----- --- ------ ----- --<br>----- ----- ---------- --- --- ------ ------ ---- -- ------<br>------- --- ------ ----- --- ---- ------- -- ---- --- --<br>raising ------,141498.60000002384,141497.80000001192,140910.28,140915,140926.95,141510.396,,54,raising
screen,html.Screen,0_2_1_1_55,2021-12-10T11:23:17.101Z,,,,,,,,,,,,,,,,54,,,,,,,,,,,,,,491.404000011913,,response,,,100,,,,,,Space,keypress(Space),,,,,-- --- ---- --- ------ ----- ------- ---- -- --- ------- --<br>------- ---------- ------ -- ----- -- ----- -- ---- ------<br>--- ----- --- --- ------ -------- ----- --- ------ ----- --<br>----- ----- ---------- --- --- ------ ------ ---- -- ------<br>------- --- ------ ----- --- ---- ------- -- ---- --- --<br>------- money.,142002.69999998808,142001.80000001192,141493.726,141498.89999997616,141510.396,142010.52,,55,money.
Item 100,flow.Loop,0_2_1_1,2021-12-10T11:23:17.102Z,,,,,,,,,,,,,,,,,,,,,,,,,,,,,,31048.93600001192,,completion,,,,A,,,,,,,,,,silence,,142003.10000002384,142001.80000001192,110936.194,110937.5,110952.864,142010.52,,,
Question 1,html.Screen,0_2_1_2,2021-12-10T11:23:20.468Z,,,,,,,,,,,,,,,,,,,,,,,,,,,true,TRUE,,3356.9800000000105,,response,,,100,A,,,,,TRUE,click #choice-1,,,,silence,,145368.80000001192,145367.5,141993.85,142003.39999997616,142010.52,145377.917,,,
Question 2,html.Screen,0_2_1_3,2021-12-10T11:23:24.495Z,,,,,,,,,,,,,,,,,,,,,,,,,,,true,FALSE,,4016.883000011934,,response,,,100,A,,,,,FALSE,click #choice-2,,,,silence,,149396.10000002384,149394.80000001192,145361.248,145369,145377.917,149395.661,,,
Item 100,flow.Sequence,0_2_1,2021-12-10T11:23:24.495Z,,,,,,,,,,,,,,,,,,,,,,,,,,,,,,48444.58000001192,,completion,,,,,,,,,,,,,,,,149396.60000002384,149394.80000001192,100933.556,100944.30000001192,100950.22,149395.661,,,
End of Practice,html.Page,0_2_2,2021-12-10T11:23:30.071Z,,,,,,,,,,,,,,,,,,,,,,,,,,,,,,5575.639000011928,,form submission,,,,,,,,,,,,,,,,154971.89999997616,154971.30000001192,149378.991,149396.80000001192,149395.661,154980.397,,,
Practice,flow.Sequence,0_2,2021-12-10T11:23:30.071Z,,,,,,,,,,,,,,,,,,,,,,,,,,,,,,113918.71400001191,,completion,,,,,,,,,,,,,,,,154972.39999997616,154971.30000001192,41035.916,41047.19999998808,41052.586,154980.397,,,
Trap_instruction,html.Page,0_3_0,2021-12-10T11:23:34.916Z,,,,,,,,,,,,,,,,,,,,,,,,,,,,,,4835.903000011924,,form submission,,,,,,,,,,,,,,,,159816.89999997616,159816.30000001192,154963.718,154972.80000001192,154980.397,159847.941,,,
trap_trial,html.Screen,0_3_1,2021-12-10T11:23:37.477Z,,,,,,,,,,,,,,,,,,,,,,,,,,,true,1,,2529.2589999880875,,response,,,,,,,,,1,click #choice-1,,,,,,162378.60000002384,162377.19999998808,159814.601,159817.10000002384,159847.941,162382.005,,,
end of trap trial,html.Page,0_3_2,2021-12-10T11:23:39.327Z,,,,,,,,,,,,,,,,,,,,,,,,,,,,,,1845.7950000119163,,form submission,,,,,,,,,,,,,,,,164228.5,164227.80000001192,162365.335,162378.89999997616,162382.005,164232.577,,,
Trap 1,flow.Sequence,0_3,2021-12-10T11:23:39.328Z,,,,,,,,,,,,,,,,,,,,,,,,,,,,,,9247.403000011924,,completion,,,,,,,,,,,,,,,,164228.89999997616,164227.80000001192,154963.718,154972.69999998808,154980.397,164232.577,,,
Standby,html.Page,0_4_0,2021-12-10T11:23:47.317Z,,,,,,,,,,,,,,,,,,,,,,,,,,,,,,8001.583000000013,,timeout,,,,,,,,,,,,,,,,172218.5,172217.49,164215.907,164229.30000001192,164232.577,172234.16,,,
Holding screen,html.Screen,0_4_1_0_0,2021-12-10T11:23:54.319Z,,,,,,,,,,,,,,,,,,,,,,,,,,,,,,7002.019,,timeout,,,,,,,,,,,,,,,,179220.39999997616,179219.509,172217.49,172218.89999997616,172234.16,179236.179,,,
screen,html.Screen,0_4_1_0_1_0,2021-12-10T11:23:56.036Z,,,,,,,,,,,,,,,,2,,,,,,,,,,,,,,1699.5209999880753,,response,,,1,A,,,,,Space,keypress(Space),,,,silence,Two ---- ------ --- ------- ---------- ------- ----------<br>--- --------- --- ----------- ------- ----- ------- ---<br>--------- ---- -- --- ---- -- --------- -- ---- -------<br>-- --------- ------ --- ----- ------ ---- --- --------- --<br>------ - ---- -- --- ----------- ------- ---- ----- -----<br>--- -------- - ------ ---- -- ----- ---- --- --- -----------<br>-- -------,180936.80000001192,180935.69999998808,179219.509,179220.80000001192,179236.179,180936.57,,0,Two
screen,html.Screen,0_4_1_0_1_1,2021-12-10T11:23:56.838Z,,,,,,,,,,,,,,,,2,,,,,,,,,,,,,,798.5300000238349,,response,,,1,A,,,,,Space,keypress(Space),,,,silence,--- days ------ --- ------- ---------- ------- ----------<br>--- --------- --- ----------- ------- ----- ------- ---<br>--------- ---- -- --- ---- -- --------- -- ---- -------<br>-- --------- ------ --- ----- ------ ---- --- --------- --<br>------ - ---- -- --- ----------- ------- ---- ----- -----<br>--- -------- - ------ ---- -- ----- ---- --- --- -----------<br>-- -------,181735.89999997616,181735.10000002384,180919.9,180937.19999998808,180936.57,181753.385,,1,days
screen,html.Screen,0_4_1_0_1_2,2021-12-10T11:23:58.342Z,,,,,,,,,,,,,,,,2,,,,,,,,,,,,,,1485.5149999761488,,response,,,1,A,,,,,Space,keypress(Space),,,,silence,"--- ---- later, --- ------- ---------- ------- ----------<br>--- --------- --- ----------- ------- ----- ------- ---<br>--------- ---- -- --- ---- -- --------- -- ---- -------<br>-- --------- ------ --- ----- ------ ---- --- --------- --<br>------ - ---- -- --- ----------- ------- ---- ----- -----<br>--- -------- - ------ ---- -- ----- ---- --- --- -----------<br>-- -------",183239.69999998808,183238.89999997616,181736.715,181736.19999998808,181753.385,183253.959,,2,"later,"
screen,html.Screen,0_4_1_0_1_3,2021-12-10T11:23:59.046Z,,,,,,,,,,,,,,,,2,,,,,,,,,,,,,,689.0409999999974,,response,,,1,A,,,,,Space,keypress(Space),,,,silence,--- ---- ------ the ------- ---------- ------- ----------<br>--- --------- --- ----------- ------- ----- ------- ---<br>--------- ---- -- --- ---- -- --------- -- ---- -------<br>-- --------- ------ --- ----- ------ ---- --- --------- --<br>------ - ---- -- --- ----------- ------- ---- ----- -----<br>--- -------- - ------ ---- -- ----- ---- --- --- -----------<br>-- -------,183943.80000001192,183943,183237.288,183240,183253.959,183953.989,,3,the
screen,html.Screen,0_4_1_0_1_4,2021-12-10T11:23:59.630Z,,,,,,,,,,,,,,,,2,,,,,,,,,,,,,,572.8110000119195,,response,,,1,A,,,,,Space,keypress(Space),,,,silence,--- ---- ------ --- British ---------- ------- ----------<br>--- --------- --- ----------- ------- ----- ------- ---<br>--------- ---- -- --- ---- -- --------- -- ---- -------<br>-- --------- ------ --- ----- ------ ---- --- --------- --<br>------ - ---- -- --- ----------- ------- ---- ----- -----<br>--- -------- - ------ ---- -- ----- ---- --- --- -----------<br>-- -------,184527.80000001192,184526.80000001192,183937.319,183944.10000002384,183953.989,184537.462,,4,British
screen,html.Screen,0_4_1_0_1_5,2021-12-10T11:24:00.590Z,,,,,,,,,,,,,,,,2,,,,,,,,,,,,,,949.2379999880795,,response,,,1,A,,,,,Space,keypress(Space),,,,silence,--- ---- ------ --- ------- astronomer ------- ----------<br>--- --------- --- ----------- ------- ----- ------- ---<br>--------- ---- -- --- ---- -- --------- -- ---- -------<br>-- --------- ------ --- ----- ------ ---- --- --------- --<br>------ - ---- -- --- ----------- ------- ---- ----- -----<br>--- -------- - ------ ---- -- ----- ---- --- --- -----------<br>-- -------,185487.69999998808,185486.69999998808,184520.792,184528.10000002384,184537.462,185504.496,,5,astronomer
screen,html.Screen,0_4_1_0_1_6,2021-12-10T11:24:01.606Z,,,,,,,,,,,,,,,,2,,,,,,,,,,,,,,998.3040000119072,,response,,,1,A,,,,,Space,keypress(Space),,,,silence,--- ---- ------ --- ------- ---------- Richard ----------<br>--- --------- --- ----------- ------- ----- ------- ---<br>--------- ---- -- --- ---- -- --------- -- ---- -------<br>-- --------- ------ --- ----- ------ ---- --- --------- --<br>------ - ---- -- --- ----------- ------- ---- ----- -----<br>--- -------- - ------ ---- -- ----- ---- --- --- -----------<br>-- -------,186503.69999998808,186502.80000001192,185487.825,185488,185504.496,186521.284,,6,Richard
screen,html.Screen,0_4_1_0_1_7,2021-12-10T11:24:02.518Z,,,,,,,,,,,,,,,,2,,,,,,,,,,,,,,893.4159999880649,,response,,,1,A,,,,,Space,keypress(Space),,,,silence,--- ---- ------ --- ------- ---------- ------- Carrington<br>--- --------- --- ----------- ------- ----- ------- ---<br>--------- ---- -- --- ---- -- --------- -- ---- -------<br>-- --------- ------ --- ----- ------ ---- --- --------- --<br>------ - ---- -- --- ----------- ------- ---- ----- -----<br>--- -------- - ------ ---- -- ----- ---- --- --- -----------<br>-- -------,187415.60000002384,187414.69999998808,186504.614,186503.89999997616,186521.284,187421.502,,7,Carrington
screen,html.Screen,0_4_1_0_1_8,2021-12-10T11:24:02.990Z,,,,,,,,,,,,,,,,2,,,,,,,,,,,,,,465.0980000238342,,response,,,1,A,,,,,Space,keypress(Space),,,,silence,--- ---- ------ --- ------- ---------- ------- ----------<br>was --------- --- ----------- ------- ----- ------- ---<br>--------- ---- -- --- ---- -- --------- -- ---- -------<br>-- --------- ------ --- ----- ------ ---- --- --------- --<br>------ - ---- -- --- ----------- ------- ---- ----- -----<br>--- -------- - ------ ---- -- ----- ---- --- --- -----------<br>-- -------,187887.60000002384,187886.60000002384,187404.832,187415.80000001192,187421.502,187905.011,,8,was
screen,html.Screen,0_4_1_0_1_9,2021-12-10T11:24:03.710Z,,,,,,,,,,,,,,,,2,,,,,,,,,,,,,,701.5890000238433,,response,,,1,A,,,,,Space,keypress(Space),,,,silence,--- ---- ------ --- ------- ---------- ------- ----------<br>--- observing --- ----------- ------- ----- ------- ---<br>--------- ---- -- --- ---- -- --------- -- ---- -------<br>-- --------- ------ --- ----- ------ ---- --- --------- --<br>------ - ---- -- --- ----------- ------- ---- ----- -----<br>--- -------- - ------ ---- -- ----- ---- --- --- -----------<br>-- -------,188607.5,188606.60000002384,187888.341,187887.89999997616,187905.011,188621.845,,9,observing
screen,html.Screen,0_4_1_0_1_10,2021-12-10T11:24:04.174Z,,,,,,,,,,,,,,,,2,,,,,,,,,,,,,,448.65499999999884,,response,,,1,A,,,,,Space,keypress(Space),,,,silence,--- ---- ------ --- ------- ---------- ------- ----------<br>--- --------- the ----------- ------- ----- ------- ---<br>--------- ---- -- --- ---- -- --------- -- ---- -------<br>-- --------- ------ --- ----- ------ ---- --- --------- --<br>------ - ---- -- --- ----------- ------- ---- ----- -----<br>--- -------- - ------ ---- -- ----- ---- --- --- -----------<br>-- -------,189071.39999997616,189070.5,188605.175,188609.5,188621.845,189088.617,,10,the
screen,html.Screen,0_4_1_0_1_11,2021-12-10T11:24:04.734Z,,,,,,,,,,,,,,,,2,,,,,,,,,,,,,,541.8830000000016,,response,,,1,A,,,,,Space,keypress(Space),,,,silence,--- ---- ------ --- ------- ---------- ------- ----------<br>--- --------- --- interesting ------- ----- ------- ---<br>--------- ---- -- --- ---- -- --------- -- ---- -------<br>-- --------- ------ --- ----- ------ ---- --- --------- --<br>------ - ---- -- --- ----------- ------- ---- ----- -----<br>--- -------- - ------ ---- -- ----- ---- --- --- -----------<br>-- -------,189631.60000002384,189630.5,189071.947,189071.60000002384,189088.617,189638.719,,11,interesting
screen,html.Screen,0_4_1_0_1_12,2021-12-10T11:24:05.606Z,,,,,,,,,,,,,,,,2,,,,,,,,,,,,,,863.6809999761463,,response,,,1,A,,,,,Space,keypress(Space),,,,silence,--- ---- ------ --- ------- ---------- ------- ----------<br>--- --------- --- ----------- sunspot ----- ------- ---<br>--------- ---- -- --- ---- -- --------- -- ---- -------<br>-- --------- ------ --- ----- ------ ---- --- --------- --<br>------ - ---- -- --- ----------- ------- ---- ----- -----<br>--- -------- - ------ ---- -- ----- ---- --- --- -----------<br>-- -------,190503.30000001192,190502.39999997616,189622.049,189631.80000001192,189638.719,190505.722,,12,sunspot
screen,html.Screen,0_4_1_0_1_13,2021-12-10T11:24:06.414Z,,,,,,,,,,,,,,,,2,,,,,,,,,,,,,,805.1779999761493,,response,,,1,A,,,,,Space,keypress(Space),,,,silence,--- ---- ------ --- ------- ---------- ------- ----------<br>--- --------- --- ----------- ------- group ------- ---<br>--------- ---- -- --- ---- -- --------- -- ---- -------<br>-- --------- ------ --- ----- ------ ---- --- --------- --<br>------ - ---- -- --- ----------- ------- ---- ----- -----<br>--- -------- - ------ ---- -- ----- ---- --- --- -----------<br>-- -------,191311.80000001192,191310.89999997616,190489.051,190503.5,190505.722,191322.496,,13,group
screen,html.Screen,0_4_1_0_1_14,2021-12-10T11:24:06.950Z,,,,,,,,,,,,,,,,2,,,,,,,,,,,,,,523.7039999880653,,response,,,1,A,,,,,Space,keypress(Space),,,,silence,--- ---- ------ --- ------- ---------- ------- ----------<br>--- --------- --- ----------- ------- ----- through ---<br>--------- ---- -- --- ---- -- --------- -- ---- -------<br>-- --------- ------ --- ----- ------ ---- --- --------- --<br>------ - ---- -- --- ----------- ------- ---- ----- -----<br>--- -------- - ------ ---- -- ----- ---- --- --- -----------<br>-- -------,191847,191846.19999998808,191305.826,191311.89999997616,191322.496,191855.97,,14,through
screen,html.Screen,0_4_1_0_1_15,2021-12-10T11:24:07.382Z,,,,,,,,,,,,,,,,2,,,,,,,,,,,,,,422.1300000238407,,response,,,1,A,,,,,Space,keypress(Space),,,,silence,--- ---- ------ --- ------- ---------- ------- ----------<br>--- --------- --- ----------- ------- ----- ------- his<br>--------- ---- -- --- ---- -- --------- -- ---- -------<br>-- --------- ------ --- ----- ------ ---- --- --------- --<br>------ - ---- -- --- ----------- ------- ---- ----- -----<br>--- -------- - ------ ---- -- ----- ---- --- --- -----------<br>-- -------,192279,192278.10000002384,191839.3,191847.39999997616,191855.97,192289.392,,15,his
screen,html.Screen,0_4_1_0_1_16,2021-12-10T11:24:10.517Z,,,,,,,,,,,,,,,,2,,,,,,,,,,,,,,3124.7080000238493,,response,,,1,A,,,,,Space,keypress(Space),,,,silence,--- ---- ------ --- ------- ---------- ------- ----------<br>--- --------- --- ----------- ------- ----- ------- ---<br>telescope ---- -- --- ---- -- --------- -- ---- -------<br>-- --------- ------ --- ----- ------ ---- --- --------- --<br>------ - ---- -- --- ----------- ------- ---- ----- -----<br>--- -------- - ------ ---- -- ----- ---- --- --- -----------<br>-- -------,195415,195414.10000002384,192272.722,192279.30000001192,192289.392,195423.395,,16,telescope
screen,html.Screen,0_4_1_0_1_17,2021-12-10T11:24:11.030Z,,,,,,,,,,,,,,,,2,,,,,,,,,,,,,,502.70500002385234,,response,,,1,A,,,,,Space,keypress(Space),,,,silence,--- ---- ------ --- ------- ---------- ------- ----------<br>--- --------- --- ----------- ------- ----- ------- ---<br>--------- when -- --- ---- -- --------- -- ---- -------<br>-- --------- ------ --- ----- ------ ---- --- --------- --<br>------ - ---- -- --- ----------- ------- ---- ----- -----<br>--- -------- - ------ ---- -- ----- ---- --- --- -----------<br>-- -------,195927.10000002384,195926.10000002384,195406.725,195415.19999998808,195423.395,195940.275,,17,when
screen,html.Screen,0_4_1_0_1_18,2021-12-10T11:24:11.413Z,,,,,,,,,,,,,,,,2,,,,,,,,,,,,,,369.7250000000058,,response,,,1,A,,,,,Space,keypress(Space),,,,silence,--- ---- ------ --- ------- ---------- ------- ----------<br>--- --------- --- ----------- ------- ----- ------- ---<br>--------- ---- he --- ---- -- --------- -- ---- -------<br>-- --------- ------ --- ----- ------ ---- --- --------- --<br>------ - ---- -- --- ----------- ------- ---- ----- -----<br>--- -------- - ------ ---- -- ----- ---- --- --- -----------<br>-- -------,196310.80000001192,196310,195923.605,195927.30000001192,195940.275,196323.668,,18,he
screen,html.Screen,0_4_1_0_1_19,2021-12-10T11:24:11.813Z,,,,,,,,,,,,,,,,2,,,,,,,,,,,,,,386.3319999999949,,response,,,1,A,,,,,Space,keypress(Space),,,,silence,--- ---- ------ --- ------- ---------- ------- ----------<br>--- --------- --- ----------- ------- ----- ------- ---<br>--------- ---- -- saw ---- -- --------- -- ---- -------<br>-- --------- ------ --- ----- ------ ---- --- --------- --<br>------ - ---- -- --- ----------- ------- ---- ----- -----<br>--- -------- - ------ ---- -- ----- ---- --- --- -----------<br>-- -------,196710.80000001192,196710,196306.998,196311.19999998808,196323.668,196723.852,,19,saw
screen,html.Screen,0_4_1_0_1_20,2021-12-10T11:24:12.173Z,,,,,,,,,,,,,,,,2,,,,,,,,,,,,,,346.1479999999865,,response,,,1,A,,,,,Space,keypress(Space),,,,silence,--- ---- ------ --- ------- ---------- ------- ----------<br>--- --------- --- ----------- ------- ----- ------- ---<br>--------- ---- -- --- what -- --------- -- ---- -------<br>-- --------- ------ --- ----- ------ ---- --- --------- --<br>------ - ---- -- --- ----------- ------- ---- ----- -----<br>--- -------- - ------ ---- -- ----- ---- --- --- -----------<br>-- -------,197070.80000001192,197070,196707.181,196711.19999998808,196723.852,197073.952,,20,what
screen,html.Screen,0_4_1_0_1_21,2021-12-10T11:24:12.573Z,,,,,,,,,,,,,,,,2,,,,,,,,,,,,,,396.0480000000098,,response,,,1,A,,,,,Space,keypress(Space),,,,silence,--- ---- ------ --- ------- ---------- ------- ----------<br>--- --------- --- ----------- ------- ----- ------- ---<br>--------- ---- -- --- ---- he --------- -- ---- -------<br>-- --------- ------ --- ----- ------ ---- --- --------- --<br>------ - ---- -- --- ----------- ------- ---- ----- -----<br>--- -------- - ------ ---- -- ----- ---- --- --- -----------<br>-- -------,197470.80000001192,197470,197057.281,197071.19999998808,197073.952,197474.022,,21,he
screen,html.Screen,0_4_1_0_1_22,2021-12-10T11:24:13.037Z,,,,,,,,,,,,,,,,2,,,,,,,,,,,,,,459.87799997616094,,response,,,1,A,,,,,Space,keypress(Space),,,,silence,--- ---- ------ --- ------- ---------- ------- ----------<br>--- --------- --- ----------- ------- ----- ------- ---<br>--------- ---- -- --- ---- -- described -- ---- -------<br>-- --------- ------ --- ----- ------ ---- --- --------- --<br>------ - ---- -- --- ----------- ------- ---- ----- -----<br>--- -------- - ------ ---- -- ----- ---- --- --- -----------<br>-- -------,197934.89999997616,197933.89999997616,197457.352,197471.19999998808,197474.022,197940.769,,22,described
screen,html.Screen,0_4_1_0_1_23,2021-12-10T11:24:13.445Z,,,,,,,,,,,,,,,,2,,,,,,,,,,,,,,401.1309999761579,,response,,,1,A,,,,,Space,keypress(Space),,,,silence,--- ---- ------ --- ------- ---------- ------- ----------<br>--- --------- --- ----------- ------- ----- ------- ---<br>--------- ---- -- --- ---- -- --------- as ---- -------<br>-- --------- ------ --- ----- ------ ---- --- --------- --<br>------ - ---- -- --- ----------- ------- ---- ----- -----<br>--- -------- - ------ ---- -- ----- ---- --- --- -----------<br>-- -------,198342.69999998808,198341.89999997616,197924.099,197935.10000002384,197940.769,198357.456,,23,as
screen,html.Screen,0_4_1_0_1_24,2021-12-10T11:24:13.789Z,,,,,,,,,,,,,,,,2,,,,,,,,,,,,,,328.44399997615255,,response,,,1,A,,,,,Space,keypress(Space),,,,silence,"--- ---- ------ --- ------- ---------- ------- ----------<br>--- --------- --- ----------- ------- ----- ------- ---<br>--------- ---- -- --- ---- -- --------- -- ""two -------<br>-- --------- ------ --- ----- ------ ---- --- --------- --<br>------ - ---- -- --- ----------- ------- ---- ----- -----<br>--- -------- - ------ ---- -- ----- ---- --- --- -----------<br>-- -------",198686.80000001192,198685.89999997616,198340.787,198343.10000002384,198357.456,198690.94,,24,"""two"
screen,html.Screen,0_4_1_0_1_25,2021-12-10T11:24:14.429Z,,,,,,,,,,,,,,,,2,,,,,,,,,,,,,,634.8600000119186,,response,,,1,A,,,,,Space,keypress(Space),,,,silence,--- ---- ------ --- ------- ---------- ------- ----------<br>--- --------- --- ----------- ------- ----- ------- ---<br>--------- ---- -- --- ---- -- --------- -- ---- patches<br>-- --------- ------ --- ----- ------ ---- --- --------- --<br>------ - ---- -- --- ----------- ------- ---- ----- -----<br>--- -------- - ------ ---- -- ----- ---- --- --- -----------<br>-- -------,199326.69999998808,199325.80000001192,198674.27,198687.19999998808,198690.94,199341.229,,25,patches
screen,html.Screen,0_4_1_0_1_26,2021-12-10T11:24:14.893Z,,,,,,,,,,,,,,,,2,,,,,,,,,,,,,,448.57100001192885,,response,,,1,A,,,,,Space,keypress(Space),,,,silence,--- ---- ------ --- ------- ---------- ------- ----------<br>--- --------- --- ----------- ------- ----- ------- ---<br>--------- ---- -- --- ---- -- --------- -- ---- -------<br>of --------- ------ --- ----- ------ ---- --- --------- --<br>------ - ---- -- --- ----------- ------- ---- ----- -----<br>--- -------- - ------ ---- -- ----- ---- --- --- -----------<br>-- -------,199790.60000002384,199789.80000001192,199324.557,199327,199341.229,199807.908,,26,of
screen,html.Screen,0_4_1_0_1_27,2021-12-10T11:24:15.381Z,,,,,,,,,,,,,,,,2,,,,,,,,,,,,,,469.8920000119251,,response,,,1,A,,,,,Space,keypress(Space),,,,silence,--- ---- ------ --- ------- ---------- ------- ----------<br>--- --------- --- ----------- ------- ----- ------- ---<br>--------- ---- -- --- ---- -- --------- -- ---- -------<br>-- intensely ------ --- ----- ------ ---- --- --------- --<br>------ - ---- -- --- ----------- ------- ---- ----- -----<br>--- -------- - ------ ---- -- ----- ---- --- --- -----------<br>-- -------,200278.60000002384,200277.80000001192,199791.238,199790.89999997616,199807.908,200291.381,,27,intensely
screen,html.Screen,0_4_1_0_1_28,2021-12-10T11:24:15.837Z,,,,,,,,,,,,,,,,2,,,,,,,,,,,,,,442.3189999880851,,response,,,1,A,,,,,Space,keypress(Space),,,,silence,--- ---- ------ --- ------- ---------- ------- ----------<br>--- --------- --- ----------- ------- ----- ------- ---<br>--------- ---- -- --- ---- -- --------- -- ---- -------<br>-- --------- bright --- ----- ------ ---- --- --------- --<br>------ - ---- -- --- ----------- ------- ---- ----- -----<br>--- -------- - ------ ---- -- ----- ---- --- --- -----------<br>-- -------,200734.60000002384,200733.69999998808,200274.711,200279,200291.381,200741.454,,28,bright
screen,html.Screen,0_4_1_0_1_29,2021-12-10T11:24:16.277Z,,,,,,,,,,,,,,,,2,,,,,,,,,,,,,,432.14600002384395,,response,,,1,A,,,,,Space,keypress(Space),,,,silence,--- ---- ------ --- ------- ---------- ------- ----------<br>--- --------- --- ----------- ------- ----- ------- ---<br>--------- ---- -- --- ---- -- --------- -- ---- -------<br>-- --------- ------ and ----- ------ ---- --- --------- --<br>------ - ---- -- --- ----------- ------- ---- ----- -----<br>--- -------- - ------ ---- -- ----- ---- --- --- -----------<br>-- -------,201174.60000002384,201173.60000002384,200724.784,200734.89999997616,200741.454,201191.433,,29,and
screen,html.Screen,0_4_1_0_1_30,2021-12-10T11:24:16.685Z,,,,,,,,,,,,,,,,2,,,,,,,,,,,,,,390.66700002385187,,response,,,1,A,,,,,Space,keypress(Space),,,,silence,--- ---- ------ --- ------- ---------- ------- ----------<br>--- --------- --- ----------- ------- ----- ------- ---<br>--------- ---- -- --- ---- -- --------- -- ---- -------<br>-- --------- ------ --- white ------ ---- --- --------- --<br>------ - ---- -- --- ----------- ------- ---- ----- -----<br>--- -------- - ------ ---- -- ----- ---- --- --- -----------<br>-- -------,201583,201582.10000002384,201174.765,201174.89999997616,201191.433,201591.771,,30,white
screen,html.Screen,0_4_1_0_1_31,2021-12-10T11:24:17.157Z,,,,,,,,,,,,,,,,2,,,,,,,,,,,,,,461.82900002383394,,response,,,1,A,,,,,Space,keypress(Space),,,,silence,"--- ---- ------ --- ------- ---------- ------- ----------<br>--- --------- --- ----------- ------- ----- ------- ---<br>--------- ---- -- --- ---- -- --------- -- ---- -------<br>-- --------- ------ --- ----- light"" ---- --- --------- --<br>------ - ---- -- --- ----------- ------- ---- ----- -----<br>--- -------- - ------ ---- -- ----- ---- --- --- -----------<br>-- -------",202054.39999997616,202053.60000002384,201575.099,201583.30000001192,201591.771,202058.442,,31,"light"""
screen,html.Screen,0_4_1_0_1_32,2021-12-10T11:24:17.589Z,,,,,,,,,,,,,,,,2,,,,,,,,,,,,,,427.05799999999,,response,,,1,A,,,,,Space,keypress(Space),,,,silence,--- ---- ------ --- ------- ---------- ------- ----------<br>--- --------- --- ----------- ------- ----- ------- ---<br>--------- ---- -- --- ---- -- --------- -- ---- -------<br>-- --------- ------ --- ----- ------ over --- --------- --<br>------ - ---- -- --- ----------- ------- ---- ----- -----<br>--- -------- - ------ ---- -- ----- ---- --- --- -----------<br>-- -------,202486.39999997616,202485.5,202041.772,202054.69999998808,202058.442,202491.888,,32,over
screen,html.Screen,0_4_1_0_1_33,2021-12-10T11:24:18.053Z,,,,,,,,,,,,,,,,2,,,,,,,,,,,,,,457.71200002383557,,response,,,1,A,,,,,Space,keypress(Space),,,,silence,--- ---- ------ --- ------- ---------- ------- ----------<br>--- --------- --- ----------- ------- ----- ------- ---<br>--------- ---- -- --- ---- -- --------- -- ---- -------<br>-- --------- ------ --- ----- ------ ---- the --------- --<br>------ - ---- -- --- ----------- ------- ---- ----- -----<br>--- -------- - ------ ---- -- ----- ---- --- --- -----------<br>-- -------,202950.5,202949.60000002384,202475.218,202486.69999998808,202491.888,202958.687,,33,the
screen,html.Screen,0_4_1_0_1_34,2021-12-10T11:24:18.493Z,,,,,,,,,,,,,,,,2,,,,,,,,,,,,,,430.81299999999464,,response,,,1,A,,,,,Space,keypress(Space),,,,silence,--- ---- ------ --- ------- ---------- ------- ----------<br>--- --------- --- ----------- ------- ----- ------- ---<br>--------- ---- -- --- ---- -- --------- -- ---- -------<br>-- --------- ------ --- ----- ------ ---- --- sunspots. --<br>------ - ---- -- --- ----------- ------- ---- ----- -----<br>--- -------- - ------ ---- -- ----- ---- --- --- -----------<br>-- -------,203390.39999997616,203389.5,202942.017,202950.80000001192,202958.687,203392.092,,34,sunspots.
screen,html.Screen,0_4_1_0_1_35,2021-12-10T11:24:19.141Z,,,,,,,,,,,,,,,,2,,,,,,,,,,,,,,645.4079999999958,,response,,,1,A,,,,,Space,keypress(Space),,,,silence,--- ---- ------ --- ------- ---------- ------- ----------<br>--- --------- --- ----------- ------- ----- ------- ---<br>--------- ---- -- --- ---- -- --------- -- ---- -------<br>-- --------- ------ --- ----- ------ ---- --- --------- He<br>------ - ---- -- --- ----------- ------- ---- ----- -----<br>--- -------- - ------ ---- -- ----- ---- --- --- -----------<br>-- -------,204038.5,204037.5,203375.422,203390.69999998808,203392.092,204042.25,,35,He
screen,html.Screen,0_4_1_0_1_36,2021-12-10T11:24:19.605Z,,,,,,,,,,,,,,,,2,,,,,,,,,,,,,,459.25,,response,,,1,A,,,,,Space,keypress(Space),,,,silence,--- ---- ------ --- ------- ---------- ------- ----------<br>--- --------- --- ----------- ------- ----- ------- ---<br>--------- ---- -- --- ---- -- --------- -- ---- -------<br>-- --------- ------ --- ----- ------ ---- --- --------- --<br>jotted - ---- -- --- ----------- ------- ---- ----- -----<br>--- -------- - ------ ---- -- ----- ---- --- --- -----------<br>-- -------,204502.5,204501.5,204025.58,204038.80000001192,204042.25,204509.035,,36,jotted
screen,html.Screen,0_4_1_0_1_37,2021-12-10T11:24:20.085Z,,,,,,,,,,,,,,,,2,,,,,,,,,,,,,,472.36499997615465,,response,,,1,A,,,,,Space,keypress(Space),,,,silence,--- ---- ------ --- ------- ---------- ------- ----------<br>--- --------- --- ----------- ------- ----- ------- ---<br>--------- ---- -- --- ---- -- --------- -- ---- -------<br>-- --------- ------ --- ----- ------ ---- --- --------- --<br>------ a ---- -- --- ----------- ------- ---- ----- -----<br>--- -------- - ------ ---- -- ----- ---- --- --- -----------<br>-- -------,204982.30000001192,204981.39999997616,204492.365,204502.80000001192,204509.035,204992.488,,37,a
screen,html.Screen,0_4_1_0_1_38,2021-12-10T11:24:20.485Z,,,,,,,,,,,,,,,,2,,,,,,,,,,,,,,388.91199997614603,,response,,,1,A,,,,,Space,keypress(Space),,,,silence,--- ---- ------ --- ------- ---------- ------- ----------<br>--- --------- --- ----------- ------- ----- ------- ---<br>--------- ---- -- --- ---- -- --------- -- ---- -------<br>-- --------- ------ --- ----- ------ ---- --- --------- --<br>------ - note -- --- ----------- ------- ---- ----- -----<br>--- -------- - ------ ---- -- ----- ---- --- --- -----------<br>-- -------,205382.30000001192,205381.39999997616,204975.818,204982.60000002384,204992.488,205392.586,,38,note
screen,html.Screen,0_4_1_0_1_39,2021-12-10T11:24:20.869Z,,,,,,,,,,,,,,,,2,,,,,,,,,,,,,,372.8139999761479,,response,,,1,A,,,,,Space,keypress(Space),,,,silence,--- ---- ------ --- ------- ---------- ------- ----------<br>--- --------- --- ----------- ------- ----- ------- ---<br>--------- ---- -- --- ---- -- --------- -- ---- -------<br>-- --------- ------ --- ----- ------ ---- --- --------- --<br>------ - ---- in --- ----------- ------- ---- ----- -----<br>--- -------- - ------ ---- -- ----- ---- --- --- -----------<br>-- -------,205766.19999998808,205765.39999997616,205375.916,205382.60000002384,205392.586,205775.897,,39,in
screen,html.Screen,0_4_1_0_1_40,2021-12-10T11:24:21.205Z,,,,,,,,,,,,,,,,2,,,,,,,,,,,,,,325.50299997616094,,response,,,1,A,,,,,Space,keypress(Space),,,,silence,--- ---- ------ --- ------- ---------- ------- ----------<br>--- --------- --- ----------- ------- ----- ------- ---<br>--------- ---- -- --- ---- -- --------- -- ---- -------<br>-- --------- ------ --- ----- ------ ---- --- --------- --<br>------ - ---- -- his ----------- ------- ---- ----- -----<br>--- -------- - ------ ---- -- ----- ---- --- --- -----------<br>-- -------,206102.19999998808,206101.39999997616,205759.229,205766.5,205775.897,206109.519,,40,his
screen,html.Screen,0_4_1_0_1_41,2021-12-10T11:24:22.053Z,,,,,,,,,,,,,,,,2,,,,,,,,,,,,,,839.7810000119207,,response,,,1,A,,,,,Space,keypress(Space),,,,silence,--- ---- ------ --- ------- ---------- ------- ----------<br>--- --------- --- ----------- ------- ----- ------- ---<br>--------- ---- -- --- ---- -- --------- -- ---- -------<br>-- --------- ------ --- ----- ------ ---- --- --------- --<br>------ - ---- -- --- painstaking ------- ---- ----- -----<br>--- -------- - ------ ---- -- ----- ---- --- --- -----------<br>-- -------,206950.10000002384,206949.30000001192,206092.847,206102.5,206109.519,206959.645,,41,painstaking
screen,html.Screen,0_4_1_0_1_42,2021-12-10T11:24:22.565Z,,,,,,,,,,,,,,,,2,,,,,,,,,,,,,,501.55499998808955,,response,,,1,A,,,,,Space,keypress(Space),,,,silence,--- ---- ------ --- ------- ---------- ------- ----------<br>--- --------- --- ----------- ------- ----- ------- ---<br>--------- ---- -- --- ---- -- --------- -- ---- -------<br>-- --------- ------ --- ----- ------ ---- --- --------- --<br>------ - ---- -- --- ----------- record. ---- ----- -----<br>--- -------- - ------ ---- -- ----- ---- --- --- -----------<br>-- -------,207462.10000002384,207461.19999998808,206942.975,206950.5,206959.645,207476.306,,42,record.
screen,html.Screen,0_4_1_0_1_43,2021-12-10T11:24:23.149Z,,,,,,,,,,,,,,,,2,,,,,,,,,,,,,,568.8939999880677,,response,,,1,A,,,,,Space,keypress(Space),,,,silence,--- ---- ------ --- ------- ---------- ------- ----------<br>--- --------- --- ----------- ------- ----- ------- ---<br>--------- ---- -- --- ---- -- --------- -- ---- -------<br>-- --------- ------ --- ----- ------ ---- --- --------- --<br>------ - ---- -- --- ----------- ------- That ----- -----<br>--- -------- - ------ ---- -- ----- ---- --- --- -----------<br>-- -------,208046.19999998808,208045.19999998808,207459.637,207462.39999997616,207476.306,208059.913,,43,That
screen,html.Screen,0_4_1_0_1_44,2021-12-10T11:24:23.613Z,,,,,,,,,,,,,,,,2,,,,,,,,,,,,,,449.2869999880786,,response,,,1,A,,,,,Space,keypress(Space),,,,silence,--- ---- ------ --- ------- ---------- ------- ----------<br>--- --------- --- ----------- ------- ----- ------- ---<br>--------- ---- -- --- ---- -- --------- -- ---- -------<br>-- --------- ------ --- ----- ------ ---- --- --------- --<br>------ - ---- -- --- ----------- ------- ---- night -----<br>--- -------- - ------ ---- -- ----- ---- --- --- -----------<br>-- -------,208510,208509.19999998808,208043.243,208046.5,208059.913,208526.694,,44,night
screen,html.Screen,0_4_1_0_1_45,2021-12-10T11:24:24.261Z,,,,,,,,,,,,,,,,2,,,,,,,,,,,,,,630.4060000238533,,response,,,1,A,,,,,Space,keypress(Space),,,,silence,--- ---- ------ --- ------- ---------- ------- ----------<br>--- --------- --- ----------- ------- ----- ------- ---<br>--------- ---- -- --- ---- -- --------- -- ---- -------<br>-- --------- ------ --- ----- ------ ---- --- --------- --<br>------ - ---- -- --- ----------- ------- ---- ----- there<br>--- -------- - ------ ---- -- ----- ---- --- --- -----------<br>-- -------,209158.10000002384,209157.10000002384,208510.024,208510.39999997616,208526.694,209160.159,,45,there
screen,html.Screen,0_4_1_0_1_46,2021-12-10T11:24:24.684Z,,,,,,,,,,,,,,,,2,,,,,,,,,,,,,,420.94100002382766,,response,,,1,A,,,,,Space,keypress(Space),,,,silence,--- ---- ------ --- ------- ---------- ------- ----------<br>--- --------- --- ----------- ------- ----- ------- ---<br>--------- ---- -- --- ---- -- --------- -- ---- -------<br>-- --------- ------ --- ----- ------ ---- --- --------- --<br>------ - ---- -- --- ----------- ------- ---- ----- -----<br>was -------- - ------ ---- -- ----- ---- --- --- -----------<br>-- -------,209582,209581.10000002384,209143.489,209158.39999997616,209160.159,209593.596,,46,was
screen,html.Screen,0_4_1_0_1_47,2021-12-10T11:24:25.140Z,,,,,,,,,,,,,,,,2,,,,,,,,,,,,,,443.5040000238514,,response,,,1,A,,,,,Space,keypress(Space),,,,silence,--- ---- ------ --- ------- ---------- ------- ----------<br>--- --------- --- ----------- ------- ----- ------- ---<br>--------- ---- -- --- ---- -- --------- -- ---- -------<br>-- --------- ------ --- ----- ------ ---- --- --------- --<br>------ - ---- -- --- ----------- ------- ---- ----- -----<br>--- scarcely - ------ ---- -- ----- ---- --- --- -----------<br>-- -------,210037.89999997616,210037.10000002384,209576.926,209582.19999998808,209593.596,210043.738,,47,scarcely
screen,html.Screen,0_4_1_0_1_48,2021-12-10T11:24:25.596Z,,,,,,,,,,,,,,,,2,,,,,,,,,,,,,,449.2619999999879,,response,,,1,A,,,,,Space,keypress(Space),,,,silence,--- ---- ------ --- ------- ---------- ------- ----------<br>--- --------- --- ----------- ------- ----- ------- ---<br>--------- ---- -- --- ---- -- --------- -- ---- -------<br>-- --------- ------ --- ----- ------ ---- --- --------- --<br>------ - ---- -- --- ----------- ------- ---- ----- -----<br>--- -------- a ------ ---- -- ----- ---- --- --- -----------<br>-- -------,210493.89999997616,210493,210027.068,210038.19999998808,210043.738,210510.515,,48,a
screen,html.Screen,0_4_1_0_1_49,2021-12-10T11:24:26.060Z,,,,,,,,,,,,,,,,2,,,,,,,,,,,,,,446.5850000238279,,response,,,1,A,,,,,Space,keypress(Space),,,,silence,--- ---- ------ --- ------- ---------- ------- ----------<br>--- --------- --- ----------- ------- ----- ------- ---<br>--------- ---- -- --- ---- -- --------- -- ---- -------<br>-- --------- ------ --- ----- ------ ---- --- --------- --<br>------ - ---- -- --- ----------- ------- ---- ----- -----<br>--- -------- - square ---- -- ----- ---- --- --- -----------<br>-- -------,210957.80000001192,210957.10000002384,210493.845,210494.19999998808,210510.515,210960.61,,49,square
