sender,sender_type,sender_id,timestamp,meta,,Blues,Classical,Country,Dance,Electronic,Folk,Gospel,Hip-Hop,Jazz,Latin,Musical/Film,New-age,Pop,Provo_ID,R&B,Rap,Reggae,Religious,Rock,Soul,Swing,Traditional,age,artist_name,correct,correctResponse,distraction,duration,education,ended_on,familiarity,gender,item,list,music_frequency,offensiveness,pleasantness,preference,response,response_action,snippet_file,song_name,song_rating,sound,text,time_commit,time_end,time_render,time_run,time_show,time_switch,url,word,word_ID
Instructions,html.Page,0_0,2021-11-19T14:32:01.341Z,"{""labjs_version"":""20.2.3"",""labjs_build"":{""flavor"":""production"",""commit"":""7ea907d66ca8aeef8054924ca5d82ffbe11e34e5""},""location"":""https://run.pavlovia.org/mvasilev/lab_music_f/"",""userAgent"":""Mozilla/5.0 (Windows NT 6.1; Win64; x64) AppleWebKit/537.36 (KHTML, like Gecko) Chrome/96.0.4664.45 Safari/537.36"",""platform"":""Win32"",""language"":""en-US"",""locale"":""en-US"",""timeZone"":""Europe/London"",""timezoneOffset"":0,""screen_width"":1920,""screen_height"":1080,""scroll_width"":1920,""scroll_height"":959,""window_innerWidth"":1920,""window_innerHeight"":1007,""devicePixelRatio"":1}",,,,,,,,,,,,,,,,,,,,,,,,,,,,,22713.089000023843,,form submission,,,,,,,,,,,,,,,,39732.700000047684,39731.60000002384,17001.854,17005.900000095367,17018.511,39742.027,{},,
Headphones,html.Page,0_1,2021-11-19T14:32:08.582Z,,,,,,,,,,,,,,,,,,,,,,,,,,,,,,7231.972999999998,,form submission,,,,,,,,,,,,,,,,46974.5,46974,39725.332,39733.40000009537,39742.027,46989.022,,,
Holding screen,html.Screen,0_2_0_0,2021-11-19T14:32:18.590Z,,,,,,,,,,,,,,,,,,,,,,,,,,,,,,10002.11,,timeout,,,,,,,,,,,,,,,,56981.90000009537,56974.463,46972.35,46975.10000002384,46989.022,56991.132,,,
screen,html.Screen,0_2_0_1_0,2021-11-19T14:32:19.430Z,,,,,,,,,,,,,,,,53,,,,,,,,,,,,,,829.1680000715278,,response,,,99,,,,,,Space,keypress(Space),,,,,When -- ----- -- ------ - ------- --- ----------<br>------------- ------ ------ ---- ---- ------- ----- -- ----<br>-------- ------- -- ---------- --- - --- ----- ----- ----<br>---- --- --- ----- --- ---- ---- ------- ----- ---- -------<br>--- --- -- ----- -- --- ---- -- --- ---- -- ------ ------<br>--- ----- -- ----,57821.60000002384,57820.300000071526,56974.463,56982.300000071526,56991.132,57824.863,,0,When
screen,html.Screen,0_2_0_1_1,2021-11-19T14:32:20.237Z,,,,,,,,,,,,,,,,53,,,,,,,,,,,,,,803.0370000953699,,response,,,99,,,,,,Space,keypress(Space),,,,,---- it ----- -- ------ - ------- --- ----------<br>------------- ------ ------ ---- ---- ------- ----- -- ----<br>-------- ------- -- ---------- --- - --- ----- ----- ----<br>---- --- --- ----- --- ---- ---- ------- ----- ---- -------<br>--- --- -- ----- -- --- ---- -- --- ---- -- ------ ------<br>--- ----- -- ----,58628.800000071526,58627.90000009537,57808.193,57821.90000009537,57824.863,58641.82,,1,it
screen,html.Screen,0_2_0_1_2,2021-11-19T14:32:20.861Z,,,,,,,,,,,,,,,,53,,,,,,,,,,,,,,610.0800000953677,,response,,,99,,,,,,Space,keypress(Space),,,,,---- -- comes -- ------ - ------- --- ----------<br>------------- ------ ------ ---- ---- ------- ----- -- ----<br>-------- ------- -- ---------- --- - --- ----- ----- ----<br>---- --- --- ----- --- ---- ---- ------- ----- ---- -------<br>--- --- -- ----- -- --- ---- -- --- ---- -- ------ ------<br>--- ----- -- ----,59252.800000071526,59251.90000009537,58625.149,58629.10000002384,58641.82,59258.604,,2,comes
screen,html.Screen,0_2_0_1_3,2021-11-19T14:32:21.517Z,,,,,,,,,,,,,,,,53,,,,,,,,,,,,,,649.1960000715262,,response,,,99,,,,,,Space,keypress(Space),,,,,---- -- ----- to ------ - ------- --- ----------<br>------------- ------ ------ ---- ---- ------- ----- -- ----<br>-------- ------- -- ---------- --- - --- ----- ----- ----<br>---- --- --- ----- --- ---- ---- ------- ----- ---- -------<br>--- --- -- ----- -- --- ---- -- --- ---- -- ------ ------<br>--- ----- -- ----,59908.800000071526,59907.800000071526,59241.934,59253,59258.604,59925.376,,3,to
screen,html.Screen,0_2_0_1_4,2021-11-19T14:32:21.993Z,,,,,,,,,,,,,,,,53,,,,,,,,,,,,,,454.424000071529,,response,,,99,,,,,,Space,keypress(Space),,,,,---- -- ----- -- having - ------- --- ----------<br>------------- ------ ------ ---- ---- ------- ----- -- ----<br>-------- ------- -- ---------- --- - --- ----- ----- ----<br>---- --- --- ----- --- ---- ---- ------- ----- ---- -------<br>--- --- -- ----- -- --- ---- -- --- ---- -- ------ ------<br>--- ----- -- ----,60380.90000009537,60379.800000071526,59908.706,59909.300000071526,59925.376,60392.212,,4,having
screen,html.Screen,0_2_0_1_5,2021-11-19T14:32:22.545Z,,,,,,,,,,,,,,,,53,,,,,,,,,,,,,,539.8880000238423,,response,,,99,,,,,,Space,keypress(Space),,,,,---- -- ----- -- ------ a ------- --- ----------<br>------------- ------ ------ ---- ---- ------- ----- -- ----<br>-------- ------- -- ---------- --- - --- ----- ----- ----<br>---- --- --- ----- --- ---- ---- ------- ----- ---- -------<br>--- --- -- ----- -- --- ---- -- --- ---- -- ------ ------<br>--- ----- -- ----,60933,60932.10000002384,60375.542,60381.10000002384,60392.212,60942.336,,5,a
screen,html.Screen,0_2_0_1_6,2021-11-19T14:32:23.169Z,,,,,,,,,,,,,,,,53,,,,,,,,,,,,,,613.3640000476807,,response,,,99,,,,,,Space,keypress(Space),,,,,---- -- ----- -- ------ - lasting --- ----------<br>------------- ------ ------ ---- ---- ------- ----- -- ----<br>-------- ------- -- ---------- --- - --- ----- ----- ----<br>---- --- --- ----- --- ---- ---- ------- ----- ---- -------<br>--- --- -- ----- -- --- ---- -- --- ---- -- ------ ------<br>--- ----- -- ----,61556.700000047684,61555.700000047684,60925.666,60933.5,60942.336,61559.125,,6,lasting
screen,html.Screen,0_2_0_1_7,2021-11-19T14:32:23.673Z,,,,,,,,,,,,,,,,53,,,,,,,,,,,,,,500.5750000476837,,response,,,99,,,,,,Space,keypress(Space),,,,,---- -- ----- -- ------ - ------- and ----------<br>------------- ------ ------ ---- ---- ------- ----- -- ----<br>-------- ------- -- ---------- --- - --- ----- ----- ----<br>---- --- --- ----- --- ---- ---- ------- ----- ---- -------<br>--- --- -- ----- -- --- ---- -- --- ---- -- ------ ------<br>--- ----- -- ----,62060.60000002384,62059.700000047684,61542.455,61556.90000009537,61559.125,62075.94,,7,and
screen,html.Screen,0_2_0_1_8,2021-11-19T14:32:24.161Z,,,,,,,,,,,,,,,,53,,,,,,,,,,,,,,471.7600000476814,,response,,,99,,,,,,Space,keypress(Space),,,,,---- -- ----- -- ------ - ------- --- fulfilling<br>------------- ------ ------ ---- ---- ------- ----- -- ----<br>-------- ------- -- ---------- --- - --- ----- ----- ----<br>---- --- --- ----- --- ---- ---- ------- ----- ---- -------<br>--- --- -- ----- -- --- ---- -- --- ---- -- ------ ------<br>--- ----- -- ----,62548.700000047684,62547.700000047684,62059.27,62060.90000009537,62075.94,62559.292,,8,fulfilling
screen,html.Screen,0_2_0_1_9,2021-11-19T14:32:24.593Z,,,,,,,,,,,,,,,,53,,,,,,,,,,,,,,420.3080000238406,,response,,,99,,,,,,Space,keypress(Space),,,,,"---- -- ----- -- ------ - ------- --- ----------<br>relationship, ------ ------ ---- ---- ------- ----- -- ----<br>-------- ------- -- ---------- --- - --- ----- ----- ----<br>---- --- --- ----- --- ---- ---- ------- ----- ---- -------<br>--- --- -- ----- -- --- ---- -- --- ---- -- ------ ------<br>--- ----- -- ----",62980.5,62979.60000002384,62542.623,62549,62559.292,62992.869,,9,"relationship,"
screen,html.Screen,0_2_0_1_10,2021-11-19T14:32:25.017Z,,,,,,,,,,,,,,,,53,,,,,,,,,,,,,,410.83100004768494,,response,,,99,,,,,,Space,keypress(Space),,,,,---- -- ----- -- ------ - ------- --- ----------<br>------------- common ------ ---- ---- ------- ----- -- ----<br>-------- ------- -- ---------- --- - --- ----- ----- ----<br>---- --- --- ----- --- ---- ---- ------- ----- ---- -------<br>--- --- -- ----- -- --- ---- -- --- ---- -- ------ ------<br>--- ----- -- ----,63404.700000047684,63403.700000047684,62976.198,62980.800000071526,62992.869,63409.602,,10,common
screen,html.Screen,0_2_0_1_11,2021-11-19T14:32:25.465Z,,,,,,,,,,,,,,,,53,,,,,,,,,,,,,,441.9980000238429,,response,,,99,,,,,,Space,keypress(Space),,,,,---- -- ----- -- ------ - ------- --- ----------<br>------------- ------ wisdom ---- ---- ------- ----- -- ----<br>-------- ------- -- ---------- --- - --- ----- ----- ----<br>---- --- --- ----- --- ---- ---- ------- ----- ---- -------<br>--- --- -- ----- -- --- ---- -- --- ---- -- ------ ------<br>--- ----- -- ----,63852.5,63851.60000002384,63392.932,63405,63409.602,63859.699,,11,wisdom
screen,html.Screen,0_2_0_1_12,2021-11-19T14:32:26.017Z,,,,,,,,,,,,,,,,53,,,,,,,,,,,,,,544.0010000476832,,response,,,99,,,,,,Space,keypress(Space),,,,,---- -- ----- -- ------ - ------- --- ----------<br>------------- ------ ------ says ---- ------- ----- -- ----<br>-------- ------- -- ---------- --- - --- ----- ----- ----<br>---- --- --- ----- --- ---- ---- ------- ----- ---- -------<br>--- --- -- ----- -- --- ---- -- --- ---- -- ------ ------<br>--- ----- -- ----,64404.60000002384,64403.700000047684,63843.029,63852.700000047684,63859.699,64426.519,,12,says
screen,html.Screen,0_2_0_1_13,2021-11-19T14:32:26.457Z,,,,,,,,,,,,,,,,53,,,,,,,,,,,,,,416.98099999999977,,response,,,99,,,,,,Space,keypress(Space),,,,,---- -- ----- -- ------ - ------- --- ----------<br>------------- ------ ------ ---- that ------- ----- -- ----<br>-------- ------- -- ---------- --- - --- ----- ----- ----<br>---- --- --- ----- --- ---- ---- ------- ----- ---- -------<br>--- --- -- ----- -- --- ---- -- --- ---- -- ------ ------<br>--- ----- -- ----,64844.40000009537,64843.5,64409.849,64404.90000009537,64426.519,64859.953,,13,that
screen,html.Screen,0_2_0_1_14,2021-11-19T14:32:26.873Z,,,,,,,,,,,,,,,,53,,,,,,,,,,,,,,399.54699999999866,,response,,,99,,,,,,Space,keypress(Space),,,,,---- -- ----- -- ------ - ------- --- ----------<br>------------- ------ ------ ---- ---- feeling ----- -- ----<br>-------- ------- -- ---------- --- - --- ----- ----- ----<br>---- --- --- ----- --- ---- ---- ------- ----- ---- -------<br>--- --- -- ----- -- --- ---- -- --- ---- -- ------ ------<br>--- ----- -- ----,65260.300000071526,65259.5,64843.283,64844.60000002384,64859.953,65276.612,,14,feeling
screen,html.Screen,0_2_0_1_15,2021-11-19T14:32:27.417Z,,,,,,,,,,,,,,,,53,,,,,,,,,,,,,,526.9880000238409,,response,,,99,,,,,,Space,keypress(Space),,,,,---- -- ----- -- ------ - ------- --- ----------<br>------------- ------ ------ ---- ---- ------- close -- ----<br>-------- ------- -- ---------- --- - --- ----- ----- ----<br>---- --- --- ----- --- ---- ---- ------- ----- ---- -------<br>--- --- -- ----- -- --- ---- -- --- ---- -- ------ ------<br>--- ----- -- ----,65804.40000009537,65803.60000002384,65259.943,65260.60000002384,65276.612,65810.297,,15,close
screen,html.Screen,0_2_0_1_16,2021-11-19T14:32:27.761Z,,,,,,,,,,,,,,,,53,,,,,,,,,,,,,,337.1030000953615,,response,,,99,,,,,,Space,keypress(Space),,,,,---- -- ----- -- ------ - ------- --- ----------<br>------------- ------ ------ ---- ---- ------- ----- to ----<br>-------- ------- -- ---------- --- - --- ----- ----- ----<br>---- --- --- ----- --- ---- ---- ------- ----- ---- -------<br>--- --- -- ----- -- --- ---- -- --- ---- -- ------ ------<br>--- ----- -- ----,66148.30000007153,66147.40000009537,65793.625,65804.60000002384,65810.297,66160.12,,16,to
screen,html.Screen,0_2_0_1_17,2021-11-19T14:32:28.089Z,,,,,,,,,,,,,,,,53,,,,,,,,,,,,,,315.2800000953721,,response,,,99,,,,,,Space,keypress(Space),,,,,---- -- ----- -- ------ - ------- --- ----------<br>------------- ------ ------ ---- ---- ------- ----- -- your<br>-------- ------- -- ---------- --- - --- ----- ----- ----<br>---- --- --- ----- --- ---- ---- ------- ----- ---- -------<br>--- --- -- ----- -- --- ---- -- --- ---- -- ------ ------<br>--- ----- -- ----,66476.20000004768,66475.40000009537,66143.452,66148.5,66160.12,66493.722,,17,your
screen,html.Screen,0_2_0_1_18,2021-11-19T14:32:28.417Z,,,,,,,,,,,,,,,,53,,,,,,,,,,,,,,309.67800009537314,,response,,,99,,,,,,Space,keypress(Space),,,,,---- -- ----- -- ------ - ------- --- ----------<br>------------- ------ ------ ---- ---- ------- ----- -- ----<br>romantic ------- -- ---------- --- - --- ----- ----- ----<br>---- --- --- ----- --- ---- ---- ------- ----- ---- -------<br>--- --- -- ----- -- --- ---- -- --- ---- -- ------ ------<br>--- ----- -- ----,66804.20000004768,66803.40000009537,66477.051,66476.40000009537,66493.722,66810.437,,18,romantic
screen,html.Screen,0_2_0_1_19,2021-11-19T14:32:28.761Z,,,,,,,,,,,,,,,,53,,,,,,,,,,,,,,336.8630000715202,,response,,,99,,,,,,Space,keypress(Space),,,,,---- -- ----- -- ------ - ------- --- ----------<br>------------- ------ ------ ---- ---- ------- ----- -- ----<br>-------- partner -- ---------- --- - --- ----- ----- ----<br>---- --- --- ----- --- ---- ---- ------- ----- ---- -------<br>--- --- -- ----- -- --- ---- -- --- ---- -- ------ ------<br>--- ----- -- ----,67148.10000002384,67147.30000007153,66793.767,66804.40000009537,66810.437,67160.494,,19,partner
screen,html.Screen,0_2_0_1_20,2021-11-19T14:32:29.129Z,,,,,,,,,,,,,,,,53,,,,,,,,,,,,,,354.9060000953614,,response,,,99,,,,,,Space,keypress(Space),,,,,---- -- ----- -- ------ - ------- --- ----------<br>------------- ------ ------ ---- ---- ------- ----- -- ----<br>-------- ------- is ---------- --- - --- ----- ----- ----<br>---- --- --- ----- --- ---- ---- ------- ----- ---- -------<br>--- --- -- ----- -- --- ---- -- --- ---- -- ------ ------<br>--- ----- -- ----,67516.20000004768,67515.40000009537,67143.824,67148.40000009537,67160.494,67527.304,,20,is
screen,html.Screen,0_2_0_1_21,2021-11-19T14:32:29.489Z,,,,,,,,,,,,,,,,53,,,,,,,,,,,,,,347.99600007152185,,response,,,99,,,,,,Space,keypress(Space),,,,,---- -- ----- -- ------ - ------- --- ----------<br>------------- ------ ------ ---- ---- ------- ----- -- ----<br>-------- ------- -- paramount. --- - --- ----- ----- ----<br>---- --- --- ----- --- ---- ---- ------- ----- ---- -------<br>--- --- -- ----- -- --- ---- -- --- ---- -- ------ ------<br>--- ----- -- ----,67876.10000002384,67875.30000007153,67510.633,67516.40000009537,67527.304,67877.357,,21,paramount.
screen,html.Screen,0_2_0_1_22,2021-11-19T14:32:29.865Z,,,,,,,,,,,,,,,,53,,,,,,,,,,,,,,373.94300007152196,,response,,,99,,,,,,Space,keypress(Space),,,,,---- -- ----- -- ------ - ------- --- ----------<br>------------- ------ ------ ---- ---- ------- ----- -- ----<br>-------- ------- -- ---------- But - --- ----- ----- ----<br>---- --- --- ----- --- ---- ---- ------- ----- ---- -------<br>--- --- -- ----- -- --- ---- -- --- ---- -- ------ ------<br>--- ----- -- ----,68252.10000002384,68251.30000007153,67860.687,67876.5,67877.357,68260.794,,22,But
screen,html.Screen,0_2_0_1_23,2021-11-19T14:32:30.184Z,,,,,,,,,,,,,,,,53,,,,,,,,,,,,,,310.4060000476893,,response,,,99,,,,,,Space,keypress(Space),,,,,---- -- ----- -- ------ - ------- --- ----------<br>------------- ------ ------ ---- ---- ------- ----- -- ----<br>-------- ------- -- ---------- --- a --- ----- ----- ----<br>---- --- --- ----- --- ---- ---- ------- ----- ---- -------<br>--- --- -- ----- -- --- ---- -- --- ---- -- ------ ------<br>--- ----- -- ----,68572,68571.20000004768,68244.124,68252.30000007153,68260.794,68577.512,,23,a
screen,html.Screen,0_2_0_1_24,2021-11-19T14:32:30.576Z,,,,,,,,,,,,,,,,53,,,,,,,,,,,,,,385.68800004768127,,response,,,99,,,,,,Space,keypress(Space),,,,,---- -- ----- -- ------ - ------- --- ----------<br>------------- ------ ------ ---- ---- ------- ----- -- ----<br>-------- ------- -- ---------- --- - new ----- ----- ----<br>---- --- --- ----- --- ---- ---- ------- ----- ---- -------<br>--- --- -- ----- -- --- ---- -- --- ---- -- ------ ------<br>--- ----- -- ----,68964,68963.20000004768,68560.842,68572.10000002384,68577.512,68977.633,,24,new
screen,html.Screen,0_2_0_1_25,2021-11-19T14:32:30.953Z,,,,,,,,,,,,,,,,53,,,,,,,,,,,,,,361.5670000476821,,response,,,99,,,,,,Space,keypress(Space),,,,,---- -- ----- -- ------ - ------- --- ----------<br>------------- ------ ------ ---- ---- ------- ----- -- ----<br>-------- ------- -- ---------- --- - --- study ----- ----<br>---- --- --- ----- --- ---- ---- ------- ----- ---- -------<br>--- --- -- ----- -- --- ---- -- --- ---- -- ------ ------<br>--- ----- -- ----,69339.90000009537,69339.20000004768,68960.963,68964.30000007153,68977.633,69344.374,,25,study
screen,html.Screen,0_2_0_1_26,2021-11-19T14:32:31.264Z,,,,,,,,,,,,,,,,53,,,,,,,,,,,,,,306.7260000238457,,response,,,99,,,,,,Space,keypress(Space),,,,,---- -- ----- -- ------ - ------- --- ----------<br>------------- ------ ------ ---- ---- ------- ----- -- ----<br>-------- ------- -- ---------- --- - --- ----- finds ----<br>---- --- --- ----- --- ---- ---- ------- ----- ---- -------<br>--- --- -- ----- -- --- ---- -- --- ---- -- ------ ------<br>--- ----- -- ----,69652,69651.10000002384,69327.704,69340.30000007153,69344.374,69661.1,,26,finds
screen,html.Screen,0_2_0_1_27,2021-11-19T14:32:31.746Z,,,,,,,,,,,,,,,,53,,,,,,,,,,,,,,470.00000002383604,,response,,,99,,,,,,Space,keypress(Space),,,,,---- -- ----- -- ------ - ------- --- ----------<br>------------- ------ ------ ---- ---- ------- ----- -- ----<br>-------- ------- -- ---------- --- - --- ----- ----- that<br>---- --- --- ----- --- ---- ---- ------- ----- ---- -------<br>--- --- -- ----- -- --- ---- -- --- ---- -- ------ ------<br>--- ----- -- ----,70133.70000004768,70131.10000002384,69644.43,69652.20000004768,69661.1,70144.57,,27,that
screen,html.Screen,0_2_0_1_28,2021-11-19T14:32:32.160Z,,,,,,,,,,,,,,,,53,,,,,,,,,,,,,,402.5300000238349,,response,,,99,,,,,,Space,keypress(Space),,,,,---- -- ----- -- ------ - ------- --- ----------<br>------------- ------ ------ ---- ---- ------- ----- -- ----<br>-------- ------- -- ---------- --- - --- ----- ----- ----<br>it's --- --- ----- --- ---- ---- ------- ----- ---- -------<br>--- --- -- ----- -- --- ---- -- --- ---- -- ------ ------<br>--- ----- -- ----,70547.80000007153,70547.10000002384,70127.9,70134,70144.57,70561.338,,28,it's
screen,html.Screen,0_2_0_1_29,2021-11-19T14:32:32.553Z,,,,,,,,,,,,,,,,53,,,,,,,,,,,,,,378.06200009536406,,response,,,99,,,,,,Space,keypress(Space),,,,,---- -- ----- -- ------ - ------- --- ----------<br>------------- ------ ------ ---- ---- ------- ----- -- ----<br>-------- ------- -- ---------- --- - --- ----- ----- ----<br>---- not --- ----- --- ---- ---- ------- ----- ---- -------<br>--- --- -- ----- -- --- ---- -- --- ---- -- ------ ------<br>--- ----- -- ----,70940.20000004768,70939.40000009537,70544.668,70548.20000004768,70561.338,70944.631,,29,not
screen,html.Screen,0_2_0_1_30,2021-11-19T14:32:32.880Z,,,,,,,,,,,,,,,,53,,,,,,,,,,,,,,322.36900000000605,,response,,,99,,,,,,Space,keypress(Space),,,,,---- -- ----- -- ------ - ------- --- ----------<br>------------- ------ ------ ---- ---- ------- ----- -- ----<br>-------- ------- -- ---------- --- - --- ----- ----- ----<br>---- --- how ----- --- ---- ---- ------- ----- ---- -------<br>--- --- -- ----- -- --- ---- -- --- ---- -- ------ ------<br>--- ----- -- ----,71267.90000009537,71267,70927.963,70940.5,70944.631,71278.249,,30,how
screen,html.Screen,0_2_0_1_31,2021-11-19T14:32:33.168Z,,,,,,,,,,,,,,,,53,,,,,,,,,,,,,,276.75100000000384,,response,,,99,,,,,,Space,keypress(Space),,,,,---- -- ----- -- ------ - ------- --- ----------<br>------------- ------ ------ ---- ---- ------- ----- -- ----<br>-------- ------- -- ---------- --- - --- ----- ----- ----<br>---- --- --- close --- ---- ---- ------- ----- ---- -------<br>--- --- -- ----- -- --- ---- -- --- ---- -- ------ ------<br>--- ----- -- ----,71555.80000007153,71555,71261.577,71268.10000002384,71278.249,71561.621,,31,close
screen,html.Screen,0_2_0_1_32,2021-11-19T14:32:33.592Z,,,,,,,,,,,,,,,,53,,,,,,,,,,,,,,417.3790000000008,,response,,,99,,,,,,Space,keypress(Space),,,,,---- -- ----- -- ------ - ------- --- ----------<br>------------- ------ ------ ---- ---- ------- ----- -- ----<br>-------- ------- -- ---------- --- - --- ----- ----- ----<br>---- --- --- ----- you ---- ---- ------- ----- ---- -------<br>--- --- -- ----- -- --- ---- -- --- ---- -- ------ ------<br>--- ----- -- ----,71979.80000007153,71979,71544.95,71556.10000002384,71561.621,71995.027,,32,you
screen,html.Screen,0_2_0_1_33,2021-11-19T14:32:33.968Z,,,,,,,,,,,,,,,,53,,,,,,,,,,,,,,359.97299999999814,,response,,,99,,,,,,Space,keypress(Space),,,,,---- -- ----- -- ------ - ------- --- ----------<br>------------- ------ ------ ---- ---- ------- ----- -- ----<br>-------- ------- -- ---------- --- - --- ----- ----- ----<br>---- --- --- ----- --- feel ---- ------- ----- ---- -------<br>--- --- -- ----- -- --- ---- -- --- ---- -- ------ ------<br>--- ----- -- ----,72355.80000007153,72355,71978.357,71980.10000002384,71995.027,72361.773,,33,feel
screen,html.Screen,0_2_0_1_34,2021-11-19T14:32:34.464Z,,,,,,,,,,,,,,,,53,,,,,,,,,,,,,,489.1270000953664,,response,,,99,,,,,,Space,keypress(Space),,,,,---- -- ----- -- ------ - ------- --- ----------<br>------------- ------ ------ ---- ---- ------- ----- -- ----<br>-------- ------- -- ---------- --- - --- ----- ----- ----<br>---- --- --- ----- --- ---- that ------- ----- ---- -------<br>--- --- -- ----- -- --- ---- -- --- ---- -- ------ ------<br>--- ----- -- ----,72851.70000004768,72850.90000009537,72345.103,72356,72361.773,72861.9,,34,that
screen,html.Screen,0_2_0_1_35,2021-11-19T14:32:34.816Z,,,,,,,,,,,,,,,,53,,,,,,,,,,,,,,341.00000009537325,,response,,,99,,,,,,Space,keypress(Space),,,,,---- -- ----- -- ------ - ------- --- ----------<br>------------- ------ ------ ---- ---- ------- ----- -- ----<br>-------- ------- -- ---------- --- - --- ----- ----- ----<br>---- --- --- ----- --- ---- ---- matters ----- ---- -------<br>--- --- -- ----- -- --- ---- -- --- ---- -- ------ ------<br>--- ----- -- ----,73203.70000004768,73202.90000009537,72845.23,72852.10000002384,72861.9,73211.927,,35,matters
screen,html.Screen,0_2_0_1_36,2021-11-19T14:32:35.168Z,,,,,,,,,,,,,,,,53,,,,,,,,,,,,,,342.87300007152953,,response,,,99,,,,,,Space,keypress(Space),,,,,"---- -- ----- -- ------ - ------- --- ----------<br>------------- ------ ------ ---- ---- ------- ----- -- ----<br>-------- ------- -- ---------- --- - --- ----- ----- ----<br>---- --- --- ----- --- ---- ---- ------- most, ---- -------<br>--- --- -- ----- -- --- ---- -- --- ---- -- ------ ------<br>--- ----- -- ----",73555.80000007153,73554.80000007153,73195.258,73203.90000009537,73211.927,73562.052,,36,"most,"
screen,html.Screen,0_2_0_1_37,2021-11-19T14:32:35.624Z,,,,,,,,,,,,,,,,53,,,,,,,,,,,,,,448.74800007152953,,response,,,99,,,,,,Space,keypress(Space),,,,,---- -- ----- -- ------ - ------- --- ----------<br>------------- ------ ------ ---- ---- ------- ----- -- ----<br>-------- ------- -- ---------- --- - --- ----- ----- ----<br>---- --- --- ----- --- ---- ---- ------- ----- it's -------<br>--- --- -- ----- -- --- ---- -- --- ---- -- ------ ------<br>--- ----- -- ----,74011.70000004768,74010.80000007153,73545.382,73556,73562.052,74028.841,,37,it's
screen,html.Screen,0_2_0_1_38,2021-11-19T14:32:35.936Z,,,,,,,,,,,,,,,,53,,,,,,,,,,,,,,293.9590000715252,,response,,,99,,,,,,Space,keypress(Space),,,,,---- -- ----- -- ------ - ------- --- ----------<br>------------- ------ ------ ---- ---- ------- ----- -- ----<br>-------- ------- -- ---------- --- - --- ----- ----- ----<br>---- --- --- ----- --- ---- ---- ------- ----- ---- whether<br>--- --- -- ----- -- --- ---- -- --- ---- -- ------ ------<br>--- ----- -- ----,74323.5,74322.80000007153,74012.171,74011.90000009537,74028.841,74328.919,,38,whether
screen,html.Screen,0_2_0_1_39,2021-11-19T14:32:36.272Z,,,,,,,,,,,,,,,,53,,,,,,,,,,,,,,329.7810000476893,,response,,,99,,,,,,Space,keypress(Space),,,,,---- -- ----- -- ------ - ------- --- ----------<br>------------- ------ ------ ---- ---- ------- ----- -- ----<br>-------- ------- -- ---------- --- - --- ----- ----- ----<br>---- --- --- ----- --- ---- ---- ------- ----- ---- -------<br>you --- -- ----- -- --- ---- -- --- ---- -- ------ ------<br>--- ----- -- ----,74659.40000009537,74658.70000004768,74312.249,74323.80000007153,74328.919,74662.333,,39,you
screen,html.Screen,0_2_0_1_40,2021-11-19T14:32:36.584Z,,,,,,,,,,,,,,,,53,,,,,,,,,,,,,,308.367000047685,,response,,,99,,,,,,Space,keypress(Space),,,,,---- -- ----- -- ------ - ------- --- ----------<br>------------- ------ ------ ---- ---- ------- ----- -- ----<br>-------- ------- -- ---------- --- - --- ----- ----- ----<br>---- --- --- ----- --- ---- ---- ------- ----- ---- -------<br>--- are -- ----- -- --- ---- -- --- ---- -- ------ ------<br>--- ----- -- ----,74971.5,74970.70000004768,74645.663,74659.80000007153,74662.333,74979.067,,40,are
screen,html.Screen,0_2_0_1_41,2021-11-19T14:32:36.936Z,,,,,,,,,,,,,,,,53,,,,,,,,,,,,,,343.63300004768826,,response,,,99,,,,,,Space,keypress(Space),,,,,---- -- ----- -- ------ - ------- --- ----------<br>------------- ------ ------ ---- ---- ------- ----- -- ----<br>-------- ------- -- ---------- --- - --- ----- ----- ----<br>---- --- --- ----- --- ---- ---- ------- ----- ---- -------<br>--- --- as ----- -- --- ---- -- --- ---- -- ------ ------<br>--- ----- -- ----,75323.40000009537,75322.70000004768,74962.397,74971.70000004768,74979.067,75329.197,,41,as
screen,html.Screen,0_2_0_1_42,2021-11-19T14:32:37.264Z,,,,,,,,,,,,,,,,53,,,,,,,,,,,,,,321.5030000476836,,response,,,99,,,,,,Space,keypress(Space),,,,,---- -- ----- -- ------ - ------- --- ----------<br>------------- ------ ------ ---- ---- ------- ----- -- ----<br>-------- ------- -- ---------- --- - --- ----- ----- ----<br>---- --- --- ----- --- ---- ---- ------- ----- ---- -------<br>--- --- -- close -- --- ---- -- --- ---- -- ------ ------<br>--- ----- -- ----,75651.40000009537,75650.70000004768,75312.526,75323.70000004768,75329.197,75662.586,,42,close
screen,html.Screen,0_2_0_1_43,2021-11-19T14:32:37.632Z,,,,,,,,,,,,,,,,53,,,,,,,,,,,,,,356.114000047688,,response,,,99,,,,,,Space,keypress(Space),,,,,---- -- ----- -- ------ - ------- --- ----------<br>------------- ------ ------ ---- ---- ------- ----- -- ----<br>-------- ------- -- ---------- --- - --- ----- ----- ----<br>---- --- --- ----- --- ---- ---- ------- ----- ---- -------<br>--- --- -- ----- as --- ---- -- --- ---- -- ------ ------<br>--- ----- -- ----,76019.40000009537,76018.70000004768,75645.916,75651.70000004768,75662.586,76029.33,,43,as
screen,html.Screen,0_2_0_1_44,2021-11-19T14:32:37.944Z,,,,,,,,,,,,,,,,53,,,,,,,,,,,,,,301.37000004768197,,response,,,99,,,,,,Space,keypress(Space),,,,,---- -- ----- -- ------ - ------- --- ----------<br>------------- ------ ------ ---- ---- ------- ----- -- ----<br>-------- ------- -- ---------- --- - --- ----- ----- ----<br>---- --- --- ----- --- ---- ---- ------- ----- ---- -------<br>--- --- -- ----- -- you ---- -- --- ---- -- ------ ------<br>--- ----- -- ----,76331.40000009537,76330.70000004768,76012.66,76019.70000004768,76029.33,76346.067,,44,you
screen,html.Screen,0_2_0_1_45,2021-11-19T14:32:38.304Z,,,,,,,,,,,,,,,,53,,,,,,,,,,,,,,344.7330000715301,,response,,,99,,,,,,Space,keypress(Space),,,,,---- -- ----- -- ------ - ------- --- ----------<br>------------- ------ ------ ---- ---- ------- ----- -- ----<br>-------- ------- -- ---------- --- - --- ----- ----- ----<br>---- --- --- ----- --- ---- ---- ------- ----- ---- -------<br>--- --- -- ----- -- --- want -- --- ---- -- ------ ------<br>--- ----- -- ----,76691.70000004768,76690.80000007153,76329.397,76331.60000002384,76346.067,76696.202,,45,want
screen,html.Screen,0_2_0_1_46,2021-11-19T14:32:38.616Z,,,,,,,,,,,,,,,,53,,,,,,,,,,,,,,306.3980000238371,,response,,,99,,,,,,Space,keypress(Space),,,,,---- -- ----- -- ------ - ------- --- ----------<br>------------- ------ ------ ---- ---- ------- ----- -- ----<br>-------- ------- -- ---------- --- - --- ----- ----- ----<br>---- --- --- ----- --- ---- ---- ------- ----- ---- -------<br>--- --- -- ----- -- --- ---- to --- ---- -- ------ ------<br>--- ----- -- ----,77003.40000009537,77002.60000002384,76679.531,76691.80000007153,76696.202,77012.903,,46,to
screen,html.Screen,0_2_0_1_47,2021-11-19T14:32:39.056Z,,,,,,,,,,,,,,,,53,,,,,,,,,,,,,,429.69700002383615,,response,,,99,,,,,,Space,keypress(Space),,,,,"---- -- ----- -- ------ - ------- --- ----------<br>------------- ------ ------ ---- ---- ------- ----- -- ----<br>-------- ------- -- ---------- --- - --- ----- ----- ----<br>---- --- --- ----- --- ---- ---- ------- ----- ---- -------<br>--- --- -- ----- -- --- ---- -- be, ---- -- ------ ------<br>--- ----- -- ----",77443.40000009537,77442.60000002384,76996.233,77003.60000002384,77012.903,77446.328,,47,"be,"
screen,html.Screen,0_2_0_1_48,2021-11-19T14:32:39.504Z,,,,,,,,,,,,,,,,53,,,,,,,,,,,,,,444.37200004768965,,response,,,99,,,,,,Space,keypress(Space),,,,,---- -- ----- -- ------ - ------- --- ----------<br>------------- ------ ------ ---- ---- ------- ----- -- ----<br>-------- ------- -- ---------- --- - --- ----- ----- ----<br>---- --- --- ----- --- ---- ---- ------- ----- ---- -------<br>--- --- -- ----- -- --- ---- -- --- even -- ------ ------<br>--- ----- -- ----,77891.5,77890.70000004768,77429.658,77443.60000002384,77446.328,77896.437,,48,even
screen,html.Screen,0_2_0_1_49,2021-11-19T14:32:39.744Z,,,,,,,,,,,,,,,,53,,,,,,,,,,,,,,234.1630000238365,,response,,,99,,,,,,Space,keypress(Space),,,,,---- -- ----- -- ------ - ------- --- ----------<br>------------- ------ ------ ---- ---- ------- ----- -- ----<br>-------- ------- -- ---------- --- - --- ----- ----- ----<br>---- --- --- ----- --- ---- ---- ------- ----- ---- -------<br>--- --- -- ----- -- --- ---- -- --- ---- if ------ ------<br>--- ----- -- ----,78131.30000007153,78130.60000002384,77879.767,77891.70000004768,77896.437,78146.53,,49,if
screen,html.Screen,0_2_0_1_50,2021-11-19T14:32:40.064Z,,,,,,,,,,,,,,,,53,,,,,,,,,,,,,,303.97000000000116,,response,,,99,,,,,,Space,keypress(Space),,,,,---- -- ----- -- ------ - ------- --- ----------<br>------------- ------ ------ ---- ---- ------- ----- -- ----<br>-------- ------- -- ---------- --- - --- ----- ----- ----<br>---- --- --- ----- --- ---- ---- ------- ----- ---- -------<br>--- --- -- ----- -- --- ---- -- --- ---- -- that's ------<br>--- ----- -- ----,78451.30000007153,78450.5,78129.86,78131.5,78146.53,78463.146,,50,that's
screen,html.Screen,0_2_0_1_51,2021-11-19T14:32:40.456Z,,,,,,,,,,,,,,,,53,,,,,,,,,,,,,,379.35400000000664,,response,,,99,,,,,,Space,keypress(Space),,,,,---- -- ----- -- ------ - ------- --- ----------<br>------------- ------ ------ ---- ---- ------- ----- -- ----<br>-------- ------- -- ---------- --- - --- ----- ----- ----<br>---- --- --- ----- --- ---- ---- ------- ----- ---- -------<br>--- --- -- ----- -- --- ---- -- --- ---- -- ------ really<br>--- ----- -- ----,78843.30000007153,78842.5,78446.478,78451.5,78463.146,78846.645,,51,really
screen,html.Screen,0_2_0_1_52,2021-11-19T14:32:40.768Z,,,,,,,,,,,,,,,,53,,,,,,,,,,,,,,307.8549999999959,,response,,,99,,,,,,Space,keypress(Space),,,,,---- -- ----- -- ------ - ------- --- ----------<br>------------- ------ ------ ---- ---- ------- ----- -- ----<br>-------- ------- -- ---------- --- - --- ----- ----- ----<br>---- --- --- ----- --- ---- ---- ------- ----- ---- -------<br>--- --- -- ----- -- --- ---- -- --- ---- -- ------ ------<br>not ----- -- ----,79155.30000007153,79154.5,78829.975,78843.5,78846.645,79163.511,,52,not
screen,html.Screen,0_2_0_1_53,2021-11-19T14:32:41.040Z,,,,,,,,,,,,,,,,53,,,,,,,,,,,,,,262.88900009536883,,response,,,99,,,,,,Space,keypress(Space),,,,,---- -- ----- -- ------ - ------- --- ----------<br>------------- ------ ------ ---- ---- ------- ----- -- ----<br>-------- ------- -- ---------- --- - --- ----- ----- ----<br>---- --- --- ----- --- ---- ---- ------- ----- ---- -------<br>--- --- -- ----- -- --- ---- -- --- ---- -- ------ ------<br>--- close -- ----,79427.30000007153,79426.40000009537,79146.839,79155.5,79163.511,79430.155,,53,close
screen,html.Screen,0_2_0_1_54,2021-11-19T14:32:41.352Z,,,,,,,,,,,,,,,,53,,,,,,,,,,,,,,308.2450000953686,,response,,,99,,,,,,Space,keypress(Space),,,,,---- -- ----- -- ------ - ------- --- ----------<br>------------- ------ ------ ---- ---- ------- ----- -- ----<br>-------- ------- -- ---------- --- - --- ----- ----- ----<br>---- --- --- ----- --- ---- ---- ------- ----- ---- -------<br>--- --- -- ----- -- --- ---- -- --- ---- -- ------ ------<br>--- ----- at ----,79739.20000004768,79738.40000009537,79413.485,79427.40000009537,79430.155,79746.907,,54,at
screen,html.Screen,0_2_0_1_55,2021-11-19T14:32:41.792Z,,,,,,,,,,,,,,,,53,,,,,,,,,,,,,,431.5929999999935,,response,,,99,,,,,,Space,keypress(Space),,,,,---- -- ----- -- ------ - ------- --- ----------<br>------------- ------ ------ ---- ---- ------- ----- -- ----<br>-------- ------- -- ---------- --- - --- ----- ----- ----<br>---- --- --- ----- --- ---- ---- ------- ----- ---- -------<br>--- --- -- ----- -- --- ---- -- --- ---- -- ------ ------<br>--- ----- -- all.,80179.20000004768,80178.5,79730.237,79739.5,79746.907,80196.995,,55,all.
Item 99,flow.Loop,0_2_0_1,2021-11-19T14:32:41.796Z,,,,,,,,,,,,,,,,,,,,,,,,,,,,,,23187.368000000002,,completion,,,,F,,,,,,,,,,silence,,80183.5,80178.5,56974.463,56982.200000047684,56991.132,80196.995,,,
Question 1,html.Screen,0_2_0_2,2021-11-19T14:32:49.448Z,,,,,,,,,,,,,,,,,,,,,,,,,,,false,FALSE,,7636.705000047688,,response,,,99,F,,,,,TRUE,click #choice-1,,,,silence,,87835.10000002384,87833.70000004768,80180.325,80183.80000007153,80196.995,87848.816,,,
Question 2,html.Screen,0_2_0_3,2021-11-19T14:32:55.055Z,,,,,,,,,,,,,,,,,,,,,,,,,,,true,TRUE,,5592.484000071519,,response,,,99,F,,,,,TRUE,click #choice-1,,,,silence,,93442.5,93441.30000007153,87832.146,87835.40000009537,87848.816,93450.212,,,
Item 99,flow.Sequence,0_2_0,2021-11-19T14:32:55.055Z,,,,,,,,,,,,,,,,,,,,,,,,,,,,,,46452.27800007153,,completion,,,,,,,,,,,,,,,,93442.90000009537,93441.30000007153,46972.35,46974.90000009537,46989.022,93450.212,,,
Holding screen,html.Screen,0_2_1_0,2021-11-19T14:33:05.050Z,,,,,,,,,,,,,,,,,,,,,,,,,,,,,,10002.328999999998,,timeout,,,,,,,,,,,,,,,,103437.60000002384,103435.871,93433.542,93443.20000004768,93450.212,103452.541,,,
screen,html.Screen,0_2_1_1_0,2021-11-19T14:33:05.839Z,,,,,,,,,,,,,,,,54,,,,,,,,,,,,,,772.6590000476863,,response,,,100,,,,,,Space,keypress(Space),,,,,At --- ---- --- ------ ----- ------- ---- -- --- ------- --<br>------- ---------- ------ -- ----- -- ----- -- ---- ------<br>--- ----- --- --- ------ -------- ----- --- ------ ----- --<br>----- ----- ---------- --- --- ------ ------ ---- -- ------<br>------- --- ------ ----- --- ---- ------- -- ---- --- --<br>------- ------,104226,104225.20000004768,103435.871,103438.10000002384,103452.541,104236.226,,0,At
screen,html.Screen,0_2_1_1_1,2021-11-19T14:33:06.334Z,,,,,,,,,,,,,,,,54,,,,,,,,,,,,,,484.4740000476886,,response,,,100,,,,,,Space,keypress(Space),,,,,-- the ---- --- ------ ----- ------- ---- -- --- ------- --<br>------- ---------- ------ -- ----- -- ----- -- ---- ------<br>--- ----- --- --- ------ -------- ----- --- ------ ----- --<br>----- ----- ---------- --- --- ------ ------ ---- -- ------<br>------- --- ------ ----- --- ---- ------- -- ---- --- --<br>------- ------,104721.5,104720.70000004768,104219.555,104226.30000007153,104236.226,104736.31,,1,the
screen,html.Screen,0_2_1_1_2,2021-11-19T14:33:06.830Z,,,,,,,,,,,,,,,,54,,,,,,,,,,,,,,480.39000004768604,,response,,,100,,,,,,Space,keypress(Space),,,,,-- --- time --- ------ ----- ------- ---- -- --- ------- --<br>------- ---------- ------ -- ----- -- ----- -- ---- ------<br>--- ----- --- --- ------ -------- ----- --- ------ ----- --<br>----- ----- ---------- --- --- ------ ------ ---- -- ------<br>------- --- ------ ----- --- ---- ------- -- ---- --- --<br>------- ------,105217.40000009537,105216.70000004768,104719.64,104721.80000007153,104736.31,105219.654,,2,time
screen,html.Screen,0_2_1_1_3,2021-11-19T14:33:07.294Z,,,,,,,,,,,,,,,,54,,,,,,,,,,,,,,460.94600002384686,,response,,,100,,,,,,Space,keypress(Space),,,,,-- --- ---- the ------ ----- ------- ---- -- --- ------- --<br>------- ---------- ------ -- ----- -- ----- -- ---- ------<br>--- ----- --- --- ------ -------- ----- --- ------ ----- --<br>----- ----- ---------- --- --- ------ ------ ---- -- ------<br>------- --- ------ ----- --- ---- ------- -- ---- --- --<br>------- ------,105681.40000009537,105680.60000002384,105202.985,105217.70000004768,105219.654,105686.573,,3,the
screen,html.Screen,0_2_1_1_4,2021-11-19T14:33:07.734Z,,,,,,,,,,,,,,,,54,,,,,,,,,,,,,,434.12700004767976,,response,,,100,,,,,,Space,keypress(Space),,,,,-- --- ---- --- French ----- ------- ---- -- --- ------- --<br>------- ---------- ------ -- ----- -- ----- -- ---- ------<br>--- ----- --- --- ------ -------- ----- --- ------ ----- --<br>----- ----- ---------- --- --- ------ ------ ---- -- ------<br>------- --- ------ ----- --- ---- ------- -- ---- --- --<br>------- ------,106121.40000009537,106120.70000004768,105669.902,105681.60000002384,105686.573,106136.647,,4,French
screen,html.Screen,0_2_1_1_5,2021-11-19T14:33:08.182Z,,,,,,,,,,,,,,,,54,,,,,,,,,,,,,,431.95300002384465,,response,,,100,,,,,,Space,keypress(Space),,,,,-- --- ---- --- ------ crown ------- ---- -- --- ------- --<br>------- ---------- ------ -- ----- -- ----- -- ---- ------<br>--- ----- --- --- ------ -------- ----- --- ------ ----- --<br>----- ----- ---------- --- --- ------ ------ ---- -- ------<br>------- --- ------ ----- --- ---- ------- -- ---- --- --<br>------- ------,106569.40000009537,106568.60000002384,106119.977,106121.70000004768,106136.647,106586.729,,5,crown
screen,html.Screen,0_2_1_1_6,2021-11-19T14:33:08.918Z,,,,,,,,,,,,,,,,54,,,,,,,,,,,,,,717.7709999999934,,response,,,100,,,,,,Space,keypress(Space),,,,,-- --- ---- --- ------ ----- secured ---- -- --- ------- --<br>------- ---------- ------ -- ----- -- ----- -- ---- ------<br>--- ----- --- --- ------ -------- ----- --- ------ ----- --<br>----- ----- ---------- --- --- ------ ------ ---- -- ------<br>------- --- ------ ----- --- ---- ------- -- ---- --- --<br>------- ------,107305.30000007153,107304.5,106570.059,106569.60000002384,106586.729,107320.247,,6,secured
screen,html.Screen,0_2_1_1_7,2021-11-19T14:33:09.366Z,,,,,,,,,,,,,,,,54,,,,,,,,,,,,,,432.252999999997,,response,,,100,,,,,,Space,keypress(Space),,,,,-- --- ---- --- ------ ----- ------- much -- --- ------- --<br>------- ---------- ------ -- ----- -- ----- -- ---- ------<br>--- ----- --- --- ------ -------- ----- --- ------ ----- --<br>----- ----- ---------- --- --- ------ ------ ---- -- ------<br>------- --- ------ ----- --- ---- ------- -- ---- --- --<br>------- ------,107753.30000007153,107752.5,107303.577,107305.5,107320.247,107770.369,,7,much
screen,html.Screen,0_2_1_1_8,2021-11-19T14:33:09.822Z,,,,,,,,,,,,,,,,54,,,,,,,,,,,,,,438.13099999999395,,response,,,100,,,,,,Space,keypress(Space),,,,,-- --- ---- --- ------ ----- ------- ---- of --- ------- --<br>------- ---------- ------ -- ----- -- ----- -- ---- ------<br>--- ----- --- --- ------ -------- ----- --- ------ ----- --<br>----- ----- ---------- --- --- ------ ------ ---- -- ------<br>------- --- ------ ----- --- ---- ------- -- ---- --- --<br>------- ------,108209.20000004768,108208.5,107753.699,107753.5,107770.369,108220.486,,8,of
screen,html.Screen,0_2_1_1_9,2021-11-19T14:33:10.326Z,,,,,,,,,,,,,,,,54,,,,,,,,,,,,,,491.914000095363,,response,,,100,,,,,,Space,keypress(Space),,,,,-- --- ---- --- ------ ----- ------- ---- -- its ------- --<br>------- ---------- ------ -- ----- -- ----- -- ---- ------<br>--- ----- --- --- ------ -------- ----- --- ------ ----- --<br>----- ----- ---------- --- --- ------ ------ ---- -- ------<br>------- --- ------ ----- --- ---- ------- -- ---- --- --<br>------- ------,108713.20000004768,108712.40000009537,108203.816,108209.40000009537,108220.486,108720.592,,9,its
screen,html.Screen,0_2_1_1_10,2021-11-19T14:33:10.750Z,,,,,,,,,,,,,,,,54,,,,,,,,,,,,,,415.7080000715214,,response,,,100,,,,,,Space,keypress(Space),,,,,-- --- ---- --- ------ ----- ------- ---- -- --- revenue --<br>------- ---------- ------ -- ----- -- ----- -- ---- ------<br>--- ----- --- --- ------ -------- ----- --- ------ ----- --<br>----- ----- ---------- --- --- ------ ------ ---- -- ------<br>------- --- ------ ----- --- ---- ------- -- ---- --- --<br>------- ------,109137.10000002384,109136.30000007153,108703.922,108713.40000009537,108720.592,109154.04,,10,revenue
screen,html.Screen,0_2_1_1_11,2021-11-19T14:33:11.238Z,,,,,,,,,,,,,,,,54,,,,,,,,,,,,,,470.260000071532,,response,,,100,,,,,,Space,keypress(Space),,,,,-- --- ---- --- ------ ----- ------- ---- -- --- ------- by<br>------- ---------- ------ -- ----- -- ----- -- ---- ------<br>--- ----- --- --- ------ -------- ----- --- ------ ----- --<br>----- ----- ---------- --- --- ------ ------ ---- -- ------<br>------- --- ------ ----- --- ---- ------- -- ---- --- --<br>------- ------,109625.10000002384,109624.30000007153,109137.37,109137.30000007153,109154.04,109637.488,,11,by
screen,html.Screen,0_2_1_1_12,2021-11-19T14:33:11.646Z,,,,,,,,,,,,,,,,54,,,,,,,,,,,,,,394.812000071528,,response,,,100,,,,,,Space,keypress(Space),,,,,-- --- ---- --- ------ ----- ------- ---- -- --- ------- --<br>issuing ---------- ------ -- ----- -- ----- -- ---- ------<br>--- ----- --- --- ------ -------- ----- --- ------ ----- --<br>----- ----- ---------- --- --- ------ ------ ---- -- ------<br>------- --- ------ ----- --- ---- ------- -- ---- --- --<br>------- ------,110033.10000002384,110032.30000007153,109620.818,109625.40000009537,109637.488,110037.522,,12,issuing
screen,html.Screen,0_2_1_1_13,2021-11-19T14:33:12.070Z,,,,,,,,,,,,,,,,54,,,,,,,,,,,,,,418.6780000476865,,response,,,100,,,,,,Space,keypress(Space),,,,,-- --- ---- --- ------ ----- ------- ---- -- --- ------- --<br>------- government ------ -- ----- -- ----- -- ---- ------<br>--- ----- --- --- ------ -------- ----- --- ------ ----- --<br>----- ----- ---------- --- --- ------ ------ ---- -- ------<br>------- --- ------ ----- --- ---- ------- -- ---- --- --<br>------- ------,110457,110456.20000004768,110020.853,110033.30000007153,110037.522,110471.081,,13,government
screen,html.Screen,0_2_1_1_14,2021-11-19T14:33:12.590Z,,,,,,,,,,,,,,,,54,,,,,,,,,,,,,,505.21900007152,,response,,,100,,,,,,Space,keypress(Space),,,,,-- --- ---- --- ------ ----- ------- ---- -- --- ------- --<br>------- ---------- bonds. -- ----- -- ----- -- ---- ------<br>--- ----- --- --- ------ -------- ----- --- ------ ----- --<br>----- ----- ---------- --- --- ------ ------ ---- -- ------<br>------- --- ------ ----- --- ---- ------- -- ---- --- --<br>------- ------,110977.10000002384,110976.30000007153,110454.41,110457.30000007153,110471.081,110987.824,,14,bonds.
screen,html.Screen,0_2_1_1_15,2021-11-19T14:33:13.022Z,,,,,,,,,,,,,,,,54,,,,,,,,,,,,,,420.37600004769047,,response,,,100,,,,,,Space,keypress(Space),,,,,-- --- ---- --- ------ ----- ------- ---- -- --- ------- --<br>------- ---------- ------ In ----- -- ----- -- ---- ------<br>--- ----- --- --- ------ -------- ----- --- ------ ----- --<br>----- ----- ---------- --- --- ------ ------ ---- -- ------<br>------- --- ------ ----- --- ---- ------- -- ---- --- --<br>------- ------,111409,111408.20000004768,110971.154,110977.20000004768,110987.824,111421.195,,15,In
screen,html.Screen,0_2_1_1_16,2021-11-19T14:33:13.454Z,,,,,,,,,,,,,,,,54,,,,,,,,,,,,,,419.00500004767673,,response,,,100,,,,,,Space,keypress(Space),,,,,"-- --- ---- --- ------ ----- ------- ---- -- --- ------- --<br>------- ---------- ------ -- 1727, -- ----- -- ---- ------<br>--- ----- --- --- ------ -------- ----- --- ------ ----- --<br>----- ----- ---------- --- --- ------ ------ ---- -- ------<br>------- --- ------ ----- --- ---- ------- -- ---- --- --<br>------- ------",111841,111840.20000004768,111404.526,111409.20000004768,111421.195,111854.76,,16,"1727,"
screen,html.Screen,0_2_1_1_17,2021-11-19T14:33:13.901Z,,,,,,,,,,,,,,,,54,,,,,,,,,,,,,,433.44000004768895,,response,,,100,,,,,,Space,keypress(Space),,,,,-- --- ---- --- ------ ----- ------- ---- -- --- ------- --<br>------- ---------- ------ -- ----- in ----- -- ---- ------<br>--- ----- --- --- ------ -------- ----- --- ------ ----- --<br>----- ----- ---------- --- --- ------ ------ ---- -- ------<br>------- --- ------ ----- --- ---- ------- -- ---- --- --<br>------- ------,112289,112288.20000004768,111838.089,111841.20000004768,111854.76,112304.79,,17,in
screen,html.Screen,0_2_1_1_18,2021-11-19T14:33:14.445Z,,,,,,,,,,,,,,,,54,,,,,,,,,,,,,,527.3100000238483,,response,,,100,,,,,,Space,keypress(Space),,,,,-- --- ---- --- ------ ----- ------- ---- -- --- ------- --<br>------- ---------- ------ -- ----- -- order -- ---- ------<br>--- ----- --- --- ------ -------- ----- --- ------ ----- --<br>----- ----- ---------- --- --- ------ ------ ---- -- ------<br>------- --- ------ ----- --- ---- ------- -- ---- --- --<br>------- ------,112832.90000009537,112832.10000002384,112288.12,112289.10000002384,112304.79,112838.265,,18,order
screen,html.Screen,0_2_1_1_19,2021-11-19T14:33:15.037Z,,,,,,,,,,,,,,,,54,,,,,,,,,,,,,,585.9350000476843,,response,,,100,,,,,,Space,keypress(Space),,,,,-- --- ---- --- ------ ----- ------- ---- -- --- ------- --<br>------- ---------- ------ -- ----- -- ----- to ---- ------<br>--- ----- --- --- ------ -------- ----- --- ------ ----- --<br>----- ----- ---------- --- --- ------ ------ ---- -- ------<br>------- --- ------ ----- --- ---- ------- -- ---- --- --<br>------- ------,113424.90000009537,113424.20000004768,112821.595,112833.10000002384,112838.265,113438.407,,19,to
screen,html.Screen,0_2_1_1_20,2021-11-19T14:33:15.461Z,,,,,,,,,,,,,,,,54,,,,,,,,,,,,,,409.69300002383534,,response,,,100,,,,,,Space,keypress(Space),,,,,-- --- ---- --- ------ ----- ------- ---- -- --- ------- --<br>------- ---------- ------ -- ----- -- ----- -- save ------<br>--- ----- --- --- ------ -------- ----- --- ------ ----- --<br>----- ----- ---------- --- --- ------ ------ ---- -- ------<br>------- --- ------ ----- --- ---- ------- -- ---- --- --<br>------- ------,113848.90000009537,113848.10000002384,113421.737,113425.10000002384,113438.407,113855.096,,20,save
screen,html.Screen,0_2_1_1_21,2021-11-19T14:33:15.966Z,,,,,,,,,,,,,,,,54,,,,,,,,,,,,,,497.6040000476787,,response,,,100,,,,,,Space,keypress(Space),,,,,"-- --- ---- --- ------ ----- ------- ---- -- --- ------- --<br>------- ---------- ------ -- ----- -- ----- -- ---- money,<br>--- ----- --- --- ------ -------- ----- --- ------ ----- --<br>----- ----- ---------- --- --- ------ ------ ---- -- ------<br>------- --- ------ ----- --- ---- ------- -- ---- --- --<br>------- ------",114353.40000009537,114352.70000004768,113838.427,113849,113855.096,114355.369,,21,"money,"
screen,html.Screen,0_2_1_1_22,2021-11-19T14:33:16.413Z,,,,,,,,,,,,,,,,54,,,,,,,,,,,,,,444.63099999999395,,response,,,100,,,,,,Space,keypress(Space),,,,,-- --- ---- --- ------ ----- ------- ---- -- --- ------- --<br>------- ---------- ------ -- ----- -- ----- -- ---- ------<br>the ----- --- --- ------ -------- ----- --- ------ ----- --<br>----- ----- ---------- --- --- ------ ------ ---- -- ------<br>------- --- ------ ----- --- ---- ------- -- ---- --- --<br>------- ------,114800.80000007153,114800,114338.698,114353.60000002384,114355.369,114805.422,,22,the
screen,html.Screen,0_2_1_1_23,2021-11-19T14:33:16.853Z,,,,,,,,,,,,,,,,54,,,,,,,,,,,,,,434.57799999999406,,response,,,100,,,,,,Space,keypress(Space),,,,,-- --- ---- --- ------ ----- ------- ---- -- --- ------- --<br>------- ---------- ------ -- ----- -- ----- -- ---- ------<br>--- state --- --- ------ -------- ----- --- ------ ----- --<br>----- ----- ---------- --- --- ------ ------ ---- -- ------<br>------- --- ------ ----- --- ---- ------- -- ---- --- --<br>------- ------,115240.80000007153,115240,114788.752,114801.10000002384,114805.422,115255.384,,23,state
screen,html.Screen,0_2_1_1_24,2021-11-19T14:33:17.237Z,,,,,,,,,,,,,,,,54,,,,,,,,,,,,,,368.51600009536196,,response,,,100,,,,,,Space,keypress(Space),,,,,-- --- ---- --- ------ ----- ------- ---- -- --- ------- --<br>------- ---------- ------ -- ----- -- ----- -- ---- ------<br>--- ----- cut --- ------ -------- ----- --- ------ ----- --<br>----- ----- ---------- --- --- ------ ------ ---- -- ------<br>------- --- ------ ----- --- ---- ------- -- ---- --- --<br>------- ------,115624.70000004768,115623.90000009537,115238.716,115241,115255.384,115639.047,,24,cut
screen,html.Screen,0_2_1_1_25,2021-11-19T14:33:17.661Z,,,,,,,,,,,,,,,,54,,,,,,,,,,,,,,408.8530000953615,,response,,,100,,,,,,Space,keypress(Space),,,,,-- --- ---- --- ------ ----- ------- ---- -- --- ------- --<br>------- ---------- ------ -- ----- -- ----- -- ---- ------<br>--- ----- --- the ------ -------- ----- --- ------ ----- --<br>----- ----- ---------- --- --- ------ ------ ---- -- ------<br>------- --- ------ ----- --- ---- ------- -- ---- --- --<br>------- ------,116048.70000004768,116047.90000009537,115622.375,115624.90000009537,115639.047,116055.711,,25,the
screen,html.Screen,0_2_1_1_26,2021-11-19T14:33:18.077Z,,,,,,,,,,,,,,,,54,,,,,,,,,,,,,,408.18900009537174,,response,,,100,,,,,,Space,keypress(Space),,,,,-- --- ---- --- ------ ----- ------- ---- -- --- ------- --<br>------- ---------- ------ -- ----- -- ----- -- ---- ------<br>--- ----- --- --- bonds' -------- ----- --- ------ ----- --<br>----- ----- ---------- --- --- ------ ------ ---- -- ------<br>------- --- ------ ----- --- ---- ------- -- ---- --- --<br>------- ------,116464.60000002384,116463.90000009537,116039.041,116048.90000009537,116055.711,116472.49,,26,bonds'
screen,html.Screen,0_2_1_1_27,2021-11-19T14:33:18.477Z,,,,,,,,,,,,,,,,54,,,,,,,,,,,,,,391.4100000953622,,response,,,100,,,,,,Space,keypress(Space),,,,,-- --- ---- --- ------ ----- ------- ---- -- --- ------- --<br>------- ---------- ------ -- ----- -- ----- -- ---- ------<br>--- ----- --- --- ------ interest ----- --- ------ ----- --<br>----- ----- ---------- --- --- ------ ------ ---- -- ------<br>------- --- ------ ----- --- ---- ------- -- ---- --- --<br>------- ------,116864.70000004768,116863.90000009537,116455.82,116464.90000009537,116472.49,116872.569,,27,interest
screen,html.Screen,0_2_1_1_28,2021-11-19T14:33:18.981Z,,,,,,,,,,,,,,,,54,,,,,,,,,,,,,,495.3310000953643,,response,,,100,,,,,,Space,keypress(Space),,,,,-- --- ---- --- ------ ----- ------- ---- -- --- ------- --<br>------- ---------- ------ -- ----- -- ----- -- ---- ------<br>--- ----- --- --- ------ -------- rate. --- ------ ----- --<br>----- ----- ---------- --- --- ------ ------ ---- -- ------<br>------- --- ------ ----- --- ---- ------- -- ---- --- --<br>------- ------,117368.70000004768,117367.90000009537,116855.899,116864.90000009537,116872.569,117372.602,,28,rate.
screen,html.Screen,0_2_1_1_29,2021-11-19T14:33:19.469Z,,,,,,,,,,,,,,,,54,,,,,,,,,,,,,,483.1980000715266,,response,,,100,,,,,,Space,keypress(Space),,,,,-- --- ---- --- ------ ----- ------- ---- -- --- ------- --<br>------- ---------- ------ -- ----- -- ----- -- ---- ------<br>--- ----- --- --- ------ -------- ----- The ------ ----- --<br>----- ----- ---------- --- --- ------ ------ ---- -- ------<br>------- --- ------ ----- --- ---- ------- -- ---- --- --<br>------- ------,117856.60000002384,117855.80000007153,117355.933,117368.80000007153,117372.602,117872.929,,29,The
screen,html.Screen,0_2_1_1_30,2021-11-19T14:33:19.853Z,,,,,,,,,,,,,,,,54,,,,,,,,,,,,,,366.87100007152185,,response,,,100,,,,,,Space,keypress(Space),,,,,-- --- ---- --- ------ ----- ------- ---- -- --- ------- --<br>------- ---------- ------ -- ----- -- ----- -- ---- ------<br>--- ----- --- --- ------ -------- ----- --- market ----- --<br>----- ----- ---------- --- --- ------ ------ ---- -- ------<br>------- --- ------ ----- --- ---- ------- -- ---- --- --<br>------- ------,118240.60000002384,118239.80000007153,117856.257,117856.80000007153,117872.929,118256.244,,30,market
screen,html.Screen,0_2_1_1_31,2021-11-19T14:33:20.245Z,,,,,,,,,,,,,,,,54,,,,,,,,,,,,,,375.5560000715195,,response,,,100,,,,,,Space,keypress(Space),,,,,-- --- ---- --- ------ ----- ------- ---- -- --- ------- --<br>------- ---------- ------ -- ----- -- ----- -- ---- ------<br>--- ----- --- --- ------ -------- ----- --- ------ value --<br>----- ----- ---------- --- --- ------ ------ ---- -- ------<br>------- --- ------ ----- --- ---- ------- -- ---- --- --<br>------- ------,118632.5,118631.80000007153,118239.574,118240.80000007153,118256.244,118639.682,,31,value
screen,html.Screen,0_2_1_1_32,2021-11-19T14:33:20.621Z,,,,,,,,,,,,,,,,54,,,,,,,,,,,,,,368.018000047683,,response,,,100,,,,,,Space,keypress(Space),,,,,-- --- ---- --- ------ ----- ------- ---- -- --- ------- --<br>------- ---------- ------ -- ----- -- ----- -- ---- ------<br>--- ----- --- --- ------ -------- ----- --- ------ ----- of<br>----- ----- ---------- --- --- ------ ------ ---- -- ------<br>------- --- ------ ----- --- ---- ------- -- ---- --- --<br>------- ------,119008.5,119007.70000004768,118623.012,118632.80000007153,118639.682,119022.982,,32,of
screen,html.Screen,0_2_1_1_33,2021-11-19T14:33:21.037Z,,,,,,,,,,,,,,,,54,,,,,,,,,,,,,,400.7180000476801,,response,,,100,,,,,,Space,keypress(Space),,,,,-- --- ---- --- ------ ----- ------- ---- -- --- ------- --<br>------- ---------- ------ -- ----- -- ----- -- ---- ------<br>--- ----- --- --- ------ -------- ----- --- ------ ----- --<br>these ----- ---------- --- --- ------ ------ ---- -- ------<br>------- --- ------ ----- --- ---- ------- -- ---- --- --<br>------- ------,119424.5,119423.70000004768,119006.314,119008.80000007153,119022.982,119439.949,,33,these
screen,html.Screen,0_2_1_1_34,2021-11-19T14:33:21.445Z,,,,,,,,,,,,,,,,54,,,,,,,,,,,,,,391.75100004769047,,response,,,100,,,,,,Space,keypress(Space),,,,,-- --- ---- --- ------ ----- ------- ---- -- --- ------- --<br>------- ---------- ------ -- ----- -- ----- -- ---- ------<br>--- ----- --- --- ------ -------- ----- --- ------ ----- --<br>----- bonds ---------- --- --- ------ ------ ---- -- ------<br>------- --- ------ ----- --- ---- ------- -- ---- --- --<br>------- ------,119832.5,119831.70000004768,119423.277,119424.70000004768,119439.949,119839.878,,34,bonds
screen,html.Screen,0_2_1_1_35,2021-11-19T14:33:21.821Z,,,,,,,,,,,,,,,,54,,,,,,,,,,,,,,367.82200004768674,,response,,,100,,,,,,Space,keypress(Space),,,,,"-- --- ---- --- ------ ----- ------- ---- -- --- ------- --<br>------- ---------- ------ -- ----- -- ----- -- ---- ------<br>--- ----- --- --- ------ -------- ----- --- ------ ----- --<br>----- ----- plummeted, --- --- ------ ------ ---- -- ------<br>------- --- ------ ----- --- ---- ------- -- ---- --- --<br>------- ------",120208.40000009537,120207.70000004768,119823.209,119832.60000002384,119839.878,120223.484,,35,"plummeted,"
screen,html.Screen,0_2_1_1_36,2021-11-19T14:33:22.193Z,,,,,,,,,,,,,,,,54,,,,,,,,,,,,,,352.1160000238451,,response,,,100,,,,,,Space,keypress(Space),,,,,-- --- ---- --- ------ ----- ------- ---- -- --- ------- --<br>------- ---------- ------ -- ----- -- ----- -- ---- ------<br>--- ----- --- --- ------ -------- ----- --- ------ ----- --<br>----- ----- ---------- and --- ------ ------ ---- -- ------<br>------- --- ------ ----- --- ---- ------- -- ---- --- --<br>------- ------,120576.40000009537,120575.60000002384,120206.812,120208.60000002384,120223.484,120590.15,,36,and
screen,html.Screen,0_2_1_1_37,2021-11-19T14:33:22.617Z,,,,,,,,,,,,,,,,54,,,,,,,,,,,,,,409.4500000238477,,response,,,100,,,,,,Space,keypress(Space),,,,,-- --- ---- --- ------ ----- ------- ---- -- --- ------- --<br>------- ---------- ------ -- ----- -- ----- -- ---- ------<br>--- ----- --- --- ------ -------- ----- --- ------ ----- --<br>----- ----- ---------- --- the ------ ------ ---- -- ------<br>------- --- ------ ----- --- ---- ------- -- ---- --- --<br>------- ------,121000.40000009537,120999.60000002384,120573.48,120576.60000002384,120590.15,121006.925,,37,the
screen,html.Screen,0_2_1_1_38,2021-11-19T14:33:23.033Z,,,,,,,,,,,,,,,,54,,,,,,,,,,,,,,408.67500002383895,,response,,,100,,,,,,Space,keypress(Space),,,,,-- --- ---- --- ------ ----- ------- ---- -- --- ------- --<br>------- ---------- ------ -- ----- -- ----- -- ---- ------<br>--- ----- --- --- ------ -------- ----- --- ------ ----- --<br>----- ----- ---------- --- --- market ------ ---- -- ------<br>------- --- ------ ----- --- ---- ------- -- ---- --- --<br>------- ------,121416.40000009537,121415.60000002384,120990.255,121001.90000009537,121006.925,121423.631,,38,market
screen,html.Screen,0_2_1_1_39,2021-11-19T14:33:23.393Z,,,,,,,,,,,,,,,,54,,,,,,,,,,,,,,351.86900000000605,,response,,,100,,,,,,Space,keypress(Space),,,,,-- --- ---- --- ------ ----- ------- ---- -- --- ------- --<br>------- ---------- ------ -- ----- -- ----- -- ---- ------<br>--- ----- --- --- ------ -------- ----- --- ------ ----- --<br>----- ----- ---------- --- --- ------ became ---- -- ------<br>------- --- ------ ----- --- ---- ------- -- ---- --- --<br>------- ------,121776.30000007153,121775.5,121406.962,121416.80000007153,121423.631,121790.478,,39,became
screen,html.Screen,0_2_1_1_40,2021-11-19T14:33:23.793Z,,,,,,,,,,,,,,,,54,,,,,,,,,,,,,,385.0219999999972,,response,,,100,,,,,,Space,keypress(Space),,,,,-- --- ---- --- ------ ----- ------- ---- -- --- ------- --<br>------- ---------- ------ -- ----- -- ----- -- ---- ------<br>--- ----- --- --- ------ -------- ----- --- ------ ----- --<br>----- ----- ---------- --- --- ------ ------ wary -- ------<br>------- --- ------ ----- --- ---- ------- -- ---- --- --<br>------- ------,122176.30000007153,122175.5,121773.807,121776.5,121790.478,122190.542,,40,wary
screen,html.Screen,0_2_1_1_41,2021-11-19T14:33:24.169Z,,,,,,,,,,,,,,,,54,,,,,,,,,,,,,,360.85800009536615,,response,,,100,,,,,,Space,keypress(Space),,,,,-- --- ---- --- ------ ----- ------- ---- -- --- ------- --<br>------- ---------- ------ -- ----- -- ----- -- ---- ------<br>--- ----- --- --- ------ -------- ----- --- ------ ----- --<br>----- ----- ---------- --- --- ------ ------ ---- of ------<br>------- --- ------ ----- --- ---- ------- -- ---- --- --<br>------- ------,122552.20000004768,122551.40000009537,122173.872,122176.60000002384,122190.542,122557.347,,41,of
screen,html.Screen,0_2_1_1_42,2021-11-19T14:33:24.625Z,,,,,,,,,,,,,,,,54,,,,,,,,,,,,,,450.1530000000057,,response,,,100,,,,,,Space,keypress(Space),,,,,-- --- ---- --- ------ ----- ------- ---- -- --- ------- --<br>------- ---------- ------ -- ----- -- ----- -- ---- ------<br>--- ----- --- --- ------ -------- ----- --- ------ ----- --<br>----- ----- ---------- --- --- ------ ------ ---- -- French<br>------- --- ------ ----- --- ---- ------- -- ---- --- --<br>------- ------,123008.10000002384,123007.5,122540.676,122552.40000009537,122557.347,123024.075,,42,French
screen,html.Screen,0_2_1_1_43,2021-11-19T14:33:24.977Z,,,,,,,,,,,,,,,,54,,,,,,,,,,,,,,335.32500009537034,,response,,,100,,,,,,Space,keypress(Space),,,,,-- --- ---- --- ------ ----- ------- ---- -- --- ------- --<br>------- ---------- ------ -- ----- -- ----- -- ---- ------<br>--- ----- --- --- ------ -------- ----- --- ------ ----- --<br>----- ----- ---------- --- --- ------ ------ ---- -- ------<br>credit. --- ------ ----- --- ---- ------- -- ---- --- --<br>------- ------,123360.20000004768,123359.40000009537,123007.405,123008.40000009537,123024.075,123374.218,,43,credit.
screen,html.Screen,0_2_1_1_44,2021-11-19T14:33:25.345Z,,,,,,,,,,,,,,,,54,,,,,,,,,,,,,,353.18200009537395,,response,,,100,,,,,,Space,keypress(Space),,,,,-- --- ---- --- ------ ----- ------- ---- -- --- ------- --<br>------- ---------- ------ -- ----- -- ----- -- ---- ------<br>--- ----- --- --- ------ -------- ----- --- ------ ----- --<br>----- ----- ---------- --- --- ------ ------ ---- -- ------<br>------- The ------ ----- --- ---- ------- -- ---- --- --<br>------- ------,123728.10000002384,123727.40000009537,123357.547,123360.40000009537,123374.218,123740.864,,44,The
screen,html.Screen,0_2_1_1_45,2021-11-19T14:33:25.721Z,,,,,,,,,,,,,,,,54,,,,,,,,,,,,,,362.4360000715242,,response,,,100,,,,,,Space,keypress(Space),,,,,-- --- ---- --- ------ ----- ------- ---- -- --- ------- --<br>------- ---------- ------ -- ----- -- ----- -- ---- ------<br>--- ----- --- --- ------ -------- ----- --- ------ ----- --<br>----- ----- ---------- --- --- ------ ------ ---- -- ------<br>------- --- French ----- --- ---- ------- -- ---- --- --<br>------- ------,124104.10000002384,124103.30000007153,123724.195,123728.30000007153,123740.864,124107.679,,45,French
screen,html.Screen,0_2_1_1_46,2021-11-19T14:33:26.121Z,,,,,,,,,,,,,,,,54,,,,,,,,,,,,,,396.02100004768,,response,,,100,,,,,,Space,keypress(Space),,,,,-- --- ---- --- ------ ----- ------- ---- -- --- ------- --<br>------- ---------- ------ -- ----- -- ----- -- ---- ------<br>--- ----- --- --- ------ -------- ----- --- ------ ----- --<br>----- ----- ---------- --- --- ------ ------ ---- -- ------<br>------- --- ------ state --- ---- ------- -- ---- --- --<br>------- ------,124504.5,124503.70000004768,124091.009,124104.30000007153,124107.679,124507.83,,46,state
screen,html.Screen,0_2_1_1_47,2021-11-19T14:33:26.529Z,,,,,,,,,,,,,,,,54,,,,,,,,,,,,,,403.5700000953657,,response,,,100,,,,,,Space,keypress(Space),,,,,-- --- ---- --- ------ ----- ------- ---- -- --- ------- --<br>------- ---------- ------ -- ----- -- ----- -- ---- ------<br>--- ----- --- --- ------ -------- ----- --- ------ ----- --<br>----- ----- ---------- --- --- ------ ------ ---- -- ------<br>------- --- ------ ----- was ---- ------- -- ---- --- --<br>------- ------,124912.20000004768,124911.40000009537,124491.159,124504.70000004768,124507.83,124924.531,,47,was
screen,html.Screen,0_2_1_1_48,2021-11-19T14:33:26.889Z,,,,,,,,,,,,,,,,54,,,,,,,,,,,,,,346.66900004768104,,response,,,100,,,,,,Space,keypress(Space),,,,,-- --- ---- --- ------ ----- ------- ---- -- --- ------- --<br>------- ---------- ------ -- ----- -- ----- -- ---- ------<br>--- ----- --- --- ------ -------- ----- --- ------ ----- --<br>----- ----- ---------- --- --- ------ ------ ---- -- ------<br>------- --- ------ ----- --- left ------- -- ---- --- --<br>------- ------,125272.10000002384,125271.20000004768,124907.861,124912.40000009537,124924.531,125274.616,,48,left
screen,html.Screen,0_2_1_1_49,2021-11-19T14:33:27.313Z,,,,,,,,,,,,,,,,54,,,,,,,,,,,,,,420.68400007153105,,response,,,100,,,,,,Space,keypress(Space),,,,,-- --- ---- --- ------ ----- ------- ---- -- --- ------- --<br>------- ---------- ------ -- ----- -- ----- -- ---- ------<br>--- ----- --- --- ------ -------- ----- --- ------ ----- --<br>----- ----- ---------- --- --- ------ ------ ---- -- ------<br>------- --- ------ ----- --- ---- without -- ---- --- --<br>------- ------,125696.10000002384,125695.30000007153,125257.946,125272.30000007153,125274.616,125708.056,,49,without
screen,html.Screen,0_2_1_1_50,2021-11-19T14:33:27.689Z,,,,,,,,,,,,,,,,54,,,,,,,,,,,,,,363.2440000715287,,response,,,100,,,,,,Space,keypress(Space),,,,,-- --- ---- --- ------ ----- ------- ---- -- --- ------- --<br>------- ---------- ------ -- ----- -- ----- -- ---- ------<br>--- ----- --- --- ------ -------- ----- --- ------ ----- --<br>----- ----- ---------- --- --- ------ ------ ---- -- ------<br>------- --- ------ ----- --- ---- ------- an ---- --- --<br>------- ------,126072.10000002384,126071.30000007153,125691.386,125696.20000004768,125708.056,126074.823,,50,an
screen,html.Screen,0_2_1_1_51,2021-11-19T14:33:28.097Z,,,,,,,,,,,,,,,,54,,,,,,,,,,,,,,404.37700004767976,,response,,,100,,,,,,Space,keypress(Space),,,,,-- --- ---- --- ------ ----- ------- ---- -- --- ------- --<br>------- ---------- ------ -- ----- -- ----- -- ---- ------<br>--- ----- --- --- ------ -------- ----- --- ------ ----- --<br>----- ----- ---------- --- --- ------ ------ ---- -- ------<br>------- --- ------ ----- --- ---- ------- -- easy --- --<br>------- ------,126480,126479.20000004768,126058.153,126072.40000009537,126074.823,126491.574,,51,easy
screen,html.Screen,0_2_1_1_52,2021-11-19T14:33:28.529Z,,,,,,,,,,,,,,,,54,,,,,,,,,,,,,,419.7260000715323,,response,,,100,,,,,,Space,keypress(Space),,,,,-- --- ---- --- ------ ----- ------- ---- -- --- ------- --<br>------- ---------- ------ -- ----- -- ----- -- ---- ------<br>--- ----- --- --- ------ -------- ----- --- ------ ----- --<br>----- ----- ---------- --- --- ------ ------ ---- -- ------<br>------- --- ------ ----- --- ---- ------- -- ---- way --<br>------- ------,126912.20000004768,126911.30000007153,126474.904,126480.20000004768,126491.574,126925.064,,52,way
screen,html.Screen,0_2_1_1_53,2021-11-19T14:33:28.937Z,,,,,,,,,,,,,,,,54,,,,,,,,,,,,,,394.13600004768523,,response,,,100,,,,,,Space,keypress(Space),,,,,-- --- ---- --- ------ ----- ------- ---- -- --- ------- --<br>------- ---------- ------ -- ----- -- ----- -- ---- ------<br>--- ----- --- --- ------ -------- ----- --- ------ ----- --<br>----- ----- ---------- --- --- ------ ------ ---- -- ------<br>------- --- ------ ----- --- ---- ------- -- ---- --- of<br>------- ------,127320,127319.20000004768,126908.393,126912.40000009537,126925.064,127325.143,,53,of
screen,html.Screen,0_2_1_1_54,2021-11-19T14:33:29.305Z,,,,,,,,,,,,,,,,54,,,,,,,,,,,,,,361.95700002384547,,response,,,100,,,,,,Space,keypress(Space),,,,,-- --- ---- --- ------ ----- ------- ---- -- --- ------- --<br>------- ---------- ------ -- ----- -- ----- -- ---- ------<br>--- ----- --- --- ------ -------- ----- --- ------ ----- --<br>----- ----- ---------- --- --- ------ ------ ---- -- ------<br>------- --- ------ ----- --- ---- ------- -- ---- --- --<br>raising ------,127687.90000009537,127687.10000002384,127308.473,127320.20000004768,127325.143,127691.819,,54,raising
screen,html.Screen,0_2_1_1_55,2021-11-19T14:33:29.720Z,,,,,,,,,,,,,,,,54,,,,,,,,,,,,,,411.2810000238387,,response,,,100,,,,,,Space,keypress(Space),,,,,-- --- ---- --- ------ ----- ------- ---- -- --- ------- --<br>------- ---------- ------ -- ----- -- ----- -- ---- ------<br>--- ----- --- --- ------ -------- ----- --- ------ ----- --<br>----- ----- ---------- --- --- ------ ------ ---- -- ------<br>------- --- ------ ----- --- ---- ------- -- ---- --- --<br>------- money.,128103.90000009537,128103.10000002384,127675.15,127688.10000002384,127691.819,128108.687,,55,money.
Item 100,flow.Loop,0_2_1_1,2021-11-19T14:33:29.721Z,,,,,,,,,,,,,,,,,,,,,,,,,,,,,,24650.559000023844,,completion,,,,F,,,,,,,,,,silence,,128104.30000007153,128103.10000002384,103435.871,103438,103452.541,128108.687,,,
Question 1,html.Screen,0_2_1_2,2021-11-19T14:33:32.041Z,,,,,,,,,,,,,,,,,,,,,,,,,,,true,TRUE,,2314.11300007152,,response,,,100,F,,,,,TRUE,click #choice-1,,,,silence,,130423.90000009537,130422.80000007153,128092.016,128104.5,128108.687,130425.807,,,
Question 2,html.Screen,0_2_1_3,2021-11-19T14:33:34.296Z,,,,,,,,,,,,,,,,,,,,,,,,,,,true,FALSE,,2252.793000023841,,response,,,100,F,,,,,FALSE,click #choice-2,,,,silence,,132679.80000007153,132678.60000002384,130409.14,130424.20000004768,130425.807,132693.102,,,
Item 100,flow.Sequence,0_2_1,2021-11-19T14:33:34.297Z,,,,,,,,,,,,,,,,,,,,,,,,,,,,,,39228.38800002384,,completion,,,,,,,,,,,,,,,,132680.20000004768,132678.60000002384,93433.542,93443.10000002384,93450.212,132693.102,,,
End of Practice,html.Page,0_2_2,2021-11-19T14:33:38.089Z,,,,,,,,,,,,,,,,,,,,,,,,,,,,,,3778.698000071512,,form submission,,,,,,,,,,,,,,,,136472.40000009537,136471.80000007153,132676.432,132680.40000009537,132693.102,136477.444,,,
Practice,flow.Sequence,0_2,2021-11-19T14:33:38.090Z,,,,,,,,,,,,,,,,,,,,,,,,,,,,,,89482.77800007153,,completion,,,,,,,,,,,,,,,,136472.90000009537,136471.80000007153,46972.35,46974.90000009537,46989.022,136477.444,,,
Trap_instruction,html.Page,0_3_0,2021-11-19T14:33:43.401Z,,,,,,,,,,,,,,,,,,,,,,,,,,,,,,5305.956000095379,,form submission,,,,,,,,,,,,,,,,141784,141783.40000009537,136460.773,136473.30000007153,136477.444,141811.586,,,
trap_trial,html.Screen,0_3_1,2021-11-19T14:33:46.416Z,,,,,,,,,,,,,,,,,,,,,,,,,,,true,1,,2986.2140000715153,,response,,,,,,,,,1,click #choice-1,,,,,,144799,144797.80000007153,141778.25,141784.30000007153,141811.586,144812.187,,,
end of trap trial,html.Page,0_3_2,2021-11-19T14:33:48.240Z,,,,,,,,,,,,,,,,,,,,,,,,,,,,,,1811.0130000476784,,form submission,,,,,,,,,,,,,,,,146623.70000004768,146623.20000004768,144795.519,144799.30000007153,144812.187,146629.694,,,
Trap 1,flow.Sequence,0_3,2021-11-19T14:33:48.241Z,,,,,,,,,,,,,,,,,,,,,,,,,,,,,,10145.756000047695,,completion,,,,,,,,,,,,,,,,146624.10000002384,146623.20000004768,136460.773,136473.20000004768,136477.444,146629.694,,,
Standby,html.Page,0_4_0,2021-11-19T14:33:56.233Z,,,,,,,,,,,,,,,,,,,,,,,,,,,,,,8002.241999999998,,timeout,,,,,,,,,,,,,,,,154616.90000009537,154615.265,146613.024,146624.5,146629.694,154631.936,,,
Holding screen,html.Screen,0_4_1_0_0,2021-11-19T14:34:03.235Z,,,,,,,,,,,,,,,,,,,,,,,,,,,,,,7001.578000000009,,timeout,,,,,,,,,,,,,,,,161618.40000009537,161616.843,154615.265,154617.20000004768,154631.936,161633.514,,,
screen,html.Screen,0_4_1_0_1_0,2021-11-19T14:34:04.775Z,,,,,,,,,,,,,,,,51,,,,,,,,,,,,,,1523.8860000953719,,response,,,13,F,,,,,Space,keypress(Space),,,,instrumental,American -------- --- --- ---- --- --- ------ -- --------<br>---- --------- --- ------- ------------ ---------- ---------<br>--- ---------- ------- ---------- ------- -- -------- ----<br>---- --- ------ ----- ------ -- ---- --- ----- -- - -------<br>-------- -- --- --- -- ----- ----------- ----- -----------<br>---- --- ---------- --- ---- --- -- ----------,163158.30000007153,163157.40000009537,161616.843,161618.80000007153,161633.514,163183.592,,0,American
screen,html.Screen,0_4_1_0_1_1,2021-11-19T14:34:05.438Z,,,,,,,,,,,,,,,,51,,,,,,,,,,,,,,637.0080000238377,,response,,,13,F,,,,,Space,keypress(Space),,,,instrumental,-------- industry --- --- ---- --- --- ------ -- --------<br>---- --------- --- ------- ------------ ---------- ---------<br>--- ---------- ------- ---------- ------- -- -------- ----<br>---- --- ------ ----- ------ -- ---- --- ----- -- - -------<br>-------- -- --- --- -- ----- ----------- ----- -----------<br>---- --- ---------- --- ---- --- -- ----------,163821.30000007153,163820.60000002384,163166.923,163158.60000002384,163183.592,163834.068,,1,industry
screen,html.Screen,0_4_1_0_1_2,2021-11-19T14:34:06.014Z,,,,,,,,,,,,,,,,51,,,,,,,,,,,,,,562.5320000238426,,response,,,13,F,,,,,Space,keypress(Space),,,,instrumental,-------- -------- may --- ---- --- --- ------ -- --------<br>---- --------- --- ------- ------------ ---------- ---------<br>--- ---------- ------- ---------- ------- -- -------- ----<br>---- --- ------ ----- ------ -- ---- --- ----- -- - -------<br>-------- -- --- --- -- ----- ----------- ----- -----------<br>---- --- ---------- --- ---- --- -- ----------,164397.40000009537,164396.60000002384,163817.397,163821.60000002384,163834.068,164400.725,,2,may
screen,html.Screen,0_4_1_0_1_3,2021-11-19T14:34:06.518Z,,,,,,,,,,,,,,,,51,,,,,,,,,,,,,,499.6750000953616,,response,,,13,F,,,,,Space,keypress(Space),,,,instrumental,-------- -------- --- not ---- --- --- ------ -- --------<br>---- --------- --- ------- ------------ ---------- ---------<br>--- ---------- ------- ---------- ------- -- -------- ----<br>---- --- ------ ----- ------ -- ---- --- ----- -- - -------<br>-------- -- --- --- -- ----- ----------- ----- -----------<br>---- --- ---------- --- ---- --- -- ----------,164901.30000007153,164900.40000009537,164384.055,164397.60000002384,164400.725,164917.543,,3,not
screen,html.Screen,0_4_1_0_1_4,2021-11-19T14:34:07.022Z,,,,,,,,,,,,,,,,51,,,,,,,,,,,,,,487.05700002383674,,response,,,13,F,,,,,Space,keypress(Space),,,,instrumental,-------- -------- --- --- know --- --- ------ -- --------<br>---- --------- --- ------- ------------ ---------- ---------<br>--- ---------- ------- ---------- ------- -- -------- ----<br>---- --- ------ ----- ------ -- ---- --- ----- -- - -------<br>-------- -- --- --- -- ----- ----------- ----- -----------<br>---- --- ---------- --- ---- --- -- ----------,165405.40000009537,165404.60000002384,164900.873,164901.5,164917.543,165434.492,,4,know
screen,html.Screen,0_4_1_0_1_5,2021-11-19T14:34:07.462Z,,,,,,,,,,,,,,,,51,,,,,,,,,,,,,,410.00800000000163,,response,,,13,F,,,,,Space,keypress(Space),,,,instrumental,"-------- -------- --- --- ---- it, --- ------ -- --------<br>---- --------- --- ------- ------------ ---------- ---------<br>--- ---------- ------- ---------- ------- -- -------- ----<br>---- --- ------ ----- ------ -- ---- --- ----- -- - -------<br>-------- -- --- --- -- ----- ----------- ----- -----------<br>---- --- ---------- --- ---- --- -- ----------",165845.5,165844.5,165417.82,165405.60000002384,165434.492,165867.809,,5,"it,"
screen,html.Screen,0_4_1_0_1_6,2021-11-19T14:34:07.934Z,,,,,,,,,,,,,,,,51,,,,,,,,,,,,,,448.59100009535905,,response,,,13,F,,,,,Space,keypress(Space),,,,instrumental,-------- -------- --- --- ---- --- but ------ -- --------<br>---- --------- --- ------- ------------ ---------- ---------<br>--- ---------- ------- ---------- ------- -- -------- ----<br>---- --- ------ ----- ------ -- ---- --- ----- -- - -------<br>-------- -- --- --- -- ----- ----------- ----- -----------<br>---- --- ---------- --- ---- --- -- ----------,166317.20000004768,166316.40000009537,165851.139,165845.70000004768,165867.809,166334.597,,6,but
screen,html.Screen,0_4_1_0_1_7,2021-11-19T14:34:08.334Z,,,,,,,,,,,,,,,,51,,,,,,,,,,,,,,381.8030000953586,,response,,,13,F,,,,,Space,keypress(Space),,,,instrumental,-------- -------- --- --- ---- --- --- debate -- --------<br>---- --------- --- ------- ------------ ---------- ---------<br>--- ---------- ------- ---------- ------- -- -------- ----<br>---- --- ------ ----- ------ -- ---- --- ----- -- - -------<br>-------- -- --- --- -- ----- ----------- ----- -----------<br>---- --- ---------- --- ---- --- -- ----------,166717.20000004768,166716.40000009537,166317.927,166317.5,166334.597,166734.558,,7,debate
screen,html.Screen,0_4_1_0_1_8,2021-11-19T14:34:08.790Z,,,,,,,,,,,,,,,,51,,,,,,,,,,,,,,437.84200009537744,,response,,,13,F,,,,,Space,keypress(Space),,,,instrumental,-------- -------- --- --- ---- --- --- ------ in --------<br>---- --------- --- ------- ------------ ---------- ---------<br>--- ---------- ------- ---------- ------- -- -------- ----<br>---- --- ------ ----- ------ -- ---- --- ----- -- - -------<br>-------- -- --- --- -- ----- ----------- ----- -----------<br>---- --- ---------- --- ---- --- -- ----------,167173.20000004768,167172.40000009537,166717.89,166717.40000009537,166734.558,167184.904,,8,in
screen,html.Screen,0_4_1_0_1_9,2021-11-19T14:34:09.286Z,,,,,,,,,,,,,,,,51,,,,,,,,,,,,,,483.59599999999045,,response,,,13,F,,,,,Space,keypress(Space),,,,instrumental,-------- -------- --- --- ---- --- --- ------ -- Congress<br>---- --------- --- ------- ------------ ---------- ---------<br>--- ---------- ------- ---------- ------- -- -------- ----<br>---- --- ------ ----- ------ -- ---- --- ----- -- - -------<br>-------- -- --- --- -- ----- ----------- ----- -----------<br>---- --- ---------- --- ---- --- -- ----------,167669.20000004768,167668.5,167168.232,167173.40000009537,167184.904,167684.896,,9,Congress
screen,html.Screen,0_4_1_0_1_10,2021-11-19T14:34:09.742Z,,,,,,,,,,,,,,,,51,,,,,,,,,,,,,,439.40400007151766,,response,,,13,F,,,,,Space,keypress(Space),,,,instrumental,-------- -------- --- --- ---- --- --- ------ -- --------<br>over --------- --- ------- ------------ ---------- ---------<br>--- ---------- ------- ---------- ------- -- -------- ----<br>---- --- ------ ----- ------ -- ---- --- ----- -- - -------<br>-------- -- --- --- -- ----- ----------- ----- -----------<br>---- --- ---------- --- ---- --- -- ----------,168125.10000002384,168124.30000007153,167668.226,167669.5,167684.896,168135.037,,10,over
screen,html.Screen,0_4_1_0_1_11,2021-11-19T14:34:10.246Z,,,,,,,,,,,,,,,,51,,,,,,,,,,,,,,493.2630000715144,,response,,,13,F,,,,,Space,keypress(Space),,,,instrumental,-------- -------- --- --- ---- --- --- ------ -- --------<br>---- reforming --- ------- ------------ ---------- ---------<br>--- ---------- ------- ---------- ------- -- -------- ----<br>---- --- ------ ----- ------ -- ---- --- ----- -- - -------<br>-------- -- --- --- -- ----- ----------- ----- -----------<br>---- --- ---------- --- ---- --- -- ----------,168629,168628.30000007153,168118.367,168125.40000009537,168135.037,168635.153,,11,reforming
screen,html.Screen,0_4_1_0_1_12,2021-11-19T14:34:10.630Z,,,,,,,,,,,,,,,,51,,,,,,,,,,,,,,377.04700004769256,,response,,,13,F,,,,,Space,keypress(Space),,,,instrumental,-------- -------- --- --- ---- --- --- ------ -- --------<br>---- --------- the ------- ------------ ---------- ---------<br>--- ---------- ------- ---------- ------- -- -------- ----<br>---- --- ------ ----- ------ -- ---- --- ----- -- - -------<br>-------- -- --- --- -- ----- ----------- ----- -----------<br>---- --- ---------- --- ---- --- -- ----------,169013,169012.20000004768,168618.483,168629.30000007153,168635.153,169018.58,,12,the
screen,html.Screen,0_4_1_0_1_13,2021-11-19T14:34:11.118Z,,,,,,,,,,,,,,,,51,,,,,,,,,,,,,,481.52000002385466,,response,,,13,F,,,,,Space,keypress(Space),,,,instrumental,-------- -------- --- --- ---- --- --- ------ -- --------<br>---- --------- --- federal ------------ ---------- ---------<br>--- ---------- ------- ---------- ------- -- -------- ----<br>---- --- ------ ----- ------ -- ---- --- ----- -- - -------<br>-------- -- --- --- -- ----- ----------- ----- -----------<br>---- --- ---------- --- ---- --- -- ----------,169500.90000009537,169500.10000002384,169001.91,169013.20000004768,169018.58,169502.027,,13,federal
screen,html.Screen,0_4_1_0_1_14,2021-11-19T14:34:11.526Z,,,,,,,,,,,,,,,,51,,,,,,,,,,,,,,406.17300004768185,,response,,,13,F,,,,,Space,keypress(Space),,,,instrumental,-------- -------- --- --- ---- --- --- ------ -- --------<br>---- --------- --- ------- government's ---------- ---------<br>--- ---------- ------- ---------- ------- -- -------- ----<br>---- --- ------ ----- ------ -- ---- --- ----- -- - -------<br>-------- -- --- --- -- ----- ----------- ----- -----------<br>---- --- ---------- --- ---- --- -- ----------,169909,169908.20000004768,169485.357,169501.20000004768,169502.027,169918.808,,14,government's
screen,html.Screen,0_4_1_0_1_15,2021-11-19T14:34:12.037Z,,,,,,,,,,,,,,,,51,,,,,,,,,,,,,,501.29200002385187,,response,,,13,F,,,,,Space,keypress(Space),,,,instrumental,-------- -------- --- --- ---- --- --- ------ -- --------<br>---- --------- --- ------- ------------ regulatory ---------<br>--- ---------- ------- ---------- ------- -- -------- ----<br>---- --- ------ ----- ------ -- ---- --- ----- -- - -------<br>-------- -- --- --- -- ----- ----------- ----- -----------<br>---- --- ---------- --- ---- --- -- ----------,170420.80000007153,170420.10000002384,169902.138,169909.20000004768,169918.808,170435.583,,15,regulatory
screen,html.Screen,0_4_1_0_1_16,2021-11-19T14:34:12.526Z,,,,,,,,,,,,,,,,51,,,,,,,,,,,,,,472.7170000715123,,response,,,13,F,,,,,Space,keypress(Space),,,,instrumental,-------- -------- --- --- ---- --- --- ------ -- --------<br>---- --------- --- ------- ------------ ---------- apparatus<br>--- ---------- ------- ---------- ------- -- -------- ----<br>---- --- ------ ----- ------ -- ---- --- ----- -- - -------<br>-------- -- --- --- -- ----- ----------- ----- -----------<br>---- --- ---------- --- ---- --- -- ----------,170909.30000007153,170908.30000007153,170418.913,170421.10000002384,170435.583,170919.058,,16,apparatus
screen,html.Screen,0_4_1_0_1_17,2021-11-19T14:34:13.013Z,,,,,,,,,,,,,,,,51,,,,,,,,,,,,,,476.94200000001,,response,,,13,F,,,,,Space,keypress(Space),,,,instrumental,-------- -------- --- --- ---- --- --- ------ -- --------<br>---- --------- --- ------- ------------ ---------- ---------<br>may ---------- ------- ---------- ------- -- -------- ----<br>---- --- ------ ----- ------ -- ---- --- ----- -- - -------<br>-------- -- --- --- -- ----- ----------- ----- -----------<br>---- --- ---------- --- ---- --- -- ----------,171396.90000009537,171396,170902.388,170909.5,170919.058,171402.485,,17,may
screen,html.Screen,0_4_1_0_1_18,2021-11-19T14:34:13.517Z,,,,,,,,,,,,,,,,51,,,,,,,,,,,,,,497.51500000001397,,response,,,13,F,,,,,Space,keypress(Space),,,,instrumental,-------- -------- --- --- ---- --- --- ------ -- --------<br>---- --------- --- ------- ------------ ---------- ---------<br>--- profoundly ------- ---------- ------- -- -------- ----<br>---- --- ------ ----- ------ -- ---- --- ----- -- - -------<br>-------- -- --- --- -- ----- ----------- ----- -----------<br>---- --- ---------- --- ---- --- -- ----------,171900.80000007153,171900,171385.815,171397.10000002384,171402.485,171902.631,,18,profoundly
screen,html.Screen,0_4_1_0_1_19,2021-11-19T14:34:13.997Z,,,,,,,,,,,,,,,,51,,,,,,,,,,,,,,477.36900000000605,,response,,,13,F,,,,,Space,keypress(Space),,,,instrumental,-------- -------- --- --- ---- --- --- ------ -- --------<br>---- --------- --- ------- ------------ ---------- ---------<br>--- ---------- improve ---------- ------- -- -------- ----<br>---- --- ------ ----- ------ -- ---- --- ----- -- - -------<br>-------- -- --- --- -- ----- ----------- ----- -----------<br>---- --- ---------- --- ---- --- -- ----------,172380.80000007153,172380,171885.961,171901,171902.631,172385.962,,19,improve
screen,html.Screen,0_4_1_0_1_20,2021-11-19T14:34:14.485Z,,,,,,,,,,,,,,,,51,,,,,,,,,,,,,,482.03800000000047,,response,,,13,F,,,,,Space,keypress(Space),,,,instrumental,-------- -------- --- --- ---- --- --- ------ -- --------<br>---- --------- --- ------- ------------ ---------- ---------<br>--- ---------- ------- companies' ------- -- -------- ----<br>---- --- ------ ----- ------ -- ---- --- ----- -- - -------<br>-------- -- --- --- -- ----- ----------- ----- -----------<br>---- --- ---------- --- ---- --- -- ----------,172868.80000007153,172868,172369.293,172381.10000002384,172385.962,172886.295,,20,companies'
screen,html.Screen,0_4_1_0_1_21,2021-11-19T14:34:14.942Z,,,,,,,,,,,,,,,,51,,,,,,,,,,,,,,438.00500007151277,,response,,,13,F,,,,,Space,keypress(Space),,,,instrumental,-------- -------- --- --- ---- --- --- ------ -- --------<br>---- --------- --- ------- ------------ ---------- ---------<br>--- ---------- ------- ---------- ability -- -------- ----<br>---- --- ------ ----- ------ -- ---- --- ----- -- - -------<br>-------- -- --- --- -- ----- ----------- ----- -----------<br>---- --- ---------- --- ---- --- -- ----------,173325.10000002384,173324.30000007153,172869.623,172869,172886.295,173336.155,,21,ability
screen,html.Screen,0_4_1_0_1_22,2021-11-19T14:34:15.365Z,,,,,,,,,,,,,,,,51,,,,,,,,,,,,,,411.7450000953686,,response,,,13,F,,,,,Space,keypress(Space),,,,instrumental,-------- -------- --- --- ---- --- --- ------ -- --------<br>---- --------- --- ------- ------------ ---------- ---------<br>--- ---------- ------- ---------- ------- to -------- ----<br>---- --- ------ ----- ------ -- ---- --- ----- -- - -------<br>-------- -- --- --- -- ----- ----------- ----- -----------<br>---- --- ---------- --- ---- --- -- ----------,173748.70000004768,173747.90000009537,173319.487,173325.30000007153,173336.155,173753.155,,22,to
screen,html.Screen,0_4_1_0_1_23,2021-11-19T14:34:15.837Z,,,,,,,,,,,,,,,,51,,,,,,,,,,,,,,466.64500007152674,,response,,,13,F,,,,,Space,keypress(Space),,,,instrumental,-------- -------- --- --- ---- --- --- ------ -- --------<br>---- --------- --- ------- ------------ ---------- ---------<br>--- ---------- ------- ---------- ------- -- survive. ----<br>---- --- ------ ----- ------ -- ---- --- ----- -- - -------<br>-------- -- --- --- -- ----- ----------- ----- -----------<br>---- --- ---------- --- ---- --- -- ----------,174220.60000002384,174219.80000007153,173736.483,173748.90000009537,173753.155,174236.428,,23,survive.
screen,html.Screen,0_4_1_0_1_24,2021-11-19T14:34:16.269Z,,,,,,,,,,,,,,,,51,,,,,,,,,,,,,,415.472000095353,,response,,,13,F,,,,,Space,keypress(Space),,,,instrumental,-------- -------- --- --- ---- --- --- ------ -- --------<br>---- --------- --- ------- ------------ ---------- ---------<br>--- ---------- ------- ---------- ------- -- -------- This<br>---- --- ------ ----- ------ -- ---- --- ----- -- - -------<br>-------- -- --- --- -- ----- ----------- ----- -----------<br>---- --- ---------- --- ---- --- -- ----------,174652.70000004768,174651.90000009537,174219.759,174220.80000007153,174236.428,174670.059,,24,This
screen,html.Screen,0_4_1_0_1_25,2021-11-19T14:34:16.701Z,,,,,,,,,,,,,,,,51,,,,,,,,,,,,,,413.7410000715172,,response,,,13,F,,,,,Space,keypress(Space),,,,instrumental,-------- -------- --- --- ---- --- --- ------ -- --------<br>---- --------- --- ------- ------------ ---------- ---------<br>--- ---------- ------- ---------- ------- -- -------- ----<br>week --- ------ ----- ------ -- ---- --- ----- -- - -------<br>-------- -- --- --- -- ----- ----------- ----- -----------<br>---- --- ---------- --- ---- --- -- ----------,175084.60000002384,175083.80000007153,174653.387,174652.90000009537,174670.059,175086.72,,25,week
screen,html.Screen,0_4_1_0_1_26,2021-11-19T14:34:17.141Z,,,,,,,,,,,,,,,,51,,,,,,,,,,,,,,437.0800000715244,,response,,,13,F,,,,,Space,keypress(Space),,,,instrumental,-------- -------- --- --- ---- --- --- ------ -- --------<br>---- --------- --- ------- ------------ ---------- ---------<br>--- ---------- ------- ---------- ------- -- -------- ----<br>---- the ------ ----- ------ -- ---- --- ----- -- - -------<br>-------- -- --- --- -- ----- ----------- ----- -----------<br>---- --- ---------- --- ---- --- -- ----------,175524.60000002384,175523.80000007153,175070.05,175084.80000007153,175086.72,175536.84,,26,the
screen,html.Screen,0_4_1_0_1_27,2021-11-19T14:34:17.605Z,,,,,,,,,,,,,,,,51,,,,,,,,,,,,,,450.8600000476872,,response,,,13,F,,,,,Space,keypress(Space),,,,instrumental,-------- -------- --- --- ---- --- --- ------ -- --------<br>---- --------- --- ------- ------------ ---------- ---------<br>--- ---------- ------- ---------- ------- -- -------- ----<br>---- --- Senate ----- ------ -- ---- --- ----- -- - -------<br>-------- -- --- --- -- ----- ----------- ----- -----------<br>---- --- ---------- --- ---- --- -- ----------,175988.60000002384,175987.70000004768,175520.17,175524.80000007153,175536.84,176003.472,,27,Senate
screen,html.Screen,0_4_1_0_1_28,2021-11-19T14:34:18.109Z,,,,,,,,,,,,,,,,51,,,,,,,,,,,,,,488.22800004767487,,response,,,13,F,,,,,Space,keypress(Space),,,,instrumental,-------- -------- --- --- ---- --- --- ------ -- --------<br>---- --------- --- ------- ------------ ---------- ---------<br>--- ---------- ------- ---------- ------- -- -------- ----<br>---- --- ------ seems ------ -- ---- --- ----- -- - -------<br>-------- -- --- --- -- ----- ----------- ----- -----------<br>---- --- ---------- --- ---- --- -- ----------,176492.5,176491.70000004768,175986.804,175988.90000009537,176003.472,176503.861,,28,seems
screen,html.Screen,0_4_1_0_1_29,2021-11-19T14:34:18.533Z,,,,,,,,,,,,,,,,51,,,,,,,,,,,,,,411.93900007152115,,response,,,13,F,,,,,Space,keypress(Space),,,,instrumental,-------- -------- --- --- ---- --- --- ------ -- --------<br>---- --------- --- ------- ------------ ---------- ---------<br>--- ---------- ------- ---------- ------- -- -------- ----<br>---- --- ------ ----- poised -- ---- --- ----- -- - -------<br>-------- -- --- --- -- ----- ----------- ----- -----------<br>---- --- ---------- --- ---- --- -- ----------,176916.70000004768,176915.80000007153,176487.189,176492.70000004768,176503.861,176920.486,,29,poised
screen,html.Screen,0_4_1_0_1_30,2021-11-19T14:34:18.925Z,,,,,,,,,,,,,,,,51,,,,,,,,,,,,,,387.2140000476793,,response,,,13,F,,,,,Space,keypress(Space),,,,instrumental,-------- -------- --- --- ---- --- --- ------ -- --------<br>---- --------- --- ------- ------------ ---------- ---------<br>--- ---------- ------- ---------- ------- -- -------- ----<br>---- --- ------ ----- ------ to ---- --- ----- -- - -------<br>-------- -- --- --- -- ----- ----------- ----- -----------<br>---- --- ---------- --- ---- --- -- ----------,177308.5,177307.70000004768,176903.816,176917.20000004768,176920.486,177320.617,,30,to
screen,html.Screen,0_4_1_0_1_31,2021-11-19T14:34:19.389Z,,,,,,,,,,,,,,,,51,,,,,,,,,,,,,,451.08300004768535,,response,,,13,F,,,,,Space,keypress(Space),,,,instrumental,-------- -------- --- --- ---- --- --- ------ -- --------<br>---- --------- --- ------- ------------ ---------- ---------<br>--- ---------- ------- ---------- ------- -- -------- ----<br>---- --- ------ ----- ------ -- join --- ----- -- - -------<br>-------- -- --- --- -- ----- ----------- ----- -----------<br>---- --- ---------- --- ---- --- -- ----------,177772.60000002384,177771.70000004768,177303.947,177308.70000004768,177320.617,177787.362,,31,join
screen,html.Screen,0_4_1_0_1_32,2021-11-19T14:34:19.805Z,,,,,,,,,,,,,,,,51,,,,,,,,,,,,,,400.33800004769,,response,,,13,F,,,,,Space,keypress(Space),,,,instrumental,-------- -------- --- --- ---- --- --- ------ -- --------<br>---- --------- --- ------- ------------ ---------- ---------<br>--- ---------- ------- ---------- ------- -- -------- ----<br>---- --- ------ ----- ------ -- ---- the ----- -- - -------<br>-------- -- --- --- -- ----- ----------- ----- -----------<br>---- --- ---------- --- ---- --- -- ----------,178188.80000007153,178187.70000004768,177770.692,177772.80000007153,177787.362,178204.2,,32,the
screen,html.Screen,0_4_1_0_1_33,2021-11-19T14:34:20.245Z,,,,,,,,,,,,,,,,51,,,,,,,,,,,,,,423.4000000238302,,response,,,13,F,,,,,Space,keypress(Space),,,,instrumental,-------- -------- --- --- ---- --- --- ------ -- --------<br>---- --------- --- ------- ------------ ---------- ---------<br>--- ---------- ------- ---------- ------- -- -------- ----<br>---- --- ------ ----- ------ -- ---- --- House -- - -------<br>-------- -- --- --- -- ----- ----------- ----- -----------<br>---- --- ---------- --- ---- --- -- ----------,178628.30000007153,178627.60000002384,178187.529,178189,178204.2,178637.568,,33,House
screen,html.Screen,0_4_1_0_1_34,2021-11-19T14:34:20.597Z,,,,,,,,,,,,,,,,51,,,,,,,,,,,,,,341.9320000000007,,response,,,13,F,,,,,Space,keypress(Space),,,,instrumental,-------- -------- --- --- ---- --- --- ------ -- --------<br>---- --------- --- ------- ------------ ---------- ---------<br>--- ---------- ------- ---------- ------- -- -------- ----<br>---- --- ------ ----- ------ -- ---- --- ----- in - -------<br>-------- -- --- --- -- ----- ----------- ----- -----------<br>---- --- ---------- --- ---- --- -- ----------,178980.20000004768,178979.5,178620.898,178628.60000002384,178637.568,178987.674,,34,in
screen,html.Screen,0_4_1_0_1_35,2021-11-19T14:34:20.973Z,,,,,,,,,,,,,,,,51,,,,,,,,,,,,,,367.9260000238428,,response,,,13,F,,,,,Space,keypress(Space),,,,instrumental,-------- -------- --- --- ---- --- --- ------ -- --------<br>---- --------- --- ------- ------------ ---------- ---------<br>--- ---------- ------- ---------- ------- -- -------- ----<br>---- --- ------ ----- ------ -- ---- --- ----- -- a -------<br>-------- -- --- --- -- ----- ----------- ----- -----------<br>---- --- ---------- --- ---- --- -- ----------,179356.30000007153,179355.60000002384,178971.004,178980.5,178987.674,179371.095,,35,a
screen,html.Screen,0_4_1_0_1_36,2021-11-19T14:34:21.381Z,,,,,,,,,,,,,,,,51,,,,,,,,,,,,,,392.40499999999884,,response,,,13,F,,,,,Space,keypress(Space),,,,instrumental,-------- -------- --- --- ---- --- --- ------ -- --------<br>---- --------- --- ------- ------------ ---------- ---------<br>--- ---------- ------- ---------- ------- -- -------- ----<br>---- --- ------ ----- ------ -- ---- --- ----- -- - massive<br>-------- -- --- --- -- ----- ----------- ----- -----------<br>---- --- ---------- --- ---- --- -- ----------,179764.30000007153,179763.5,179354.425,179356.5,179371.095,179771.207,,36,massive
screen,html.Screen,0_4_1_0_1_37,2021-11-19T14:34:21.781Z,,,,,,,,,,,,,,,,51,,,,,,,,,,,,,,392.2930000000051,,response,,,13,F,,,,,Space,keypress(Space),,,,instrumental,-------- -------- --- --- ---- --- --- ------ -- --------<br>---- --------- --- ------- ------------ ---------- ---------<br>--- ---------- ------- ---------- ------- -- -------- ----<br>---- --- ------ ----- ------ -- ---- --- ----- -- - -------<br>overhaul -- --- --- -- ----- ----------- ----- -----------<br>---- --- ---------- --- ---- --- -- ----------,180164.20000004768,180163.5,179754.537,179764.5,179771.207,180171.224,,37,overhaul
screen,html.Screen,0_4_1_0_1_38,2021-11-19T14:34:22.198Z,,,,,,,,,,,,,,,,51,,,,,,,,,,,,,,408.17600009538,,response,,,13,F,,,,,Space,keypress(Space),,,,instrumental,-------- -------- --- --- ---- --- --- ------ -- --------<br>---- --------- --- ------- ------------ ---------- ---------<br>--- ---------- ------- ---------- ------- -- -------- ----<br>---- --- ------ ----- ------ -- ---- --- ----- -- - -------<br>-------- of --- --- -- ----- ----------- ----- -----------<br>---- --- ---------- --- ---- --- -- ----------,180580.10000002384,180579.40000009537,180154.555,180164.5,180171.224,180588.103,,38,of
screen,html.Screen,0_4_1_0_1_39,2021-11-19T14:34:22.606Z,,,,,,,,,,,,,,,,51,,,,,,,,,,,,,,399.29700009536464,,response,,,13,F,,,,,Space,keypress(Space),,,,instrumental,-------- -------- --- --- ---- --- --- ------ -- --------<br>---- --------- --- ------- ------------ ---------- ---------<br>--- ---------- ------- ---------- ------- -- -------- ----<br>---- --- ------ ----- ------ -- ---- --- ----- -- - -------<br>-------- -- the --- -- ----- ----------- ----- -----------<br>---- --- ---------- --- ---- --- -- ----------,180988.20000004768,180987.40000009537,180571.432,180580.40000009537,180588.103,181004.679,,39,the
screen,html.Screen,0_4_1_0_1_40,2021-11-19T14:34:23.038Z,,,,,,,,,,,,,,,,51,,,,,,,,,,,,,,414.62100007152185,,response,,,13,F,,,,,Space,keypress(Space),,,,instrumental,-------- -------- --- --- ---- --- --- ------ -- --------<br>---- --------- --- ------- ------------ ---------- ---------<br>--- ---------- ------- ---------- ------- -- -------- ----<br>---- --- ------ ----- ------ -- ---- --- ----- -- - -------<br>-------- -- --- way -- ----- ----------- ----- -----------<br>---- --- ---------- --- ---- --- -- ----------,181420.10000002384,181419.30000007153,180988.011,180988.40000009537,181004.679,181421.691,,40,way
screen,html.Screen,0_4_1_0_1_41,2021-11-19T14:34:23.454Z,,,,,,,,,,,,,,,,51,,,,,,,,,,,,,,413.7090000953758,,response,,,13,F,,,,,Space,keypress(Space),,,,instrumental,-------- -------- --- --- ---- --- --- ------ -- --------<br>---- --------- --- ------- ------------ ---------- ---------<br>--- ---------- ------- ---------- ------- -- -------- ----<br>---- --- ------ ----- ------ -- ---- --- ----- -- - -------<br>-------- -- --- --- in ----- ----------- ----- -----------<br>---- --- ---------- --- ---- --- -- ----------,181836.10000002384,181835.40000009537,181405.019,181420.30000007153,181421.691,181838.37,,41,in
screen,html.Screen,0_4_1_0_1_42,2021-11-19T14:34:23.942Z,,,,,,,,,,,,,,,,51,,,,,,,,,,,,,,484.93000007153023,,response,,,13,F,,,,,Space,keypress(Space),,,,instrumental,-------- -------- --- --- ---- --- --- ------ -- --------<br>---- --------- --- ------- ------------ ---------- ---------<br>--- ---------- ------- ---------- ------- -- -------- ----<br>---- --- ------ ----- ------ -- ---- --- ----- -- - -------<br>-------- -- --- --- -- which ----------- ----- -----------<br>---- --- ---------- --- ---- --- -- ----------,182324.10000002384,182323.30000007153,181821.7,181836.40000009537,181838.37,182338.488,,42,which
screen,html.Screen,0_4_1_0_1_43,2021-11-19T14:34:25.166Z,,,,,,,,,,,,,,,,51,,,,,,,,,,,,,,1209.3120000715135,,response,,,13,F,,,,,Space,keypress(Space),,,,instrumental,-------- -------- --- --- ---- --- --- ------ -- --------<br>---- --------- --- ------- ------------ ---------- ---------<br>--- ---------- ------- ---------- ------- -- -------- ----<br>---- --- ------ ----- ------ -- ---- --- ----- -- - -------<br>-------- -- --- --- -- ----- bureaucrats ----- -----------<br>---- --- ---------- --- ---- --- -- ----------,183548.60000002384,183547.80000007153,182321.818,182324.40000009537,182338.488,183555.407,,43,bureaucrats
screen,html.Screen,0_4_1_0_1_44,2021-11-19T14:34:25.566Z,,,,,,,,,,,,,,,,51,,,,,,,,,,,,,,391.7930000476772,,response,,,13,F,,,,,Space,keypress(Space),,,,instrumental,-------- -------- --- --- ---- --- --- ------ -- --------<br>---- --------- --- ------- ------------ ---------- ---------<br>--- ---------- ------- ---------- ------- -- -------- ----<br>---- --- ------ ----- ------ -- ---- --- ----- -- - -------<br>-------- -- --- --- -- ----- ----------- enact -----------<br>---- --- ---------- --- ---- --- -- ----------,183948,183947.20000004768,183538.737,183548.80000007153,183555.407,183955.499,,44,enact
screen,html.Screen,0_4_1_0_1_45,2021-11-19T14:34:26.086Z,,,,,,,,,,,,,,,,51,,,,,,,,,,,,,,511.701000047673,,response,,,13,F,,,,,Space,keypress(Space),,,,instrumental,-------- -------- --- --- ---- --- --- ------ -- --------<br>---- --------- --- ------- ------------ ---------- ---------<br>--- ---------- ------- ---------- ------- -- -------- ----<br>---- --- ------ ----- ------ -- ---- --- ----- -- - -------<br>-------- -- --- --- -- ----- ----------- ----- regulations<br>---- --- ---------- --- ---- --- -- ----------,184468,184467.20000004768,183938.829,183948.20000004768,183955.499,184472.28,,45,regulations
screen,html.Screen,0_4_1_0_1_46,2021-11-19T14:34:26.510Z,,,,,,,,,,,,,,,,51,,,,,,,,,,,,,,418.820000023843,,response,,,13,F,,,,,Space,keypress(Space),,,,instrumental,-------- -------- --- --- ---- --- --- ------ -- --------<br>---- --------- --- ------- ------------ ---------- ---------<br>--- ---------- ------- ---------- ------- -- -------- ----<br>---- --- ------ ----- ------ -- ---- --- ----- -- - -------<br>-------- -- --- --- -- ----- ----------- ----- -----------<br>that --- ---------- --- ---- --- -- ----------,184891.90000009537,184891.10000002384,184455.61,184468.20000004768,184472.28,184905.736,,46,that
screen,html.Screen,0_4_1_0_1_47,2021-11-19T14:34:26.870Z,,,,,,,,,,,,,,,,51,,,,,,,,,,,,,,345.36400002383743,,response,,,13,F,,,,,Space,keypress(Space),,,,instrumental,-------- -------- --- --- ---- --- --- ------ -- --------<br>---- --------- --- ------- ------------ ---------- ---------<br>--- ---------- ------- ---------- ------- -- -------- ----<br>---- --- ------ ----- ------ -- ---- --- ----- -- - -------<br>-------- -- --- --- -- ----- ----------- ----- -----------<br>---- are ---------- --- ---- --- -- ----------,185251.90000009537,185251.10000002384,184889.066,184892.10000002384,184905.736,185255.948,,47,are
screen,html.Screen,0_4_1_0_1_48,2021-11-19T14:34:27.318Z,,,,,,,,,,,,,,,,51,,,,,,,,,,,,,,443.05199999999604,,response,,,13,F,,,,,Space,keypress(Space),,,,instrumental,-------- -------- --- --- ---- --- --- ------ -- --------<br>---- --------- --- ------- ------------ ---------- ---------<br>--- ---------- ------- ---------- ------- -- -------- ----<br>---- --- ------ ----- ------ -- ---- --- ----- -- - -------<br>-------- -- --- --- -- ----- ----------- ----- -----------<br>---- --- strangling --- ---- --- -- ----------,185699.80000007153,185699,185239.276,185252.10000002384,185255.948,185705.963,,48,strangling
screen,html.Screen,0_4_1_0_1_49,2021-11-19T14:34:27.750Z,,,,,,,,,,,,,,,,51,,,,,,,,,,,,,,425.13700002385303,,response,,,13,F,,,,,Space,keypress(Space),,,,instrumental,-------- -------- --- --- ---- --- --- ------ -- --------<br>---- --------- --- ------- ------------ ---------- ---------<br>--- ---------- ------- ---------- ------- -- -------- ----<br>---- --- ------ ----- ------ -- ---- --- ----- -- - -------<br>-------- -- --- --- -- ----- ----------- ----- -----------<br>---- --- ---------- the ---- --- -- ----------,186131.90000009537,186131.10000002384,185689.293,185700.10000002384,185705.963,186139.253,,49,the
