sender,sender_type,sender_id,timestamp,meta,,Blues,Classical,Country,Dance,Electronic,Folk,Gospel,Hip-Hop,Jazz,Latin,Musical/Film,New-age,Pop,Provo_ID,R&B,Rap,Reggae,Religious,Rock,Soul,Swing,Traditional,age,artist_name,correct,correctResponse,distraction,duration,education,ended_on,familiarity,gender,item,list,music_frequency,offensiveness,pleasantness,preference,response,response_action,snippet_file,song_name,song_rating,sound,text,time_commit,time_end,time_render,time_run,time_show,time_switch,url,word,word_ID
Instructions,html.Page,0_0,2021-11-26T13:28:34.799Z,"{""labjs_version"":""20.2.3"",""labjs_build"":{""flavor"":""production"",""commit"":""7ea907d66ca8aeef8054924ca5d82ffbe11e34e5""},""location"":""https://run.pavlovia.org/mvasilev/lab_music_a/"",""userAgent"":""Mozilla/5.0 (Windows NT 6.1; Win64; x64) AppleWebKit/537.36 (KHTML, like Gecko) Chrome/96.0.4664.45 Safari/537.36"",""platform"":""Win32"",""language"":""en-US"",""locale"":""en-US"",""timeZone"":""Europe/London"",""timezoneOffset"":0,""screen_width"":1920,""screen_height"":1080,""scroll_width"":1920,""scroll_height"":959,""window_innerWidth"":1920,""window_innerHeight"":1007,""devicePixelRatio"":1}",,,,,,,,,,,,,,,,,,,,,,,,,,,,,22176.663000047683,,form submission,,,,,,,,,,,,,,,,31068,31067.700000047684,8857.697,8871,8891.037,31080.256,{},,
Headphones,html.Page,0_1,2021-11-26T13:28:34.959Z,,,,,,,,,,,,,,,,,,,,,,,,,,,,,,146.9440000476825,,form submission,,,,,,,,,,,,,,,,31227.799999952316,31227.200000047684,31063.569,31068.200000047684,31080.256,31230.008,,,
Holding screen,html.Screen,0_2_0_0,2021-11-26T13:28:44.953Z,,,,,,,,,,,,,,,,,,,,,,,,,,,,,,10002.261999999995,,timeout,,,,,,,,,,,,,,,,41221.90000009537,41215.601,31213.338,31228.299999952316,31230.008,41232.27,,,
screen,html.Screen,0_2_0_1_0,2021-11-26T13:28:45.822Z,,,,,,,,,,,,,,,,53,,,,,,,,,,,,,,857.5299999523195,,response,,,99,,,,,,Space,keypress(Space),,,,,When -- ----- -- ------ - ------- --- ----------<br>------------- ------ ------ ---- ---- ------- ----- -- ----<br>-------- ------- -- ---------- --- - --- ----- ----- ----<br>---- --- --- ----- --- ---- ---- ------- ----- ---- -------<br>--- --- -- ----- -- --- ---- -- --- ---- -- ------ ------<br>--- ----- -- ----,42091.09999990463,42089.799999952316,41215.601,41222.299999952316,41232.27,42099.409,,0,When
screen,html.Screen,0_2_0_1_1,2021-11-26T13:28:46.261Z,,,,,,,,,,,,,,,,53,,,,,,,,,,,,,,429.9910000953678,,response,,,99,,,,,,Space,keypress(Space),,,,,---- it ----- -- ------ - ------- --- ----------<br>------------- ------ ------ ---- ---- ------- ----- -- ----<br>-------- ------- -- ---------- --- - --- ----- ----- ----<br>---- --- --- ----- --- ---- ---- ------- ----- ---- -------<br>--- --- -- ----- -- --- ---- -- --- ---- -- ------ ------<br>--- ----- -- ----,42530.200000047684,42529.40000009537,42082.738,42091.5,42099.409,42532.816,,1,it
screen,html.Screen,0_2_0_1_2,2021-11-26T13:28:46.653Z,,,,,,,,,,,,,,,,53,,,,,,,,,,,,,,388.4839999523174,,response,,,99,,,,,,Space,keypress(Space),,,,,---- -- comes -- ------ - ------- --- ----------<br>------------- ------ ------ ---- ---- ------- ----- -- ----<br>-------- ------- -- ---------- --- - --- ----- ----- ----<br>---- --- --- ----- --- ---- ---- ------- ----- ---- -------<br>--- --- -- ----- -- --- ---- -- --- ---- -- ------ ------<br>--- ----- -- ----,42922.09999990463,42921.299999952316,42516.146,42530.5,42532.816,42932.818,,2,comes
screen,html.Screen,0_2_0_1_3,2021-11-26T13:28:46.990Z,,,,,,,,,,,,,,,,53,,,,,,,,,,,,,,324.481999952317,,response,,,99,,,,,,Space,keypress(Space),,,,,---- -- ----- to ------ - ------- --- ----------<br>------------- ------ ------ ---- ---- ------- ----- -- ----<br>-------- ------- -- ---------- --- - --- ----- ----- ----<br>---- --- --- ----- --- ---- ---- ------- ----- ---- -------<br>--- --- -- ----- -- --- ---- -- --- ---- -- ------ ------<br>--- ----- -- ----,43258.200000047684,43257.299999952316,42916.149,42922.40000009537,42932.818,43266.391,,3,to
screen,html.Screen,0_2_0_1_4,2021-11-26T13:28:47.358Z,,,,,,,,,,,,,,,,53,,,,,,,,,,,,,,358.908999952313,,response,,,99,,,,,,Space,keypress(Space),,,,,---- -- ----- -- having - ------- --- ----------<br>------------- ------ ------ ---- ---- ------- ----- -- ----<br>-------- ------- -- ---------- --- - --- ----- ----- ----<br>---- --- --- ----- --- ---- ---- ------- ----- ---- -------<br>--- --- -- ----- -- --- ---- -- --- ---- -- ------ ------<br>--- ----- -- ----,43626.40000009537,43625.299999952316,43249.719,43258.700000047684,43266.391,43632.99,,4,having
screen,html.Screen,0_2_0_1_5,2021-11-26T13:28:47.717Z,,,,,,,,,,,,,,,,53,,,,,,,,,,,,,,352.21000004768575,,response,,,99,,,,,,Space,keypress(Space),,,,,---- -- ----- -- ------ a ------- --- ----------<br>------------- ------ ------ ---- ---- ------- ----- -- ----<br>-------- ------- -- ---------- --- - --- ----- ----- ----<br>---- --- --- ----- --- ---- ---- ------- ----- ---- -------<br>--- --- -- ----- -- --- ---- -- --- ---- -- ------ ------<br>--- ----- -- ----,43986.09999990463,43985.200000047684,43616.321,43626.700000047684,43632.99,43999.868,,5,a
screen,html.Screen,0_2_0_1_6,2021-11-26T13:28:48.029Z,,,,,,,,,,,,,,,,53,,,,,,,,,,,,,,297.3320000476815,,response,,,99,,,,,,Space,keypress(Space),,,,,---- -- ----- -- ------ - lasting --- ----------<br>------------- ------ ------ ---- ---- ------- ----- -- ----<br>-------- ------- -- ---------- --- - --- ----- ----- ----<br>---- --- --- ----- --- ---- ---- ------- ----- ---- -------<br>--- --- -- ----- -- --- ---- -- --- ---- -- ------ ------<br>--- ----- -- ----,44298.200000047684,44297.200000047684,43983.197,43986.700000047684,43999.868,44299.952,,6,lasting
screen,html.Screen,0_2_0_1_7,2021-11-26T13:28:48.445Z,,,,,,,,,,,,,,,,53,,,,,,,,,,,,,,413.14799990463507,,response,,,99,,,,,,Space,keypress(Space),,,,,---- -- ----- -- ------ - ------- and ----------<br>------------- ------ ------ ---- ---- ------- ----- -- ----<br>-------- ------- -- ---------- --- - --- ----- ----- ----<br>---- --- --- ----- --- ---- ---- ------- ----- ---- -------<br>--- --- -- ----- -- --- ---- -- --- ---- -- ------ ------<br>--- ----- -- ----,44714.09999990463,44713.09999990463,44283.281,44298.5,44299.952,44716.62,,7,and
screen,html.Screen,0_2_0_1_8,2021-11-26T13:28:48.765Z,,,,,,,,,,,,,,,,53,,,,,,,,,,,,,,316.47999990462995,,response,,,99,,,,,,Space,keypress(Space),,,,,---- -- ----- -- ------ - ------- --- fulfilling<br>------------- ------ ------ ---- ---- ------- ----- -- ----<br>-------- ------- -- ---------- --- - --- ----- ----- ----<br>---- --- --- ----- --- ---- ---- ------- ----- ---- -------<br>--- --- -- ----- -- --- ---- -- --- ---- -- ------ ------<br>--- ----- -- ----,45034.200000047684,45033.09999990463,44699.951,44714.40000009537,44716.62,45050.146,,8,fulfilling
screen,html.Screen,0_2_0_1_9,2021-11-26T13:28:49.253Z,,,,,,,,,,,,,,,,53,,,,,,,,,,,,,,470.85399999999936,,response,,,99,,,,,,Space,keypress(Space),,,,,"---- -- ----- -- ------ - ------- --- ----------<br>relationship, ------ ------ ---- ---- ------- ----- -- ----<br>-------- ------- -- ---------- --- - --- ----- ----- ----<br>---- --- --- ----- --- ---- ---- ------- ----- ---- -------<br>--- --- -- ----- -- --- ---- -- --- ---- -- ------ ------<br>--- ----- -- ----",45522,45521,45033.475,45034.59999990463,45050.146,45533.522,,9,"relationship,"
screen,html.Screen,0_2_0_1_10,2021-11-26T13:28:49.581Z,,,,,,,,,,,,,,,,53,,,,,,,,,,,,,,315.57799990463536,,response,,,99,,,,,,Space,keypress(Space),,,,,---- -- ----- -- ------ - ------- --- ----------<br>------------- common ------ ---- ---- ------- ----- -- ----<br>-------- ------- -- ---------- --- - --- ----- ----- ----<br>---- --- --- ----- --- ---- ---- ------- ----- ---- -------<br>--- --- -- ----- -- --- ---- -- --- ---- -- ------ ------<br>--- ----- -- ----,45850.09999990463,45849.09999990463,45516.852,45522.299999952316,45533.522,45866.968,,10,common
screen,html.Screen,0_2_0_1_11,2021-11-26T13:28:50.101Z,,,,,,,,,,,,,,,,53,,,,,,,,,,,,,,502.1319999046318,,response,,,99,,,,,,Space,keypress(Space),,,,,---- -- ----- -- ------ - ------- --- ----------<br>------------- ------ wisdom ---- ---- ------- ----- -- ----<br>-------- ------- -- ---------- --- - --- ----- ----- ----<br>---- --- --- ----- --- ---- ---- ------- ----- ---- -------<br>--- --- -- ----- -- --- ---- -- --- ---- -- ------ ------<br>--- ----- -- ----,46370,46369.09999990463,45850.298,45850.40000009537,45866.968,46383.734,,11,wisdom
screen,html.Screen,0_2_0_1_12,2021-11-26T13:28:50.557Z,,,,,,,,,,,,,,,,53,,,,,,,,,,,,,,441.3659999046358,,response,,,99,,,,,,Space,keypress(Space),,,,,---- -- ----- -- ------ - ------- --- ----------<br>------------- ------ ------ says ---- ------- ----- -- ----<br>-------- ------- -- ---------- --- - --- ----- ----- ----<br>---- --- --- ----- --- ---- ---- ------- ----- ---- -------<br>--- --- -- ----- -- --- ---- -- --- ---- -- ------ ------<br>--- ----- -- ----,46825.90000009537,46825.09999990463,46367.064,46370.299999952316,46383.734,46833.825,,12,says
screen,html.Screen,0_2_0_1_13,2021-11-26T13:28:50.941Z,,,,,,,,,,,,,,,,53,,,,,,,,,,,,,,375.2749999046355,,response,,,99,,,,,,Space,keypress(Space),,,,,---- -- ----- -- ------ - ------- --- ----------<br>------------- ------ ------ ---- that ------- ----- -- ----<br>-------- ------- -- ---------- --- - --- ----- ----- ----<br>---- --- --- ----- --- ---- ---- ------- ----- ---- -------<br>--- --- -- ----- -- --- ---- -- --- ---- -- ------ ------<br>--- ----- -- ----,47209.799999952316,47209.09999990463,46817.155,46826.200000047684,46833.825,47217.332,,13,that
screen,html.Screen,0_2_0_1_14,2021-11-26T13:28:51.245Z,,,,,,,,,,,,,,,,53,,,,,,,,,,,,,,295.66799999999785,,response,,,99,,,,,,Space,keypress(Space),,,,,---- -- ----- -- ------ - ------- --- ----------<br>------------- ------ ------ ---- ---- feeling ----- -- ----<br>-------- ------- -- ---------- --- - --- ----- ----- ----<br>---- --- --- ----- --- ---- ---- ------- ----- ---- -------<br>--- --- -- ----- -- --- ---- -- --- ---- -- ------ ------<br>--- ----- -- ----,47513.799999952316,47513,47200.661,47210.09999990463,47217.332,47517.354,,14,feeling
screen,html.Screen,0_2_0_1_15,2021-11-26T13:28:51.717Z,,,,,,,,,,,,,,,,53,,,,,,,,,,,,,,467.5460000953681,,response,,,99,,,,,,Space,keypress(Space),,,,,---- -- ----- -- ------ - ------- --- ----------<br>------------- ------ ------ ---- ---- ------- close -- ----<br>-------- ------- -- ---------- --- - --- ----- ----- ----<br>---- --- --- ----- --- ---- ---- ------- ----- ---- -------<br>--- --- -- ----- -- --- ---- -- --- ---- -- ------ ------<br>--- ----- -- ----,47985.700000047684,47984.90000009537,47500.684,47514.09999990463,47517.354,48000.784,,15,close
screen,html.Screen,0_2_0_1_16,2021-11-26T13:28:52.061Z,,,,,,,,,,,,,,,,53,,,,,,,,,,,,,,328.21600000000035,,response,,,99,,,,,,Space,keypress(Space),,,,,---- -- ----- -- ------ - ------- --- ----------<br>------------- ------ ------ ---- ---- ------- ----- to ----<br>-------- ------- -- ---------- --- - --- ----- ----- ----<br>---- --- --- ----- --- ---- ---- ------- ----- ---- -------<br>--- --- -- ----- -- --- ---- -- --- ---- -- ------ ------<br>--- ----- -- ----,48329.799999952316,48329,47984.114,47985.90000009537,48000.784,48334.259,,16,to
screen,html.Screen,0_2_0_1_17,2021-11-26T13:28:52.461Z,,,,,,,,,,,,,,,,53,,,,,,,,,,,,,,394.7410000000018,,response,,,99,,,,,,Space,keypress(Space),,,,,---- -- ----- -- ------ - ------- --- ----------<br>------------- ------ ------ ---- ---- ------- ----- -- your<br>-------- ------- -- ---------- --- - --- ----- ----- ----<br>---- --- --- ----- --- ---- ---- ------- ----- ---- -------<br>--- --- -- ----- -- --- ---- -- --- ---- -- ------ ------<br>--- ----- -- ----,48729.700000047684,48729,48317.588,48330,48334.259,48734.228,,17,your
screen,html.Screen,0_2_0_1_18,2021-11-26T13:28:52.917Z,,,,,,,,,,,,,,,,53,,,,,,,,,,,,,,450.5719999523135,,response,,,99,,,,,,Space,keypress(Space),,,,,---- -- ----- -- ------ - ------- --- ----------<br>------------- ------ ------ ---- ---- ------- ----- -- ----<br>romantic ------- -- ---------- --- - --- ----- ----- ----<br>---- --- --- ----- --- ---- ---- ------- ----- ---- -------<br>--- --- -- ----- -- --- ---- -- --- ---- -- ------ ------<br>--- ----- -- ----,49185.700000047684,49184.799999952316,48717.559,48730,48734.228,49201.134,,18,romantic
screen,html.Screen,0_2_0_1_19,2021-11-26T13:28:53.309Z,,,,,,,,,,,,,,,,53,,,,,,,,,,,,,,375.76600009536924,,response,,,99,,,,,,Space,keypress(Space),,,,,---- -- ----- -- ------ - ------- --- ----------<br>------------- ------ ------ ---- ---- ------- ----- -- ----<br>-------- partner -- ---------- --- - --- ----- ----- ----<br>---- --- --- ----- --- ---- ---- ------- ----- ---- -------<br>--- --- -- ----- -- --- ---- -- --- ---- -- ------ ------<br>--- ----- -- ----,49577.700000047684,49576.90000009537,49184.463,49186,49201.134,49584.563,,19,partner
screen,html.Screen,0_2_0_1_20,2021-11-26T13:28:53.645Z,,,,,,,,,,,,,,,,53,,,,,,,,,,,,,,328.3370000953655,,response,,,99,,,,,,Space,keypress(Space),,,,,---- -- ----- -- ------ - ------- --- ----------<br>------------- ------ ------ ---- ---- ------- ----- -- ----<br>-------- ------- is ---------- --- - --- ----- ----- ----<br>---- --- --- ----- --- ---- ---- ------- ----- ---- -------<br>--- --- -- ----- -- --- ---- -- --- ---- -- ------ ------<br>--- ----- -- ----,49913.5,49912.90000009537,49567.892,49577.90000009537,49584.563,49917.929,,20,is
screen,html.Screen,0_2_0_1_21,2021-11-26T13:28:53.997Z,,,,,,,,,,,,,,,,53,,,,,,,,,,,,,,346.87099995231983,,response,,,99,,,,,,Space,keypress(Space),,,,,---- -- ----- -- ------ - ------- --- ----------<br>------------- ------ ------ ---- ---- ------- ----- -- ----<br>-------- ------- -- paramount. --- - --- ----- ----- ----<br>---- --- --- ----- --- ---- ---- ------- ----- ---- -------<br>--- --- -- ----- -- --- ---- -- --- ---- -- ------ ------<br>--- ----- -- ----,50265.59999990463,50264.799999952316,49901.259,49913.799999952316,49917.929,50268.023,,21,paramount.
screen,html.Screen,0_2_0_1_22,2021-11-26T13:28:54.581Z,,,,,,,,,,,,,,,,53,,,,,,,,,,,,,,580.6770000476827,,response,,,99,,,,,,Space,keypress(Space),,,,,---- -- ----- -- ------ - ------- --- ----------<br>------------- ------ ------ ---- ---- ------- ----- -- ----<br>-------- ------- -- ---------- But - --- ----- ----- ----<br>---- --- --- ----- --- ---- ---- ------- ----- ---- -------<br>--- --- -- ----- -- --- ---- -- --- ---- -- ------ ------<br>--- ----- -- ----,50849.90000009537,50848.700000047684,50251.353,50266,50268.023,50851.49,,22,But
screen,html.Screen,0_2_0_1_23,2021-11-26T13:28:54.917Z,,,,,,,,,,,,,,,,53,,,,,,,,,,,,,,333.21000004768575,,response,,,99,,,,,,Space,keypress(Space),,,,,---- -- ----- -- ------ - ------- --- ----------<br>------------- ------ ------ ---- ---- ------- ----- -- ----<br>-------- ------- -- ---------- --- a --- ----- ----- ----<br>---- --- --- ----- --- ---- ---- ------- ----- ---- -------<br>--- --- -- ----- -- --- ---- -- --- ---- -- ------ ------<br>--- ----- -- ----,51185.700000047684,51184.700000047684,50834.82,50850.09999990463,50851.49,51201.635,,23,a
screen,html.Screen,0_2_0_1_24,2021-11-26T13:28:55.229Z,,,,,,,,,,,,,,,,53,,,,,,,,,,,,,,295.16499995231425,,response,,,99,,,,,,Space,keypress(Space),,,,,---- -- ----- -- ------ - ------- --- ----------<br>------------- ------ ------ ---- ---- ------- ----- -- ----<br>-------- ------- -- ---------- --- - new ----- ----- ----<br>---- --- --- ----- --- ---- ---- ------- ----- ---- -------<br>--- --- -- ----- -- --- ---- -- --- ---- -- ------ ------<br>--- ----- -- ----,51497.5,51496.799999952316,51184.964,51185.90000009537,51201.635,51501.661,,24,new
screen,html.Screen,0_2_0_1_25,2021-11-26T13:28:55.653Z,,,,,,,,,,,,,,,,53,,,,,,,,,,,,,,419.03900004768366,,response,,,99,,,,,,Space,keypress(Space),,,,,---- -- ----- -- ------ - ------- --- ----------<br>------------- ------ ------ ---- ---- ------- ----- -- ----<br>-------- ------- -- ---------- --- - --- study ----- ----<br>---- --- --- ----- --- ---- ---- ------- ----- ---- -------<br>--- --- -- ----- -- --- ---- -- --- ---- -- ------ ------<br>--- ----- -- ----,51921.5,51920.700000047684,51484.991,51497.799999952316,51501.661,51935.087,,25,study
screen,html.Screen,0_2_0_1_26,2021-11-26T13:28:56.029Z,,,,,,,,,,,,,,,,53,,,,,,,,,,,,,,361.91300000000047,,response,,,99,,,,,,Space,keypress(Space),,,,,---- -- ----- -- ------ - ------- --- ----------<br>------------- ------ ------ ---- ---- ------- ----- -- ----<br>-------- ------- -- ---------- --- - --- ----- finds ----<br>---- --- --- ----- --- ---- ---- ------- ----- ---- -------<br>--- --- -- ----- -- --- ---- -- --- ---- -- ------ ------<br>--- ----- -- ----,52297.799999952316,52297,51918.417,51921.799999952316,51935.087,52301.895,,26,finds
screen,html.Screen,0_2_0_1_27,2021-11-26T13:28:56.413Z,,,,,,,,,,,,,,,,53,,,,,,,,,,,,,,378.8050000476869,,response,,,99,,,,,,Space,keypress(Space),,,,,---- -- ----- -- ------ - ------- --- ----------<br>------------- ------ ------ ---- ---- ------- ----- -- ----<br>-------- ------- -- ---------- --- - --- ----- ----- that<br>---- --- --- ----- --- ---- ---- ------- ----- ---- -------<br>--- --- -- ----- -- --- ---- -- --- ---- -- ------ ------<br>--- ----- -- ----,52681.40000009537,52680.700000047684,52285.224,52298.09999990463,52301.895,52685.273,,27,that
screen,html.Screen,0_2_0_1_28,2021-11-26T13:28:56.749Z,,,,,,,,,,,,,,,,53,,,,,,,,,,,,,,331.42700004768267,,response,,,99,,,,,,Space,keypress(Space),,,,,---- -- ----- -- ------ - ------- --- ----------<br>------------- ------ ------ ---- ---- ------- ----- -- ----<br>-------- ------- -- ---------- --- - --- ----- ----- ----<br>it's --- --- ----- --- ---- ---- ------- ----- ---- -------<br>--- --- -- ----- -- --- ---- -- --- ---- -- ------ ------<br>--- ----- -- ----,53017.40000009537,53016.700000047684,52668.603,52681.700000047684,52685.273,53018.695,,28,it's
screen,html.Screen,0_2_0_1_29,2021-11-26T13:28:57.157Z,,,,,,,,,,,,,,,,53,,,,,,,,,,,,,,405.90499990463286,,response,,,99,,,,,,Space,keypress(Space),,,,,---- -- ----- -- ------ - ------- --- ----------<br>------------- ------ ------ ---- ---- ------- ----- -- ----<br>-------- ------- -- ---------- --- - --- ----- ----- ----<br>---- not --- ----- --- ---- ---- ------- ----- ---- -------<br>--- --- -- ----- -- --- ---- -- --- ---- -- ------ ------<br>--- ----- -- ----,53425.40000009537,53424.59999990463,53002.025,53017.700000047684,53018.695,53435.448,,29,not
screen,html.Screen,0_2_0_1_30,2021-11-26T13:28:57.581Z,,,,,,,,,,,,,,,,53,,,,,,,,,,,,,,413.0520000000033,,response,,,99,,,,,,Space,keypress(Space),,,,,---- -- ----- -- ------ - ------- --- ----------<br>------------- ------ ------ ---- ---- ------- ----- -- ----<br>-------- ------- -- ---------- --- - --- ----- ----- ----<br>---- --- how ----- --- ---- ---- ------- ----- ---- -------<br>--- --- -- ----- -- --- ---- -- --- ---- -- ------ ------<br>--- ----- -- ----,53849.299999952316,53848.5,53418.778,53425.59999990463,53435.448,53852.235,,30,how
screen,html.Screen,0_2_0_1_31,2021-11-26T13:28:57.917Z,,,,,,,,,,,,,,,,53,,,,,,,,,,,,,,332.2649999999994,,response,,,99,,,,,,Space,keypress(Space),,,,,---- -- ----- -- ------ - ------- --- ----------<br>------------- ------ ------ ---- ---- ------- ----- -- ----<br>-------- ------- -- ---------- --- - --- ----- ----- ----<br>---- --- --- close --- ---- ---- ------- ----- ---- -------<br>--- --- -- ----- -- --- ---- -- --- ---- -- ------ ------<br>--- ----- -- ----,54185.299999952316,54184.5,53835.565,53849.59999990463,53852.235,54202.306,,31,close
screen,html.Screen,0_2_0_1_32,2021-11-26T13:28:58.268Z,,,,,,,,,,,,,,,,53,,,,,,,,,,,,,,334.0940000953706,,response,,,99,,,,,,Space,keypress(Space),,,,,---- -- ----- -- ------ - ------- --- ----------<br>------------- ------ ------ ---- ---- ------- ----- -- ----<br>-------- ------- -- ---------- --- - --- ----- ----- ----<br>---- --- --- ----- you ---- ---- ------- ----- ---- -------<br>--- --- -- ----- -- --- ---- -- --- ---- -- ------ ------<br>--- ----- -- ----,54537.200000047684,54536.40000009537,54185.636,54185.59999990463,54202.306,54552.386,,32,you
screen,html.Screen,0_2_0_1_33,2021-11-26T13:28:58.613Z,,,,,,,,,,,,,,,,53,,,,,,,,,,,,,,328.01400009536883,,response,,,99,,,,,,Space,keypress(Space),,,,,---- -- ----- -- ------ - ------- --- ----------<br>------------- ------ ------ ---- ---- ------- ----- -- ----<br>-------- ------- -- ---------- --- - --- ----- ----- ----<br>---- --- --- ----- --- feel ---- ------- ----- ---- -------<br>--- --- -- ----- -- --- ---- -- --- ---- -- ------ ------<br>--- ----- -- ----,54881.299999952316,54880.40000009537,54535.716,54537.5,54552.386,54885.81,,33,feel
screen,html.Screen,0_2_0_1_34,2021-11-26T13:28:58.989Z,,,,,,,,,,,,,,,,53,,,,,,,,,,,,,,370.6900000000023,,response,,,99,,,,,,Space,keypress(Space),,,,,---- -- ----- -- ------ - ------- --- ----------<br>------------- ------ ------ ---- ---- ------- ----- -- ----<br>-------- ------- -- ---------- --- - --- ----- ----- ----<br>---- --- --- ----- --- ---- that ------- ----- ---- -------<br>--- --- -- ----- -- --- ---- -- --- ---- -- ------ ------<br>--- ----- -- ----,55257.200000047684,55256.5,54869.14,54881.5,54885.81,55269.233,,34,that
screen,html.Screen,0_2_0_1_35,2021-11-26T13:28:59.372Z,,,,,,,,,,,,,,,,53,,,,,,,,,,,,,,371.2669999999998,,response,,,99,,,,,,Space,keypress(Space),,,,,---- -- ----- -- ------ - ------- --- ----------<br>------------- ------ ------ ---- ---- ------- ----- -- ----<br>-------- ------- -- ---------- --- - --- ----- ----- ----<br>---- --- --- ----- --- ---- ---- matters ----- ---- -------<br>--- --- -- ----- -- --- ---- -- --- ---- -- ------ ------<br>--- ----- -- ----,55641.200000047684,55640.5,55252.563,55257.5,55269.233,55652.66,,35,matters
screen,html.Screen,0_2_0_1_36,2021-11-26T13:28:59.917Z,,,,,,,,,,,,,,,,53,,,,,,,,,,,,,,531.7400000953639,,response,,,99,,,,,,Space,keypress(Space),,,,,"---- -- ----- -- ------ - ------- --- ----------<br>------------- ------ ------ ---- ---- ------- ----- -- ----<br>-------- ------- -- ---------- --- - --- ----- ----- ----<br>---- --- --- ----- --- ---- ---- ------- most, ---- -------<br>--- --- -- ----- -- --- ---- -- --- ---- -- ------ ------<br>--- ----- -- ----",56185.5,56184.40000009537,55635.99,55641.5,55652.66,56202.628,,36,"most,"
screen,html.Screen,0_2_0_1_37,2021-11-26T13:29:00.252Z,,,,,,,,,,,,,,,,53,,,,,,,,,,,,,,317.6719999523193,,response,,,99,,,,,,Space,keypress(Space),,,,,---- -- ----- -- ------ - ------- --- ----------<br>------------- ------ ------ ---- ---- ------- ----- -- ----<br>-------- ------- -- ---------- --- - --- ----- ----- ----<br>---- --- --- ----- --- ---- ---- ------- ----- it's -------<br>--- --- -- ----- -- --- ---- -- --- ---- -- ------ ------<br>--- ----- -- ----,56521,56520.299999952316,56185.96,56185.700000047684,56202.628,56536.164,,37,it's
screen,html.Screen,0_2_0_1_38,2021-11-26T13:29:00.628Z,,,,,,,,,,,,,,,,53,,,,,,,,,,,,,,360.13599995231925,,response,,,99,,,,,,Space,keypress(Space),,,,,---- -- ----- -- ------ - ------- --- ----------<br>------------- ------ ------ ---- ---- ------- ----- -- ----<br>-------- ------- -- ---------- --- - --- ----- ----- ----<br>---- --- --- ----- --- ---- ---- ------- ----- ---- whether<br>--- --- -- ----- -- --- ---- -- --- ---- -- ------ ------<br>--- ----- -- ----,56897.09999990463,56896.299999952316,56519.494,56521.299999952316,56536.164,56902.936,,38,whether
screen,html.Screen,0_2_0_1_39,2021-11-26T13:29:00.956Z,,,,,,,,,,,,,,,,53,,,,,,,,,,,,,,321.36399995231477,,response,,,99,,,,,,Space,keypress(Space),,,,,---- -- ----- -- ------ - ------- --- ----------<br>------------- ------ ------ ---- ---- ------- ----- -- ----<br>-------- ------- -- ---------- --- - --- ----- ----- ----<br>---- --- --- ----- --- ---- ---- ------- ----- ---- -------<br>you --- -- ----- -- --- ---- -- --- ---- -- ------ ------<br>--- ----- -- ----,57225.09999990463,57224.299999952316,56886.266,56897.40000009537,56902.936,57236.472,,39,you
screen,html.Screen,0_2_0_1_40,2021-11-26T13:29:01.340Z,,,,,,,,,,,,,,,,53,,,,,,,,,,,,,,371.8279999523147,,response,,,99,,,,,,Space,keypress(Space),,,,,---- -- ----- -- ------ - ------- --- ----------<br>------------- ------ ------ ---- ---- ------- ----- -- ----<br>-------- ------- -- ---------- --- - --- ----- ----- ----<br>---- --- --- ----- --- ---- ---- ------- ----- ---- -------<br>--- are -- ----- -- --- ---- -- --- ---- -- ------ ------<br>--- ----- -- ----,57609.09999990463,57608.299999952316,57219.8,57225.40000009537,57236.472,57619.812,,40,are
screen,html.Screen,0_2_0_1_41,2021-11-26T13:29:01.796Z,,,,,,,,,,,,,,,,53,,,,,,,,,,,,,,444.4879999523182,,response,,,99,,,,,,Space,keypress(Space),,,,,---- -- ----- -- ------ - ------- --- ----------<br>------------- ------ ------ ---- ---- ------- ----- -- ----<br>-------- ------- -- ---------- --- - --- ----- ----- ----<br>---- --- --- ----- --- ---- ---- ------- ----- ---- -------<br>--- --- as ----- -- --- ---- -- --- ---- -- ------ ------<br>--- ----- -- ----,58065.09999990463,58064.299999952316,57603.142,57609.40000009537,57619.812,58069.919,,41,as
screen,html.Screen,0_2_0_1_42,2021-11-26T13:29:02.124Z,,,,,,,,,,,,,,,,53,,,,,,,,,,,,,,322.281000047682,,response,,,99,,,,,,Space,keypress(Space),,,,,---- -- ----- -- ------ - ------- --- ----------<br>------------- ------ ------ ---- ---- ------- ----- -- ----<br>-------- ------- -- ---------- --- - --- ----- ----- ----<br>---- --- --- ----- --- ---- ---- ------- ----- ---- -------<br>--- --- -- close -- --- ---- -- --- ---- -- ------ ------<br>--- ----- -- ----,58393,58392.200000047684,58053.249,58065.299999952316,58069.919,58403.31,,42,close
screen,html.Screen,0_2_0_1_43,2021-11-26T13:29:02.396Z,,,,,,,,,,,,,,,,53,,,,,,,,,,,,,,260.89000004768604,,response,,,99,,,,,,Space,keypress(Space),,,,,---- -- ----- -- ------ - ------- --- ----------<br>------------- ------ ------ ---- ---- ------- ----- -- ----<br>-------- ------- -- ---------- --- - --- ----- ----- ----<br>---- --- --- ----- --- ---- ---- ------- ----- ---- -------<br>--- --- -- ----- as --- ---- -- --- ---- -- ------ ------<br>--- ----- -- ----,58665,58664.200000047684,58386.64,58393.299999952316,58403.31,58670.108,,43,as
screen,html.Screen,0_2_0_1_44,2021-11-26T13:29:02.836Z,,,,,,,,,,,,,,,,53,,,,,,,,,,,,,,434.09200004768354,,response,,,99,,,,,,Space,keypress(Space),,,,,---- -- ----- -- ------ - ------- --- ----------<br>------------- ------ ------ ---- ---- ------- ----- -- ----<br>-------- ------- -- ---------- --- - --- ----- ----- ----<br>---- --- --- ----- --- ---- ---- ------- ----- ---- -------<br>--- --- -- ----- -- you ---- -- --- ---- -- ------ ------<br>--- ----- -- ----,59104.90000009537,59104.200000047684,58653.437,58665.200000047684,58670.108,59120.233,,44,you
screen,html.Screen,0_2_0_1_45,2021-11-26T13:29:03.228Z,,,,,,,,,,,,,,,,53,,,,,,,,,,,,,,375.8669999046324,,response,,,99,,,,,,Space,keypress(Space),,,,,---- -- ----- -- ------ - ------- --- ----------<br>------------- ------ ------ ---- ---- ------- ----- -- ----<br>-------- ------- -- ---------- --- - --- ----- ----- ----<br>---- --- --- ----- --- ---- ---- ------- ----- ---- -------<br>--- --- -- ----- -- --- want -- --- ---- -- ------ ------<br>--- ----- -- ----,59497,59496.09999990463,59103.562,59105.200000047684,59120.233,59503.544,,45,want
screen,html.Screen,0_2_0_1_46,2021-11-26T13:29:03.620Z,,,,,,,,,,,,,,,,53,,,,,,,,,,,,,,384.5559999046309,,response,,,99,,,,,,Space,keypress(Space),,,,,---- -- ----- -- ------ - ------- --- ----------<br>------------- ------ ------ ---- ---- ------- ----- -- ----<br>-------- ------- -- ---------- --- - --- ----- ----- ----<br>---- --- --- ----- --- ---- ---- ------- ----- ---- -------<br>--- --- -- ----- -- --- ---- to --- ---- -- ------ ------<br>--- ----- -- ----,59888.799999952316,59888.09999990463,59486.875,59497.09999990463,59503.544,59903.69,,46,to
screen,html.Screen,0_2_0_1_47,2021-11-26T13:29:03.985Z,,,,,,,,,,,,,,,,53,,,,,,,,,,,,,,344.40999990463024,,response,,,99,,,,,,Space,keypress(Space),,,,,"---- -- ----- -- ------ - ------- --- ----------<br>------------- ------ ------ ---- ---- ------- ----- -- ----<br>-------- ------- -- ---------- --- - --- ----- ----- ----<br>---- --- --- ----- --- ---- ---- ------- ----- ---- -------<br>--- --- -- ----- -- --- ---- -- be, ---- -- ------ ------<br>--- ----- -- ----",60248.799999952316,60248.09999990463,59887.02,59889.09999990463,59903.69,60253.772,,47,"be,"
screen,html.Screen,0_2_0_1_48,2021-11-26T13:29:04.393Z,,,,,,,,,,,,,,,,53,,,,,,,,,,,,,,402.32799990463536,,response,,,99,,,,,,Space,keypress(Space),,,,,---- -- ----- -- ------ - ------- --- ----------<br>------------- ------ ------ ---- ---- ------- ----- -- ----<br>-------- ------- -- ---------- --- - --- ----- ----- ----<br>---- --- --- ----- --- ---- ---- ------- ----- ---- -------<br>--- --- -- ----- -- --- ---- -- --- even -- ------ ------<br>--- ----- -- ----,60656.799999952316,60656.09999990463,60237.102,60249.09999990463,60253.772,60670.546,,48,even
screen,html.Screen,0_2_0_1_49,2021-11-26T13:29:04.737Z,,,,,,,,,,,,,,,,53,,,,,,,,,,,,,,329.5539999046305,,response,,,99,,,,,,Space,keypress(Space),,,,,---- -- ----- -- ------ - ------- --- ----------<br>------------- ------ ------ ---- ---- ------- ----- -- ----<br>-------- ------- -- ---------- --- - --- ----- ----- ----<br>---- --- --- ----- --- ---- ---- ------- ----- ---- -------<br>--- --- -- ----- -- --- ---- -- --- ---- if ------ ------<br>--- ----- -- ----,61000.799999952316,61000.09999990463,60653.876,60657.09999990463,60670.546,61003.976,,49,if
screen,html.Screen,0_2_0_1_50,2021-11-26T13:29:05.097Z,,,,,,,,,,,,,,,,53,,,,,,,,,,,,,,356.0239999999976,,response,,,99,,,,,,Space,keypress(Space),,,,,---- -- ----- -- ------ - ------- --- ----------<br>------------- ------ ------ ---- ---- ------- ----- -- ----<br>-------- ------- -- ---------- --- - --- ----- ----- ----<br>---- --- --- ----- --- ---- ---- ------- ----- ---- -------<br>--- --- -- ----- -- --- ---- -- --- ---- -- that's ------<br>--- ----- -- ----,61360.799999952316,61360,60987.306,61001.09999990463,61003.976,61370.725,,50,that's
screen,html.Screen,0_2_0_1_51,2021-11-26T13:29:05.473Z,,,,,,,,,,,,,,,,53,,,,,,,,,,,,,,365.27500000000146,,response,,,99,,,,,,Space,keypress(Space),,,,,---- -- ----- -- ------ - ------- --- ----------<br>------------- ------ ------ ---- ---- ------- ----- -- ----<br>-------- ------- -- ---------- --- - --- ----- ----- ----<br>---- --- --- ----- --- ---- ---- ------- ----- ---- -------<br>--- --- -- ----- -- --- ---- -- --- ---- -- ------ really<br>--- ----- -- ----,61736.799999952316,61736,61354.055,61361.09999990463,61370.725,61754.149,,51,really
screen,html.Screen,0_2_0_1_52,2021-11-26T13:29:05.857Z,,,,,,,,,,,,,,,,53,,,,,,,,,,,,,,365.8510000000024,,response,,,99,,,,,,Space,keypress(Space),,,,,---- -- ----- -- ------ - ------- --- ----------<br>------------- ------ ------ ---- ---- ------- ----- -- ----<br>-------- ------- -- ---------- --- - --- ----- ----- ----<br>---- --- --- ----- --- ---- ---- ------- ----- ---- -------<br>--- --- -- ----- -- --- ---- -- --- ---- -- ------ ------<br>not ----- -- ----,62120.799999952316,62120,61737.479,61737.09999990463,61754.149,62137.626,,52,not
screen,html.Screen,0_2_0_1_53,2021-11-26T13:29:06.305Z,,,,,,,,,,,,,,,,53,,,,,,,,,,,,,,430.6739999523197,,response,,,99,,,,,,Space,keypress(Space),,,,,---- -- ----- -- ------ - ------- --- ----------<br>------------- ------ ------ ---- ---- ------- ----- -- ----<br>-------- ------- -- ---------- --- - --- ----- ----- ----<br>---- --- --- ----- --- ---- ---- ------- ----- ---- -------<br>--- --- -- ----- -- --- ---- -- --- ---- -- ------ ------<br>--- close -- ----,62569.09999990463,62568.299999952316,62120.955,62121.09999990463,62137.626,62571.001,,53,close
screen,html.Screen,0_2_0_1_54,2021-11-26T13:29:06.689Z,,,,,,,,,,,,,,,,53,,,,,,,,,,,,,,380.89900009537087,,response,,,99,,,,,,Space,keypress(Space),,,,,---- -- ----- -- ------ - ------- --- ----------<br>------------- ------ ------ ---- ---- ------- ----- -- ----<br>-------- ------- -- ---------- --- - --- ----- ----- ----<br>---- --- --- ----- --- ---- ---- ------- ----- ---- -------<br>--- --- -- ----- -- --- ---- -- --- ---- -- ------ ------<br>--- ----- at ----,62952.700000047684,62951.90000009537,62554.331,62569.40000009537,62571.001,62954.43,,54,at
screen,html.Screen,0_2_0_1_55,2021-11-26T13:29:07.184Z,,,,,,,,,,,,,,,,53,,,,,,,,,,,,,,493.369999952316,,response,,,99,,,,,,Space,keypress(Space),,,,,---- -- ----- -- ------ - ------- --- ----------<br>------------- ------ ------ ---- ---- ------- ----- -- ----<br>-------- ------- -- ---------- --- - --- ----- ----- ----<br>---- --- --- ----- --- ---- ---- ------- ----- ---- -------<br>--- --- -- ----- -- --- ---- -- --- ---- -- ------ ------<br>--- ----- -- all.,63448.700000047684,63447.799999952316,62937.76,62953,62954.43,63454.614,,55,all.
Item 99,flow.Loop,0_2_0_1,2021-11-26T13:29:07.189Z,,,,,,,,,,,,,,,,,,,,,,,,,,,,,,22215.52999995232,,completion,,,,A,,,,,,,,,,silence,,63453,63447.799999952316,41215.601,41222.200000047684,41232.27,63454.614,,,
Question 1,html.Screen,0_2_0_2,2021-11-26T13:29:13.184Z,,,,,,,,,,,,,,,,,,,,,,,,,,,true,FALSE,,5992.685999952315,,response,,,99,A,,,,,FALSE,click #choice-2,,,,silence,,69448.70000004768,69447.29999995232,63437.943,63453.200000047684,63454.614,69456.373,,,
Question 2,html.Screen,0_2_0_3,2021-11-26T13:29:24.359Z,,,,,,,,,,,,,,,,,,,,,,,,,,,true,TRUE,,11166.126999999993,,response,,,99,A,,,,,TRUE,click #choice-1,,,,silence,,80623.70000004768,80622.5,69439.693,69449,69456.373,80625.445,,,
Item 99,flow.Sequence,0_2_0,2021-11-26T13:29:24.360Z,,,,,,,,,,,,,,,,,,,,,,,,,,,,,,49392.492,,completion,,,,,,,,,,,,,,,,80624.09999990463,80622.5,31213.338,31228.200000047684,31230.008,80625.445,,,
Holding screen,html.Screen,0_2_1_0,2021-11-26T13:29:34.348Z,,,,,,,,,,,,,,,,,,,,,,,,,,,,,,10002.301999999996,,timeout,,,,,,,,,,,,,,,,90612,90611.077,80608.774,80624.59999990463,80625.445,90627.747,,,
screen,html.Screen,0_2_1_1_0,2021-11-26T13:29:35.071Z,,,,,,,,,,,,,,,,54,,,,,,,,,,,,,,706.5529999523133,,response,,,100,,,,,,Space,keypress(Space),,,,,At --- ---- --- ------ ----- ------- ---- -- --- ------- --<br>------- ---------- ------ -- ----- -- ----- -- ---- ------<br>--- ----- --- --- ------ -------- ----- --- ------ ----- --<br>----- ----- ---------- --- --- ------ ------ ---- -- ------<br>------- --- ------ ----- --- ---- ------- -- ---- --- --<br>------- ------,91335.20000004768,91334.29999995232,90611.077,90612.40000009537,90627.747,91344.742,,0,At
screen,html.Screen,0_2_1_1_1,2021-11-26T13:29:35.447Z,,,,,,,,,,,,,,,,54,,,,,,,,,,,,,,365.15800009536906,,response,,,100,,,,,,Space,keypress(Space),,,,,-- the ---- --- ------ ----- ------- ---- -- --- ------- --<br>------- ---------- ------ -- ----- -- ----- -- ---- ------<br>--- ----- --- --- ------ -------- ----- --- ------ ----- --<br>----- ----- ---------- --- --- ------ ------ ---- -- ------<br>------- --- ------ ----- --- ---- ------- -- ---- --- --<br>------- ------,91710.70000004768,91709.90000009537,91328.071,91335.5,91344.742,91728.08,,1,the
screen,html.Screen,0_2_1_1_2,2021-11-26T13:29:35.767Z,,,,,,,,,,,,,,,,54,,,,,,,,,,,,,,301.8200000953657,,response,,,100,,,,,,Space,keypress(Space),,,,,-- --- time --- ------ ----- ------- ---- -- --- ------- --<br>------- ---------- ------ -- ----- -- ----- -- ---- ------<br>--- ----- --- --- ------ -------- ----- --- ------ ----- --<br>----- ----- ---------- --- --- ------ ------ ---- -- ------<br>------- --- ------ ----- --- ---- ------- -- ---- --- --<br>------- ------,92030.70000004768,92029.90000009537,91711.41,91710.90000009537,91728.08,92044.836,,2,time
screen,html.Screen,0_2_1_1_3,2021-11-26T13:29:36.134Z,,,,,,,,,,,,,,,,54,,,,,,,,,,,,,,353.06400009537174,,response,,,100,,,,,,Space,keypress(Space),,,,,-- --- ---- the ------ ----- ------- ---- -- --- ------- --<br>------- ---------- ------ -- ----- -- ----- -- ---- ------<br>--- ----- --- --- ------ -------- ----- --- ------ ----- --<br>----- ----- ---------- --- --- ------ ------ ---- -- ------<br>------- --- ------ ----- --- ---- ------- -- ---- --- --<br>------- ------,92398.70000004768,92397.90000009537,92028.166,92030.90000009537,92044.836,92411.636,,3,the
screen,html.Screen,0_2_1_1_4,2021-11-26T13:29:36.630Z,,,,,,,,,,,,,,,,54,,,,,,,,,,,,,,482.26400009536883,,response,,,100,,,,,,Space,keypress(Space),,,,,-- --- ---- --- French ----- ------- ---- -- --- ------- --<br>------- ---------- ------ -- ----- -- ----- -- ---- ------<br>--- ----- --- --- ------ -------- ----- --- ------ ----- --<br>----- ----- ---------- --- --- ------ ------ ---- -- ------<br>------- --- ------ ----- --- ---- ------- -- ---- --- --<br>------- ------,92894.59999990463,92893.90000009537,92394.965,92398.90000009537,92411.636,92911.699,,4,French
screen,html.Screen,0_2_1_1_5,2021-11-26T13:29:37.039Z,,,,,,,,,,,,,,,,54,,,,,,,,,,,,,,390.2010000953742,,response,,,100,,,,,,Space,keypress(Space),,,,,-- --- ---- --- ------ crown ------- ---- -- --- ------- --<br>------- ---------- ------ -- ----- -- ----- -- ---- ------<br>--- ----- --- --- ------ -------- ----- --- ------ ----- --<br>----- ----- ---------- --- --- ------ ------ ---- -- ------<br>------- --- ------ ----- --- ---- ------- -- ---- --- --<br>------- ------,93302.70000004768,93301.90000009537,92895.029,92894.90000009537,92911.699,93311.799,,5,crown
screen,html.Screen,0_2_1_1_6,2021-11-26T13:29:37.494Z,,,,,,,,,,,,,,,,54,,,,,,,,,,,,,,446.0009999523172,,response,,,100,,,,,,Space,keypress(Space),,,,,-- --- ---- --- ------ ----- secured ---- -- --- ------- --<br>------- ---------- ------ -- ----- -- ----- -- ---- ------<br>--- ----- --- --- ------ -------- ----- --- ------ ----- --<br>----- ----- ---------- --- --- ------ ------ ---- -- ------<br>------- --- ------ ----- --- ---- ------- -- ---- --- --<br>------- ------,93758.5,93757.79999995232,93295.129,93303,93311.799,93761.929,,6,secured
screen,html.Screen,0_2_1_1_7,2021-11-26T13:29:37.878Z,,,,,,,,,,,,,,,,54,,,,,,,,,,,,,,379.77100004768,,response,,,100,,,,,,Space,keypress(Space),,,,,-- --- ---- --- ------ ----- ------- much -- --- ------- --<br>------- ---------- ------ -- ----- -- ----- -- ---- ------<br>--- ----- --- --- ------ -------- ----- --- ------ ----- --<br>----- ----- ---------- --- --- ------ ------ ---- -- ------<br>------- --- ------ ----- --- ---- ------- -- ---- --- --<br>------- ------,94142.5,94141.70000004768,93745.259,93758.79999995232,93761.929,94145.337,,7,much
screen,html.Screen,0_2_1_1_8,2021-11-26T13:29:38.238Z,,,,,,,,,,,,,,,,54,,,,,,,,,,,,,,356.3630000476842,,response,,,100,,,,,,Space,keypress(Space),,,,,-- --- ---- --- ------ ----- ------- ---- of --- ------- --<br>------- ---------- ------ -- ----- -- ----- -- ---- ------<br>--- ----- --- --- ------ -------- ----- --- ------ ----- --<br>----- ----- ---------- --- --- ------ ------ ---- -- ------<br>------- --- ------ ----- --- ---- ------- -- ---- --- --<br>------- ------,94502.5,94501.70000004768,94128.667,94142.79999995232,94145.337,94512.116,,8,of
screen,html.Screen,0_2_1_1_9,2021-11-26T13:29:38.598Z,,,,,,,,,,,,,,,,54,,,,,,,,,,,,,,349.48399990463804,,response,,,100,,,,,,Space,keypress(Space),,,,,-- --- ---- --- ------ ----- ------- ---- -- its ------- --<br>------- ---------- ------ -- ----- -- ----- -- ---- ------<br>--- ----- --- --- ------ -------- ----- --- ------ ----- --<br>----- ----- ---------- --- --- ------ ------ ---- -- ------<br>------- --- ------ ----- --- ---- ------- -- ---- --- --<br>------- ------,94862.40000009537,94861.59999990463,94495.446,94502.70000004768,94512.116,94878.856,,9,its
screen,html.Screen,0_2_1_1_10,2021-11-26T13:29:38.990Z,,,,,,,,,,,,,,,,54,,,,,,,,,,,,,,374.7439999046328,,response,,,100,,,,,,Space,keypress(Space),,,,,-- --- ---- --- ------ ----- ------- ---- -- --- revenue --<br>------- ---------- ------ -- ----- -- ----- -- ---- ------<br>--- ----- --- --- ------ -------- ----- --- ------ ----- --<br>----- ----- ---------- --- --- ------ ------ ---- -- ------<br>------- --- ------ ----- --- ---- ------- -- ---- --- --<br>------- ------,95254.40000009537,95253.59999990463,94862.186,94862.70000004768,94878.856,95262.29,,10,revenue
screen,html.Screen,0_2_1_1_11,2021-11-26T13:29:39.454Z,,,,,,,,,,,,,,,,54,,,,,,,,,,,,,,455.30999990463897,,response,,,100,,,,,,Space,keypress(Space),,,,,-- --- ---- --- ------ ----- ------- ---- -- --- ------- by<br>------- ---------- ------ -- ----- -- ----- -- ---- ------<br>--- ----- --- --- ------ -------- ----- --- ------ ----- --<br>----- ----- ---------- --- --- ------ ------ ---- -- ------<br>------- --- ------ ----- --- ---- ------- -- ---- --- --<br>------- ------,95718.5,95717.59999990463,95245.62,95254.59999990463,95262.29,95729.064,,11,by
screen,html.Screen,0_2_1_1_12,2021-11-26T13:29:39.790Z,,,,,,,,,,,,,,,,54,,,,,,,,,,,,,,324.5359999046341,,response,,,100,,,,,,Space,keypress(Space),,,,,-- --- ---- --- ------ ----- ------- ---- -- --- ------- --<br>issuing ---------- ------ -- ----- -- ----- -- ---- ------<br>--- ----- --- --- ------ -------- ----- --- ------ ----- --<br>----- ----- ---------- --- --- ------ ------ ---- -- ------<br>------- --- ------ ----- --- ---- ------- -- ---- --- --<br>------- ------,96054.40000009537,96053.59999990463,95712.394,95718.79999995232,95729.064,96062.488,,12,issuing
screen,html.Screen,0_2_1_1_13,2021-11-26T13:29:40.326Z,,,,,,,,,,,,,,,,54,,,,,,,,,,,,,,527.111999904635,,response,,,100,,,,,,Space,keypress(Space),,,,,-- --- ---- --- ------ ----- ------- ---- -- --- ------- --<br>------- government ------ -- ----- -- ----- -- ---- ------<br>--- ----- --- --- ------ -------- ----- --- ------ ----- --<br>----- ----- ---------- --- --- ------ ------ ---- -- ------<br>------- --- ------ ----- --- ---- ------- -- ---- --- --<br>------- ------,96590.29999995232,96589.59999990463,96045.818,96054.59999990463,96062.488,96595.941,,13,government
screen,html.Screen,0_2_1_1_14,2021-11-26T13:29:40.694Z,,,,,,,,,,,,,,,,54,,,,,,,,,,,,,,361.6589999046264,,response,,,100,,,,,,Space,keypress(Space),,,,,-- --- ---- --- ------ ----- ------- ---- -- --- ------- --<br>------- ---------- bonds. -- ----- -- ----- -- ---- ------<br>--- ----- --- --- ------ -------- ----- --- ------ ----- --<br>----- ----- ---------- --- --- ------ ------ ---- -- ------<br>------- --- ------ ----- --- ---- ------- -- ---- --- --<br>------- ------,96958.29999995232,96957.59999990463,96579.271,96590.59999990463,96595.941,96962.701,,14,bonds.
screen,html.Screen,0_2_1_1_15,2021-11-26T13:29:41.142Z,,,,,,,,,,,,,,,,54,,,,,,,,,,,,,,442.79899999999907,,response,,,100,,,,,,Space,keypress(Space),,,,,-- --- ---- --- ------ ----- ------- ---- -- --- ------- --<br>------- ---------- ------ In ----- -- ----- -- ---- ------<br>--- ----- --- --- ------ -------- ----- --- ------ ----- --<br>----- ----- ---------- --- --- ------ ------ ---- -- ------<br>------- --- ------ ----- --- ---- ------- -- ---- --- --<br>------- ------,97406.29999995232,97405.5,96946.031,96958.59999990463,96962.701,97412.797,,15,In
screen,html.Screen,0_2_1_1_16,2021-11-26T13:29:41.518Z,,,,,,,,,,,,,,,,54,,,,,,,,,,,,,,368.70299999999406,,response,,,100,,,,,,Space,keypress(Space),,,,,"-- --- ---- --- ------ ----- ------- ---- -- --- ------- --<br>------- ---------- ------ -- 1727, -- ----- -- ---- ------<br>--- ----- --- --- ------ -------- ----- --- ------ ----- --<br>----- ----- ---------- --- --- ------ ------ ---- -- ------<br>------- --- ------ ----- --- ---- ------- -- ---- --- --<br>------- ------",97782.29999995232,97781.5,97396.127,97406.59999990463,97412.797,97796.141,,16,"1727,"
screen,html.Screen,0_2_1_1_17,2021-11-26T13:29:42.294Z,,,,,,,,,,,,,,,,54,,,,,,,,,,,,,,761.2590000953642,,response,,,100,,,,,,Space,keypress(Space),,,,,-- --- ---- --- ------ ----- ------- ---- -- --- ------- --<br>------- ---------- ------ -- ----- in ----- -- ---- ------<br>--- ----- --- --- ------ -------- ----- --- ------ ----- --<br>----- ----- ---------- --- --- ------ ------ ---- -- ------<br>------- --- ------ ----- --- ---- ------- -- ---- --- --<br>------- ------,98558.29999995232,98557.40000009537,97779.472,97782.59999990463,97796.141,98563.127,,17,in
screen,html.Screen,0_2_1_1_18,2021-11-26T13:29:42.782Z,,,,,,,,,,,,,,,,54,,,,,,,,,,,,,,482.2730000953743,,response,,,100,,,,,,Space,keypress(Space),,,,,-- --- ---- --- ------ ----- ------- ---- -- --- ------- --<br>------- ---------- ------ -- ----- -- order -- ---- ------<br>--- ----- --- --- ------ -------- ----- --- ------ ----- --<br>----- ----- ---------- --- --- ------ ------ ---- -- ------<br>------- --- ------ ----- --- ---- ------- -- ---- --- --<br>------- ------,99046.20000004768,99045.40000009537,98546.456,98558.40000009537,98563.127,99063.263,,18,order
screen,html.Screen,0_2_1_1_19,2021-11-26T13:29:43.110Z,,,,,,,,,,,,,,,,54,,,,,,,,,,,,,,310.13700009536115,,response,,,100,,,,,,Space,keypress(Space),,,,,-- --- ---- --- ------ ----- ------- ---- -- --- ------- --<br>------- ---------- ------ -- ----- -- ----- to ---- ------<br>--- ----- --- --- ------ -------- ----- --- ------ ----- --<br>----- ----- ---------- --- --- ------ ------ ---- -- ------<br>------- --- ------ ----- --- ---- ------- -- ---- --- --<br>------- ------,99374.20000004768,99373.40000009537,99046.592,99046.5,99063.263,99379.96,,19,to
screen,html.Screen,0_2_1_1_20,2021-11-26T13:29:43.494Z,,,,,,,,,,,,,,,,54,,,,,,,,,,,,,,377.44000009536103,,response,,,100,,,,,,Space,keypress(Space),,,,,-- --- ---- --- ------ ----- ------- ---- -- --- ------- --<br>------- ---------- ------ -- ----- -- ----- -- save ------<br>--- ----- --- --- ------ -------- ----- --- ------ ----- --<br>----- ----- ---------- --- --- ------ ------ ---- -- ------<br>------- --- ------ ----- --- ---- ------- -- ---- --- --<br>------- ------,99758.20000004768,99757.40000009537,99363.29,99374.40000009537,99379.96,99763.401,,20,save
screen,html.Screen,0_2_1_1_21,2021-11-26T13:29:43.838Z,,,,,,,,,,,,,,,,54,,,,,,,,,,,,,,337.89899995231826,,response,,,100,,,,,,Space,keypress(Space),,,,,"-- --- ---- --- ------ ----- ------- ---- -- --- ------- --<br>------- ---------- ------ -- ----- -- ----- -- ---- money,<br>--- ----- --- --- ------ -------- ----- --- ------ ----- --<br>----- ----- ---------- --- --- ------ ------ ---- -- ------<br>------- --- ------ ----- --- ---- ------- -- ---- --- --<br>------- ------",100102.20000004768,100101.29999995232,99746.731,99758.40000009537,99763.401,100113.425,,21,"money,"
screen,html.Screen,0_2_1_1_22,2021-11-26T13:29:44.382Z,,,,,,,,,,,,,,,,54,,,,,,,,,,,,,,531.8749999523134,,response,,,100,,,,,,Space,keypress(Space),,,,,-- --- ---- --- ------ ----- ------- ---- -- --- ------- --<br>------- ---------- ------ -- ----- -- ----- -- ---- ------<br>the ----- --- --- ------ -------- ----- --- ------ ----- --<br>----- ----- ---------- --- --- ------ ------ ---- -- ------<br>------- --- ------ ----- --- ---- ------- -- ---- --- --<br>------- ------,100646.09999990463,100645.29999995232,100096.756,100102.40000009537,100113.425,100663.591,,22,the
screen,html.Screen,0_2_1_1_23,2021-11-26T13:29:44.726Z,,,,,,,,,,,,,,,,54,,,,,,,,,,,,,,325.70899995231593,,response,,,100,,,,,,Space,keypress(Space),,,,,-- --- ---- --- ------ ----- ------- ---- -- --- ------- --<br>------- ---------- ------ -- ----- -- ----- -- ---- ------<br>--- state --- --- ------ -------- ----- --- ------ ----- --<br>----- ----- ---------- --- --- ------ ------ ---- -- ------<br>------- --- ------ ----- --- ---- ------- -- ---- --- --<br>------- ------,100990,100989.29999995232,100646.921,100646.29999995232,100663.591,100996.996,,23,state
screen,html.Screen,0_2_1_1_24,2021-11-26T13:29:45.646Z,,,,,,,,,,,,,,,,54,,,,,,,,,,,,,,912.6039999046334,,response,,,100,,,,,,Space,keypress(Space),,,,,-- --- ---- --- ------ ----- ------- ---- -- --- ------- --<br>------- ---------- ------ -- ----- -- ----- -- ---- ------<br>--- ----- cut --- ------ -------- ----- --- ------ ----- --<br>----- ----- ---------- --- --- ------ ------ ---- -- ------<br>------- --- ------ ----- --- ---- ------- -- ---- --- --<br>------- ------,101910.40000009537,101909.59999990463,100980.326,100990.29999995232,100996.996,101913.875,,24,cut
screen,html.Screen,0_2_1_1_25,2021-11-26T13:29:46.054Z,,,,,,,,,,,,,,,,54,,,,,,,,,,,,,,403.3250000476837,,response,,,100,,,,,,Space,keypress(Space),,,,,-- --- ---- --- ------ ----- ------- ---- -- --- ------- --<br>------- ---------- ------ -- ----- -- ----- -- ---- ------<br>--- ----- --- the ------ -------- ----- --- ------ ----- --<br>----- ----- ---------- --- --- ------ ------ ---- -- ------<br>------- --- ------ ----- --- ---- ------- -- ---- --- --<br>------- ------,102318,102317.20000004768,101897.205,101910.59999990463,101913.875,102330.683,,25,the
screen,html.Screen,0_2_1_1_26,2021-11-26T13:29:46.526Z,,,,,,,,,,,,,,,,54,,,,,,,,,,,,,,458.5170000476792,,response,,,100,,,,,,Space,keypress(Space),,,,,-- --- ---- --- ------ ----- ------- ---- -- --- ------- --<br>------- ---------- ------ -- ----- -- ----- -- ---- ------<br>--- ----- --- --- bonds' -------- ----- --- ------ ----- --<br>----- ----- ---------- --- --- ------ ------ ---- -- ------<br>------- --- ------ ----- --- ---- ------- -- ---- --- --<br>------- ------,102789.90000009537,102789.20000004768,102314.013,102318.20000004768,102330.683,102797.436,,26,bonds'
screen,html.Screen,0_2_1_1_27,2021-11-26T13:29:46.926Z,,,,,,,,,,,,,,,,54,,,,,,,,,,,,,,391.66399990463105,,response,,,100,,,,,,Space,keypress(Space),,,,,-- --- ---- --- ------ ----- ------- ---- -- --- ------- --<br>------- ---------- ------ -- ----- -- ----- -- ---- ------<br>--- ----- --- --- ------ interest ----- --- ------ ----- --<br>----- ----- ---------- --- --- ------ ------ ---- -- ------<br>------- --- ------ ----- --- ---- ------- -- ---- --- --<br>------- ------,103189.90000009537,103189.09999990463,102780.766,102790.20000004768,102797.436,103197.545,,27,interest
screen,html.Screen,0_2_1_1_28,2021-11-26T13:29:47.350Z,,,,,,,,,,,,,,,,54,,,,,,,,,,,,,,415.5549999046343,,response,,,100,,,,,,Space,keypress(Space),,,,,-- --- ---- --- ------ ----- ------- ---- -- --- ------- --<br>------- ---------- ------ -- ----- -- ----- -- ---- ------<br>--- ----- --- --- ------ -------- rate. --- ------ ----- --<br>----- ----- ---------- --- --- ------ ------ ---- -- ------<br>------- --- ------ ----- --- ---- ------- -- ---- --- --<br>------- ------,103613.90000009537,103613.09999990463,103180.875,103190.09999990463,103197.545,103630.987,,28,rate.
screen,html.Screen,0_2_1_1_29,2021-11-26T13:29:47.718Z,,,,,,,,,,,,,,,,54,,,,,,,,,,,,,,350.21300004769,,response,,,100,,,,,,Space,keypress(Space),,,,,-- --- ---- --- ------ ----- ------- ---- -- --- ------- --<br>------- ---------- ------ -- ----- -- ----- -- ---- ------<br>--- ----- --- --- ------ -------- ----- The ------ ----- --<br>----- ----- ---------- --- --- ------ ------ ---- -- ------<br>------- --- ------ ----- --- ---- ------- -- ---- --- --<br>------- ------,103981.90000009537,103981.20000004768,103614.317,103614.09999990463,103630.987,103997.759,,29,The
screen,html.Screen,0_2_1_1_30,2021-11-26T13:29:48.086Z,,,,,,,,,,,,,,,,54,,,,,,,,,,,,,,351.3409999046271,,response,,,100,,,,,,Space,keypress(Space),,,,,-- --- ---- --- ------ ----- ------- ---- -- --- ------- --<br>------- ---------- ------ -- ----- -- ----- -- ---- ------<br>--- ----- --- --- ------ -------- ----- --- market ----- --<br>----- ----- ---------- --- --- ------ ------ ---- -- ------<br>------- --- ------ ----- --- ---- ------- -- ---- --- --<br>------- ------,104349.79999995232,104349.09999990463,103981.089,103982.09999990463,103997.759,104364.484,,30,market
screen,html.Screen,0_2_1_1_31,2021-11-26T13:29:48.470Z,,,,,,,,,,,,,,,,54,,,,,,,,,,,,,,368.51600000000326,,response,,,100,,,,,,Space,keypress(Space),,,,,-- --- ---- --- ------ ----- ------- ---- -- --- ------- --<br>------- ---------- ------ -- ----- -- ----- -- ---- ------<br>--- ----- --- --- ------ -------- ----- --- ------ value --<br>----- ----- ---------- --- --- ------ ------ ---- -- ------<br>------- --- ------ ----- --- ---- ------- -- ---- --- --<br>------- ------,104733.79999995232,104733,104347.814,104350,104364.484,104747.922,,31,value
screen,html.Screen,0_2_1_1_32,2021-11-26T13:29:48.862Z,,,,,,,,,,,,,,,,54,,,,,,,,,,,,,,377.07799999999406,,response,,,100,,,,,,Space,keypress(Space),,,,,-- --- ---- --- ------ ----- ------- ---- -- --- ------- --<br>------- ---------- ------ -- ----- -- ----- -- ---- ------<br>--- ----- --- --- ------ -------- ----- --- ------ ----- of<br>----- ----- ---------- --- --- ------ ------ ---- -- ------<br>------- --- ------ ----- --- ---- ------- -- ---- --- --<br>------- ------,105125.79999995232,105125,104731.252,104734,104747.922,105131.36,,32,of
screen,html.Screen,0_2_1_1_33,2021-11-26T13:29:49.278Z,,,,,,,,,,,,,,,,54,,,,,,,,,,,,,,409.6399999999994,,response,,,100,,,,,,Space,keypress(Space),,,,,-- --- ---- --- ------ ----- ------- ---- -- --- ------- --<br>------- ---------- ------ -- ----- -- ----- -- ---- ------<br>--- ----- --- --- ------ -------- ----- --- ------ ----- --<br>these ----- ---------- --- --- ------ ------ ---- -- ------<br>------- --- ------ ----- --- ---- ------- -- ---- --- --<br>------- ------,105541.70000004768,105541,105114.69,105126,105131.36,105548.132,,33,these
screen,html.Screen,0_2_1_1_34,2021-11-26T13:29:49.718Z,,,,,,,,,,,,,,,,54,,,,,,,,,,,,,,432.8680000000022,,response,,,100,,,,,,Space,keypress(Space),,,,,-- --- ---- --- ------ ----- ------- ---- -- --- ------- --<br>------- ---------- ------ -- ----- -- ----- -- ---- ------<br>--- ----- --- --- ------ -------- ----- --- ------ ----- --<br>----- bonds ---------- --- --- ------ ------ ---- -- ------<br>------- --- ------ ----- --- ---- ------- -- ---- --- --<br>------- ------,105981.70000004768,105981,105531.462,105542,105548.132,105998.219,,34,bonds
screen,html.Screen,0_2_1_1_35,2021-11-26T13:29:50.165Z,,,,,,,,,,,,,,,,54,,,,,,,,,,,,,,430.6810000953701,,response,,,100,,,,,,Space,keypress(Space),,,,,"-- --- ---- --- ------ ----- ------- ---- -- --- ------- --<br>------- ---------- ------ -- ----- -- ----- -- ---- ------<br>--- ----- --- --- ------ -------- ----- --- ------ ----- --<br>----- ----- plummeted, --- --- ------ ------ ---- -- ------<br>------- --- ------ ----- --- ---- ------- -- ---- --- --<br>------- ------",106429.70000004768,106428.90000009537,105981.549,105982,105998.219,106431.652,,35,"plummeted,"
screen,html.Screen,0_2_1_1_36,2021-11-26T13:29:50.597Z,,,,,,,,,,,,,,,,54,,,,,,,,,,,,,,429.24800009536557,,response,,,100,,,,,,Space,keypress(Space),,,,,-- --- ---- --- ------ ----- ------- ---- -- --- ------- --<br>------- ---------- ------ -- ----- -- ----- -- ---- ------<br>--- ----- --- --- ------ -------- ----- --- ------ ----- --<br>----- ----- ---------- and --- ------ ------ ---- -- ------<br>------- --- ------ ----- --- ---- ------- -- ---- --- --<br>------- ------,106861.59999990463,106860.90000009537,106414.982,106429.90000009537,106431.652,106865.066,,36,and
screen,html.Screen,0_2_1_1_37,2021-11-26T13:29:50.957Z,,,,,,,,,,,,,,,,54,,,,,,,,,,,,,,355.83400009536126,,response,,,100,,,,,,Space,keypress(Space),,,,,-- --- ---- --- ------ ----- ------- ---- -- --- ------- --<br>------- ---------- ------ -- ----- -- ----- -- ---- ------<br>--- ----- --- --- ------ -------- ----- --- ------ ----- --<br>----- ----- ---------- --- the ------ ------ ---- -- ------<br>------- --- ------ ----- --- ---- ------- -- ---- --- --<br>------- ------,107221.59999990463,107220.90000009537,106848.396,106861.90000009537,106865.066,107231.889,,37,the
screen,html.Screen,0_2_1_1_38,2021-11-26T13:29:51.477Z,,,,,,,,,,,,,,,,54,,,,,,,,,,,,,,509.01100009537186,,response,,,100,,,,,,Space,keypress(Space),,,,,-- --- ---- --- ------ ----- ------- ---- -- --- ------- --<br>------- ---------- ------ -- ----- -- ----- -- ---- ------<br>--- ----- --- --- ------ -------- ----- --- ------ ----- --<br>----- ----- ---------- --- --- market ------ ---- -- ------<br>------- --- ------ ----- --- ---- ------- -- ---- --- --<br>------- ------,107741.59999990463,107740.90000009537,107215.218,107221.90000009537,107231.889,107748.653,,38,market
screen,html.Screen,0_2_1_1_39,2021-11-26T13:29:51.813Z,,,,,,,,,,,,,,,,54,,,,,,,,,,,,,,328.1469999523106,,response,,,100,,,,,,Space,keypress(Space),,,,,-- --- ---- --- ------ ----- ------- ---- -- --- ------- --<br>------- ---------- ------ -- ----- -- ----- -- ---- ------<br>--- ----- --- --- ------ -------- ----- --- ------ ----- --<br>----- ----- ---------- --- --- ------ became ---- -- ------<br>------- --- ------ ----- --- ---- ------- -- ---- --- --<br>------- ------,108077.5,108076.79999995232,107731.983,107741.90000009537,107748.653,108082.056,,39,became
screen,html.Screen,0_2_1_1_40,2021-11-26T13:29:52.301Z,,,,,,,,,,,,,,,,54,,,,,,,,,,,,,,482.64400004768686,,response,,,100,,,,,,Space,keypress(Space),,,,,-- --- ---- --- ------ ----- ------- ---- -- --- ------- --<br>------- ---------- ------ -- ----- -- ----- -- ---- ------<br>--- ----- --- --- ------ -------- ----- --- ------ ----- --<br>----- ----- ---------- --- --- ------ ------ wary -- ------<br>------- --- ------ ----- --- ---- ------- -- ---- --- --<br>------- ------,108565.5,108564.70000004768,108065.386,108077.79999995232,108082.056,108582.09,,40,wary
screen,html.Screen,0_2_1_1_41,2021-11-26T13:29:52.701Z,,,,,,,,,,,,,,,,54,,,,,,,,,,,,,,382.7099999523198,,response,,,100,,,,,,Space,keypress(Space),,,,,-- --- ---- --- ------ ----- ------- ---- -- --- ------- --<br>------- ---------- ------ -- ----- -- ----- -- ---- ------<br>--- ----- --- --- ------ -------- ----- --- ------ ----- --<br>----- ----- ---------- --- --- ------ ------ ---- of ------<br>------- --- ------ ----- --- ---- ------- -- ---- --- --<br>------- ------,108965.59999990463,108964.79999995232,108565.421,108565.79999995232,108582.09,108982.389,,41,of
screen,html.Screen,0_2_1_1_42,2021-11-26T13:29:53.165Z,,,,,,,,,,,,,,,,54,,,,,,,,,,,,,,446.31100004768814,,response,,,100,,,,,,Space,keypress(Space),,,,,-- --- ---- --- ------ ----- ------- ---- -- --- ------- --<br>------- ---------- ------ -- ----- -- ----- -- ---- ------<br>--- ----- --- --- ------ -------- ----- --- ------ ----- --<br>----- ----- ---------- --- --- ------ ------ ---- -- French<br>------- --- ------ ----- --- ---- ------- -- ---- --- --<br>------- ------,109429.40000009537,109428.70000004768,108965.717,108966.90000009537,108982.389,109432.38,,42,French
screen,html.Screen,0_2_1_1_43,2021-11-26T13:29:53.613Z,,,,,,,,,,,,,,,,54,,,,,,,,,,,,,,444.32000004767906,,response,,,100,,,,,,Space,keypress(Space),,,,,-- --- ---- --- ------ ----- ------- ---- -- --- ------- --<br>------- ---------- ------ -- ----- -- ----- -- ---- ------<br>--- ----- --- --- ------ -------- ----- --- ------ ----- --<br>----- ----- ---------- --- --- ------ ------ ---- -- ------<br>credit. --- ------ ----- --- ---- ------- -- ---- --- --<br>------- ------,109877.40000009537,109876.70000004768,109415.71,109429.70000004768,109432.38,109882.48,,43,credit.
screen,html.Screen,0_2_1_1_44,2021-11-26T13:29:54.101Z,,,,,,,,,,,,,,,,54,,,,,,,,,,,,,,482.2200000476878,,response,,,100,,,,,,Space,keypress(Space),,,,,-- --- ---- --- ------ ----- ------- ---- -- --- ------- --<br>------- ---------- ------ -- ----- -- ----- -- ---- ------<br>--- ----- --- --- ------ -------- ----- --- ------ ----- --<br>----- ----- ---------- --- --- ------ ------ ---- -- ------<br>------- The ------ ----- --- ---- ------- -- ---- --- --<br>------- ------,110365.40000009537,110364.70000004768,109865.81,109877.70000004768,109882.48,110382.673,,44,The
screen,html.Screen,0_2_1_1_45,2021-11-26T13:29:54.701Z,,,,,,,,,,,,,,,,54,,,,,,,,,,,,,,581.9269999046373,,response,,,100,,,,,,Space,keypress(Space),,,,,-- --- ---- --- ------ ----- ------- ---- -- --- ------- --<br>------- ---------- ------ -- ----- -- ----- -- ---- ------<br>--- ----- --- --- ------ -------- ----- --- ------ ----- --<br>----- ----- ---------- --- --- ------ ------ ---- -- ------<br>------- --- French ----- --- ---- ------- -- ---- --- --<br>------- ------,110965.40000009537,110964.59999990463,110366.002,110365.59999990463,110382.673,110982.69,,45,French
screen,html.Screen,0_2_1_1_46,2021-11-26T13:29:55.317Z,,,,,,,,,,,,,,,,54,,,,,,,,,,,,,,597.9099999046302,,response,,,100,,,,,,Space,keypress(Space),,,,,-- --- ---- --- ------ ----- ------- ---- -- --- ------- --<br>------- ---------- ------ -- ----- -- ----- -- ---- ------<br>--- ----- --- --- ------ -------- ----- --- ------ ----- --<br>----- ----- ---------- --- --- ------ ------ ---- -- ------<br>------- --- ------ state --- ---- ------- -- ---- --- --<br>------- ------,111581.29999995232,111580.59999990463,110966.021,110965.59999990463,110982.69,111582.968,,46,state
screen,html.Screen,0_2_1_1_47,2021-11-26T13:29:55.757Z,,,,,,,,,,,,,,,,54,,,,,,,,,,,,,,437.8319999523228,,response,,,100,,,,,,Space,keypress(Space),,,,,-- --- ---- --- ------ ----- ------- ---- -- --- ------- --<br>------- ---------- ------ -- ----- -- ----- -- ---- ------<br>--- ----- --- --- ------ -------- ----- --- ------ ----- --<br>----- ----- ---------- --- --- ------ ------ ---- -- ------<br>------- --- ------ ----- was ---- ------- -- ---- --- --<br>------- ------,112021.59999990463,112020.79999995232,111566.297,111581.5,111582.968,112033.01,,47,was
screen,html.Screen,0_2_1_1_48,2021-11-26T13:29:56.325Z,,,,,,,,,,,,,,,,54,,,,,,,,,,,,,,555.4900000000052,,response,,,100,,,,,,Space,keypress(Space),,,,,-- --- ---- --- ------ ----- ------- ---- -- --- ------- --<br>------- ---------- ------ -- ----- -- ----- -- ---- ------<br>--- ----- --- --- ------ -------- ----- --- ------ ----- --<br>----- ----- ---------- --- --- ------ ------ ---- -- ------<br>------- --- ------ ----- --- left ------- -- ---- --- --<br>------- ------,112589.20000004768,112588.5,112016.34,112021.79999995232,112033.01,112599.819,,48,left
screen,html.Screen,0_2_1_1_49,2021-11-26T13:29:56.805Z,,,,,,,,,,,,,,,,54,,,,,,,,,,,,,,468.5810000953643,,response,,,100,,,,,,Space,keypress(Space),,,,,-- --- ---- --- ------ ----- ------- ---- -- --- ------- --<br>------- ---------- ------ -- ----- -- ----- -- ---- ------<br>--- ----- --- --- ------ -------- ----- --- ------ ----- --<br>----- ----- ---------- --- --- ------ ------ ---- -- ------<br>------- --- ------ ----- --- ---- without -- ---- --- --<br>------- ------,113069.20000004768,113068.40000009537,112583.149,112589.40000009537,112599.819,113083.334,,49,without
screen,html.Screen,0_2_1_1_50,2021-11-26T13:29:57.197Z,,,,,,,,,,,,,,,,54,,,,,,,,,,,,,,377.06600009536487,,response,,,100,,,,,,Space,keypress(Space),,,,,-- --- ---- --- ------ ----- ------- ---- -- --- ------- --<br>------- ---------- ------ -- ----- -- ----- -- ---- ------<br>--- ----- --- --- ------ -------- ----- --- ------ ----- --<br>----- ----- ---------- --- --- ------ ------ ---- -- ------<br>------- --- ------ ----- --- ---- ------- an ---- --- --<br>------- ------,113461.09999990463,113460.40000009537,113066.663,113069.5,113083.334,113466.705,,50,an
screen,html.Screen,0_2_1_1_51,2021-11-26T13:29:57.565Z,,,,,,,,,,,,,,,,54,,,,,,,,,,,,,,361.6950000953657,,response,,,100,,,,,,Space,keypress(Space),,,,,-- --- ---- --- ------ ----- ------- ---- -- --- ------- --<br>------- ---------- ------ -- ----- -- ----- -- ---- ------<br>--- ----- --- --- ------ -------- ----- --- ------ ----- --<br>----- ----- ---------- --- --- ------ ------ ---- -- ------<br>------- --- ------ ----- --- ---- ------- -- easy --- --<br>------- ------,113829.20000004768,113828.40000009537,113450.035,113461.40000009537,113466.705,113833.441,,51,easy
screen,html.Screen,0_2_1_1_52,2021-11-26T13:29:58.173Z,,,,,,,,,,,,,,,,54,,,,,,,,,,,,,,602.9590000953613,,response,,,100,,,,,,Space,keypress(Space),,,,,-- --- ---- --- ------ ----- ------- ---- -- --- ------- --<br>------- ---------- ------ -- ----- -- ----- -- ---- ------<br>--- ----- --- --- ------ -------- ----- --- ------ ----- --<br>----- ----- ---------- --- --- ------ ------ ---- -- ------<br>------- --- ------ ----- --- ---- ------- -- ---- way --<br>------- ------,114437.20000004768,114436.40000009537,113816.771,113829.40000009537,113833.441,114450.274,,52,way
screen,html.Screen,0_2_1_1_53,2021-11-26T13:29:58.605Z,,,,,,,,,,,,,,,,54,,,,,,,,,,,,,,418.0259999523114,,response,,,100,,,,,,Space,keypress(Space),,,,,-- --- ---- --- ------ ----- ------- ---- -- --- ------- --<br>------- ---------- ------ -- ----- -- ----- -- ---- ------<br>--- ----- --- --- ------ -------- ----- --- ------ ----- --<br>----- ----- ---------- --- --- ------ ------ ---- -- ------<br>------- --- ------ ----- --- ---- ------- -- ---- --- of<br>------- ------,114869.09999990463,114868.29999995232,114433.604,114437.40000009537,114450.274,114883.623,,53,of
screen,html.Screen,0_2_1_1_54,2021-11-26T13:29:59.053Z,,,,,,,,,,,,,,,,54,,,,,,,,,,,,,,432.57700004767685,,response,,,100,,,,,,Space,keypress(Space),,,,,-- --- ---- --- ------ ----- ------- ---- -- --- ------- --<br>------- ---------- ------ -- ----- -- ----- -- ---- ------<br>--- ----- --- --- ------ -------- ----- --- ------ ----- --<br>----- ----- ---------- --- --- ------ ------ ---- -- ------<br>------- --- ------ ----- --- ---- ------- -- ---- --- --<br>raising ------,115316.90000009537,115316.20000004768,114866.954,114869.40000009537,114883.623,115333.863,,54,raising
screen,html.Screen,0_2_1_1_55,2021-11-26T13:29:59.461Z,,,,,,,,,,,,,,,,54,,,,,,,,,,,,,,390.43699995231873,,response,,,100,,,,,,Space,keypress(Space),,,,,-- --- ---- --- ------ ----- ------- ---- -- --- ------- --<br>------- ---------- ------ -- ----- -- ----- -- ---- ------<br>--- ----- --- --- ------ -------- ----- --- ------ ----- --<br>----- ----- ---------- --- --- ------ ------ ---- -- ------<br>------- --- ------ ----- --- ---- ------- -- ---- --- --<br>------- money.,115725,115724.29999995232,115317.192,115317.20000004768,115333.863,115733.922,,55,money.
Item 100,flow.Loop,0_2_1_1,2021-11-26T13:29:59.461Z,,,,,,,,,,,,,,,,,,,,,,,,,,,,,,25096.552999952313,,completion,,,,A,,,,,,,,,,silence,,115725.40000009537,115724.29999995232,90611.077,90612.29999995232,90627.747,115733.922,,,
Question 1,html.Screen,0_2_1_2,2021-11-26T13:30:02.653Z,,,,,,,,,,,,,,,,,,,,,,,,,,,true,TRUE,,3181.778000047678,,response,,,100,A,,,,,TRUE,click #choice-1,,,,silence,,118917,118915.70000004768,115717.252,115725.59999990463,115733.922,118934.718,,,
Question 2,html.Screen,0_2_1_3,2021-11-26T13:30:06.728Z,,,,,,,,,,,,,,,,,,,,,,,,,,,true,FALSE,,4052.7820000000065,,response,,,100,A,,,,,FALSE,click #choice-2,,,,silence,,122988.70000004768,122987.5,118918.048,118917.29999995232,118934.718,123002.372,,,
Item 100,flow.Sequence,0_2_1,2021-11-26T13:30:06.729Z,,,,,,,,,,,,,,,,,,,,,,,,,,,,,,42362.05499999999,,completion,,,,,,,,,,,,,,,,122989,122987.5,80608.774,80624.5,80625.445,123002.372,,,
End of Practice,html.Page,0_2_2,2021-11-26T13:30:11.249Z,,,,,,,,,,,,,,,,,,,,,,,,,,,,,,4506.427999952313,,form submission,,,,,,,,,,,,,,,,127509.5,127508.79999995232,122985.702,122989.20000004768,123002.372,127519.476,,,
Practice,flow.Sequence,0_2,2021-11-26T13:30:11.249Z,,,,,,,,,,,,,,,,,,,,,,,,,,,,,,96278.79199995231,,completion,,,,,,,,,,,,,,,,127509.90000009537,127508.79999995232,31213.338,31228.099999904633,31230.008,127519.476,,,
Trap_instruction,html.Page,0_3_0,2021-11-26T13:30:18.641Z,,,,,,,,,,,,,,,,,,,,,,,,,,,,,,7380.924000095372,,form submission,,,,,,,,,,,,,,,,134901.09999990463,134900.40000009537,127502.808,127510.20000004768,127519.476,134938.519,,,
trap_trial,html.Screen,0_3_1,2021-11-26T13:30:21.687Z,,,,,,,,,,,,,,,,,,,,,,,,,,,true,1,,3007.9809999999998,,response,,,,,,,,,1,click #choice-1,,,,,,137947.90000009537,137946.5,134888.509,134901.29999995232,134938.519,137956.538,,,
end of trap trial,html.Page,0_3_2,2021-11-26T13:30:25.624Z,,,,,,,,,,,,,,,,,,,,,,,,,,,,,,3927.561999904632,,form submission,,,,,,,,,,,,,,,,141884.59999990463,141884.09999990463,137939.864,137948.09999990463,137956.538,141890.241,,,
Trap 1,flow.Sequence,0_3,2021-11-26T13:30:25.624Z,,,,,,,,,,,,,,,,,,,,,,,,,,,,,,14364.623999904637,,completion,,,,,,,,,,,,,,,,141885,141884.09999990463,127502.808,127510.20000004768,127519.476,141890.241,,,
Standby,html.Page,0_4_0,2021-11-26T13:30:33.618Z,,,,,,,,,,,,,,,,,,,,,,,,,,,,,,8004.127999999997,,timeout,,,,,,,,,,,,,,,,149878.90000009537,149877.694,141873.571,141885.20000004768,141890.241,149894.369,,,
Holding screen,html.Screen,0_4_1_0_0,2021-11-26T13:30:40.618Z,,,,,,,,,,,,,,,,,,,,,,,,,,,,,,6999.524999999994,,timeout,,,,,,,,,,,,,,,,156878.70000004768,156877.224,149877.694,149879.20000004768,149894.369,156893.894,,,
screen,html.Screen,0_4_1_0_1_0,2021-11-26T13:30:41.782Z,,,,,,,,,,,,,,,,11,,,,,,,,,,,,,,1147.8060000476835,,response,,,4,A,,,,,Space,keypress(Space),,,,silence,Known -- ---- --- -- --- -------- ------------ ---------- --<br>- ------- ------ --------- -- ------------ -- --- ---- -----<br>------ ---- ---- ------ ------ ------- --- ----- ---------<br>---- --- -------- -------- --- --- -- ------- --- --- -----<br>-- --- ------ ------- --- --- -------- ---- --------- --<br>---------- -- -------- ----------------,158042.79999995232,158041.70000004768,156877.224,156879.09999990463,156893.894,158044.164,,0,Known
screen,html.Screen,0_4_1_0_1_1,2021-11-26T13:30:42.150Z,,,,,,,,,,,,,,,,11,,,,,,,,,,,,,,365.2360000953777,,response,,,4,A,,,,,Space,keypress(Space),,,,silence,----- as ---- --- -- --- -------- ------------ ---------- --<br>- ------- ------ --------- -- ------------ -- --- ---- -----<br>------ ---- ---- ------ ------ ------- --- ----- ---------<br>---- --- -------- -------- --- --- -- ------- --- --- -----<br>-- --- ------ ------- --- --- -------- ---- --------- --<br>---------- -- -------- ----------------,158410.09999990463,158409.40000009537,158027.494,158043.09999990463,158044.164,158427.561,,1,as
screen,html.Screen,0_4_1_0_1_2,2021-11-26T13:30:42.542Z,,,,,,,,,,,,,,,,11,,,,,,,,,,,,,,373.7389999523293,,response,,,4,A,,,,,Space,keypress(Space),,,,silence,----- -- Rapa --- -- --- -------- ------------ ---------- --<br>- ------- ------ --------- -- ------------ -- --- ---- -----<br>------ ---- ---- ------ ------ ------- --- ----- ---------<br>---- --- -------- -------- --- --- -- ------- --- --- -----<br>-- --- ------ ------- --- --- -------- ---- --------- --<br>---------- -- -------- ----------------,158802.09999990463,158801.29999995232,158410.891,158410.5,158427.561,158811.008,,2,Rapa
screen,html.Screen,0_4_1_0_1_3,2021-11-26T13:30:43.006Z,,,,,,,,,,,,,,,,11,,,,,,,,,,,,,,454.1920000476821,,response,,,4,A,,,,,Space,keypress(Space),,,,silence,----- -- ---- Nui -- --- -------- ------------ ---------- --<br>- ------- ------ --------- -- ------------ -- --- ---- -----<br>------ ---- ---- ------ ------ ------- --- ----- ---------<br>---- --- -------- -------- --- --- -- ------- --- --- -----<br>-- --- ------ ------- --- --- -------- ---- --------- --<br>---------- -- -------- ----------------,159266,159265.20000004768,158794.338,158802.40000009537,158811.008,159277.935,,3,Nui
screen,html.Screen,0_4_1_0_1_4,2021-11-26T13:30:43.374Z,,,,,,,,,,,,,,,,11,,,,,,,,,,,,,,355.26500004768604,,response,,,4,A,,,,,Space,keypress(Space),,,,silence,----- -- ---- --- to --- -------- ------------ ---------- --<br>- ------- ------ --------- -- ------------ -- --- ---- -----<br>------ ---- ---- ------ ------ ------- --- ----- ---------<br>---- --- -------- -------- --- --- -- ------- --- --- -----<br>-- --- ------ ------- --- --- -------- ---- --------- --<br>---------- -- -------- ----------------,159634,159633.20000004768,159261.263,159266.29999995232,159277.935,159644.594,,4,to
screen,html.Screen,0_4_1_0_1_5,2021-11-26T13:30:43.758Z,,,,,,,,,,,,,,,,11,,,,,,,,,,,,,,372.60600004767184,,response,,,4,A,,,,,Space,keypress(Space),,,,silence,----- -- ---- --- -- the -------- ------------ ---------- --<br>- ------- ------ --------- -- ------------ -- --- ---- -----<br>------ ---- ---- ------ ------ ------- --- ----- ---------<br>---- --- -------- -------- --- --- -- ------- --- --- -----<br>-- --- ------ ------- --- --- -------- ---- --------- --<br>---------- -- -------- ----------------,160018.09999990463,160017.20000004768,159627.924,159634.40000009537,159644.594,160028.021,,5,the
screen,html.Screen,0_4_1_0_1_6,2021-11-26T13:30:44.133Z,,,,,,,,,,,,,,,,11,,,,,,,,,,,,,,365.07899990462465,,response,,,4,A,,,,,Space,keypress(Space),,,,silence,----- -- ---- --- -- --- island's ------------ ---------- --<br>- ------- ------ --------- -- ------------ -- --- ---- -----<br>------ ---- ---- ------ ------ ------- --- ----- ---------<br>---- --- -------- -------- --- --- -- ------- --- --- -----<br>-- --- ------ ------- --- --- -------- ---- --------- --<br>---------- -- -------- ----------------,160393.90000009537,160393.09999990463,160011.351,160018.40000009537,160028.021,160394.635,,6,island's
screen,html.Screen,0_4_1_0_1_7,2021-11-26T13:30:44.909Z,,,,,,,,,,,,,,,,11,,,,,,,,,,,,,,774.5650000476744,,response,,,4,A,,,,,Space,keypress(Space),,,,silence,"----- -- ---- --- -- --- -------- inhabitants, ---------- --<br>- ------- ------ --------- -- ------------ -- --- ---- -----<br>------ ---- ---- ------ ------ ------- --- ----- ---------<br>---- --- -------- -------- --- --- -- ------- --- --- -----<br>-- --- ------ ------- --- --- -------- ---- --------- --<br>---------- -- -------- ----------------",161169.90000009537,161169.20000004768,160377.967,160394.20000004768,160394.635,161178.41,,7,"inhabitants,"
screen,html.Screen,0_4_1_0_1_8,2021-11-26T13:30:45.509Z,,,,,,,,,,,,,,,,11,,,,,,,,,,,,,,590.6899999046291,,response,,,4,A,,,,,Space,keypress(Space),,,,silence,----- -- ---- --- -- --- -------- ------------ Rongorongo --<br>- ------- ------ --------- -- ------------ -- --- ---- -----<br>------ ---- ---- ------ ------ ------- --- ----- ---------<br>---- --- -------- -------- --- --- -- ------- --- --- -----<br>-- --- ------ ------- --- --- -------- ---- --------- --<br>---------- -- -------- ----------------,161769.90000009537,161769.09999990463,161161.738,161170.09999990463,161178.41,161778.239,,8,Rongorongo
screen,html.Screen,0_4_1_0_1_9,2021-11-26T13:30:46.013Z,,,,,,,,,,,,,,,,11,,,,,,,,,,,,,,494.7609999999986,,response,,,4,A,,,,,Space,keypress(Space),,,,silence,----- -- ---- --- -- --- -------- ------------ ---------- is<br>- ------- ------ --------- -- ------------ -- --- ---- -----<br>------ ---- ---- ------ ------ ------- --- ----- ---------<br>---- --- -------- -------- --- --- -- ------- --- --- -----<br>-- --- ------ ------- --- --- -------- ---- --------- --<br>---------- -- -------- ----------------,162273.79999995232,162273,161761.571,161770,161778.239,162278.592,,9,is
screen,html.Screen,0_4_1_0_1_10,2021-11-26T13:30:46.381Z,,,,,,,,,,,,,,,,11,,,,,,,,,,,,,,362.4079999999958,,response,,,4,A,,,,,Space,keypress(Space),,,,silence,----- -- ---- --- -- --- -------- ------------ ---------- --<br>a ------- ------ --------- -- ------------ -- --- ---- -----<br>------ ---- ---- ------ ------ ------- --- ----- ---------<br>---- --- -------- -------- --- --- -- ------- --- --- -----<br>-- --- ------ ------- --- --- -------- ---- --------- --<br>---------- -- -------- ----------------,162641.79999995232,162641,162261.921,162274,162278.592,162645.307,,10,a
screen,html.Screen,0_4_1_0_1_11,2021-11-26T13:30:46.741Z,,,,,,,,,,,,,,,,11,,,,,,,,,,,,,,355.6929999999993,,response,,,4,A,,,,,Space,keypress(Space),,,,silence,----- -- ---- --- -- --- -------- ------------ ---------- --<br>- writing ------ --------- -- ------------ -- --- ---- -----<br>------ ---- ---- ------ ------ ------- --- ----- ---------<br>---- --- -------- -------- --- --- -- ------- --- --- -----<br>-- --- ------ ------- --- --- -------- ---- --------- --<br>---------- -- -------- ----------------,163001.79999995232,163001,162628.637,162642,162645.307,163012.13,,11,writing
screen,html.Screen,0_4_1_0_1_12,2021-11-26T13:30:47.117Z,,,,,,,,,,,,,,,,11,,,,,,,,,,,,,,364.86999999999534,,response,,,4,A,,,,,Space,keypress(Space),,,,silence,----- -- ---- --- -- --- -------- ------------ ---------- --<br>- ------- system --------- -- ------------ -- --- ---- -----<br>------ ---- ---- ------ ------ ------- --- ----- ---------<br>---- --- -------- -------- --- --- -- ------- --- --- -----<br>-- --- ------ ------- --- --- -------- ---- --------- --<br>---------- -- -------- ----------------,163377.79999995232,163377,162995.459,163002,163012.13,163378.825,,12,system
screen,html.Screen,0_4_1_0_1_13,2021-11-26T13:30:47.517Z,,,,,,,,,,,,,,,,11,,,,,,,,,,,,,,398.17499999998836,,response,,,4,A,,,,,Space,keypress(Space),,,,silence,----- -- ---- --- -- --- -------- ------------ ---------- --<br>- ------- ------ comprised -- ------------ -- --- ---- -----<br>------ ---- ---- ------ ------ ------- --- ----- ---------<br>---- --- -------- -------- --- --- -- ------- --- --- -----<br>-- --- ------ ------- --- --- -------- ---- --------- --<br>---------- -- -------- ----------------,163777.70000004768,163777,163362.155,163378,163378.825,163778.921,,13,comprised
screen,html.Screen,0_4_1_0_1_14,2021-11-26T13:30:47.909Z,,,,,,,,,,,,,,,,11,,,,,,,,,,,,,,389.97900009536534,,response,,,4,A,,,,,Space,keypress(Space),,,,silence,----- -- ---- --- -- --- -------- ------------ ---------- --<br>- ------- ------ --------- of ------------ -- --- ---- -----<br>------ ---- ---- ------ ------ ------- --- ----- ---------<br>---- --- -------- -------- --- --- -- ------- --- --- -----<br>-- --- ------ ------- --- --- -------- ---- --------- --<br>---------- -- -------- ----------------,164169.70000004768,164168.90000009537,163762.251,163778,163778.921,164178.899,,14,of
screen,html.Screen,0_4_1_0_1_15,2021-11-26T13:30:48.325Z,,,,,,,,,,,,,,,,11,,,,,,,,,,,,,,406.00100009536254,,response,,,4,A,,,,,Space,keypress(Space),,,,silence,----- -- ---- --- -- --- -------- ------------ ---------- --<br>- ------- ------ --------- -- pictographs. -- --- ---- -----<br>------ ---- ---- ------ ------ ------- --- ----- ---------<br>---- --- -------- -------- --- --- -- ------- --- --- -----<br>-- --- ------ ------- --- --- -------- ---- --------- --<br>---------- -- -------- ----------------,164585.70000004768,164584.90000009537,164162.231,164169.90000009537,164178.899,164595.87,,15,pictographs.
screen,html.Screen,0_4_1_0_1_16,2021-11-26T13:30:48.749Z,,,,,,,,,,,,,,,,11,,,,,,,,,,,,,,412.92999995232094,,response,,,4,A,,,,,Space,keypress(Space),,,,silence,----- -- ---- --- -- --- -------- ------------ ---------- --<br>- ------- ------ --------- -- ------------ It --- ---- -----<br>------ ---- ---- ------ ------ ------- --- ----- ---------<br>---- --- -------- -------- --- --- -- ------- --- --- -----<br>-- --- ------ ------- --- --- -------- ---- --------- --<br>---------- -- -------- ----------------,165009.70000004768,165008.79999995232,164579.198,164585.90000009537,164595.87,165012.613,,16,It
screen,html.Screen,0_4_1_0_1_17,2021-11-26T13:30:49.133Z,,,,,,,,,,,,,,,,11,,,,,,,,,,,,,,380.0870000476716,,response,,,4,A,,,,,Space,keypress(Space),,,,silence,----- -- ---- --- -- --- -------- ------------ ---------- --<br>- ------- ------ --------- -- ------------ -- has ---- -----<br>------ ---- ---- ------ ------ ------- --- ----- ---------<br>---- --- -------- -------- --- --- -- ------- --- --- -----<br>-- --- ------ ------- --- --- -------- ---- --------- --<br>---------- -- -------- ----------------,165393.59999990463,165392.70000004768,164995.942,165009.90000009537,165012.613,165395.999,,17,has
screen,html.Screen,0_4_1_0_1_18,2021-11-26T13:30:49.549Z,,,,,,,,,,,,,,,,11,,,,,,,,,,,,,,412.8009999523056,,response,,,4,A,,,,,Space,keypress(Space),,,,silence,----- -- ---- --- -- --- -------- ------------ ---------- --<br>- ------- ------ --------- -- ------------ -- --- been -----<br>------ ---- ---- ------ ------ ------- --- ----- ---------<br>---- --- -------- -------- --- --- -- ------- --- --- -----<br>-- --- ------ ------- --- --- -------- ---- --------- --<br>---------- -- -------- ----------------,165809.59999990463,165808.79999995232,165379.329,165393.79999995232,165395.999,165812.741,,18,been
screen,html.Screen,0_4_1_0_1_19,2021-11-26T13:30:49.925Z,,,,,,,,,,,,,,,,11,,,,,,,,,,,,,,372.15900009535835,,response,,,4,A,,,,,Space,keypress(Space),,,,silence,----- -- ---- --- -- --- -------- ------------ ---------- --<br>- ------- ------ --------- -- ------------ -- --- ---- found<br>------ ---- ---- ------ ------ ------- --- ----- ---------<br>---- --- -------- -------- --- --- -- ------- --- --- -----<br>-- --- ------ ------- --- --- -------- ---- --------- --<br>---------- -- -------- ----------------,166185.59999990463,166184.90000009537,165796.071,165809.79999995232,165812.741,166196.197,,19,found
screen,html.Screen,0_4_1_0_1_20,2021-11-26T13:30:50.429Z,,,,,,,,,,,,,,,,11,,,,,,,,,,,,,,492.50300004769815,,response,,,4,A,,,,,Space,keypress(Space),,,,silence,----- -- ---- --- -- --- -------- ------------ ---------- --<br>- ------- ------ --------- -- ------------ -- --- ---- -----<br>carved ---- ---- ------ ------ ------- --- ----- ---------<br>---- --- -------- -------- --- --- -- ------- --- --- -----<br>-- --- ------ ------- --- --- -------- ---- --------- --<br>---------- -- -------- ----------------,166689.5,166688.70000004768,166179.527,166185.90000009537,166196.197,166696.291,,20,carved
screen,html.Screen,0_4_1_0_1_21,2021-11-26T13:30:50.821Z,,,,,,,,,,,,,,,,11,,,,,,,,,,,,,,384.4090000476863,,response,,,4,A,,,,,Space,keypress(Space),,,,silence,----- -- ---- --- -- --- -------- ------------ ---------- --<br>- ------- ------ --------- -- ------------ -- --- ---- -----<br>------ into ---- ------ ------ ------- --- ----- ---------<br>---- --- -------- -------- --- --- -- ------- --- --- -----<br>-- --- ------ ------- --- --- -------- ---- --------- --<br>---------- -- -------- ----------------,167081.59999990463,167080.70000004768,166679.621,166689.70000004768,166696.291,167096.415,,21,into
screen,html.Screen,0_4_1_0_1_22,2021-11-26T13:30:51.197Z,,,,,,,,,,,,,,,,11,,,,,,,,,,,,,,360.1849999046244,,response,,,4,A,,,,,Space,keypress(Space),,,,silence,----- -- ---- --- -- --- -------- ------------ ---------- --<br>- ------- ------ --------- -- ------------ -- --- ---- -----<br>------ ---- many ------ ------ ------- --- ----- ---------<br>---- --- -------- -------- --- --- -- ------- --- --- -----<br>-- --- ------ ------- --- --- -------- ---- --------- --<br>---------- -- -------- ----------------,167457.40000009537,167456.59999990463,167079.745,167081.79999995232,167096.415,167463.153,,22,many
screen,html.Screen,0_4_1_0_1_23,2021-11-26T13:30:51.549Z,,,,,,,,,,,,,,,,11,,,,,,,,,,,,,,345.4469999046414,,response,,,4,A,,,,,Space,keypress(Space),,,,silence,----- -- ---- --- -- --- -------- ------------ ---------- --<br>- ------- ------ --------- -- ------------ -- --- ---- -----<br>------ ---- ---- oblong ------ ------- --- ----- ---------<br>---- --- -------- -------- --- --- -- ------- --- --- -----<br>-- --- ------ ------- --- --- -------- ---- --------- --<br>---------- -- -------- ----------------,167809.29999995232,167808.59999990463,167446.483,167457.59999990463,167463.153,167813.233,,23,oblong
screen,html.Screen,0_4_1_0_1_24,2021-11-26T13:30:51.973Z,,,,,,,,,,,,,,,,11,,,,,,,,,,,,,,419.76699999999255,,response,,,4,A,,,,,Space,keypress(Space),,,,silence,----- -- ---- --- -- --- -------- ------------ ---------- --<br>- ------- ------ --------- -- ------------ -- --- ---- -----<br>------ ---- ---- ------ wooden ------- --- ----- ---------<br>---- --- -------- -------- --- --- -- ------- --- --- -----<br>-- --- ------ ------- --- --- -------- ---- --------- --<br>---------- -- -------- ----------------,168233.59999990463,168233,167796.563,167809.59999990463,167813.233,168246.692,,24,wooden
screen,html.Screen,0_4_1_0_1_25,2021-11-26T13:30:52.381Z,,,,,,,,,,,,,,,,11,,,,,,,,,,,,,,393.90799990462256,,response,,,4,A,,,,,Space,keypress(Space),,,,silence,----- -- ---- --- -- --- -------- ------------ ---------- --<br>- ------- ------ --------- -- ------------ -- --- ---- -----<br>------ ---- ---- ------ ------ tablets --- ----- ---------<br>---- --- -------- -------- --- --- -- ------- --- --- -----<br>-- --- ------ ------- --- --- -------- ---- --------- --<br>---------- -- -------- ----------------,168641.40000009537,168640.59999990463,168230.022,168233.90000009537,168246.692,168646.786,,25,tablets
screen,html.Screen,0_4_1_0_1_26,2021-11-26T13:30:52.709Z,,,,,,,,,,,,,,,,11,,,,,,,,,,,,,,321.7140000000072,,response,,,4,A,,,,,Space,keypress(Space),,,,silence,----- -- ---- --- -- --- -------- ------------ ---------- --<br>- ------- ------ --------- -- ------------ -- --- ---- -----<br>------ ---- ---- ------ ------ ------- and ----- ---------<br>---- --- -------- -------- --- --- -- ------- --- --- -----<br>-- --- ------ ------- --- --- -------- ---- --------- --<br>---------- -- -------- ----------------,168969.29999995232,168968.5,168630.116,168641.59999990463,168646.786,168980.206,,26,and
screen,html.Screen,0_4_1_0_1_27,2021-11-26T13:30:53.101Z,,,,,,,,,,,,,,,,11,,,,,,,,,,,,,,380.2939999999944,,response,,,4,A,,,,,Space,keypress(Space),,,,silence,----- -- ---- --- -- --- -------- ------------ ---------- --<br>- ------- ------ --------- -- ------------ -- --- ---- -----<br>------ ---- ---- ------ ------ ------- --- other ---------<br>---- --- -------- -------- --- --- -- ------- --- --- -----<br>-- --- ------ ------- --- --- -------- ---- --------- --<br>---------- -- -------- ----------------,169361.29999995232,169360.5,168963.536,168969.5,168980.206,169363.615,,27,other
screen,html.Screen,0_4_1_0_1_28,2021-11-26T13:30:53.453Z,,,,,,,,,,,,,,,,11,,,,,,,,,,,,,,348.8850000000093,,response,,,4,A,,,,,Space,keypress(Space),,,,silence,----- -- ---- --- -- --- -------- ------------ ---------- --<br>- ------- ------ --------- -- ------------ -- --- ---- -----<br>------ ---- ---- ------ ------ ------- --- ----- artifacts<br>---- --- -------- -------- --- --- -- ------- --- --- -----<br>-- --- ------ ------- --- --- -------- ---- --------- --<br>---------- -- -------- ----------------,169713.20000004768,169712.5,169346.945,169361.59999990463,169363.615,169730.363,,28,artifacts
screen,html.Screen,0_4_1_0_1_29,2021-11-26T13:30:53.893Z,,,,,,,,,,,,,,,,11,,,,,,,,,,,,,,422.1369999999879,,response,,,4,A,,,,,Space,keypress(Space),,,,silence,----- -- ---- --- -- --- -------- ------------ ---------- --<br>- ------- ------ --------- -- ------------ -- --- ---- -----<br>------ ---- ---- ------ ------ ------- --- ----- ---------<br>from --- -------- -------- --- --- -- ------- --- --- -----<br>-- --- ------ ------- --- --- -------- ---- --------- --<br>---------- -- -------- ----------------,170153.29999995232,170152.5,169713.693,169713.40000009537,169730.363,170163.74,,29,from
screen,html.Screen,0_4_1_0_1_30,2021-11-26T13:30:54.285Z,,,,,,,,,,,,,,,,11,,,,,,,,,,,,,,380.7600000000093,,response,,,4,A,,,,,Space,keypress(Space),,,,silence,----- -- ---- --- -- --- -------- ------------ ---------- --<br>- ------- ------ --------- -- ------------ -- --- ---- -----<br>------ ---- ---- ------ ------ ------- --- ----- ---------<br>---- the -------- -------- --- --- -- ------- --- --- -----<br>-- --- ------ ------- --- --- -------- ---- --------- --<br>---------- -- -------- ----------------,170545.40000009537,170544.5,170147.071,170153.5,170163.74,170547.29,,30,the
screen,html.Screen,0_4_1_0_1_31,2021-11-26T13:30:54.701Z,,,,,,,,,,,,,,,,11,,,,,,,,,,,,,,413.1100000953593,,response,,,4,A,,,,,Space,keypress(Space),,,,silence,----- -- ---- --- -- --- -------- ------------ ---------- --<br>- ------- ------ --------- -- ------------ -- --- ---- -----<br>------ ---- ---- ------ ------ ------- --- ----- ---------<br>---- --- island's -------- --- --- -- ------- --- --- -----<br>-- --- ------ ------- --- --- -------- ---- --------- --<br>---------- -- -------- ----------------,170961.20000004768,170960.40000009537,170530.619,170545.70000004768,170547.29,170964.018,,31,island's
screen,html.Screen,0_4_1_0_1_32,2021-11-26T13:30:55.133Z,,,,,,,,,,,,,,,,11,,,,,,,,,,,,,,428.28199995230534,,response,,,4,A,,,,,Space,keypress(Space),,,,silence,----- -- ---- --- -- --- -------- ------------ ---------- --<br>- ------- ------ --------- -- ------------ -- --- ---- -----<br>------ ---- ---- ------ ------ ------- --- ----- ---------<br>---- --- -------- history. --- --- -- ------- --- --- -----<br>-- --- ------ ------- --- --- -------- ---- --------- --<br>---------- -- -------- ----------------,171393.20000004768,171392.29999995232,170947.348,170961.40000009537,170964.018,171397.462,,32,history.
screen,html.Screen,0_4_1_0_1_33,2021-11-26T13:30:55.533Z,,,,,,,,,,,,,,,,11,,,,,,,,,,,,,,394.9380000953679,,response,,,4,A,,,,,Space,keypress(Space),,,,silence,----- -- ---- --- -- --- -------- ------------ ---------- --<br>- ------- ------ --------- -- ------------ -- --- ---- -----<br>------ ---- ---- ------ ------ ------- --- ----- ---------<br>---- --- -------- -------- The --- -- ------- --- --- -----<br>-- --- ------ ------- --- --- -------- ---- --------- --<br>---------- -- -------- ----------------,171793.20000004768,171792.40000009537,171380.792,171393.5,171397.462,171797.527,,33,The
screen,html.Screen,0_4_1_0_1_34,2021-11-26T13:30:55.941Z,,,,,,,,,,,,,,,,11,,,,,,,,,,,,,,402.7729999523144,,response,,,4,A,,,,,Space,keypress(Space),,,,silence,----- -- ---- --- -- --- -------- ------------ ---------- --<br>- ------- ------ --------- -- ------------ -- --- ---- -----<br>------ ---- ---- ------ ------ ------- --- ----- ---------<br>---- --- -------- -------- --- art -- ------- --- --- -----<br>-- --- ------ ------- --- --- -------- ---- --------- --<br>---------- -- -------- ----------------,172201.20000004768,172200.29999995232,171780.857,171793.5,171797.527,172214.324,,34,art
screen,html.Screen,0_4_1_0_1_35,2021-11-26T13:30:56.325Z,,,,,,,,,,,,,,,,11,,,,,,,,,,,,,,370.0760000953742,,response,,,4,A,,,,,Space,keypress(Space),,,,silence,----- -- ---- --- -- --- -------- ------------ ---------- --<br>- ------- ------ --------- -- ------------ -- --- ---- -----<br>------ ---- ---- ------ ------ ------- --- ----- ---------<br>---- --- -------- -------- --- --- of ------- --- --- -----<br>-- --- ------ ------- --- --- -------- ---- --------- --<br>---------- -- -------- ----------------,172585.09999990463,172584.40000009537,172197.654,172201.5,172214.324,172597.603,,35,of
screen,html.Screen,0_4_1_0_1_36,2021-11-26T13:30:56.741Z,,,,,,,,,,,,,,,,11,,,,,,,,,,,,,,402.6969999523135,,response,,,4,A,,,,,Space,keypress(Space),,,,silence,----- -- ---- --- -- --- -------- ------------ ---------- --<br>- ------- ------ --------- -- ------------ -- --- ---- -----<br>------ ---- ---- ------ ------ ------- --- ----- ---------<br>---- --- -------- -------- --- --- -- writing --- --- -----<br>-- --- ------ ------- --- --- -------- ---- --------- --<br>---------- -- -------- ----------------,173001.09999990463,173000.29999995232,172580.935,172585.29999995232,172597.603,173014.584,,36,writing
screen,html.Screen,0_4_1_0_1_37,2021-11-26T13:30:57.117Z,,,,,,,,,,,,,,,,11,,,,,,,,,,,,,,361.7159999523137,,response,,,4,A,,,,,Space,keypress(Space),,,,silence,----- -- ---- --- -- --- -------- ------------ ---------- --<br>- ------- ------ --------- -- ------------ -- --- ---- -----<br>------ ---- ---- ------ ------ ------- --- ----- ---------<br>---- --- -------- -------- --- --- -- ------- was --- -----<br>-- --- ------ ------- --- --- -------- ---- --------- --<br>---------- -- -------- ----------------,173377,173376.29999995232,172997.912,173001.29999995232,173014.584,173381.308,,37,was
screen,html.Screen,0_4_1_0_1_38,2021-11-26T13:30:57.477Z,,,,,,,,,,,,,,,,11,,,,,,,,,,,,,,354.8920000476937,,response,,,4,A,,,,,Space,keypress(Space),,,,silence,----- -- ---- --- -- --- -------- ------------ ---------- --<br>- ------- ------ --------- -- ------------ -- --- ---- -----<br>------ ---- ---- ------ ------ ------- --- ----- ---------<br>---- --- -------- -------- --- --- -- ------- --- not -----<br>-- --- ------ ------- --- --- -------- ---- --------- --<br>---------- -- -------- ----------------,173737.09999990463,173736.20000004768,173364.637,173377.29999995232,173381.308,173748.013,,38,not
screen,html.Screen,0_4_1_0_1_39,2021-11-26T13:30:57.860Z,,,,,,,,,,,,,,,,11,,,,,,,,,,,,,,372.18700004767743,,response,,,4,A,,,,,Space,keypress(Space),,,,silence,----- -- ---- --- -- --- -------- ------------ ---------- --<br>- ------- ------ --------- -- ------------ -- --- ---- -----<br>------ ---- ---- ------ ------ ------- --- ----- ---------<br>---- --- -------- -------- --- --- -- ------- --- --- known<br>-- --- ------ ------- --- --- -------- ---- --------- --<br>---------- -- -------- ----------------,174121,174120.20000004768,173731.343,173737.29999995232,173748.013,174131.459,,39,known
screen,html.Screen,0_4_1_0_1_40,2021-11-26T13:30:58.268Z,,,,,,,,,,,,,,,,11,,,,,,,,,,,,,,396.74100004768115,,response,,,4,A,,,,,Space,keypress(Space),,,,silence,----- -- ---- --- -- --- -------- ------------ ---------- --<br>- ------- ------ --------- -- ------------ -- --- ---- -----<br>------ ---- ---- ------ ------ ------- --- ----- ---------<br>---- --- -------- -------- --- --- -- ------- --- --- -----<br>in --- ------ ------- --- --- -------- ---- --------- --<br>---------- -- -------- ----------------,174529,174528.20000004768,174114.789,174121.20000004768,174131.459,174531.539,,40,in
screen,html.Screen,0_4_1_0_1_41,2021-11-26T13:30:58.620Z,,,,,,,,,,,,,,,,11,,,,,,,,,,,,,,348.66100004769396,,response,,,4,A,,,,,Space,keypress(Space),,,,silence,----- -- ---- --- -- --- -------- ------------ ---------- --<br>- ------- ------ --------- -- ------------ -- --- ---- -----<br>------ ---- ---- ------ ------ ------- --- ----- ---------<br>---- --- -------- -------- --- --- -- ------- --- --- -----<br>-- any ------ ------- --- --- -------- ---- --------- --<br>---------- -- -------- ----------------,174881,174880.20000004768,174514.869,174529.20000004768,174531.539,174898.307,,41,any
screen,html.Screen,0_4_1_0_1_42,2021-11-26T13:30:59.060Z,,,,,,,,,,,,,,,,11,,,,,,,,,,,,,,421.79299990463187,,response,,,4,A,,,,,Space,keypress(Space),,,,silence,----- -- ---- --- -- --- -------- ------------ ---------- --<br>- ------- ------ --------- -- ------------ -- --- ---- -----<br>------ ---- ---- ------ ------ ------- --- ----- ---------<br>---- --- -------- -------- --- --- -- ------- --- --- -----<br>-- --- nearby ------- --- --- -------- ---- --------- --<br>---------- -- -------- ----------------,175320.90000009537,175320.09999990463,174881.637,174881.20000004768,174898.307,175331.677,,42,nearby
screen,html.Screen,0_4_1_0_1_43,2021-11-26T13:30:59.421Z,,,,,,,,,,,,,,,,11,,,,,,,,,,,,,,348.4229999046365,,response,,,4,A,,,,,Space,keypress(Space),,,,silence,----- -- ---- --- -- --- -------- ------------ ---------- --<br>- ------- ------ --------- -- ------------ -- --- ---- -----<br>------ ---- ---- ------ ------ ------- --- ----- ---------<br>---- --- -------- -------- --- --- -- ------- --- --- -----<br>-- --- ------ islands --- --- -------- ---- --------- --<br>---------- -- -------- ----------------,175682,175680.09999990463,175315.008,175321.09999990463,175331.677,175698.495,,43,islands
screen,html.Screen,0_4_1_0_1_44,2021-11-26T13:30:59.812Z,,,,,,,,,,,,,,,,11,,,,,,,,,,,,,,373.6049999046372,,response,,,4,A,,,,,Space,keypress(Space),,,,silence,----- -- ---- --- -- --- -------- ------------ ---------- --<br>- ------- ------ --------- -- ------------ -- --- ---- -----<br>------ ---- ---- ------ ------ ------- --- ----- ---------<br>---- --- -------- -------- --- --- -- ------- --- --- -----<br>-- --- ------ ------- and --- -------- ---- --------- --<br>---------- -- -------- ----------------,176072.90000009537,176072.09999990463,175681.825,175682.40000009537,175698.495,176081.926,,44,and
screen,html.Screen,0_4_1_0_1_45,2021-11-26T13:31:00.236Z,,,,,,,,,,,,,,,,11,,,,,,,,,,,,,,414.1739999046258,,response,,,4,A,,,,,Space,keypress(Space),,,,silence,----- -- ---- --- -- --- -------- ------------ ---------- --<br>- ------- ------ --------- -- ------------ -- --- ---- -----<br>------ ---- ---- ------ ------ ------- --- ----- ---------<br>---- --- -------- -------- --- --- -- ------- --- --- -----<br>-- --- ------ ------- --- the -------- ---- --------- --<br>---------- -- -------- ----------------,176496.79999995232,176496.09999990463,176065.256,176073.09999990463,176081.926,176498.69,,45,the
screen,html.Screen,0_4_1_0_1_46,2021-11-26T13:31:00.740Z,,,,,,,,,,,,,,,,11,,,,,,,,,,,,,,501.3099999999977,,response,,,4,A,,,,,Space,keypress(Space),,,,silence,----- -- ---- --- -- --- -------- ------------ ---------- --<br>- ------- ------ --------- -- ------------ -- --- ---- -----<br>------ ---- ---- ------ ------ ------- --- ----- ---------<br>---- --- -------- -------- --- --- -- ------- --- --- -----<br>-- --- ------ ------- --- --- script's ---- --------- --<br>---------- -- -------- ----------------,177000.70000004768,177000,176482.02,176497,176498.69,177015.479,,46,script's
screen,html.Screen,0_4_1_0_1_47,2021-11-26T13:31:01.140Z,,,,,,,,,,,,,,,,11,,,,,,,,,,,,,,384.5210000000079,,response,,,4,A,,,,,Space,keypress(Space),,,,silence,----- -- ---- --- -- --- -------- ------------ ---------- --<br>- ------- ------ --------- -- ------------ -- --- ---- -----<br>------ ---- ---- ------ ------ ------- --- ----- ---------<br>---- --- -------- -------- --- --- -- ------- --- --- -----<br>-- --- ------ ------- --- --- -------- mere --------- --<br>---------- -- -------- ----------------,177400.79999995232,177400,176998.809,177000.90000009537,177015.479,177415.511,,47,mere
screen,html.Screen,0_4_1_0_1_48,2021-11-26T13:31:01.700Z,,,,,,,,,,,,,,,,11,,,,,,,,,,,,,,544.3890000953688,,response,,,4,A,,,,,Space,keypress(Space),,,,silence,----- -- ---- --- -- --- -------- ------------ ---------- --<br>- ------- ------ --------- -- ------------ -- --- ---- -----<br>------ ---- ---- ------ ------ ------- --- ----- ---------<br>---- --- -------- -------- --- --- -- ------- --- --- -----<br>-- --- ------ ------- --- --- -------- ---- existence --<br>---------- -- -------- ----------------,177960.59999990463,177959.90000009537,177398.842,177401,177415.511,177965.707,,48,existence
screen,html.Screen,0_4_1_0_1_49,2021-11-26T13:31:02.076Z,,,,,,,,,,,,,,,,11,,,,,,,,,,,,,,369.99300004768884,,response,,,4,A,,,,,Space,keypress(Space),,,,silence,----- -- ---- --- -- --- -------- ------------ ---------- --<br>- ------- ------ --------- -- ------------ -- --- ---- -----<br>------ ---- ---- ------ ------ ------- --- ----- ---------<br>---- --- -------- -------- --- --- -- ------- --- --- -----<br>-- --- ------ ------- --- --- -------- ---- --------- is<br>---------- -- -------- ----------------,178336.09999990463,178335.70000004768,177949.037,177960.90000009537,177965.707,178349.121,,49,is
screen,html.Screen,0_4_1_0_1_50,2021-11-26T13:31:02.460Z,,,,,,,,,,,,,,,,11,,,,,,,,,,,,,,370.47899990461883,,response,,,4,A,,,,,Space,keypress(Space),,,,silence,----- -- ---- --- -- --- -------- ------------ ---------- --<br>- ------- ------ --------- -- ------------ -- --- ---- -----<br>------ ---- ---- ------ ------ ------- --- ----- ---------<br>---- --- -------- -------- --- --- -- ------- --- --- -----<br>-- --- ------ ------- --- --- -------- ---- --------- --<br>sufficient -- -------- ----------------,178720.29999995232,178719.59999990463,178332.451,178336.20000004768,178349.121,178732.42,,50,sufficient
screen,html.Screen,0_4_1_0_1_51,2021-11-26T13:31:02.876Z,,,,,,,,,,,,,,,,11,,,,,,,,,,,,,,403.4800000953546,,response,,,4,A,,,,,Space,keypress(Space),,,,silence,----- -- ---- --- -- --- -------- ------------ ---------- --<br>- ------- ------ --------- -- ------------ -- --- ---- -----<br>------ ---- ---- ------ ------ ------- --- ----- ---------<br>---- --- -------- -------- --- --- -- ------- --- --- -----<br>-- --- ------ ------- --- --- -------- ---- --------- --<br>---------- to -------- ----------------,179136.70000004768,179135.90000009537,178715.752,178720.5,178732.42,179149.256,,51,to
