sender,sender_type,sender_id,timestamp,meta,,Blues,Classical,Country,Dance,Electronic,Folk,Gospel,Hip-Hop,Jazz,Latin,Musical/Film,New-age,Pop,Provo_ID,R&B,Rap,Reggae,Religious,Rock,Soul,Swing,Traditional,age,artist_name,correct,correctResponse,distraction,duration,education,ended_on,familiarity,gender,item,list,music_frequency,offensiveness,pleasantness,preference,response,response_action,snippet_file,song_name,song_rating,sound,text,time_commit,time_end,time_render,time_run,time_show,time_switch,url,word,word_ID
Instructions,html.Page,0_0,2021-12-03T10:38:40.517Z,"{""labjs_version"":""20.2.3"",""labjs_build"":{""flavor"":""production"",""commit"":""7ea907d66ca8aeef8054924ca5d82ffbe11e34e5""},""location"":""https://run.pavlovia.org/mvasilev/lab_music_a/"",""userAgent"":""Mozilla/5.0 (Windows NT 6.1; Win64; x64) AppleWebKit/537.36 (KHTML, like Gecko) Chrome/96.0.4664.45 Safari/537.36"",""platform"":""Win32"",""language"":""en-US"",""locale"":""en-US"",""timeZone"":""Europe/London"",""timezoneOffset"":0,""screen_width"":1920,""screen_height"":1080,""scroll_width"":1920,""scroll_height"":959,""window_innerWidth"":1920,""window_innerHeight"":1007,""devicePixelRatio"":1}",,,,,,,,,,,,,,,,,,,,,,,,,,,,,25460.74799999702,,form submission,,,,,,,,,,,,,,,,32224.5,32223.29999999702,6729.212,6744.5,6762.552,32219.534,{},,
Headphones,html.Page,0_1,2021-12-03T10:38:43.143Z,,,,,,,,,,,,,,,,,,,,,,,,,,,,,,2630.1659999880794,,form submission,,,,,,,,,,,,,,,,34850.09999999404,34849.69999998808,32202.863,32225.19999998808,32219.534,34853.37,,,
Holding screen,html.Screen,0_2_0_0,2021-12-03T10:38:53.137Z,,,,,,,,,,,,,,,,,,,,,,,,,,,,,,10002.695,,timeout,,,,,,,,,,,,,,,,44844.39999999106,44839.395,34836.7,34850.59999999404,34853.37,44856.065,,,
screen,html.Screen,0_2_0_1_0,2021-12-03T10:38:54.374Z,,,,,,,,,,,,,,,,53,,,,,,,,,,,,,,1224.0349999940372,,response,,,99,,,,,,Space,keypress(Space),,,,,When -- ----- -- ------ - ------- --- ----------<br>------------- ------ ------ ---- ---- ------- ----- -- ----<br>-------- ------- -- ---------- --- - --- ----- ----- ----<br>---- --- --- ----- --- ---- ---- ------- ----- ---- -------<br>--- --- -- ----- -- --- ---- -- --- ---- -- ------ ------<br>--- ----- -- ----,46081.5,46080.09999999404,44839.395,44844.79999999702,44856.065,46089.762,,0,When
screen,html.Screen,0_2_0_1_1,2021-12-03T10:38:55.014Z,,,,,,,,,,,,,,,,53,,,,,,,,,,,,,,630.3379999940371,,response,,,99,,,,,,Space,keypress(Space),,,,,---- it ----- -- ------ - ------- --- ----------<br>------------- ------ ------ ---- ---- ------- ----- -- ----<br>-------- ------- -- ---------- --- - --- ----- ----- ----<br>---- --- --- ----- --- ---- ---- ------- ----- ---- -------<br>--- --- -- ----- -- --- ---- -- --- ---- -- ------ ------<br>--- ----- -- ----,46721,46720.09999999404,46073.092,46081.79999999702,46089.762,46723.454,,1,it
screen,html.Screen,0_2_0_1_2,2021-12-03T10:38:55.614Z,,,,,,,,,,,,,,,,53,,,,,,,,,,,,,,596.6459999940416,,response,,,99,,,,,,Space,keypress(Space),,,,,---- -- comes -- ------ - ------- --- ----------<br>------------- ------ ------ ---- ---- ------- ----- -- ----<br>-------- ------- -- ---------- --- - --- ----- ----- ----<br>---- --- --- ----- --- ---- ---- ------- ----- ---- -------<br>--- --- -- ----- -- --- ---- -- --- ---- -- ------ ------<br>--- ----- -- ----,47321,47320.09999999404,46706.783,46721.29999999702,46723.454,47323.525,,2,comes
screen,html.Screen,0_2_0_1_3,2021-12-03T10:38:56.118Z,,,,,,,,,,,,,,,,53,,,,,,,,,,,,,,500.47499999999854,,response,,,99,,,,,,Space,keypress(Space),,,,,---- -- ----- to ------ - ------- --- ----------<br>------------- ------ ------ ---- ---- ------- ----- -- ----<br>-------- ------- -- ---------- --- - --- ----- ----- ----<br>---- --- --- ----- --- ---- ---- ------- ----- ---- -------<br>--- --- -- ----- -- --- ---- -- --- ---- -- ------ ------<br>--- ----- -- ----,47825,47824,47306.855,47321.19999998808,47323.525,47840.276,,3,to
screen,html.Screen,0_2_0_1_4,2021-12-03T10:38:56.710Z,,,,,,,,,,,,,,,,53,,,,,,,,,,,,,,575.724000000002,,response,,,99,,,,,,Space,keypress(Space),,,,,---- -- ----- -- having - ------- --- ----------<br>------------- ------ ------ ---- ---- ------- ----- -- ----<br>-------- ------- -- ---------- --- - --- ----- ----- ----<br>---- --- --- ----- --- ---- ---- ------- ----- ---- -------<br>--- --- -- ----- -- --- ---- -- --- ---- -- ------ ------<br>--- ----- -- ----,48417.19999998808,48416,47823.606,47825.5,47840.276,48423.879,,4,having
screen,html.Screen,0_2_0_1_5,2021-12-03T10:38:57.158Z,,,,,,,,,,,,,,,,53,,,,,,,,,,,,,,440.1209999999992,,response,,,99,,,,,,Space,keypress(Space),,,,,---- -- ----- -- ------ a ------- --- ----------<br>------------- ------ ------ ---- ---- ------- ----- -- ----<br>-------- ------- -- ---------- --- - --- ----- ----- ----<br>---- --- --- ----- --- ---- ---- ------- ----- ---- -------<br>--- --- -- ----- -- --- ---- -- --- ---- -- ------ ------<br>--- ----- -- ----,48864.89999999106,48864,48407.208,48417.39999999106,48423.879,48873.949,,5,a
screen,html.Screen,0_2_0_1_6,2021-12-03T10:38:57.894Z,,,,,,,,,,,,,,,,53,,,,,,,,,,,,,,726.0509999999995,,response,,,99,,,,,,Space,keypress(Space),,,,,---- -- ----- -- ------ - lasting --- ----------<br>------------- ------ ------ ---- ---- ------- ----- -- ----<br>-------- ------- -- ---------- --- - --- ----- ----- ----<br>---- --- --- ----- --- ---- ---- ------- ----- ---- -------<br>--- --- -- ----- -- --- ---- -- --- ---- -- ------ ------<br>--- ----- -- ----,49600.89999999106,49600,48857.279,48865.39999999106,48873.949,49607.521,,6,lasting
screen,html.Screen,0_2_0_1_7,2021-12-03T10:38:58.326Z,,,,,,,,,,,,,,,,53,,,,,,,,,,,,,,424.37899999105866,,response,,,99,,,,,,Space,keypress(Space),,,,,---- -- ----- -- ------ - ------- and ----------<br>------------- ------ ------ ---- ---- ------- ----- -- ----<br>-------- ------- -- ---------- --- - --- ----- ----- ----<br>---- --- --- ----- --- ---- ---- ------- ----- ---- -------<br>--- --- -- ----- -- --- ---- -- --- ---- -- ------ ------<br>--- ----- -- ----,50032.89999999106,50031.89999999106,49590.85,49601.29999999702,49607.521,50040.935,,7,and
screen,html.Screen,0_2_0_1_8,2021-12-03T10:38:58.974Z,,,,,,,,,,,,,,,,53,,,,,,,,,,,,,,638.9649999910616,,response,,,99,,,,,,Space,keypress(Space),,,,,---- -- ----- -- ------ - ------- --- fulfilling<br>------------- ------ ------ ---- ---- ------- ----- -- ----<br>-------- ------- -- ---------- --- - --- ----- ----- ----<br>---- --- --- ----- --- ---- ---- ------- ----- ---- -------<br>--- --- -- ----- -- --- ---- -- --- ---- -- ------ ------<br>--- ----- -- ----,50681.09999999404,50679.89999999106,50024.265,50033.19999998808,50040.935,50691.059,,8,fulfilling
screen,html.Screen,0_2_0_1_9,2021-12-03T10:38:59.598Z,,,,,,,,,,,,,,,,53,,,,,,,,,,,,,,612.7409999970187,,response,,,99,,,,,,Space,keypress(Space),,,,,"---- -- ----- -- ------ - ------- --- ----------<br>relationship, ------ ------ ---- ---- ------- ----- -- ----<br>-------- ------- -- ---------- --- - --- ----- ----- ----<br>---- --- --- ----- --- ---- ---- ------- ----- ---- -------<br>--- --- -- ----- -- --- ---- -- --- ---- -- ------ ------<br>--- ----- -- ----",51304.79999999702,51303.79999999702,50674.389,50681.39999999106,50691.059,51307.982,,9,"relationship,"
screen,html.Screen,0_2_0_1_10,2021-12-03T10:39:00.254Z,,,,,,,,,,,,,,,,53,,,,,,,,,,,,,,651.9179999910557,,response,,,99,,,,,,Space,keypress(Space),,,,,---- -- ----- -- ------ - ------- --- ----------<br>------------- common ------ ---- ---- ------- ----- -- ----<br>-------- ------- -- ---------- --- - --- ----- ----- ----<br>---- --- --- ----- --- ---- ---- ------- ----- ---- -------<br>--- --- -- ----- -- --- ---- -- --- ---- -- ------ ------<br>--- ----- -- ----,51960.79999999702,51959.89999999106,51291.311,51305.09999999404,51307.982,51974.762,,10,common
screen,html.Screen,0_2_0_1_11,2021-12-03T10:39:01.006Z,,,,,,,,,,,,,,,,53,,,,,,,,,,,,,,737.4379999880766,,response,,,99,,,,,,Space,keypress(Space),,,,,---- -- ----- -- ------ - ------- --- ----------<br>------------- ------ wisdom ---- ---- ------- ----- -- ----<br>-------- ------- -- ---------- --- - --- ----- ----- ----<br>---- --- --- ----- --- ---- ---- ------- ----- ---- -------<br>--- --- -- ----- -- --- ---- -- --- ---- -- ------ ------<br>--- ----- -- ----,52713.19999998808,52712.19999998808,51958.092,51961,51974.762,52724.952,,11,wisdom
screen,html.Screen,0_2_0_1_12,2021-12-03T10:39:01.494Z,,,,,,,,,,,,,,,,53,,,,,,,,,,,,,,474.84799999702227,,response,,,99,,,,,,Space,keypress(Space),,,,,---- -- ----- -- ------ - ------- --- ----------<br>------------- ------ ------ says ---- ------- ----- -- ----<br>-------- ------- -- ---------- --- - --- ----- ----- ----<br>---- --- --- ----- --- ---- ---- ------- ----- ---- -------<br>--- --- -- ----- -- --- ---- -- --- ---- -- ------ ------<br>--- ----- -- ----,53200.59999999404,53199.79999999702,52708.282,52713.5,52724.952,53208.435,,12,says
screen,html.Screen,0_2_0_1_13,2021-12-03T10:39:01.926Z,,,,,,,,,,,,,,,,53,,,,,,,,,,,,,,423.3649999970221,,response,,,99,,,,,,Space,keypress(Space),,,,,---- -- ----- -- ------ - ------- --- ----------<br>------------- ------ ------ ---- that ------- ----- -- ----<br>-------- ------- -- ---------- --- - --- ----- ----- ----<br>---- --- --- ----- --- ---- ---- ------- ----- ---- -------<br>--- --- -- ----- -- --- ---- -- --- ---- -- ------ ------<br>--- ----- -- ----,53632.59999999404,53631.79999999702,53191.765,53200.89999999106,53208.435,53641.894,,13,that
screen,html.Screen,0_2_0_1_14,2021-12-03T10:39:02.542Z,,,,,,,,,,,,,,,,53,,,,,,,,,,,,,,605.9059999970195,,response,,,99,,,,,,Space,keypress(Space),,,,,---- -- ----- -- ------ - ------- --- ----------<br>------------- ------ ------ ---- ---- feeling ----- -- ----<br>-------- ------- -- ---------- --- - --- ----- ----- ----<br>---- --- --- ----- --- ---- ---- ------- ----- ---- -------<br>--- --- -- ----- -- --- ---- -- --- ---- -- ------ ------<br>--- ----- -- ----,54248.59999999404,54247.79999999702,53625.224,53632.89999999106,53641.894,54258.6,,14,feeling
screen,html.Screen,0_2_0_1_15,2021-12-03T10:39:03.238Z,,,,,,,,,,,,,,,,53,,,,,,,,,,,,,,685.0999999880805,,response,,,99,,,,,,Space,keypress(Space),,,,,---- -- ----- -- ------ - ------- --- ----------<br>------------- ------ ------ ---- ---- ------- close -- ----<br>-------- ------- -- ---------- --- - --- ----- ----- ----<br>---- --- --- ----- --- ---- ---- ------- ----- ---- -------<br>--- --- -- ----- -- --- ---- -- --- ---- -- ------ ------<br>--- ----- -- ----,54944.5,54943.69999998808,54241.931,54248.89999999106,54258.6,54959.027,,15,close
screen,html.Screen,0_2_0_1_16,2021-12-03T10:39:03.637Z,,,,,,,,,,,,,,,,53,,,,,,,,,,,,,,384.6729999880772,,response,,,99,,,,,,Space,keypress(Space),,,,,---- -- ----- -- ------ - ------- --- ----------<br>------------- ------ ------ ---- ---- ------- ----- to ----<br>-------- ------- -- ---------- --- - --- ----- ----- ----<br>---- --- --- ----- --- ---- ---- ------- ----- ---- -------<br>--- --- -- ----- -- --- ---- -- --- ---- -- ------ ------<br>--- ----- -- ----,55344.59999999404,55343.69999998808,54942.355,54944.79999999702,54959.027,55358.998,,16,to
screen,html.Screen,0_2_0_1_17,2021-12-03T10:39:04.229Z,,,,,,,,,,,,,,,,53,,,,,,,,,,,,,,576.5020000000004,,response,,,99,,,,,,Space,keypress(Space),,,,,---- -- ----- -- ------ - ------- --- ----------<br>------------- ------ ------ ---- ---- ------- ----- -- your<br>-------- ------- -- ---------- --- - --- ----- ----- ----<br>---- --- --- ----- --- ---- ---- ------- ----- ---- -------<br>--- --- -- ----- -- --- ---- -- --- ---- -- ------ ------<br>--- ----- -- ----,55936.39999999106,55935.5,55342.328,55344.69999998808,55358.998,55942.492,,17,your
screen,html.Screen,0_2_0_1_18,2021-12-03T10:39:04.773Z,,,,,,,,,,,,,,,,53,,,,,,,,,,,,,,537.1079999940412,,response,,,99,,,,,,Space,keypress(Space),,,,,---- -- ----- -- ------ - ------- --- ----------<br>------------- ------ ------ ---- ---- ------- ----- -- ----<br>romantic ------- -- ---------- --- - --- ----- ----- ----<br>---- --- --- ----- --- ---- ---- ------- ----- ---- -------<br>--- --- -- ----- -- --- ---- -- --- ---- -- ------ ------<br>--- ----- -- ----,56480.5,56479.59999999404,55925.822,55936.69999998808,55942.492,56492.643,,18,romantic
screen,html.Screen,0_2_0_1_19,2021-12-03T10:39:05.189Z,,,,,,,,,,,,,,,,53,,,,,,,,,,,,,,402.8570000000036,,response,,,99,,,,,,Space,keypress(Space),,,,,---- -- ----- -- ------ - ------- --- ----------<br>------------- ------ ------ ---- ---- ------- ----- -- ----<br>-------- partner -- ---------- --- - --- ----- ----- ----<br>---- --- --- ----- --- ---- ---- ------- ----- ---- -------<br>--- --- -- ----- -- --- ---- -- --- ---- -- ------ ------<br>--- ----- -- ----,56896.29999999702,56895.5,56475.973,56480.69999998808,56492.643,56909.37,,19,partner
screen,html.Screen,0_2_0_1_20,2021-12-03T10:39:05.670Z,,,,,,,,,,,,,,,,53,,,,,,,,,,,,,,466.0299999910567,,response,,,99,,,,,,Space,keypress(Space),,,,,---- -- ----- -- ------ - ------- --- ----------<br>------------- ------ ------ ---- ---- ------- ----- -- ----<br>-------- ------- is ---------- --- - --- ----- ----- ----<br>---- --- --- ----- --- ---- ---- ------- ----- ---- -------<br>--- --- -- ----- -- --- ---- -- --- ---- -- ------ ------<br>--- ----- -- ----,57376.5,57375.39999999106,56892.7,56896.5,56909.37,57392.936,,20,is
screen,html.Screen,0_2_0_1_21,2021-12-03T10:39:06.117Z,,,,,,,,,,,,,,,,53,,,,,,,,,,,,,,430.5639999999985,,response,,,99,,,,,,Space,keypress(Space),,,,,---- -- ----- -- ------ - ------- --- ----------<br>------------- ------ ------ ---- ---- ------- ----- -- ----<br>-------- ------- -- paramount. --- - --- ----- ----- ----<br>---- --- --- ----- --- ---- ---- ------- ----- ---- -------<br>--- --- -- ----- -- --- ---- -- --- ---- -- ------ ------<br>--- ----- -- ----,57824.29999999702,57823.5,57376.265,57376.79999999702,57392.936,57826.32,,21,paramount.
screen,html.Screen,0_2_0_1_22,2021-12-03T10:39:06.581Z,,,,,,,,,,,,,,,,53,,,,,,,,,,,,,,461.1800000000003,,response,,,99,,,,,,Space,keypress(Space),,,,,---- -- ----- -- ------ - ------- --- ----------<br>------------- ------ ------ ---- ---- ------- ----- -- ----<br>-------- ------- -- ---------- But - --- ----- ----- ----<br>---- --- --- ----- --- ---- ---- ------- ----- ---- -------<br>--- --- -- ----- -- --- ---- -- --- ---- -- ------ ------<br>--- ----- -- ----,58288.39999999106,58287.5,57809.65,57824.79999999702,57826.32,58293.165,,22,But
screen,html.Screen,0_2_0_1_23,2021-12-03T10:39:07.013Z,,,,,,,,,,,,,,,,53,,,,,,,,,,,,,,426.23499999105843,,response,,,99,,,,,,Space,keypress(Space),,,,,---- -- ----- -- ------ - ------- --- ----------<br>------------- ------ ------ ---- ---- ------- ----- -- ----<br>-------- ------- -- ---------- --- a --- ----- ----- ----<br>---- --- --- ----- --- ---- ---- ------- ----- ---- -------<br>--- --- -- ----- -- --- ---- -- --- ---- -- ------ ------<br>--- ----- -- ----,58720.29999999702,58719.39999999106,58276.494,58288.59999999404,58293.165,58726.58,,23,a
screen,html.Screen,0_2_0_1_24,2021-12-03T10:39:07.413Z,,,,,,,,,,,,,,,,53,,,,,,,,,,,,,,392.719999997018,,response,,,99,,,,,,Space,keypress(Space),,,,,---- -- ----- -- ------ - ------- --- ----------<br>------------- ------ ------ ---- ---- ------- ----- -- ----<br>-------- ------- -- ---------- --- - new ----- ----- ----<br>---- --- --- ----- --- ---- ---- ------- ----- ---- -------<br>--- --- -- ----- -- --- ---- -- --- ---- -- ------ ------<br>--- ----- -- ----,59120.09999999404,59119.29999999702,58709.91,58720.5,58726.58,59126.673,,24,new
screen,html.Screen,0_2_0_1_25,2021-12-03T10:39:07.837Z,,,,,,,,,,,,,,,,53,,,,,,,,,,,,,,416.7269999910568,,response,,,99,,,,,,Space,keypress(Space),,,,,---- -- ----- -- ------ - ------- --- ----------<br>------------- ------ ------ ---- ---- ------- ----- -- ----<br>-------- ------- -- ---------- --- - --- study ----- ----<br>---- --- --- ----- --- ---- ---- ------- ----- ---- -------<br>--- --- -- ----- -- --- ---- -- --- ---- -- ------ ------<br>--- ----- -- ----,59544.29999999702,59543.39999999106,59110.003,59120.5,59126.673,59560.083,,25,study
screen,html.Screen,0_2_0_1_26,2021-12-03T10:39:08.221Z,,,,,,,,,,,,,,,,53,,,,,,,,,,,,,,367.3169999910606,,response,,,99,,,,,,Space,keypress(Space),,,,,---- -- ----- -- ------ - ------- --- ----------<br>------------- ------ ------ ---- ---- ------- ----- -- ----<br>-------- ------- -- ---------- --- - --- ----- finds ----<br>---- --- --- ----- --- ---- ---- ------- ----- ---- -------<br>--- --- -- ----- -- --- ---- -- --- ---- -- ------ ------<br>--- ----- -- ----,59928.19999998808,59927.39999999106,59543.413,59544.5,59560.083,59943.604,,26,finds
screen,html.Screen,0_2_0_1_27,2021-12-03T10:39:08.560Z,,,,,,,,,,,,,,,,53,,,,,,,,,,,,,,319.79599999105994,,response,,,99,,,,,,Space,keypress(Space),,,,,---- -- ----- -- ------ - ------- --- ----------<br>------------- ------ ------ ---- ---- ------- ----- -- ----<br>-------- ------- -- ---------- --- - --- ----- ----- that<br>---- --- --- ----- --- ---- ---- ------- ----- ---- -------<br>--- --- -- ----- -- --- ---- -- --- ---- -- ------ ------<br>--- ----- -- ----,60264.19999998808,60263.39999999106,59926.933,59928.39999999106,59943.604,60276.988,,27,that
screen,html.Screen,0_2_0_1_28,2021-12-03T10:39:08.992Z,,,,,,,,,,,,,,,,53,,,,,,,,,,,,,,418.41199999106175,,response,,,99,,,,,,Space,keypress(Space),,,,,---- -- ----- -- ------ - ------- --- ----------<br>------------- ------ ------ ---- ---- ------- ----- -- ----<br>-------- ------- -- ---------- --- - --- ----- ----- ----<br>it's --- --- ----- --- ---- ---- ------- ----- ---- -------<br>--- --- -- ----- -- --- ---- -- --- ---- -- ------ ------<br>--- ----- -- ----,60696.09999999404,60695.39999999106,60260.318,60264.39999999106,60276.988,60710.429,,28,it's
screen,html.Screen,0_2_0_1_29,2021-12-03T10:39:09.368Z,,,,,,,,,,,,,,,,53,,,,,,,,,,,,,,360.97099999106285,,response,,,99,,,,,,Space,keypress(Space),,,,,---- -- ----- -- ------ - ------- --- ----------<br>------------- ------ ------ ---- ---- ------- ----- -- ----<br>-------- ------- -- ---------- --- - --- ----- ----- ----<br>---- not --- ----- --- ---- ---- ------- ----- ---- -------<br>--- --- -- ----- -- --- ---- -- --- ---- -- ------ ------<br>--- ----- -- ----,61072.19999998808,61071.39999999106,60693.759,60696.39999999106,60710.429,61077.235,,29,not
screen,html.Screen,0_2_0_1_30,2021-12-03T10:39:09.712Z,,,,,,,,,,,,,,,,53,,,,,,,,,,,,,,338.1649999910587,,response,,,99,,,,,,Space,keypress(Space),,,,,---- -- ----- -- ------ - ------- --- ----------<br>------------- ------ ------ ---- ---- ------- ----- -- ----<br>-------- ------- -- ---------- --- - --- ----- ----- ----<br>---- --- how ----- --- ---- ---- ------- ----- ---- -------<br>--- --- -- ----- -- --- ---- -- --- ---- -- ------ ------<br>--- ----- -- ----,61416.19999998808,61415.39999999106,61060.564,61072.5,61077.235,61427.288,,30,how
screen,html.Screen,0_2_0_1_31,2021-12-03T10:39:10.088Z,,,,,,,,,,,,,,,,53,,,,,,,,,,,,,,364.0119999970193,,response,,,99,,,,,,Space,keypress(Space),,,,,---- -- ----- -- ------ - ------- --- ----------<br>------------- ------ ------ ---- ---- ------- ----- -- ----<br>-------- ------- -- ---------- --- - --- ----- ----- ----<br>---- --- --- close --- ---- ---- ------- ----- ---- -------<br>--- --- -- ----- -- --- ---- -- --- ---- -- ------ ------<br>--- ----- -- ----,61792.09999999404,61791.29999999702,61410.618,61416.39999999106,61427.288,61794.06,,31,close
screen,html.Screen,0_2_0_1_32,2021-12-03T10:39:10.472Z,,,,,,,,,,,,,,,,53,,,,,,,,,,,,,,381.33999999106163,,response,,,99,,,,,,Space,keypress(Space),,,,,---- -- ----- -- ------ - ------- --- ----------<br>------------- ------ ------ ---- ---- ------- ----- -- ----<br>-------- ------- -- ---------- --- - --- ----- ----- ----<br>---- --- --- ----- you ---- ---- ------- ----- ---- -------<br>--- --- -- ----- -- --- ---- -- --- ---- -- ------ ------<br>--- ----- -- ----,62176.29999999702,62175.39999999106,61777.39,61792.5,61794.06,62177.472,,32,you
screen,html.Screen,0_2_0_1_33,2021-12-03T10:39:10.920Z,,,,,,,,,,,,,,,,53,,,,,,,,,,,,,,445.8279999970182,,response,,,99,,,,,,Space,keypress(Space),,,,,---- -- ----- -- ------ - ------- --- ----------<br>------------- ------ ------ ---- ---- ------- ----- -- ----<br>-------- ------- -- ---------- --- - --- ----- ----- ----<br>---- --- --- ----- --- feel ---- ------- ----- ---- -------<br>--- --- -- ----- -- --- ---- -- --- ---- -- ------ ------<br>--- ----- -- ----,62624.09999999404,62623.29999999702,62160.802,62176.5,62177.472,62627.643,,33,feel
screen,html.Screen,0_2_0_1_34,2021-12-03T10:39:11.289Z,,,,,,,,,,,,,,,,53,,,,,,,,,,,,,,364.1569999970234,,response,,,99,,,,,,Space,keypress(Space),,,,,---- -- ----- -- ------ - ------- --- ----------<br>------------- ------ ------ ---- ---- ------- ----- -- ----<br>-------- ------- -- ---------- --- - --- ----- ----- ----<br>---- --- --- ----- --- ---- that ------- ----- ---- -------<br>--- --- -- ----- -- --- ---- -- --- ---- -- ------ ------<br>--- ----- -- ----,62992.59999999404,62991.79999999702,62610.972,62624.39999999106,62627.643,62994.336,,34,that
screen,html.Screen,0_2_0_1_35,2021-12-03T10:39:11.616Z,,,,,,,,,,,,,,,,53,,,,,,,,,,,,,,324.9639999970168,,response,,,99,,,,,,Space,keypress(Space),,,,,---- -- ----- -- ------ - ------- --- ----------<br>------------- ------ ------ ---- ---- ------- ----- -- ----<br>-------- ------- -- ---------- --- - --- ----- ----- ----<br>---- --- --- ----- --- ---- ---- matters ----- ---- -------<br>--- --- -- ----- -- --- ---- -- --- ---- -- ------ ------<br>--- ----- -- ----,63320.09999999404,63319.29999999702,62977.666,62992.79999999702,62994.336,63327.787,,35,matters
screen,html.Screen,0_2_0_1_36,2021-12-03T10:39:12.064Z,,,,,,,,,,,,,,,,53,,,,,,,,,,,,,,439.51299999702314,,response,,,99,,,,,,Space,keypress(Space),,,,,"---- -- ----- -- ------ - ------- --- ----------<br>------------- ------ ------ ---- ---- ------- ----- -- ----<br>-------- ------- -- ---------- --- - --- ----- ----- ----<br>---- --- --- ----- --- ---- ---- ------- most, ---- -------<br>--- --- -- ----- -- --- ---- -- --- ---- -- ------ ------<br>--- ----- -- ----",63768.29999999702,63767.29999999702,63311.117,63320.39999999106,63327.787,63777.94,,36,"most,"
screen,html.Screen,0_2_0_1_37,2021-12-03T10:39:12.496Z,,,,,,,,,,,,,,,,53,,,,,,,,,,,,,,421.35999999701744,,response,,,99,,,,,,Space,keypress(Space),,,,,---- -- ----- -- ------ - ------- --- ----------<br>------------- ------ ------ ---- ---- ------- ----- -- ----<br>-------- ------- -- ---------- --- - --- ----- ----- ----<br>---- --- --- ----- --- ---- ---- ------- ----- it's -------<br>--- --- -- ----- -- --- ---- -- --- ---- -- ------ ------<br>--- ----- -- ----,64200.09999999404,64199.29999999702,63761.269,63768.5,63777.94,64211.359,,37,it's
screen,html.Screen,0_2_0_1_38,2021-12-03T10:39:12.848Z,,,,,,,,,,,,,,,,53,,,,,,,,,,,,,,339.84099998808233,,response,,,99,,,,,,Space,keypress(Space),,,,,---- -- ----- -- ------ - ------- --- ----------<br>------------- ------ ------ ---- ---- ------- ----- -- ----<br>-------- ------- -- ---------- --- - --- ----- ----- ----<br>---- --- --- ----- --- ---- ---- ------- ----- ---- whether<br>--- --- -- ----- -- --- ---- -- --- ---- -- ------ ------<br>--- ----- -- ----,64552.09999999404,64551.19999998808,64194.689,64200.29999999702,64211.359,64561.46,,38,whether
screen,html.Screen,0_2_0_1_39,2021-12-03T10:39:13.232Z,,,,,,,,,,,,,,,,53,,,,,,,,,,,,,,373.73999998807994,,response,,,99,,,,,,Space,keypress(Space),,,,,---- -- ----- -- ------ - ------- --- ----------<br>------------- ------ ------ ---- ---- ------- ----- -- ----<br>-------- ------- -- ---------- --- - --- ----- ----- ----<br>---- --- --- ----- --- ---- ---- ------- ----- ---- -------<br>you --- -- ----- -- --- ---- -- --- ---- -- ------ ------<br>--- ----- -- ----,64936,64935.19999998808,64544.79,64552.29999999702,64561.46,64944.883,,39,you
screen,html.Screen,0_2_0_1_40,2021-12-03T10:39:13.576Z,,,,,,,,,,,,,,,,53,,,,,,,,,,,,,,334.31699998807744,,response,,,99,,,,,,Space,keypress(Space),,,,,---- -- ----- -- ------ - ------- --- ----------<br>------------- ------ ------ ---- ---- ------- ----- -- ----<br>-------- ------- -- ---------- --- - --- ----- ----- ----<br>---- --- --- ----- --- ---- ---- ------- ----- ---- -------<br>--- are -- ----- -- --- ---- -- --- ---- -- ------ ------<br>--- ----- -- ----,65280,65279.19999998808,64928.213,64936.19999998808,64944.883,65294.986,,40,are
screen,html.Screen,0_2_0_1_41,2021-12-03T10:39:13.960Z,,,,,,,,,,,,,,,,53,,,,,,,,,,,,,,368.3139999970226,,response,,,99,,,,,,Space,keypress(Space),,,,,---- -- ----- -- ------ - ------- --- ----------<br>------------- ------ ------ ---- ---- ------- ----- -- ----<br>-------- ------- -- ---------- --- - --- ----- ----- ----<br>---- --- --- ----- --- ---- ---- ------- ----- ---- -------<br>--- --- as ----- -- --- ---- -- --- ---- -- ------ ------<br>--- ----- -- ----,65664,65663.29999999702,65278.316,65280.19999998808,65294.986,65678.455,,41,as
screen,html.Screen,0_2_0_1_42,2021-12-03T10:39:14.344Z,,,,,,,,,,,,,,,,53,,,,,,,,,,,,,,368.7449999880773,,response,,,99,,,,,,Space,keypress(Space),,,,,---- -- ----- -- ------ - ------- --- ----------<br>------------- ------ ------ ---- ---- ------- ----- -- ----<br>-------- ------- -- ---------- --- - --- ----- ----- ----<br>---- --- --- ----- --- ---- ---- ------- ----- ---- -------<br>--- --- -- close -- --- ---- -- --- ---- -- ------ ------<br>--- ----- -- ----,66048,66047.19999998808,65661.784,65664.19999998808,65678.455,66061.86,,42,close
screen,html.Screen,0_2_0_1_43,2021-12-03T10:39:14.704Z,,,,,,,,,,,,,,,,53,,,,,,,,,,,,,,345.3399999880785,,response,,,99,,,,,,Space,keypress(Space),,,,,---- -- ----- -- ------ - ------- --- ----------<br>------------- ------ ------ ---- ---- ------- ----- -- ----<br>-------- ------- -- ---------- --- - --- ----- ----- ----<br>---- --- --- ----- --- ---- ---- ------- ----- ---- -------<br>--- --- -- ----- as --- ---- -- --- ---- -- ------ ------<br>--- ----- -- ----,66408,66407.19999998808,66045.19,66048.19999998808,66061.86,66411.919,,43,as
screen,html.Screen,0_2_0_1_44,2021-12-03T10:39:15.056Z,,,,,,,,,,,,,,,,53,,,,,,,,,,,,,,347.28099998808466,,response,,,99,,,,,,Space,keypress(Space),,,,,---- -- ----- -- ------ - ------- --- ----------<br>------------- ------ ------ ---- ---- ------- ----- -- ----<br>-------- ------- -- ---------- --- - --- ----- ----- ----<br>---- --- --- ----- --- ---- ---- ------- ----- ---- -------<br>--- --- -- ----- -- you ---- -- --- ---- -- ------ ------<br>--- ----- -- ----,66760,66759.19999998808,66395.249,66408.19999998808,66411.919,66762.077,,44,you
screen,html.Screen,0_2_0_1_45,2021-12-03T10:39:15.400Z,,,,,,,,,,,,,,,,53,,,,,,,,,,,,,,341.02299999403476,,response,,,99,,,,,,Space,keypress(Space),,,,,---- -- ----- -- ------ - ------- --- ----------<br>------------- ------ ------ ---- ---- ------- ----- -- ----<br>-------- ------- -- ---------- --- - --- ----- ----- ----<br>---- --- --- ----- --- ---- ---- ------- ----- ---- -------<br>--- --- -- ----- -- --- want -- --- ---- -- ------ ------<br>--- ----- -- ----,67103.79999999702,67103.09999999404,66745.406,66760.29999999702,66762.077,67112.137,,45,want
screen,html.Screen,0_2_0_1_46,2021-12-03T10:39:15.768Z,,,,,,,,,,,,,,,,53,,,,,,,,,,,,,,358.9629999940371,,response,,,99,,,,,,Space,keypress(Space),,,,,---- -- ----- -- ------ - ------- --- ----------<br>------------- ------ ------ ---- ---- ------- ----- -- ----<br>-------- ------- -- ---------- --- - --- ----- ----- ----<br>---- --- --- ----- --- ---- ---- ------- ----- ---- -------<br>--- --- -- ----- -- --- ---- to --- ---- -- ------ ------<br>--- ----- -- ----,67471.89999999106,67471.09999999404,67095.467,67104.09999999404,67112.137,67478.934,,46,to
screen,html.Screen,0_2_0_1_47,2021-12-03T10:39:16.112Z,,,,,,,,,,,,,,,,53,,,,,,,,,,,,,,336.1659999940457,,response,,,99,,,,,,Space,keypress(Space),,,,,"---- -- ----- -- ------ - ------- --- ----------<br>------------- ------ ------ ---- ---- ------- ----- -- ----<br>-------- ------- -- ---------- --- - --- ----- ----- ----<br>---- --- --- ----- --- ---- ---- ------- ----- ---- -------<br>--- --- -- ----- -- --- ---- -- be, ---- -- ------ ------<br>--- ----- -- ----",67815.89999999106,67815.09999999404,67462.263,67472.09999999404,67478.934,67829.031,,47,"be,"
screen,html.Screen,0_2_0_1_48,2021-12-03T10:39:16.496Z,,,,,,,,,,,,,,,,53,,,,,,,,,,,,,,370.06899999403686,,response,,,99,,,,,,Space,keypress(Space),,,,,---- -- ----- -- ------ - ------- --- ----------<br>------------- ------ ------ ---- ---- ------- ----- -- ----<br>-------- ------- -- ---------- --- - --- ----- ----- ----<br>---- --- --- ----- --- ---- ---- ------- ----- ---- -------<br>--- --- -- ----- -- --- ---- -- --- even -- ------ ------<br>--- ----- -- ----,68199.89999999106,68199.09999999404,67812.36,67816.09999999404,67829.031,68212.429,,48,even
screen,html.Screen,0_2_0_1_49,2021-12-03T10:39:16.864Z,,,,,,,,,,,,,,,,53,,,,,,,,,,,,,,354.6709999940358,,response,,,99,,,,,,Space,keypress(Space),,,,,---- -- ----- -- ------ - ------- --- ----------<br>------------- ------ ------ ---- ---- ------- ----- -- ----<br>-------- ------- -- ---------- --- - --- ----- ----- ----<br>---- --- --- ----- --- ---- ---- ------- ----- ---- -------<br>--- --- -- ----- -- --- ---- -- --- ---- if ------ ------<br>--- ----- -- ----,68567.79999999702,68567.09999999404,68195.759,68200.09999999404,68212.429,68579.232,,49,if
screen,html.Screen,0_2_0_1_50,2021-12-03T10:39:17.184Z,,,,,,,,,,,,,,,,53,,,,,,,,,,,,,,307.7679999999964,,response,,,99,,,,,,Space,keypress(Space),,,,,---- -- ----- -- ------ - ------- --- ----------<br>------------- ------ ------ ---- ---- ------- ----- -- ----<br>-------- ------- -- ---------- --- - --- ----- ----- ----<br>---- --- --- ----- --- ---- ---- ------- ----- ---- -------<br>--- --- -- ----- -- --- ---- -- --- ---- -- that's ------<br>--- ----- -- ----,68887.79999999702,68887,68562.561,68568.09999999404,68579.232,68895.89,,50,that's
screen,html.Screen,0_2_0_1_51,2021-12-03T10:39:17.568Z,,,,,,,,,,,,,,,,53,,,,,,,,,,,,,,375.1100000000006,,response,,,99,,,,,,Space,keypress(Space),,,,,---- -- ----- -- ------ - ------- --- ----------<br>------------- ------ ------ ---- ---- ------- ----- -- ----<br>-------- ------- -- ---------- --- - --- ----- ----- ----<br>---- --- --- ----- --- ---- ---- ------- ----- ---- -------<br>--- --- -- ----- -- --- ---- -- --- ---- -- ------ really<br>--- ----- -- ----,69271.89999999106,69271,68879.221,68888.09999999404,68895.89,69279.286,,51,really
screen,html.Screen,0_2_0_1_52,2021-12-03T10:39:17.912Z,,,,,,,,,,,,,,,,53,,,,,,,,,,,,,,335.7140000000072,,response,,,99,,,,,,Space,keypress(Space),,,,,---- -- ----- -- ------ - ------- --- ----------<br>------------- ------ ------ ---- ---- ------- ----- -- ----<br>-------- ------- -- ---------- --- - --- ----- ----- ----<br>---- --- --- ----- --- ---- ---- ------- ----- ---- -------<br>--- --- -- ----- -- --- ---- -- --- ---- -- ------ ------<br>not ----- -- ----,69615.79999999702,69615,69262.617,69272,69279.286,69629.553,,52,not
screen,html.Screen,0_2_0_1_53,2021-12-03T10:39:18.248Z,,,,,,,,,,,,,,,,53,,,,,,,,,,,,,,321.4470000000001,,response,,,99,,,,,,Space,keypress(Space),,,,,---- -- ----- -- ------ - ------- --- ----------<br>------------- ------ ------ ---- ---- ------- ----- -- ----<br>-------- ------- -- ---------- --- - --- ----- ----- ----<br>---- --- --- ----- --- ---- ---- ------- ----- ---- -------<br>--- --- -- ----- -- --- ---- -- --- ---- -- ------ ------<br>--- close -- ----,69951.79999999702,69951,69612.88,69616,69629.553,69962.931,,53,close
screen,html.Screen,0_2_0_1_54,2021-12-03T10:39:18.576Z,,,,,,,,,,,,,,,,53,,,,,,,,,,,,,,316.06900000000314,,response,,,99,,,,,,Space,keypress(Space),,,,,---- -- ----- -- ------ - ------- --- ----------<br>------------- ------ ------ ---- ---- ------- ----- -- ----<br>-------- ------- -- ---------- --- - --- ----- ----- ----<br>---- --- --- ----- --- ---- ---- ------- ----- ---- -------<br>--- --- -- ----- -- --- ---- -- --- ---- -- ------ ------<br>--- ----- at ----,70279.79999999702,70279,69946.26,69952,69962.931,70296.305,,54,at
screen,html.Screen,0_2_0_1_55,2021-12-03T10:39:19.072Z,,,,,,,,,,,,,,,,53,,,,,,,,,,,,,,478.695000000007,,response,,,99,,,,,,Space,keypress(Space),,,,,---- -- ----- -- ------ - ------- --- ----------<br>------------- ------ ------ ---- ---- ------- ----- -- ----<br>-------- ------- -- ---------- --- - --- ----- ----- ----<br>---- --- --- ----- --- ---- ---- ------- ----- ---- -------<br>--- --- -- ----- -- --- ---- -- --- ---- -- ------ ------<br>--- ----- -- all.,70775.69999998808,70775,70279.635,70280.09999999404,70296.305,70796.492,,55,all.
Item 99,flow.Loop,0_2_0_1,2021-12-03T10:39:19.076Z,,,,,,,,,,,,,,,,,,,,,,,,,,,,,,25918.934999999998,,completion,,,,A,,,,,,,,,,silence,,70780.19999998808,70775,44839.395,44844.79999999702,44856.065,70796.492,,,
Question 1,html.Screen,0_2_0_2,2021-12-03T10:39:24.720Z,,,,,,,,,,,,,,,,,,,,,,,,,,,false,FALSE,,5625.907999991061,,response,,,99,A,,,,,TRUE,click #choice-1,,,,silence,,76423.79999999702,76422.39999999106,70779.821,70780.39999999106,70796.492,76431.269,,,
Question 2,html.Screen,0_2_0_3,2021-12-03T10:39:29.575Z,,,,,,,,,,,,,,,,,,,,,,,,,,,true,TRUE,,4846.930999988079,,response,,,99,A,,,,,TRUE,click #choice-1,,,,silence,,81279.39999999106,81278.19999998808,76414.599,76424.09999999404,76431.269,81282.6,,,
Item 99,flow.Sequence,0_2_0,2021-12-03T10:39:29.576Z,,,,,,,,,,,,,,,,,,,,,,,,,,,,,,46424.82999998808,,completion,,,,,,,,,,,,,,,,81279.79999999702,81278.19999998808,34836.7,34850.5,34853.37,81282.6,,,
Holding screen,html.Screen,0_2_1_0,2021-12-03T10:39:39.566Z,,,,,,,,,,,,,,,,,,,,,,,,,,,,,,10002.525999999998,,timeout,,,,,,,,,,,,,,,,91269.89999999106,91268.456,81265.929,81280.09999999404,81282.6,91285.126,,,
screen,html.Screen,0_2_1_1_0,2021-12-03T10:39:40.831Z,,,,,,,,,,,,,,,,54,,,,,,,,,,,,,,1249.173999997016,,response,,,100,,,,,,Space,keypress(Space),,,,,At --- ---- --- ------ ----- ------- ---- -- --- ------- --<br>------- ---------- ------ -- ----- -- ----- -- ---- ------<br>--- ----- --- --- ------ -------- ----- --- ------ ----- --<br>----- ----- ---------- --- --- ------ ------ ---- -- ------<br>------- --- ------ ----- --- ---- ------- -- ---- --- --<br>------- ------,92535.39999999106,92534.29999999702,91268.456,91270.19999998808,91285.126,92552.228,,0,At
screen,html.Screen,0_2_1_1_1,2021-12-03T10:39:41.343Z,,,,,,,,,,,,,,,,54,,,,,,,,,,,,,,493.7719999999972,,response,,,100,,,,,,Space,keypress(Space),,,,,-- the ---- --- ------ ----- ------- ---- -- --- ------- --<br>------- ---------- ------ -- ----- -- ----- -- ---- ------<br>--- ----- --- --- ------ -------- ----- --- ------ ----- --<br>----- ----- ---------- --- --- ------ ------ ---- -- ------<br>------- --- ------ ----- --- ---- ------- -- ---- --- --<br>------- ------,93046.79999999702,93046,92535.557,92535.59999999404,92552.228,93052.286,,1,the
screen,html.Screen,0_2_1_1_2,2021-12-03T10:39:41.895Z,,,,,,,,,,,,,,,,54,,,,,,,,,,,,,,545.6139999910665,,response,,,100,,,,,,Space,keypress(Space),,,,,-- --- time --- ------ ----- ------- ---- -- --- ------- --<br>------- ---------- ------ -- ----- -- ----- -- ---- ------<br>--- ----- --- --- ------ -------- ----- --- ------ ----- --<br>----- ----- ---------- --- --- ------ ------ ---- -- ------<br>------- --- ------ ----- --- ---- ------- -- ---- --- --<br>------- ------,93598.69999998808,93597.89999999106,93035.616,93047,93052.286,93602.447,,2,time
screen,html.Screen,0_2_1_1_3,2021-12-03T10:39:42.351Z,,,,,,,,,,,,,,,,54,,,,,,,,,,,,,,451.35299999701965,,response,,,100,,,,,,Space,keypress(Space),,,,,-- --- ---- the ------ ----- ------- ---- -- --- ------- --<br>------- ---------- ------ -- ----- -- ----- -- ---- ------<br>--- ----- --- --- ------ -------- ----- --- ------ ----- --<br>----- ----- ---------- --- --- ------ ------ ---- -- ------<br>------- --- ------ ----- --- ---- ------- -- ---- --- --<br>------- ------,94054.59999999404,94053.79999999702,93585.777,93599.09999999404,93602.447,94069.419,,3,the
screen,html.Screen,0_2_1_1_4,2021-12-03T10:39:42.889Z,,,,,,,,,,,,,,,,54,,,,,,,,,,,,,,520.3809999970254,,response,,,100,,,,,,Space,keypress(Space),,,,,-- --- ---- --- French ----- ------- ---- -- --- ------- --<br>------- ---------- ------ -- ----- -- ----- -- ---- ------<br>--- ----- --- --- ------ -------- ----- --- ------ ----- --<br>----- ----- ---------- --- --- ------ ------ ---- -- ------<br>------- --- ------ ----- --- ---- ------- -- ---- --- --<br>------- ------,94593.09999999404,94589.79999999702,94052.746,94054.79999999702,94069.419,94602.815,,4,French
screen,html.Screen,0_2_1_1_5,2021-12-03T10:39:44.214Z,,,,,,,,,,,,,,,,54,,,,,,,,,,,,,,1314.9849999970174,,response,,,100,,,,,,Space,keypress(Space),,,,,-- --- ---- --- ------ crown ------- ---- -- --- ------- --<br>------- ---------- ------ -- ----- -- ----- -- ---- ------<br>--- ----- --- --- ------ -------- ----- --- ------ ----- --<br>----- ----- ---------- --- --- ------ ------ ---- -- ------<br>------- --- ------ ----- --- ---- ------- -- ---- --- --<br>------- ------,95918.59999999404,95917.79999999702,94586.144,94593.5,94602.815,95919.728,,5,crown
screen,html.Screen,0_2_1_1_6,2021-12-03T10:39:44.542Z,,,,,,,,,,,,,,,,54,,,,,,,,,,,,,,325.9719999880763,,response,,,100,,,,,,Space,keypress(Space),,,,,-- --- ---- --- ------ ----- secured ---- -- --- ------- --<br>------- ---------- ------ -- ----- -- ----- -- ---- ------<br>--- ----- --- --- ------ -------- ----- --- ------ ----- --<br>----- ----- ---------- --- --- ------ ------ ---- -- ------<br>------- --- ------ ----- --- ---- ------- -- ---- --- --<br>------- ------,96246.5,96245.69999998808,95903.058,95918.69999998808,95919.728,96253.005,,6,secured
screen,html.Screen,0_2_1_1_7,2021-12-03T10:39:44.902Z,,,,,,,,,,,,,,,,54,,,,,,,,,,,,,,352.6949999880744,,response,,,100,,,,,,Space,keypress(Space),,,,,-- --- ---- --- ------ ----- ------- much -- --- ------- --<br>------- ---------- ------ -- ----- -- ----- -- ---- ------<br>--- ----- --- --- ------ -------- ----- --- ------ ----- --<br>----- ----- ---------- --- --- ------ ------ ---- -- ------<br>------- --- ------ ----- --- ---- ------- -- ---- --- --<br>------- ------,96606.5,96605.69999998808,96236.336,96246.69999998808,96253.005,96620.025,,7,much
screen,html.Screen,0_2_1_1_8,2021-12-03T10:39:45.526Z,,,,,,,,,,,,,,,,54,,,,,,,,,,,,,,609.6749999880849,,response,,,100,,,,,,Space,keypress(Space),,,,,-- --- ---- --- ------ ----- ------- ---- of --- ------- --<br>------- ---------- ------ -- ----- -- ----- -- ---- ------<br>--- ----- --- --- ------ -------- ----- --- ------ ----- --<br>----- ----- ---------- --- --- ------ ------ ---- -- ------<br>------- --- ------ ----- --- ---- ------- -- ---- --- --<br>------- ------,97230.5,97229.69999998808,96603.354,96606.69999998808,96620.025,97236.795,,8,of
screen,html.Screen,0_2_1_1_9,2021-12-03T10:39:45.942Z,,,,,,,,,,,,,,,,54,,,,,,,,,,,,,,408.9049999880808,,response,,,100,,,,,,Space,keypress(Space),,,,,-- --- ---- --- ------ ----- ------- ---- -- its ------- --<br>------- ---------- ------ -- ----- -- ----- -- ---- ------<br>--- ----- --- --- ------ -------- ----- --- ------ ----- --<br>----- ----- ---------- --- --- ------ ------ ---- -- ------<br>------- --- ------ ----- --- ---- ------- -- ---- --- --<br>------- ------,97646.5,97645.69999998808,97220.125,97230.69999998808,97236.795,97653.594,,9,its
screen,html.Screen,0_2_1_1_10,2021-12-03T10:39:47.166Z,,,,,,,,,,,,,,,,54,,,,,,,,,,,,,,1216.1059999880817,,response,,,100,,,,,,Space,keypress(Space),,,,,-- --- ---- --- ------ ----- ------- ---- -- --- revenue --<br>------- ---------- ------ -- ----- -- ----- -- ---- ------<br>--- ----- --- --- ------ -------- ----- --- ------ ----- --<br>----- ----- ---------- --- --- ------ ------ ---- -- ------<br>------- --- ------ ----- --- ---- ------- -- ---- --- --<br>------- ------,98870.5,98869.69999998808,97636.924,97646.69999998808,97653.594,98887.191,,10,revenue
screen,html.Screen,0_2_1_1_11,2021-12-03T10:39:47.630Z,,,,,,,,,,,,,,,,54,,,,,,,,,,,,,,446.40899999403337,,response,,,100,,,,,,Space,keypress(Space),,,,,-- --- ---- --- ------ ----- ------- ---- -- --- ------- by<br>------- ---------- ------ -- ----- -- ----- -- ---- ------<br>--- ----- --- --- ------ -------- ----- --- ------ ----- --<br>----- ----- ---------- --- --- ------ ------ ---- -- ------<br>------- --- ------ ----- --- ---- ------- -- ---- --- --<br>------- ------,99334.5,99333.59999999404,98870.521,98870.79999999702,98887.191,99337.408,,11,by
screen,html.Screen,0_2_1_1_12,2021-12-03T10:39:48.134Z,,,,,,,,,,,,,,,,54,,,,,,,,,,,,,,500.1919999940437,,response,,,100,,,,,,Space,keypress(Space),,,,,-- --- ---- --- ------ ----- ------- ---- -- --- ------- --<br>issuing ---------- ------ -- ----- -- ----- -- ---- ------<br>--- ----- --- --- ------ -------- ----- --- ------ ----- --<br>----- ----- ---------- --- --- ------ ------ ---- -- ------<br>------- --- ------ ----- --- ---- ------- -- ---- --- --<br>------- ------,99838.5,99837.59999999404,99320.737,99334.69999998808,99337.408,99854.168,,12,issuing
screen,html.Screen,0_2_1_1_13,2021-12-03T10:39:48.590Z,,,,,,,,,,,,,,,,54,,,,,,,,,,,,,,439.4319999940344,,response,,,100,,,,,,Space,keypress(Space),,,,,-- --- ---- --- ------ ----- ------- ---- -- --- ------- --<br>------- government ------ -- ----- -- ----- -- ---- ------<br>--- ----- --- --- ------ -------- ----- --- ------ ----- --<br>----- ----- ---------- --- --- ------ ------ ---- -- ------<br>------- --- ------ ----- --- ---- ------- -- ---- --- --<br>------- ------,100294.39999999106,100293.59999999404,99837.498,99838.69999998808,99854.168,100304.278,,13,government
screen,html.Screen,0_2_1_1_14,2021-12-03T10:39:50.230Z,,,,,,,,,,,,,,,,54,,,,,,,,,,,,,,1629.2219999999943,,response,,,100,,,,,,Space,keypress(Space),,,,,-- --- ---- --- ------ ----- ------- ---- -- --- ------- --<br>------- ---------- bonds. -- ----- -- ----- -- ---- ------<br>--- ----- --- --- ------ -------- ----- --- ------ ----- --<br>----- ----- ---------- --- --- ------ ------ ---- -- ------<br>------- --- ------ ----- --- ---- ------- -- ---- --- --<br>------- ------,101934.29999999702,101933.5,100287.608,100294.59999999404,100304.278,101937.974,,14,bonds.
screen,html.Screen,0_2_1_1_15,2021-12-03T10:39:50.662Z,,,,,,,,,,,,,,,,54,,,,,,,,,,,,,,427.525999999998,,response,,,100,,,,,,Space,keypress(Space),,,,,-- --- ---- --- ------ ----- ------- ---- -- --- ------- --<br>------- ---------- ------ In ----- -- ----- -- ---- ------<br>--- ----- --- --- ------ -------- ----- --- ------ ----- --<br>----- ----- ---------- --- --- ------ ------ ---- -- ------<br>------- --- ------ ----- --- ---- ------- -- ---- --- --<br>------- ------,102366.5,102365.5,101921.304,101934.59999999404,101937.974,102371.501,,15,In
screen,html.Screen,0_2_1_1_16,2021-12-03T10:39:51.663Z,,,,,,,,,,,,,,,,54,,,,,,,,,,,,,,994.3989999910555,,response,,,100,,,,,,Space,keypress(Space),,,,,"-- --- ---- --- ------ ----- ------- ---- -- --- ------- --<br>------- ---------- ------ -- 1727, -- ----- -- ---- ------<br>--- ----- --- --- ------ -------- ----- --- ------ ----- --<br>----- ----- ---------- --- --- ------ ------ ---- -- ------<br>------- --- ------ ----- --- ---- ------- -- ---- --- --<br>------- ------",103366.59999999404,103365.89999999106,102354.831,102366.79999999702,102371.501,103371.669,,16,"1727,"
screen,html.Screen,0_2_1_1_17,2021-12-03T10:39:52.278Z,,,,,,,,,,,,,,,,54,,,,,,,,,,,,,,609.8310000000056,,response,,,100,,,,,,Space,keypress(Space),,,,,-- --- ---- --- ------ ----- ------- ---- -- --- ------- --<br>------- ---------- ------ -- ----- in ----- -- ---- ------<br>--- ----- --- --- ------ -------- ----- --- ------ ----- --<br>----- ----- ---------- --- --- ------ ------ ---- -- ------<br>------- --- ------ ----- --- ---- ------- -- ---- --- --<br>------- ------,103982.29999999702,103981.5,103354.999,103367,103371.669,103988.757,,17,in
screen,html.Screen,0_2_1_1_18,2021-12-03T10:39:53.430Z,,,,,,,,,,,,,,,,54,,,,,,,,,,,,,,1144.6429999910615,,response,,,100,,,,,,Space,keypress(Space),,,,,-- --- ---- --- ------ ----- ------- ---- -- --- ------- --<br>------- ---------- ------ -- ----- -- order -- ---- ------<br>--- ----- --- --- ------ -------- ----- --- ------ ----- --<br>----- ----- ---------- --- --- ------ ------ ---- -- ------<br>------- --- ------ ----- --- ---- ------- -- ---- --- --<br>------- ------,105134.19999998808,105133.39999999106,103972.084,103982.59999999404,103988.757,105138.847,,18,order
screen,html.Screen,0_2_1_1_19,2021-12-03T10:39:53.766Z,,,,,,,,,,,,,,,,54,,,,,,,,,,,,,,330.552999991065,,response,,,100,,,,,,Space,keypress(Space),,,,,-- --- ---- --- ------ ----- ------- ---- -- --- ------- --<br>------- ---------- ------ -- ----- -- ----- to ---- ------<br>--- ----- --- --- ------ -------- ----- --- ------ ----- --<br>----- ----- ---------- --- --- ------ ------ ---- -- ------<br>------- --- ------ ----- --- ---- ------- -- ---- --- --<br>------- ------,105470.09999999404,105469.39999999106,105122.177,105134.5,105138.847,105472.335,,19,to
screen,html.Screen,0_2_1_1_20,2021-12-03T10:39:54.046Z,,,,,,,,,,,,,,,,54,,,,,,,,,,,,,,276.96499999701336,,response,,,100,,,,,,Space,keypress(Space),,,,,-- --- ---- --- ------ ----- ------- ---- -- --- ------- --<br>------- ---------- ------ -- ----- -- ----- -- save ------<br>--- ----- --- --- ------ -------- ----- --- ------ ----- --<br>----- ----- ---------- --- --- ------ ------ ---- -- ------<br>------- --- ------ ----- --- ---- ------- -- ---- --- --<br>------- ------,105750.09999999404,105749.29999999702,105455.665,105470.29999999702,105472.335,105755.735,,20,save
screen,html.Screen,0_2_1_1_21,2021-12-03T10:39:54.422Z,,,,,,,,,,,,,,,,54,,,,,,,,,,,,,,369.5649999970192,,response,,,100,,,,,,Space,keypress(Space),,,,,"-- --- ---- --- ------ ----- ------- ---- -- --- ------- --<br>------- ---------- ------ -- ----- -- ----- -- ---- money,<br>--- ----- --- --- ------ -------- ----- --- ------ ----- --<br>----- ----- ---------- --- --- ------ ------ ---- -- ------<br>------- --- ------ ----- --- ---- ------- -- ---- --- --<br>------- ------",106126.09999999404,106125.29999999702,105739.065,105750.39999999106,105755.735,106139.202,,21,"money,"
screen,html.Screen,0_2_1_1_22,2021-12-03T10:39:54.878Z,,,,,,,,,,,,,,,,54,,,,,,,,,,,,,,442.097999997015,,response,,,100,,,,,,Space,keypress(Space),,,,,-- --- ---- --- ------ ----- ------- ---- -- --- ------- --<br>------- ---------- ------ -- ----- -- ----- -- ---- ------<br>the ----- --- --- ------ -------- ----- --- ------ ----- --<br>----- ----- ---------- --- --- ------ ------ ---- -- ------<br>------- --- ------ ----- --- ---- ------- -- ---- --- --<br>------- ------,106582.09999999404,106581.29999999702,106122.531,106126.29999999702,106139.202,106589.291,,22,the
screen,html.Screen,0_2_1_1_23,2021-12-03T10:39:55.262Z,,,,,,,,,,,,,,,,54,,,,,,,,,,,,,,376.10899999106186,,response,,,100,,,,,,Space,keypress(Space),,,,,-- --- ---- --- ------ ----- ------- ---- -- --- ------- --<br>------- ---------- ------ -- ----- -- ----- -- ---- ------<br>--- state --- --- ------ -------- ----- --- ------ ----- --<br>----- ----- ---------- --- --- ------ ------ ---- -- ------<br>------- --- ------ ----- --- ---- ------- -- ---- --- --<br>------- ------,106966.19999998808,106965.39999999106,106572.621,106582.29999999702,106589.291,106972.735,,23,state
screen,html.Screen,0_2_1_1_24,2021-12-03T10:39:55.630Z,,,,,,,,,,,,,,,,54,,,,,,,,,,,,,,360.5649999970192,,response,,,100,,,,,,Space,keypress(Space),,,,,-- --- ---- --- ------ ----- ------- ---- -- --- ------- --<br>------- ---------- ------ -- ----- -- ----- -- ---- ------<br>--- ----- cut --- ------ -------- ----- --- ------ ----- --<br>----- ----- ---------- --- --- ------ ------ ---- -- ------<br>------- --- ------ ----- --- ---- ------- -- ---- --- --<br>------- ------,107334.09999999404,107333.29999999702,106956.065,106966.5,106972.735,107339.536,,24,cut
screen,html.Screen,0_2_1_1_25,2021-12-03T10:39:56.142Z,,,,,,,,,,,,,,,,54,,,,,,,,,,,,,,505.763999997027,,response,,,100,,,,,,Space,keypress(Space),,,,,-- --- ---- --- ------ ----- ------- ---- -- --- ------- --<br>------- ---------- ------ -- ----- -- ----- -- ---- ------<br>--- ----- --- the ------ -------- ----- --- ------ ----- --<br>----- ----- ---------- --- --- ------ ------ ---- -- ------<br>------- --- ------ ----- --- ---- ------- -- ---- --- --<br>------- ------,107845.89999999106,107845.29999999702,107322.865,107334.29999999702,107339.536,107856.28,,25,the
screen,html.Screen,0_2_1_1_26,2021-12-03T10:39:56.502Z,,,,,,,,,,,,,,,,54,,,,,,,,,,,,,,348.91999998808024,,response,,,100,,,,,,Space,keypress(Space),,,,,-- --- ---- --- ------ ----- ------- ---- -- --- ------- --<br>------- ---------- ------ -- ----- -- ----- -- ---- ------<br>--- ----- --- --- bonds' -------- ----- --- ------ ----- --<br>----- ----- ---------- --- --- ------ ------ ---- -- ------<br>------- --- ------ ----- --- ---- ------- -- ---- --- --<br>------- ------,108206,108205.19999998808,107839.61,107846.19999998808,107856.28,108223.104,,26,bonds'
screen,html.Screen,0_2_1_1_27,2021-12-03T10:39:57.030Z,,,,,,,,,,,,,,,,54,,,,,,,,,,,,,,510.09599998807244,,response,,,100,,,,,,Space,keypress(Space),,,,,-- --- ---- --- ------ ----- ------- ---- -- --- ------- --<br>------- ---------- ------ -- ----- -- ----- -- ---- ------<br>--- ----- --- --- ------ interest ----- --- ------ ----- --<br>----- ----- ---------- --- --- ------ ------ ---- -- ------<br>------- --- ------ ----- --- ---- ------- -- ---- --- --<br>------- ------,108734,108733.19999998808,108206.433,108206.19999998808,108223.104,108739.857,,27,interest
screen,html.Screen,0_2_1_1_28,2021-12-03T10:39:58.030Z,,,,,,,,,,,,,,,,54,,,,,,,,,,,,,,993.2429999940359,,response,,,100,,,,,,Space,keypress(Space),,,,,-- --- ---- --- ------ ----- ------- ---- -- --- ------- --<br>------- ---------- ------ -- ----- -- ----- -- ---- ------<br>--- ----- --- --- ------ -------- rate. --- ------ ----- --<br>----- ----- ---------- --- --- ------ ------ ---- -- ------<br>------- --- ------ ----- --- ---- ------- -- ---- --- --<br>------- ------,109734,109733.09999999404,108723.187,108734.19999998808,108739.857,109740.083,,28,rate.
screen,html.Screen,0_2_1_1_29,2021-12-03T10:39:58.390Z,,,,,,,,,,,,,,,,54,,,,,,,,,,,,,,353.11699998808035,,response,,,100,,,,,,Space,keypress(Space),,,,,-- --- ---- --- ------ ----- ------- ---- -- --- ------- --<br>------- ---------- ------ -- ----- -- ----- -- ---- ------<br>--- ----- --- --- ------ -------- ----- The ------ ----- --<br>----- ----- ---------- --- --- ------ ------ ---- -- ------<br>------- --- ------ ----- --- ---- ------- -- ---- --- --<br>------- ------,110093.89999999106,110093.19999998808,109723.413,109734.19999998808,109740.083,110106.943,,29,The
screen,html.Screen,0_2_1_1_30,2021-12-03T10:39:58.726Z,,,,,,,,,,,,,,,,54,,,,,,,,,,,,,,322.15699999404023,,response,,,100,,,,,,Space,keypress(Space),,,,,-- --- ---- --- ------ ----- ------- ---- -- --- ------- --<br>------- ---------- ------ -- ----- -- ----- -- ---- ------<br>--- ----- --- --- ------ -------- ----- --- market ----- --<br>----- ----- ---------- --- --- ------ ------ ---- -- ------<br>------- --- ------ ----- --- ---- ------- -- ---- --- --<br>------- ------,110429.89999999106,110429.09999999404,110090.272,110094.19999998808,110106.943,110440.312,,30,market
screen,html.Screen,0_2_1_1_31,2021-12-03T10:39:59.070Z,,,,,,,,,,,,,,,,54,,,,,,,,,,,,,,332.7879999940342,,response,,,100,,,,,,Space,keypress(Space),,,,,-- --- ---- --- ------ ----- ------- ---- -- --- ------- --<br>------- ---------- ------ -- ----- -- ----- -- ---- ------<br>--- ----- --- --- ------ -------- ----- --- ------ value --<br>----- ----- ---------- --- --- ------ ------ ---- -- ------<br>------- --- ------ ----- --- ---- ------- -- ---- --- --<br>------- ------,110773.89999999106,110773.09999999404,110423.642,110430.19999998808,110440.312,110790.454,,31,value
screen,html.Screen,0_2_1_1_32,2021-12-03T10:39:59.486Z,,,,,,,,,,,,,,,,54,,,,,,,,,,,,,,398.64599999404163,,response,,,100,,,,,,Space,keypress(Space),,,,,-- --- ---- --- ------ ----- ------- ---- -- --- ------- --<br>------- ---------- ------ -- ----- -- ----- -- ---- ------<br>--- ----- --- --- ------ -------- ----- --- ------ ----- of<br>----- ----- ---------- --- --- ------ ------ ---- -- ------<br>------- --- ------ ----- --- ---- ------- -- ---- --- --<br>------- ------,111189.89999999106,111189.09999999404,110773.783,110774.09999999404,110790.454,111207.174,,32,of
screen,html.Screen,0_2_1_1_33,2021-12-03T10:39:59.910Z,,,,,,,,,,,,,,,,54,,,,,,,,,,,,,,405.92599999404047,,response,,,100,,,,,,Space,keypress(Space),,,,,-- --- ---- --- ------ ----- ------- ---- -- --- ------- --<br>------- ---------- ------ -- ----- -- ----- -- ---- ------<br>--- ----- --- --- ------ -------- ----- --- ------ ----- --<br>these ----- ---------- --- --- ------ ------ ---- -- ------<br>------- --- ------ ----- --- ---- ------- -- ---- --- --<br>------- ------,111613.79999999702,111613.09999999404,111190.504,111190.09999999404,111207.174,111624,,33,these
screen,html.Screen,0_2_1_1_34,2021-12-03T10:40:00.302Z,,,,,,,,,,,,,,,,54,,,,,,,,,,,,,,381,,response,,,100,,,,,,Space,keypress(Space),,,,,-- --- ---- --- ------ ----- ------- ---- -- --- ------- --<br>------- ---------- ------ -- ----- -- ----- -- ---- ------<br>--- ----- --- --- ------ -------- ----- --- ------ ----- --<br>----- bonds ---------- --- --- ------ ------ ---- -- ------<br>------- --- ------ ----- --- ---- ------- -- ---- --- --<br>------- ------,112005.79999999702,112005,111607.329,111614.09999999404,111624,112007.396,,34,bonds
screen,html.Screen,0_2_1_1_35,2021-12-03T10:40:00.702Z,,,,,,,,,,,,,,,,54,,,,,,,,,,,,,,397.50399999106594,,response,,,100,,,,,,Space,keypress(Space),,,,,"-- --- ---- --- ------ ----- ------- ---- -- --- ------- --<br>------- ---------- ------ -- ----- -- ----- -- ---- ------<br>--- ----- --- --- ------ -------- ----- --- ------ ----- --<br>----- ----- plummeted, --- --- ------ ------ ---- -- ------<br>------- --- ------ ----- --- ---- ------- -- ---- --- --<br>------- ------",112405.69999998808,112404.89999999106,111990.726,112006.09999999404,112007.396,112407.498,,35,"plummeted,"
screen,html.Screen,0_2_1_1_36,2021-12-03T10:40:01.390Z,,,,,,,,,,,,,,,,54,,,,,,,,,,,,,,685.5019999999931,,response,,,100,,,,,,Space,keypress(Space),,,,,-- --- ---- --- ------ ----- ------- ---- -- --- ------- --<br>------- ---------- ------ -- ----- -- ----- -- ---- ------<br>--- ----- --- --- ------ -------- ----- --- ------ ----- --<br>----- ----- ---------- and --- ------ ------ ---- -- ------<br>------- --- ------ ----- --- ---- ------- -- ---- --- --<br>------- ------,113093.79999999702,113093,112390.828,112405.89999999106,112407.498,113107.672,,36,and
screen,html.Screen,0_2_1_1_37,2021-12-03T10:40:01.806Z,,,,,,,,,,,,,,,,54,,,,,,,,,,,,,,401.72799999105337,,response,,,100,,,,,,Space,keypress(Space),,,,,-- --- ---- --- ------ ----- ------- ---- -- --- ------- --<br>------- ---------- ------ -- ----- -- ----- -- ---- ------<br>--- ----- --- --- ------ -------- ----- --- ------ ----- --<br>----- ----- ---------- --- the ------ ------ ---- -- ------<br>------- --- ------ ----- --- ---- ------- -- ---- --- --<br>------- ------,113510.09999999404,113509.39999999106,113091.002,113094,113107.672,113524.513,,37,the
screen,html.Screen,0_2_1_1_38,2021-12-03T10:40:02.118Z,,,,,,,,,,,,,,,,54,,,,,,,,,,,,,,296.386999991053,,response,,,100,,,,,,Space,keypress(Space),,,,,-- --- ---- --- ------ ----- ------- ---- -- --- ------- --<br>------- ---------- ------ -- ----- -- ----- -- ---- ------<br>--- ----- --- --- ------ -------- ----- --- ------ ----- --<br>----- ----- ---------- --- --- market ------ ---- -- ------<br>------- --- ------ ----- --- ---- ------- -- ---- --- --<br>------- ------,113821.69999998808,113820.89999999106,113507.842,113510.39999999106,113524.513,113824.512,,38,market
screen,html.Screen,0_2_1_1_39,2021-12-03T10:40:02.534Z,,,,,,,,,,,,,,,,54,,,,,,,,,,,,,,412.48799999999756,,response,,,100,,,,,,Space,keypress(Space),,,,,-- --- ---- --- ------ ----- ------- ---- -- --- ------- --<br>------- ---------- ------ -- ----- -- ----- -- ---- ------<br>--- ----- --- --- ------ -------- ----- --- ------ ----- --<br>----- ----- ---------- --- --- ------ became ---- -- ------<br>------- --- ------ ----- --- ---- ------- -- ---- --- --<br>------- ------,114237.79999999702,114237,113807.842,113821.89999999106,113824.512,114241.402,,39,became
screen,html.Screen,0_2_1_1_40,2021-12-03T10:40:02.862Z,,,,,,,,,,,,,,,,54,,,,,,,,,,,,,,323.49799999105744,,response,,,100,,,,,,Space,keypress(Space),,,,,-- --- ---- --- ------ ----- ------- ---- -- --- ------- --<br>------- ---------- ------ -- ----- -- ----- -- ---- ------<br>--- ----- --- --- ------ -------- ----- --- ------ ----- --<br>----- ----- ---------- --- --- ------ ------ wary -- ------<br>------- --- ------ ----- --- ---- ------- -- ---- --- --<br>------- ------,114565.79999999702,114564.89999999106,114224.73,114238,114241.402,114574.746,,40,wary
screen,html.Screen,0_2_1_1_41,2021-12-03T10:40:03.246Z,,,,,,,,,,,,,,,,54,,,,,,,,,,,,,,374.1539999910601,,response,,,100,,,,,,Space,keypress(Space),,,,,-- --- ---- --- ------ ----- ------- ---- -- --- ------- --<br>------- ---------- ------ -- ----- -- ----- -- ---- ------<br>--- ----- --- --- ------ -------- ----- --- ------ ----- --<br>----- ----- ---------- --- --- ------ ------ ---- of ------<br>------- --- ------ ----- --- ---- ------- -- ---- --- --<br>------- ------,114949.69999998808,114948.89999999106,114558.076,114566,114574.746,114958.185,,41,of
screen,html.Screen,0_2_1_1_42,2021-12-03T10:40:03.806Z,,,,,,,,,,,,,,,,54,,,,,,,,,,,,,,550.7149999910616,,response,,,100,,,,,,Space,keypress(Space),,,,,-- --- ---- --- ------ ----- ------- ---- -- --- ------- --<br>------- ---------- ------ -- ----- -- ----- -- ---- ------<br>--- ----- --- --- ------ -------- ----- --- ------ ----- --<br>----- ----- ---------- --- --- ------ ------ ---- -- French<br>------- --- ------ ----- --- ---- ------- -- ---- --- --<br>------- ------,115509.89999999106,115508.89999999106,114941.515,114949.89999999106,114958.185,115525.046,,42,French
screen,html.Screen,0_2_1_1_43,2021-12-03T10:40:04.558Z,,,,,,,,,,,,,,,,54,,,,,,,,,,,,,,735.7539999970177,,response,,,100,,,,,,Space,keypress(Space),,,,,-- --- ---- --- ------ ----- ------- ---- -- --- ------- --<br>------- ---------- ------ -- ----- -- ----- -- ---- ------<br>--- ----- --- --- ------ -------- ----- --- ------ ----- --<br>----- ----- ---------- --- --- ------ ------ ---- -- ------<br>credit. --- ------ ----- --- ---- ------- -- ---- --- --<br>------- ------,116261.59999999404,116260.79999999702,115508.375,115510.09999999404,115525.046,116275.157,,43,credit.
screen,html.Screen,0_2_1_1_44,2021-12-03T10:40:04.902Z,,,,,,,,,,,,,,,,54,,,,,,,,,,,,,,329.7429999910528,,response,,,100,,,,,,Space,keypress(Space),,,,,-- --- ---- --- ------ ----- ------- ---- -- --- ------- --<br>------- ---------- ------ -- ----- -- ----- -- ---- ------<br>--- ----- --- --- ------ -------- ----- --- ------ ----- --<br>----- ----- ---------- --- --- ------ ------ ---- -- ------<br>------- The ------ ----- --- ---- ------- -- ---- --- --<br>------- ------,116605.69999998808,116604.89999999106,116258.487,116261.79999999702,116275.157,116608.668,,44,The
screen,html.Screen,0_2_1_1_45,2021-12-03T10:40:05.286Z,,,,,,,,,,,,,,,,54,,,,,,,,,,,,,,380.13199999701465,,response,,,100,,,,,,Space,keypress(Space),,,,,-- --- ---- --- ------ ----- ------- ---- -- --- ------- --<br>------- ---------- ------ -- ----- -- ----- -- ---- ------<br>--- ----- --- --- ------ -------- ----- --- ------ ----- --<br>----- ----- ---------- --- --- ------ ------ ---- -- ------<br>------- --- French ----- --- ---- ------- -- ---- --- --<br>------- ------,116989.59999999404,116988.79999999702,116591.997,116605.89999999106,116608.668,116992.073,,45,French
screen,html.Screen,0_2_1_1_46,2021-12-03T10:40:05.630Z,,,,,,,,,,,,,,,,54,,,,,,,,,,,,,,340.7269999970158,,response,,,100,,,,,,Space,keypress(Space),,,,,-- --- ---- --- ------ ----- ------- ---- -- --- ------- --<br>------- ---------- ------ -- ----- -- ----- -- ---- ------<br>--- ----- --- --- ------ -------- ----- --- ------ ----- --<br>----- ----- ---------- --- --- ------ ------ ---- -- ------<br>------- --- ------ state --- ---- ------- -- ---- --- --<br>------- ------,117333.69999998808,117332.79999999702,116975.403,116989.79999999702,116992.073,117342.157,,46,state
screen,html.Screen,0_2_1_1_47,2021-12-03T10:40:06.702Z,,,,,,,,,,,,,,,,54,,,,,,,,,,,,,,1062.5429999880726,,response,,,100,,,,,,Space,keypress(Space),,,,,-- --- ---- --- ------ ----- ------- ---- -- --- ------- --<br>------- ---------- ------ -- ----- -- ----- -- ---- ------<br>--- ----- --- --- ------ -------- ----- --- ------ ----- --<br>----- ----- ---------- --- --- ------ ------ ---- -- ------<br>------- --- ------ ----- was ---- ------- -- ---- --- --<br>------- ------,118405.59999999404,118404.69999998808,117325.487,117333.89999999106,117342.157,118408.85,,47,was
screen,html.Screen,0_2_1_1_48,2021-12-03T10:40:07.062Z,,,,,,,,,,,,,,,,54,,,,,,,,,,,,,,355.84999998807325,,response,,,100,,,,,,Space,keypress(Space),,,,,-- --- ---- --- ------ ----- ------- ---- -- --- ------- --<br>------- ---------- ------ -- ----- -- ----- -- ---- ------<br>--- ----- --- --- ------ -------- ----- --- ------ ----- --<br>----- ----- ---------- --- --- ------ ------ ---- -- ------<br>------- --- ------ ----- --- left ------- -- ---- --- --<br>------- ------,118765.59999999404,118764.69999998808,118392.182,118405.79999999702,118408.85,118775.825,,48,left
screen,html.Screen,0_2_1_1_49,2021-12-03T10:40:07.565Z,,,,,,,,,,,,,,,,54,,,,,,,,,,,,,,492.874999988082,,response,,,100,,,,,,Space,keypress(Space),,,,,-- --- ---- --- ------ ----- ------- ---- -- --- ------- --<br>------- ---------- ------ -- ----- -- ----- -- ---- ------<br>--- ----- --- --- ------ -------- ----- --- ------ ----- --<br>----- ----- ---------- --- --- ------ ------ ---- -- ------<br>------- --- ------ ----- --- ---- without -- ---- --- --<br>------- ------,119269.5,119268.69999998808,118759.155,118765.79999999702,118775.825,119276.013,,49,without
screen,html.Screen,0_2_1_1_50,2021-12-03T10:40:08.333Z,,,,,,,,,,,,,,,,54,,,,,,,,,,,,,,760.4869999999937,,response,,,100,,,,,,Space,keypress(Space),,,,,-- --- ---- --- ------ ----- ------- ---- -- --- ------- --<br>------- ---------- ------ -- ----- -- ----- -- ---- ------<br>--- ----- --- --- ------ -------- ----- --- ------ ----- --<br>----- ----- ---------- --- --- ------ ------ ---- -- ------<br>------- --- ------ ----- --- ---- ------- an ---- --- --<br>------- ------,120037.29999999702,120036.5,119259.342,119269.79999999702,119276.013,120042.908,,50,an
screen,html.Screen,0_2_1_1_51,2021-12-03T10:40:08.769Z,,,,,,,,,,,,,,,,54,,,,,,,,,,,,,,425.79199998808326,,response,,,100,,,,,,Space,keypress(Space),,,,,-- --- ---- --- ------ ----- ------- ---- -- --- ------- --<br>------- ---------- ------ -- ----- -- ----- -- ---- ------<br>--- ----- --- --- ------ -------- ----- --- ------ ----- --<br>----- ----- ---------- --- --- ------ ------ ---- -- ------<br>------- --- ------ ----- --- ---- ------- -- easy --- --<br>------- ------,120469.39999999106,120468.69999998808,120026.237,120037.59999999404,120042.908,120476.364,,51,easy
screen,html.Screen,0_2_1_1_52,2021-12-03T10:40:09.249Z,,,,,,,,,,,,,,,,54,,,,,,,,,,,,,,472.23599999403814,,response,,,100,,,,,,Space,keypress(Space),,,,,-- --- ---- --- ------ ----- ------- ---- -- --- ------- --<br>------- ---------- ------ -- ----- -- ----- -- ---- ------<br>--- ----- --- --- ------ -------- ----- --- ------ ----- --<br>----- ----- ---------- --- --- ------ ------ ---- -- ------<br>------- --- ------ ----- --- ---- ------- -- ---- way --<br>------- ------,120949.29999999702,120948.59999999404,120459.693,120469.59999999404,120476.364,120959.768,,52,way
screen,html.Screen,0_2_1_1_53,2021-12-03T10:40:09.641Z,,,,,,,,,,,,,,,,54,,,,,,,,,,,,,,380.83199999404314,,response,,,100,,,,,,Space,keypress(Space),,,,,-- --- ---- --- ------ ----- ------- ---- -- --- ------- --<br>------- ---------- ------ -- ----- -- ----- -- ---- ------<br>--- ----- --- --- ------ -------- ----- --- ------ ----- --<br>----- ----- ---------- --- --- ------ ------ ---- -- ------<br>------- --- ------ ----- --- ---- ------- -- ---- --- of<br>------- ------,121341.39999999106,121340.59999999404,120943.098,120949.59999999404,120959.768,121343.22,,53,of
screen,html.Screen,0_2_1_1_54,2021-12-03T10:40:10.433Z,,,,,,,,,,,,,,,,54,,,,,,,,,,,,,,789.2799999999988,,response,,,100,,,,,,Space,keypress(Space),,,,,-- --- ---- --- ------ ----- ------- ---- -- --- ------- --<br>------- ---------- ------ -- ----- -- ----- -- ---- ------<br>--- ----- --- --- ------ -------- ----- --- ------ ----- --<br>----- ----- ---------- --- --- ------ ------ ---- -- ------<br>------- --- ------ ----- --- ---- ------- -- ---- --- --<br>raising ------,122133.39999999106,122132.5,121326.55,121341.59999999404,121343.22,122143.3,,54,raising
screen,html.Screen,0_2_1_1_55,2021-12-03T10:40:10.824Z,,,,,,,,,,,,,,,,54,,,,,,,,,,,,,,381.2999999940366,,response,,,100,,,,,,Space,keypress(Space),,,,,-- --- ---- --- ------ ----- ------- ---- -- --- ------- --<br>------- ---------- ------ -- ----- -- ----- -- ---- ------<br>--- ----- --- --- ------ -------- ----- --- ------ ----- --<br>----- ----- ---------- --- --- ------ ------ ---- -- ------<br>------- --- ------ ----- --- ---- ------- -- ---- --- --<br>------- money.,122525.29999999702,122524.59999999404,122126.631,122133.59999999404,122143.3,122526.959,,55,money.
Item 100,flow.Loop,0_2_1_1,2021-12-03T10:40:10.825Z,,,,,,,,,,,,,,,,,,,,,,,,,,,,,,31239.473999994036,,completion,,,,A,,,,,,,,,,silence,,122525.69999998808,122524.59999999404,91268.456,91270.09999999404,91285.126,122526.959,,,
Question 1,html.Screen,0_2_1_2,2021-12-03T10:40:13.672Z,,,,,,,,,,,,,,,,,,,,,,,,,,,true,TRUE,,2845.2409999880765,,response,,,100,A,,,,,TRUE,click #choice-1,,,,silence,,125373.19999998808,125372.19999998808,122510.287,122525.89999999106,122526.959,125394.279,,,
Question 2,html.Screen,0_2_1_3,2021-12-03T10:40:15.480Z,,,,,,,,,,,,,,,,,,,,,,,,,,,true,FALSE,,1785.8209999940445,,response,,,100,A,,,,,FALSE,click #choice-2,,,,silence,,127181.19999998808,127180.09999999404,125377.609,125373.5,125394.279,127194.779,,,
Item 100,flow.Sequence,0_2_1,2021-12-03T10:40:15.481Z,,,,,,,,,,,,,,,,,,,,,,,,,,,,,,45897.499999994034,,completion,,,,,,,,,,,,,,,,127181.59999999404,127180.09999999404,81265.929,81280.09999999404,81282.6,127194.779,,,
End of Practice,html.Page,0_2_2,2021-12-03T10:40:17.201Z,,,,,,,,,,,,,,,,,,,,,,,,,,,,,,1706.721000000005,,form submission,,,,,,,,,,,,,,,,128902,128901.5,127178.109,127181.79999999702,127194.779,128911.965,,,
Practice,flow.Sequence,0_2,2021-12-03T10:40:17.202Z,,,,,,,,,,,,,,,,,,,,,,,,,,,,,,94048.13,,completion,,,,,,,,,,,,,,,,128902.39999999106,128901.5,34836.7,34850.39999999106,34853.37,128911.965,,,
Trap_instruction,html.Page,0_3_0,2021-12-03T10:40:21.025Z,,,,,,,,,,,,,,,,,,,,,,,,,,,,,,3813.434999991063,,form submission,,,,,,,,,,,,,,,,132725.89999999106,132725.39999999106,128895.294,128902.59999999404,128911.965,132746.058,,,
trap_trial,html.Screen,0_3_1,2021-12-03T10:40:24.072Z,,,,,,,,,,,,,,,,,,,,,,,,,,,true,1,,3025.641999988089,,response,,,,,,,,,1,click #choice-1,,,,,,135773,135771.69999998808,132712.718,132726.09999999404,132746.058,135780.16,,,
end of trap trial,html.Page,0_3_2,2021-12-03T10:40:25.985Z,,,,,,,,,,,,,,,,,,,,,,,,,,,,,,1905.0399999880756,,form submission,,,,,,,,,,,,,,,,137685.79999999702,137685.19999998808,135763.49,135773.29999999702,135780.16,137697.515,,,
Trap 1,flow.Sequence,0_3,2021-12-03T10:40:25.985Z,,,,,,,,,,,,,,,,,,,,,,,,,,,,,,8773.234999988083,,completion,,,,,,,,,,,,,,,,137686.19999998808,137685.19999998808,128895.294,128902.5,128911.965,137697.515,,,
Standby,html.Page,0_4_0,2021-12-03T10:40:33.983Z,,,,,,,,,,,,,,,,,,,,,,,,,,,,,,8001.613999999972,,timeout,,,,,,,,,,,,,,,,145683.59999999404,145682.459,137680.845,137686.5,137697.515,145699.129,,,
Holding screen,html.Screen,0_4_1_0_0,2021-12-03T10:40:40.986Z,,,,,,,,,,,,,,,,,,,,,,,,,,,,,,7002.3550000000105,,timeout,,,,,,,,,,,,,,,,152686.59999999404,152684.814,145682.459,145684,145699.129,152701.484,,,
screen,html.Screen,0_4_1_0_1_0,2021-12-03T10:40:42.200Z,,,,,,,,,,,,,,,,11,,,,,,,,,,,,,,1198.2159999880823,,response,,,4,A,,,,,Space,keypress(Space),,,,silence,Known -- ---- --- -- --- -------- ------------ ---------- --<br>- ------- ------ --------- -- ------------ -- --- ---- -----<br>------ ---- ---- ------ ------ ------- --- ----- ---------<br>---- --- -------- -------- --- --- -- ------- --- --- -----<br>-- --- ------ ------- --- --- -------- ---- --------- --<br>---------- -- -------- ----------------,153900.59999999404,153899.69999998808,152684.814,152686.89999999106,152701.484,153901.712,,0,Known
screen,html.Screen,0_4_1_0_1_1,2021-12-03T10:40:42.711Z,,,,,,,,,,,,,,,,11,,,,,,,,,,,,,,509.28800000000047,,response,,,4,A,,,,,Space,keypress(Space),,,,silence,----- as ---- --- -- --- -------- ------------ ---------- --<br>- ------- ------ --------- -- ------------ -- --- ---- -----<br>------ ---- ---- ------ ------ ------- --- ----- ---------<br>---- --- -------- -------- --- --- -- ------- --- --- -----<br>-- --- ------ ------- --- --- -------- ---- --------- --<br>---------- -- -------- ----------------,154411.89999999106,154411,153885.042,153900.89999999106,153901.712,154418.578,,1,as
screen,html.Screen,0_4_1_0_1_2,2021-12-03T10:40:43.935Z,,,,,,,,,,,,,,,,11,,,,,,,,,,,,,,1216.4219999999914,,response,,,4,A,,,,,Space,keypress(Space),,,,silence,----- -- Rapa --- -- --- -------- ------------ ---------- --<br>- ------- ------ --------- -- ------------ -- --- ---- -----<br>------ ---- ---- ------ ------ ------- --- ----- ---------<br>---- --- -------- -------- --- --- -- ------- --- --- -----<br>-- --- ------ ------- --- --- -------- ---- --------- --<br>---------- -- -------- ----------------,155636,155635,154401.908,154412.19999998808,154418.578,155652.383,,2,Rapa
screen,html.Screen,0_4_1_0_1_3,2021-12-03T10:40:44.487Z,,,,,,,,,,,,,,,,11,,,,,,,,,,,,,,534.6169999999984,,response,,,4,A,,,,,Space,keypress(Space),,,,silence,----- -- ---- Nui -- --- -------- ------------ ---------- --<br>- ------- ------ --------- -- ------------ -- --- ---- -----<br>------ ---- ---- ------ ------ ------- --- ----- ---------<br>---- --- -------- -------- --- --- -- ------- --- --- -----<br>-- --- ------ ------- --- --- -------- ---- --------- --<br>---------- -- -------- ----------------,156187.79999999702,156187,155635.712,155636.19999998808,155652.383,156202.467,,3,Nui
screen,html.Screen,0_4_1_0_1_4,2021-12-03T10:40:44.895Z,,,,,,,,,,,,,,,,11,,,,,,,,,,,,,,392.5329999999958,,response,,,4,A,,,,,Space,keypress(Space),,,,silence,----- -- ---- --- to --- -------- ------------ ---------- --<br>- ------- ------ --------- -- ------------ -- --- ---- -----<br>------ ---- ---- ------ ------ ------- --- ----- ---------<br>---- --- -------- -------- --- --- -- ------- --- --- -----<br>-- --- ------ ------- --- --- -------- ---- --------- --<br>---------- -- -------- ----------------,156595.79999999702,156595,156185.797,156188,156202.467,156602.589,,4,to
screen,html.Screen,0_4_1_0_1_5,2021-12-03T10:40:45.295Z,,,,,,,,,,,,,,,,11,,,,,,,,,,,,,,392.3109999910521,,response,,,4,A,,,,,Space,keypress(Space),,,,silence,----- -- ---- --- -- the -------- ------------ ---------- --<br>- ------- ------ --------- -- ------------ -- --- ---- -----<br>------ ---- ---- ------ ------ ------- --- ----- ---------<br>---- --- -------- -------- --- --- -- ------- --- --- -----<br>-- --- ------ ------- --- --- -------- ---- --------- --<br>---------- -- -------- ----------------,156995.69999998808,156994.89999999106,156585.919,156595.89999999106,156602.589,157002.686,,5,the
screen,html.Screen,0_4_1_0_1_6,2021-12-03T10:40:46.079Z,,,,,,,,,,,,,,,,11,,,,,,,,,,,,,,776.2139999910723,,response,,,4,A,,,,,Space,keypress(Space),,,,silence,----- -- ---- --- -- --- island's ------------ ---------- --<br>- ------- ------ --------- -- ------------ -- --- ---- -----<br>------ ---- ---- ------ ------ ------- --- ----- ---------<br>---- --- -------- -------- --- --- -- ------- --- --- -----<br>-- --- ------ ------- --- --- -------- ---- --------- --<br>---------- -- -------- ----------------,157779.69999998808,157778.89999999106,156986.016,156996,157002.686,157786.083,,6,island's
screen,html.Screen,0_4_1_0_1_7,2021-12-03T10:40:47.055Z,,,,,,,,,,,,,,,,11,,,,,,,,,,,,,,968.816999991046,,response,,,4,A,,,,,Space,keypress(Space),,,,silence,"----- -- ---- --- -- --- -------- inhabitants, ---------- --<br>- ------- ------ --------- -- ------------ -- --- ---- -----<br>------ ---- ---- ------ ------ ------- --- ----- ---------<br>---- --- -------- -------- --- --- -- ------- --- --- -----<br>-- --- ------ ------- --- --- -------- ---- --------- --<br>---------- -- -------- ----------------",158755.59999999404,158754.89999999106,157769.414,157780,157786.083,158769.993,,7,"inhabitants,"
screen,html.Screen,0_4_1_0_1_8,2021-12-03T10:40:48.855Z,,,,,,,,,,,,,,,,11,,,,,,,,,,,,,,1784.806999997032,,response,,,4,A,,,,,Space,keypress(Space),,,,silence,----- -- ---- --- -- --- -------- ------------ Rongorongo --<br>- ------- ------ --------- -- ------------ -- --- ---- -----<br>------ ---- ---- ------ ------ ------- --- ----- ---------<br>---- --- -------- -------- --- --- -- ------- --- --- -----<br>-- --- ------ ------- --- --- -------- ---- --------- --<br>---------- -- -------- ----------------,160555.59999999404,160554.79999999702,158753.32,158755.89999999106,158769.993,160570.225,,8,Rongorongo
screen,html.Screen,0_4_1_0_1_9,2021-12-03T10:40:49.471Z,,,,,,,,,,,,,,,,11,,,,,,,,,,,,,,600.574999997014,,response,,,4,A,,,,,Space,keypress(Space),,,,silence,----- -- ---- --- -- --- -------- ------------ ---------- is<br>- ------- ------ --------- -- ------------ -- --- ---- -----<br>------ ---- ---- ------ ------ ------- --- ----- ---------<br>---- --- -------- -------- --- --- -- ------- --- --- -----<br>-- --- ------ ------- --- --- -------- ---- --------- --<br>---------- -- -------- ----------------,161171.59999999404,161170.79999999702,160553.555,160555.79999999702,160570.225,161187.106,,9,is
screen,html.Screen,0_4_1_0_1_10,2021-12-03T10:40:49.839Z,,,,,,,,,,,,,,,,11,,,,,,,,,,,,,,351.69399999702,,response,,,4,A,,,,,Space,keypress(Space),,,,silence,----- -- ---- --- -- --- -------- ------------ ---------- --<br>a ------- ------ --------- -- ------------ -- --- ---- -----<br>------ ---- ---- ------ ------ ------- --- ----- ---------<br>---- --- -------- -------- --- --- -- ------- --- --- -----<br>-- --- ------ ------- --- --- -------- ---- --------- --<br>---------- -- -------- ----------------,161539.59999999404,161538.79999999702,161170.436,161171.79999999702,161187.106,161553.835,,10,a
screen,html.Screen,0_4_1_0_1_11,2021-12-03T10:40:50.383Z,,,,,,,,,,,,,,,,11,,,,,,,,,,,,,,528.8649999880872,,response,,,4,A,,,,,Space,keypress(Space),,,,silence,----- -- ---- --- -- --- -------- ------------ ---------- --<br>- writing ------ --------- -- ------------ -- --- ---- -----<br>------ ---- ---- ------ ------ ------- --- ----- ---------<br>---- --- -------- -------- --- --- -- ------- --- --- -----<br>-- --- ------ ------- --- --- -------- ---- --------- --<br>---------- -- -------- ----------------,162083.5,162082.69999998808,161537.165,161539.89999999106,161553.835,162087.385,,11,writing
screen,html.Screen,0_4_1_0_1_12,2021-12-03T10:40:50.791Z,,,,,,,,,,,,,,,,11,,,,,,,,,,,,,,403.31499998806976,,response,,,4,A,,,,,Space,keypress(Space),,,,silence,----- -- ---- --- -- --- -------- ------------ ---------- --<br>- ------- system --------- -- ------------ -- --- ---- -----<br>------ ---- ---- ------ ------ ------- --- ----- ---------<br>---- --- -------- -------- --- --- -- ------- --- --- -----<br>-- --- ------ ------- --- --- -------- ---- --------- --<br>---------- -- -------- ----------------,162491.5,162490.69999998808,162070.714,162083.69999998808,162087.385,162504.252,,12,system
screen,html.Screen,0_4_1_0_1_13,2021-12-03T10:40:51.871Z,,,,,,,,,,,,,,,,11,,,,,,,,,,,,,,1066.4479999880714,,response,,,4,A,,,,,Space,keypress(Space),,,,silence,----- -- ---- --- -- --- -------- ------------ ---------- --<br>- ------- ------ comprised -- ------------ -- --- ---- -----<br>------ ---- ---- ------ ------ ------- --- ----- ---------<br>---- --- -------- -------- --- --- -- ------- --- --- -----<br>-- --- ------ ------- --- --- -------- ---- --------- --<br>---------- -- -------- ----------------,163571.39999999106,163570.69999998808,162487.58,162491.79999999702,162504.252,163587.82,,13,comprised
screen,html.Screen,0_4_1_0_1_14,2021-12-03T10:40:52.215Z,,,,,,,,,,,,,,,,11,,,,,,,,,,,,,,327.179999999993,,response,,,4,A,,,,,Space,keypress(Space),,,,silence,----- -- ---- --- -- --- -------- ------------ ---------- --<br>- ------- ------ --------- of ------------ -- --- ---- -----<br>------ ---- ---- ------ ------ ------- --- ----- ---------<br>---- --- -------- -------- --- --- -- ------- --- --- -----<br>-- --- ------ ------- --- --- -------- ---- --------- --<br>---------- -- -------- ----------------,163915.69999998808,163915,163571.149,163571.69999998808,163587.82,163921.043,,14,of
screen,html.Screen,0_4_1_0_1_15,2021-12-03T10:40:54.510Z,,,,,,,,,,,,,,,,11,,,,,,,,,,,,,,2289.356999991054,,response,,,4,A,,,,,Space,keypress(Space),,,,silence,----- -- ---- --- -- --- -------- ------------ ---------- --<br>- ------- ------ --------- -- pictographs. -- --- ---- -----<br>------ ---- ---- ------ ------ ------- --- ----- ---------<br>---- --- -------- -------- --- --- -- ------- --- --- -----<br>-- --- ------ ------- --- --- -------- ---- --------- --<br>---------- -- -------- ----------------,166211.29999999702,166210.39999999106,163904.374,163916,163921.043,166221.846,,15,pictographs.
screen,html.Screen,0_4_1_0_1_16,2021-12-03T10:40:54.822Z,,,,,,,,,,,,,,,,11,,,,,,,,,,,,,,300.65400000000955,,response,,,4,A,,,,,Space,keypress(Space),,,,silence,----- -- ---- --- -- --- -------- ------------ ---------- --<br>- ------- ------ --------- -- ------------ It --- ---- -----<br>------ ---- ---- ------ ------ ------- --- ----- ---------<br>---- --- -------- -------- --- --- -- ------- --- --- -----<br>-- --- ------ ------- --- --- -------- ---- --------- --<br>---------- -- -------- ----------------,166523.29999999702,166522.5,166205.175,166211.5,166221.846,166538.566,,16,It
screen,html.Screen,0_4_1_0_1_17,2021-12-03T10:40:55.094Z,,,,,,,,,,,,,,,,11,,,,,,,,,,,,,,255.83399999106769,,response,,,4,A,,,,,Space,keypress(Space),,,,silence,----- -- ---- --- -- --- -------- ------------ ---------- --<br>- ------- ------ --------- -- ------------ -- has ---- -----<br>------ ---- ---- ------ ------ ------- --- ----- ---------<br>---- --- -------- -------- --- --- -- ------- --- --- -----<br>-- --- ------ ------- --- --- -------- ---- --------- --<br>---------- -- -------- ----------------,166795.29999999702,166794.39999999106,166521.896,166523.5,166538.566,166805.308,,17,has
screen,html.Screen,0_4_1_0_1_18,2021-12-03T10:40:55.414Z,,,,,,,,,,,,,,,,11,,,,,,,,,,,,,,309.19200000001,,response,,,4,A,,,,,Space,keypress(Space),,,,silence,----- -- ---- --- -- --- -------- ------------ ---------- --<br>- ------- ------ --------- -- ------------ -- --- been -----<br>------ ---- ---- ------ ------ ------- --- ----- ---------<br>---- --- -------- -------- --- --- -- ------- --- --- -----<br>-- --- ------ ------- --- --- -------- ---- --------- --<br>---------- -- -------- ----------------,167115.29999999702,167114.5,166788.638,166795.5,166805.308,167122.056,,18,been
screen,html.Screen,0_4_1_0_1_19,2021-12-03T10:40:56.062Z,,,,,,,,,,,,,,,,11,,,,,,,,,,,,,,640.4439999999886,,response,,,4,A,,,,,Space,keypress(Space),,,,silence,----- -- ---- --- -- --- -------- ------------ ---------- --<br>- ------- ------ --------- -- ------------ -- --- ---- found<br>------ ---- ---- ------ ------ ------- --- ----- ---------<br>---- --- -------- -------- --- --- -- ------- --- --- -----<br>-- --- ------ ------- --- --- -------- ---- --------- --<br>---------- -- -------- ----------------,167763.19999998808,167762.5,167105.386,167115.5,167122.056,167772.198,,19,found
screen,html.Screen,0_4_1_0_1_20,2021-12-03T10:40:57.374Z,,,,,,,,,,,,,,,,11,,,,,,,,,,,,,,1302.2019999910553,,response,,,4,A,,,,,Space,keypress(Space),,,,silence,----- -- ---- --- -- --- -------- ------------ ---------- --<br>- ------- ------ --------- -- ------------ -- --- ---- -----<br>carved ---- ---- ------ ------ ------- --- ----- ---------<br>---- --- -------- -------- --- --- -- ------- --- --- -----<br>-- --- ------ ------- --- --- -------- ---- --------- --<br>---------- -- -------- ----------------,169075.29999999702,169074.39999999106,167755.528,167763.5,167772.198,169089.267,,20,carved
screen,html.Screen,0_4_1_0_1_21,2021-12-03T10:40:57.726Z,,,,,,,,,,,,,,,,11,,,,,,,,,,,,,,337.13299999106675,,response,,,4,A,,,,,Space,keypress(Space),,,,silence,----- -- ---- --- -- --- -------- ------------ ---------- --<br>- ------- ------ --------- -- ------------ -- --- ---- -----<br>------ into ---- ------ ------ ------- --- ----- ---------<br>---- --- -------- -------- --- --- -- ------- --- --- -----<br>-- --- ------ ------- --- --- -------- ---- --------- --<br>---------- -- -------- ----------------,169427.19999998808,169426.39999999106,169072.596,169075.5,169089.267,169439.317,,21,into
screen,html.Screen,0_4_1_0_1_22,2021-12-03T10:40:58.063Z,,,,,,,,,,,,,,,,11,,,,,,,,,,,,,,323.0829999910493,,response,,,4,A,,,,,Space,keypress(Space),,,,silence,----- -- ---- --- -- --- -------- ------------ ---------- --<br>- ------- ------ --------- -- ------------ -- --- ---- -----<br>------ ---- many ------ ------ ------- --- ----- ---------<br>---- --- -------- -------- --- --- -- ------- --- --- -----<br>-- --- ------ ------- --- --- -------- ---- --------- --<br>---------- -- -------- ----------------,169763.29999999702,169762.39999999106,169422.647,169427.39999999106,169439.317,169772.698,,22,many
screen,html.Screen,0_4_1_0_1_23,2021-12-03T10:40:58.406Z,,,,,,,,,,,,,,,,11,,,,,,,,,,,,,,333.70199999105535,,response,,,4,A,,,,,Space,keypress(Space),,,,silence,----- -- ---- --- -- --- -------- ------------ ---------- --<br>- ------- ------ --------- -- ------------ -- --- ---- -----<br>------ ---- ---- oblong ------ ------- --- ----- ---------<br>---- --- -------- -------- --- --- -- ------- --- --- -----<br>-- --- ------ ------- --- --- -------- ---- --------- --<br>---------- -- -------- ----------------,170107.29999999702,170106.39999999106,169756.028,169763.69999998808,169772.698,170122.959,,23,oblong
screen,html.Screen,0_4_1_0_1_24,2021-12-03T10:41:00.006Z,,,,,,,,,,,,,,,,11,,,,,,,,,,,,,,1583.2409999880765,,response,,,4,A,,,,,Space,keypress(Space),,,,silence,----- -- ---- --- -- --- -------- ------------ ---------- --<br>- ------- ------ --------- -- ------------ -- --- ---- -----<br>------ ---- ---- ------ wooden ------- --- ----- ---------<br>---- --- -------- -------- --- --- -- ------- --- --- -----<br>-- --- ------ ------- --- --- -------- ---- --------- --<br>---------- -- -------- ----------------,171707,171706.19999998808,170106.286,170107.59999999404,170122.959,171723.192,,24,wooden
screen,html.Screen,0_4_1_0_1_25,2021-12-03T10:41:00.350Z,,,,,,,,,,,,,,,,11,,,,,,,,,,,,,,327.00799998806906,,response,,,4,A,,,,,Space,keypress(Space),,,,silence,----- -- ---- --- -- --- -------- ------------ ---------- --<br>- ------- ------ --------- -- ------------ -- --- ---- -----<br>------ ---- ---- ------ ------ tablets --- ----- ---------<br>---- --- -------- -------- --- --- -- ------- --- --- -----<br>-- --- ------ ------- --- --- -------- ---- --------- --<br>---------- -- -------- ----------------,172051.09999999404,172050.19999998808,171706.522,171707.19999998808,171723.192,172056.784,,25,tablets
screen,html.Screen,0_4_1_0_1_26,2021-12-03T10:41:00.982Z,,,,,,,,,,,,,,,,11,,,,,,,,,,,,,,625.4159999880649,,response,,,4,A,,,,,Space,keypress(Space),,,,silence,----- -- ---- --- -- --- -------- ------------ ---------- --<br>- ------- ------ --------- -- ------------ -- --- ---- -----<br>------ ---- ---- ------ ------ ------- and ----- ---------<br>---- --- -------- -------- --- --- -- ------- --- --- -----<br>-- --- ------ ------- --- --- -------- ---- --------- --<br>---------- -- -------- ----------------,172683.09999999404,172682.19999998808,172040.113,172051.39999999106,172056.784,172690.123,,26,and
screen,html.Screen,0_4_1_0_1_27,2021-12-03T10:41:01.470Z,,,,,,,,,,,,,,,,11,,,,,,,,,,,,,,480.07699998808675,,response,,,4,A,,,,,Space,keypress(Space),,,,silence,----- -- ---- --- -- --- -------- ------------ ---------- --<br>- ------- ------ --------- -- ------------ -- --- ---- -----<br>------ ---- ---- ------ ------ ------- --- other ---------<br>---- --- -------- -------- --- --- -- ------- --- --- -----<br>-- --- ------ ------- --- --- -------- ---- --------- --<br>---------- -- -------- ----------------,173170.89999999106,173170.19999998808,172673.453,172683.39999999106,172690.123,173173.811,,27,other
screen,html.Screen,0_4_1_0_1_28,2021-12-03T10:41:02.038Z,,,,,,,,,,,,,,,,11,,,,,,,,,,,,,,564.3889999880921,,response,,,4,A,,,,,Space,keypress(Space),,,,silence,----- -- ---- --- -- --- -------- ------------ ---------- --<br>- ------- ------ --------- -- ------------ -- --- ---- -----<br>------ ---- ---- ------ ------ ------- --- ----- artifacts<br>---- --- -------- -------- --- --- -- ------- --- --- -----<br>-- --- ------ ------- --- --- -------- ---- --------- --<br>---------- -- -------- ----------------,173739,173738.19999998808,173157.138,173171.19999998808,173173.811,173740.505,,28,artifacts
screen,html.Screen,0_4_1_0_1_29,2021-12-03T10:41:02.487Z,,,,,,,,,,,,,,,,11,,,,,,,,,,,,,,445.99499999999534,,response,,,4,A,,,,,Space,keypress(Space),,,,silence,----- -- ---- --- -- --- -------- ------------ ---------- --<br>- ------- ------ --------- -- ------------ -- --- ---- -----<br>------ ---- ---- ------ ------ ------- --- ----- ---------<br>from --- -------- -------- --- --- -- ------- --- --- -----<br>-- --- ------ ------- --- --- -------- ---- --------- --<br>---------- -- -------- ----------------,174187.29999999702,174186.5,173723.834,173739.19999998808,173740.505,174190.494,,29,from
screen,html.Screen,0_4_1_0_1_30,2021-12-03T10:41:02.894Z,,,,,,,,,,,,,,,,11,,,,,,,,,,,,,,403.6059999940335,,response,,,4,A,,,,,Space,keypress(Space),,,,silence,----- -- ---- --- -- --- -------- ------------ ---------- --<br>- ------- ------ --------- -- ------------ -- --- ---- -----<br>------ ---- ---- ------ ------ ------- --- ----- ---------<br>---- the -------- -------- --- --- -- ------- --- --- -----<br>-- --- ------ ------- --- --- -------- ---- --------- --<br>---------- -- -------- ----------------,174594.89999999106,174594.09999999404,174173.825,174187.59999999404,174190.494,174607.463,,30,the
screen,html.Screen,0_4_1_0_1_31,2021-12-03T10:41:03.286Z,,,,,,,,,,,,,,,,11,,,,,,,,,,,,,,378.6369999940507,,response,,,4,A,,,,,Space,keypress(Space),,,,silence,----- -- ---- --- -- --- -------- ------------ ---------- --<br>- ------- ------ --------- -- ------------ -- --- ---- -----<br>------ ---- ---- ------ ------ ------- --- ----- ---------<br>---- --- island's -------- --- --- -- ------- --- --- -----<br>-- --- ------ ------- --- --- -------- ---- --------- --<br>---------- -- -------- ----------------,174987,174986.09999999404,174590.791,174595.19999998808,174607.463,174990.739,,31,island's
screen,html.Screen,0_4_1_0_1_32,2021-12-03T10:41:03.702Z,,,,,,,,,,,,,,,,11,,,,,,,,,,,,,,411.36099999403814,,response,,,4,A,,,,,Space,keypress(Space),,,,silence,----- -- ---- --- -- --- -------- ------------ ---------- --<br>- ------- ------ --------- -- ------------ -- --- ---- -----<br>------ ---- ---- ------ ------ ------- --- ----- ---------<br>---- --- -------- history. --- --- -- ------- --- --- -----<br>-- --- ------ ------- --- --- -------- ---- --------- --<br>---------- -- -------- ----------------,175402.89999999106,175402.09999999404,174974.07,174987.19999998808,174990.739,175407.603,,32,history.
screen,html.Screen,0_4_1_0_1_33,2021-12-03T10:41:04.238Z,,,,,,,,,,,,,,,,11,,,,,,,,,,,,,,530.4969999940367,,response,,,4,A,,,,,Space,keypress(Space),,,,silence,----- -- ---- --- -- --- -------- ------------ ---------- --<br>- ------- ------ --------- -- ------------ -- --- ---- -----<br>------ ---- ---- ------ ------ ------- --- ----- ---------<br>---- --- -------- -------- The --- -- ------- --- --- -----<br>-- --- ------ ------- --- --- -------- ---- --------- --<br>---------- -- -------- ----------------,175938.89999999106,175938.09999999404,175390.932,175403.09999999404,175407.603,175941.097,,33,The
screen,html.Screen,0_4_1_0_1_34,2021-12-03T10:41:04.718Z,,,,,,,,,,,,,,,,11,,,,,,,,,,,,,,477.0029999940307,,response,,,4,A,,,,,Space,keypress(Space),,,,silence,----- -- ---- --- -- --- -------- ------------ ---------- --<br>- ------- ------ --------- -- ------------ -- --- ---- -----<br>------ ---- ---- ------ ------ ------- --- ----- ---------<br>---- --- -------- -------- --- art -- ------- --- --- -----<br>-- --- ------ ------- --- --- -------- ---- --------- --<br>---------- -- -------- ----------------,176418.79999999702,176418.09999999404,175924.426,175939.09999999404,175941.097,176424.517,,34,art
screen,html.Screen,0_4_1_0_1_35,2021-12-03T10:41:05.030Z,,,,,,,,,,,,,,,,11,,,,,,,,,,,,,,305.48300000000745,,response,,,4,A,,,,,Space,keypress(Space),,,,silence,----- -- ---- --- -- --- -------- ------------ ---------- --<br>- ------- ------ --------- -- ------------ -- --- ---- -----<br>------ ---- ---- ------ ------ ------- --- ----- ---------<br>---- --- -------- -------- --- --- of ------- --- --- -----<br>-- --- ------ ------- --- --- -------- ---- --------- --<br>---------- -- -------- ----------------,176730.79999999702,176730,176407.847,176419.09999999404,176424.517,176741.179,,35,of
screen,html.Screen,0_4_1_0_1_36,2021-12-03T10:41:05.510Z,,,,,,,,,,,,,,,,11,,,,,,,,,,,,,,468.8209999999963,,response,,,4,A,,,,,Space,keypress(Space),,,,silence,----- -- ---- --- -- --- -------- ------------ ---------- --<br>- ------- ------ --------- -- ------------ -- --- ---- -----<br>------ ---- ---- ------ ------ ------- --- ----- ---------<br>---- --- -------- -------- --- --- -- writing --- --- -----<br>-- --- ------ ------- --- --- -------- ---- --------- --<br>---------- -- -------- ----------------,177211,177210,176724.51,176731.09999999404,176741.179,177224.873,,36,writing
screen,html.Screen,0_4_1_0_1_37,2021-12-03T10:41:05.950Z,,,,,,,,,,,,,,,,11,,,,,,,,,,,,,,425.1270000000077,,response,,,4,A,,,,,Space,keypress(Space),,,,silence,----- -- ---- --- -- --- -------- ------------ ---------- --<br>- ------- ------ --------- -- ------------ -- --- ---- -----<br>------ ---- ---- ------ ------ ------- --- ----- ---------<br>---- --- -------- -------- --- --- -- ------- was --- -----<br>-- --- ------ ------- --- --- -------- ---- --------- --<br>---------- -- -------- ----------------,177650.69999998808,177650,177208.2,177211.19999998808,177224.873,177658.107,,37,was
screen,html.Screen,0_4_1_0_1_38,2021-12-03T10:41:06.310Z,,,,,,,,,,,,,,,,11,,,,,,,,,,,,,,351.89300000001094,,response,,,4,A,,,,,Space,keypress(Space),,,,silence,----- -- ---- --- -- --- -------- ------------ ---------- --<br>- ------- ------ --------- -- ------------ -- --- ---- -----<br>------ ---- ---- ------ ------ ------- --- ----- ---------<br>---- --- -------- -------- --- --- -- ------- --- not -----<br>-- --- ------ ------- --- --- -------- ---- --------- --<br>---------- -- -------- ----------------,178010.79999999702,178010,177641.438,177651.09999999404,177658.107,178024.985,,38,not
screen,html.Screen,0_4_1_0_1_39,2021-12-03T10:41:06.710Z,,,,,,,,,,,,,,,,11,,,,,,,,,,,,,,385.01500000001397,,response,,,4,A,,,,,Space,keypress(Space),,,,silence,----- -- ---- --- -- --- -------- ------------ ---------- --<br>- ------- ------ --------- -- ------------ -- --- ---- -----<br>------ ---- ---- ------ ------ ------- --- ----- ---------<br>---- --- -------- -------- --- --- -- ------- --- --- known<br>-- --- ------ ------- --- --- -------- ---- --------- --<br>---------- -- -------- ----------------,178410.79999999702,178410,178008.314,178011,178024.985,178425.046,,39,known
screen,html.Screen,0_4_1_0_1_40,2021-12-03T10:41:07.134Z,,,,,,,,,,,,,,,,11,,,,,,,,,,,,,,408.9539999999979,,response,,,4,A,,,,,Space,keypress(Space),,,,silence,----- -- ---- --- -- --- -------- ------------ ---------- --<br>- ------- ------ --------- -- ------------ -- --- ---- -----<br>------ ---- ---- ------ ------ ------- --- ----- ---------<br>---- --- -------- -------- --- --- -- ------- --- --- -----<br>in --- ------ ------- --- --- -------- ---- --------- --<br>---------- -- -------- ----------------,178834.69999998808,178834,178408.376,178411,178425.046,178841.829,,40,in
screen,html.Screen,0_4_1_0_1_41,2021-12-03T10:41:07.510Z,,,,,,,,,,,,,,,,11,,,,,,,,,,,,,,368.0709999910614,,response,,,4,A,,,,,Space,keypress(Space),,,,silence,----- -- ---- --- -- --- -------- ------------ ---------- --<br>- ------- ------ --------- -- ------------ -- --- ---- -----<br>------ ---- ---- ------ ------ ------- --- ----- ---------<br>---- --- -------- -------- --- --- -- ------- --- --- -----<br>-- any ------ ------- --- --- -------- ---- --------- --<br>---------- -- -------- ----------------,179210.69999998808,179209.89999999106,178825.159,178834.89999999106,178841.829,179225.306,,41,any
screen,html.Screen,0_4_1_0_1_42,2021-12-03T10:41:08.102Z,,,,,,,,,,,,,,,,11,,,,,,,,,,,,,,576.5939999910479,,response,,,4,A,,,,,Space,keypress(Space),,,,silence,----- -- ---- --- -- --- -------- ------------ ---------- --<br>- ------- ------ --------- -- ------------ -- --- ---- -----<br>------ ---- ---- ------ ------ ------- --- ----- ---------<br>---- --- -------- -------- --- --- -- ------- --- --- -----<br>-- --- nearby ------- --- --- -------- ---- --------- --<br>---------- -- -------- ----------------,179802.69999998808,179801.89999999106,179208.635,179210.89999999106,179225.306,179808.589,,42,nearby
screen,html.Screen,0_4_1_0_1_43,2021-12-03T10:41:08.622Z,,,,,,,,,,,,,,,,11,,,,,,,,,,,,,,513.3109999910521,,response,,,4,A,,,,,Space,keypress(Space),,,,silence,----- -- ---- --- -- --- -------- ------------ ---------- --<br>- ------- ------ --------- -- ------------ -- --- ---- -----<br>------ ---- ---- ------ ------ ------- --- ----- ---------<br>---- --- -------- -------- --- --- -- ------- --- --- -----<br>-- --- ------ islands --- --- -------- ---- --------- --<br>---------- -- -------- ----------------,180322.59999999404,180321.89999999106,179791.921,179802.89999999106,179808.589,180325.706,,43,islands
screen,html.Screen,0_4_1_0_1_44,2021-12-03T10:41:09.016Z,,,,,,,,,,,,,,,,11,,,,,,,,,,,,,,388.0939999970142,,response,,,4,A,,,,,Space,keypress(Space),,,,silence,----- -- ---- --- -- --- -------- ------------ ---------- --<br>- ------- ------ --------- -- ------------ -- --- ---- -----<br>------ ---- ---- ------ ------ ------- --- ----- ---------<br>---- --- -------- -------- --- --- -- ------- --- --- -----<br>-- --- ------ ------- and --- -------- ---- --------- --<br>---------- -- -------- ----------------,180714.69999998808,180713.79999999702,180309.033,180322.79999999702,180325.706,180725.55,,44,and
screen,html.Screen,0_4_1_0_1_45,2021-12-03T10:41:09.424Z,,,,,,,,,,,,,,,,11,,,,,,,,,,,,,,396.2499999970314,,response,,,4,A,,,,,Space,keypress(Space),,,,silence,----- -- ---- --- -- --- -------- ------------ ---------- --<br>- ------- ------ --------- -- ------------ -- --- ---- -----<br>------ ---- ---- ------ ------ ------- --- ----- ---------<br>---- --- -------- -------- --- --- -- ------- --- --- -----<br>-- --- ------ ------- --- the -------- ---- --------- --<br>---------- -- -------- ----------------,181122.59999999404,181121.79999999702,180708.881,180714.89999999106,180725.55,181125.872,,45,the
screen,html.Screen,0_4_1_0_1_46,2021-12-03T10:41:09.888Z,,,,,,,,,,,,,,,,11,,,,,,,,,,,,,,459.82799998807604,,response,,,4,A,,,,,Space,keypress(Space),,,,silence,----- -- ---- --- -- --- -------- ------------ ---------- --<br>- ------- ------ --------- -- ------------ -- --- ---- -----<br>------ ---- ---- ------ ------ ------- --- ----- ---------<br>---- --- -------- -------- --- --- -- ------- --- --- -----<br>-- --- ------ ------- --- --- script's ---- --------- --<br>---------- -- -------- ----------------,181586.5,181585.69999998808,181109.2,181122.89999999106,181125.872,181592.544,,46,script's
screen,html.Screen,0_4_1_0_1_47,2021-12-03T10:41:10.288Z,,,,,,,,,,,,,,,,11,,,,,,,,,,,,,,393.15599998808466,,response,,,4,A,,,,,Space,keypress(Space),,,,silence,----- -- ---- --- -- --- -------- ------------ ---------- --<br>- ------- ------ --------- -- ------------ -- --- ---- -----<br>------ ---- ---- ------ ------ ------- --- ----- ---------<br>---- --- -------- -------- --- --- -- ------- --- --- -----<br>-- --- ------ ------- --- --- -------- mere --------- --<br>---------- -- -------- ----------------,181986.39999999106,181985.69999998808,181575.874,181586.69999998808,181592.544,181992.623,,47,mere
screen,html.Screen,0_4_1_0_1_48,2021-12-03T10:41:10.896Z,,,,,,,,,,,,,,,,11,,,,,,,,,,,,,,601.0769999880868,,response,,,4,A,,,,,Space,keypress(Space),,,,silence,----- -- ---- --- -- --- -------- ------------ ---------- --<br>- ------- ------ --------- -- ------------ -- --- ---- -----<br>------ ---- ---- ------ ------ ------- --- ----- ---------<br>---- --- -------- -------- --- --- -- ------- --- --- -----<br>-- --- ------ ------- --- --- -------- ---- existence --<br>---------- -- -------- ----------------,182594.5,182593.69999998808,181975.953,181986.59999999404,181992.623,182609.599,,48,existence
screen,html.Screen,0_4_1_0_1_49,2021-12-03T10:41:11.448Z,,,,,,,,,,,,,,,,11,,,,,,,,,,,,,,535.9010000000126,,response,,,4,A,,,,,Space,keypress(Space),,,,silence,----- -- ---- --- -- --- -------- ------------ ---------- --<br>- ------- ------ --------- -- ------------ -- --- ---- -----<br>------ ---- ---- ------ ------ ------- --- ----- ---------<br>---- --- -------- -------- --- --- -- ------- --- --- -----<br>-- --- ------ ------- --- --- -------- ---- --------- is<br>---------- -- -------- ----------------,183146.39999999106,183145.5,182592.927,182594.69999998808,182609.599,183159.53,,49,is
screen,html.Screen,0_4_1_0_1_50,2021-12-03T10:41:12.344Z,,,,,,,,,,,,,,,,11,,,,,,,,,,,,,,882.0699999940407,,response,,,4,A,,,,,Space,keypress(Space),,,,silence,----- -- ---- --- -- --- -------- ------------ ---------- --<br>- ------- ------ --------- -- ------------ -- --- ---- -----<br>------ ---- ---- ------ ------ ------- --- ----- ---------<br>---- --- -------- -------- --- --- -- ------- --- --- -----<br>-- --- ------ ------- --- --- -------- ---- --------- --<br>sufficient -- -------- ----------------,184042.39999999106,184041.59999999404,183142.861,183146.69999998808,183159.53,184059.922,,50,sufficient
screen,html.Screen,0_4_1_0_1_51,2021-12-03T10:41:12.776Z,,,,,,,,,,,,,,,,11,,,,,,,,,,,,,,414.0780000000086,,response,,,4,A,,,,,Space,keypress(Space),,,,silence,----- -- ---- --- -- --- -------- ------------ ---------- --<br>- ------- ------ --------- -- ------------ -- --- ---- -----<br>------ ---- ---- ------ ------ ------- --- ----- ---------<br>---- --- -------- -------- --- --- -- ------- --- --- -----<br>-- --- ------ ------- --- --- -------- ---- --------- --<br>---------- to -------- ----------------,184474.89999999106,184474,184043.251,184042.69999998808,184059.922,184476.656,,51,to
