sender,sender_type,sender_id,timestamp,meta,,Blues,Classical,Country,Dance,Electronic,Folk,Gospel,Hip-Hop,Jazz,Latin,Musical/Film,New-age,Pop,Provo_ID,R&B,Rap,Reggae,Religious,Rock,Soul,Swing,Traditional,age,artist_name,correct,correctResponse,distraction,duration,education,ended_on,familiarity,gender,item,list,music_frequency,offensiveness,pleasantness,preference,response,response_action,snippet_file,song_name,song_rating,sound,text,time_commit,time_end,time_render,time_run,time_show,time_switch,url,word,word_ID
Instructions,html.Page,0_0,2021-11-12T13:22:49.298Z,"{""labjs_version"":""20.2.3"",""labjs_build"":{""flavor"":""production"",""commit"":""7ea907d66ca8aeef8054924ca5d82ffbe11e34e5""},""location"":""https://run.pavlovia.org/mvasilev/lab_music_e/"",""userAgent"":""Mozilla/5.0 (Windows NT 6.1; Win64; x64) AppleWebKit/537.36 (KHTML, like Gecko) Chrome/95.0.4638.69 Safari/537.36"",""platform"":""Win32"",""language"":""en-US"",""locale"":""en-US"",""timeZone"":""Europe/London"",""timezoneOffset"":0,""screen_width"":1920,""screen_height"":1080,""scroll_width"":1920,""scroll_height"":959,""window_innerWidth"":1920,""window_innerHeight"":1007,""devicePixelRatio"":1}",,,,,,,,,,,,,,,,,,,,,,,,,,,,,56912.72999999888,,form submission,,,,,,,,,,,,,,,,72450.09999999963,72448.79999999888,15502.738,15524.39999999851,15536.07,72451.167,{},,
Headphones,html.Page,0_1,2021-11-12T13:22:53.156Z,,,,,,,,,,,,,,,,,,,,,,,,,,,,,,3856.132999998881,,form submission,,,,,,,,,,,,,,,,76307.79999999888,76307.29999999888,72434.533,72450.89999999851,72451.167,76319.301,,,
Holding screen,html.Screen,0_2_0_0,2021-11-12T13:23:03.159Z,,,,,,,,,,,,,,,,,,,,,,,,,,,,,,10002.174999999988,,timeout,,,,,,,,,,,,,,,,86310.79999999888,86304.807,76302.628,76308.59999999963,76319.301,86321.476,,,
screen,html.Screen,0_2_0_1_0,2021-11-12T13:23:04.627Z,,,,,,,,,,,,,,,,53,,,,,,,,,,,,,,1456.1239999996324,,response,,,99,,,,,,Space,keypress(Space),,,,,When -- ----- -- ------ - ------- --- ----------<br>------------- ------ ------ ---- ---- ------- ----- -- ----<br>-------- ------- -- ---------- --- - --- ----- ----- ----<br>---- --- --- ----- --- ---- ---- ------- ----- ---- -------<br>--- --- -- ----- -- --- ---- -- --- ---- -- ------ ------<br>--- ----- -- ----,87779.09999999963,87777.59999999963,86304.807,86311.29999999888,86321.476,87788.832,,0,When
screen,html.Screen,0_2_0_1_1,2021-11-12T13:23:05.154Z,,,,,,,,,,,,,,,,53,,,,,,,,,,,,,,516.3679999992601,,response,,,99,,,,,,Space,keypress(Space),,,,,---- it ----- -- ------ - ------- --- ----------<br>------------- ------ ------ ---- ---- ------- ----- -- ----<br>-------- ------- -- ---------- --- - --- ----- ----- ----<br>---- --- --- ----- --- ---- ---- ------- ----- ---- -------<br>--- --- -- ----- -- --- ---- -- --- ---- -- ------ ------<br>--- ----- -- ----,88306.19999999925,88305.19999999925,87772.161,87779.5,87788.832,88322.13,,1,it
screen,html.Screen,0_2_0_1_2,2021-11-12T13:23:05.666Z,,,,,,,,,,,,,,,,53,,,,,,,,,,,,,,495.0699999992503,,response,,,99,,,,,,Space,keypress(Space),,,,,---- -- comes -- ------ - ------- --- ----------<br>------------- ------ ------ ---- ---- ------- ----- -- ----<br>-------- ------- -- ---------- --- - --- ----- ----- ----<br>---- --- --- ----- --- ---- ---- ------- ----- ---- -------<br>--- --- -- ----- -- --- ---- -- --- ---- -- ------ ------<br>--- ----- -- ----,88818,88817.19999999925,88305.46,88306.5,88322.13,88822.316,,2,comes
screen,html.Screen,0_2_0_1_3,2021-11-12T13:23:06.034Z,,,,,,,,,,,,,,,,53,,,,,,,,,,,,,,362.8839999992488,,response,,,99,,,,,,Space,keypress(Space),,,,,---- -- ----- to ------ - ------- --- ----------<br>------------- ------ ------ ---- ---- ------- ----- -- ----<br>-------- ------- -- ---------- --- - --- ----- ----- ----<br>---- --- --- ----- --- ---- ---- ------- ----- ---- -------<br>--- --- -- ----- -- --- ---- -- --- ---- -- ------ ------<br>--- ----- -- ----,89186.29999999888,89185.19999999925,88805.646,88818.29999999888,88822.316,89189.094,,3,to
screen,html.Screen,0_2_0_1_4,2021-11-12T13:23:06.506Z,,,,,,,,,,,,,,,,53,,,,,,,,,,,,,,468.00599999963015,,response,,,99,,,,,,Space,keypress(Space),,,,,---- -- ----- -- having - ------- --- ----------<br>------------- ------ ------ ---- ---- ------- ----- -- ----<br>-------- ------- -- ---------- --- - --- ----- ----- ----<br>---- --- --- ----- --- ---- ---- ------- ----- ---- -------<br>--- --- -- ----- -- --- ---- -- --- ---- -- ------ ------<br>--- ----- -- ----,89658.29999999888,89657.09999999963,89172.424,89186.69999999925,89189.094,89672.538,,4,having
screen,html.Screen,0_2_0_1_5,2021-11-12T13:23:06.890Z,,,,,,,,,,,,,,,,53,,,,,,,,,,,,,,368.561999999627,,response,,,99,,,,,,Space,keypress(Space),,,,,---- -- ----- -- ------ a ------- --- ----------<br>------------- ------ ------ ---- ---- ------- ----- -- ----<br>-------- ------- -- ---------- --- - --- ----- ----- ----<br>---- --- --- ----- --- ---- ---- ------- ----- ---- -------<br>--- --- -- ----- -- --- ---- -- --- ---- -- ------ ------<br>--- ----- -- ----,90042,90041.09999999963,89655.868,89658.59999999963,89672.538,90055.807,,5,a
screen,html.Screen,0_2_0_1_6,2021-11-12T13:23:07.314Z,,,,,,,,,,,,,,,,53,,,,,,,,,,,,,,409.39299999925424,,response,,,99,,,,,,Space,keypress(Space),,,,,---- -- ----- -- ------ - lasting --- ----------<br>------------- ------ ------ ---- ---- ------- ----- -- ----<br>-------- ------- -- ---------- --- - --- ----- ----- ----<br>---- --- --- ----- --- ---- ---- ------- ----- ---- -------<br>--- --- -- ----- -- --- ---- -- --- ---- -- ------ ------<br>--- ----- -- ----,90466.09999999963,90465.19999999925,90039.139,90042.5,90055.807,90472.823,,6,lasting
screen,html.Screen,0_2_0_1_7,2021-11-12T13:23:07.946Z,,,,,,,,,,,,,,,,53,,,,,,,,,,,,,,624.176999999996,,response,,,99,,,,,,Space,keypress(Space),,,,,---- -- ----- -- ------ - ------- and ----------<br>------------- ------ ------ ---- ---- ------- ----- -- ----<br>-------- ------- -- ---------- --- - --- ----- ----- ----<br>---- --- --- ----- --- ---- ---- ------- ----- ---- -------<br>--- --- -- ----- -- --- ---- -- --- ---- -- ------ ------<br>--- ----- -- ----,91098,91097,90456.151,90466.5,90472.823,91106.196,,7,and
screen,html.Screen,0_2_0_1_8,2021-11-12T13:23:08.554Z,,,,,,,,,,,,,,,,53,,,,,,,,,,,,,,598.8040000000037,,response,,,99,,,,,,Space,keypress(Space),,,,,---- -- ----- -- ------ - ------- --- fulfilling<br>------------- ------ ------ ---- ---- ------- ----- -- ----<br>-------- ------- -- ---------- --- - --- ----- ----- ----<br>---- --- --- ----- --- ---- ---- ------- ----- ---- -------<br>--- --- -- ----- -- --- ---- -- --- ---- -- ------ ------<br>--- ----- -- ----,91706.09999999963,91705,91089.526,91098.29999999888,91106.196,91723.021,,8,fulfilling
screen,html.Screen,0_2_0_1_9,2021-11-12T13:23:09.010Z,,,,,,,,,,,,,,,,53,,,,,,,,,,,,,,437.8789999985165,,response,,,99,,,,,,Space,keypress(Space),,,,,"---- -- ----- -- ------ - ------- --- ----------<br>relationship, ------ ------ ---- ---- ------- ----- -- ----<br>-------- ------- -- ---------- --- - --- ----- ----- ----<br>---- --- --- ----- --- ---- ---- ------- ----- ---- -------<br>--- --- -- ----- -- --- ---- -- --- ---- -- ------ ------<br>--- ----- -- ----",92161.89999999851,92160.89999999851,91706.351,91706.39999999851,91723.021,92173.139,,9,"relationship,"
screen,html.Screen,0_2_0_1_10,2021-11-12T13:23:09.570Z,,,,,,,,,,,,,,,,53,,,,,,,,,,,,,,547.7609999985143,,response,,,99,,,,,,Space,keypress(Space),,,,,---- -- ----- -- ------ - ------- --- ----------<br>------------- common ------ ---- ---- ------- ----- -- ----<br>-------- ------- -- ---------- --- - --- ----- ----- ----<br>---- --- --- ----- --- ---- ---- ------- ----- ---- -------<br>--- --- -- ----- -- --- ---- -- --- ---- -- ------ ------<br>--- ----- -- ----,92721.79999999888,92720.89999999851,92156.469,92162.19999999925,92173.139,92723.272,,10,common
screen,html.Screen,0_2_0_1_11,2021-11-12T13:23:10.018Z,,,,,,,,,,,,,,,,53,,,,,,,,,,,,,,445.6279999985127,,response,,,99,,,,,,Space,keypress(Space),,,,,---- -- ----- -- ------ - ------- --- ----------<br>------------- ------ wisdom ---- ---- ------- ----- -- ----<br>-------- ------- -- ---------- --- - --- ----- ----- ----<br>---- --- --- ----- --- ---- ---- ------- ----- ---- -------<br>--- --- -- ----- -- --- ---- -- --- ---- -- ------ ------<br>--- ----- -- ----,93169.79999999888,93168.89999999851,92706.602,92722.19999999925,92723.272,93173.385,,11,wisdom
screen,html.Screen,0_2_0_1_12,2021-11-12T13:23:10.586Z,,,,,,,,,,,,,,,,53,,,,,,,,,,,,,,563.5149999985151,,response,,,99,,,,,,Space,keypress(Space),,,,,---- -- ----- -- ------ - ------- --- ----------<br>------------- ------ ------ says ---- ------- ----- -- ----<br>-------- ------- -- ---------- --- - --- ----- ----- ----<br>---- --- --- ----- --- ---- ---- ------- ----- ---- -------<br>--- --- -- ----- -- --- ---- -- --- ---- -- ------ ------<br>--- ----- -- ----,93737.69999999925,93736.89999999851,93156.715,93170,93173.385,93740.173,,12,says
screen,html.Screen,0_2_0_1_13,2021-11-12T13:23:11.090Z,,,,,,,,,,,,,,,,53,,,,,,,,,,,,,,500.6269999988872,,response,,,99,,,,,,Space,keypress(Space),,,,,---- -- ----- -- ------ - ------- --- ----------<br>------------- ------ ------ ---- that ------- ----- -- ----<br>-------- ------- -- ---------- --- - --- ----- ----- ----<br>---- --- --- ----- --- ---- ---- ------- ----- ---- -------<br>--- --- -- ----- -- --- ---- -- --- ---- -- ------ ------<br>--- ----- -- ----,94241.69999999925,94240.79999999888,93723.503,93737.89999999851,93740.173,94256.997,,13,that
screen,html.Screen,0_2_0_1_14,2021-11-12T13:23:11.650Z,,,,,,,,,,,,,,,,53,,,,,,,,,,,,,,543.8029999988794,,response,,,99,,,,,,Space,keypress(Space),,,,,---- -- ----- -- ------ - ------- --- ----------<br>------------- ------ ------ ---- ---- feeling ----- -- ----<br>-------- ------- -- ---------- --- - --- ----- ----- ----<br>---- --- --- ----- --- ---- ---- ------- ----- ---- -------<br>--- --- -- ----- -- --- ---- -- --- ---- -- ------ ------<br>--- ----- -- ----,94801.59999999963,94800.79999999888,94240.327,94241.89999999851,94256.997,94807.107,,14,feeling
screen,html.Screen,0_2_0_1_15,2021-11-12T13:23:12.218Z,,,,,,,,,,,,,,,,53,,,,,,,,,,,,,,561.5929999992513,,response,,,99,,,,,,Space,keypress(Space),,,,,---- -- ----- -- ------ - ------- --- ----------<br>------------- ------ ------ ---- ---- ------- close -- ----<br>-------- ------- -- ---------- --- - --- ----- ----- ----<br>---- --- --- ----- --- ---- ---- ------- ----- ---- -------<br>--- --- -- ----- -- --- ---- -- --- ---- -- ------ ------<br>--- ----- -- ----,95369.59999999963,95368.69999999925,94790.437,94801.79999999888,94807.107,95373.897,,15,close
screen,html.Screen,0_2_0_1_16,2021-11-12T13:23:12.794Z,,,,,,,,,,,,,,,,53,,,,,,,,,,,,,,570.8029999992577,,response,,,99,,,,,,Space,keypress(Space),,,,,---- -- ----- -- ------ - ------- --- ----------<br>------------- ------ ------ ---- ---- ------- ----- to ----<br>-------- ------- -- ---------- --- - --- ----- ----- ----<br>---- --- --- ----- --- ---- ---- ------- ----- ---- -------<br>--- --- -- ----- -- --- ---- -- --- ---- -- ------ ------<br>--- ----- -- ----,95945.59999999963,95944.69999999925,95357.227,95369.89999999851,95373.897,95957.39,,16,to
screen,html.Screen,0_2_0_1_17,2021-11-12T13:23:13.265Z,,,,,,,,,,,,,,,,53,,,,,,,,,,,,,,459.20999999962805,,response,,,99,,,,,,Space,keypress(Space),,,,,---- -- ----- -- ------ - ------- --- ----------<br>------------- ------ ------ ---- ---- ------- ----- -- your<br>-------- ------- -- ---------- --- - --- ----- ----- ----<br>---- --- --- ----- --- ---- ---- ------- ----- ---- -------<br>--- --- -- ----- -- --- ---- -- --- ---- -- ------ ------<br>--- ----- -- ----,96417.5,96416.59999999963,95940.72,95945.89999999851,95957.39,96424.176,,17,your
screen,html.Screen,0_2_0_1_18,2021-11-12T13:23:13.705Z,,,,,,,,,,,,,,,,53,,,,,,,,,,,,,,432.4239999996207,,response,,,99,,,,,,Space,keypress(Space),,,,,---- -- ----- -- ------ - ------- --- ----------<br>------------- ------ ------ ---- ---- ------- ----- -- ----<br>romantic ------- -- ---------- --- - --- ----- ----- ----<br>---- --- --- ----- --- ---- ---- ------- ----- ---- -------<br>--- --- -- ----- -- --- ---- -- --- ---- -- ------ ------<br>--- ----- -- ----,96857.39999999851,96856.59999999963,96407.506,96417.69999999925,96424.176,96874.269,,18,romantic
screen,html.Screen,0_2_0_1_19,2021-11-12T13:23:14.097Z,,,,,,,,,,,,,,,,53,,,,,,,,,,,,,,374.23099999999977,,response,,,99,,,,,,Space,keypress(Space),,,,,---- -- ----- -- ------ - ------- --- ----------<br>------------- ------ ------ ---- ---- ------- ----- -- ----<br>-------- partner -- ---------- --- - --- ----- ----- ----<br>---- --- --- ----- --- ---- ---- ------- ----- ---- -------<br>--- --- -- ----- -- --- ---- -- --- ---- -- ------ ------<br>--- ----- -- ----,97249.39999999851,97248.5,96857.599,96857.69999999925,96874.269,97257.721,,19,partner
screen,html.Screen,0_2_0_1_20,2021-11-12T13:23:14.513Z,,,,,,,,,,,,,,,,53,,,,,,,,,,,,,,406.778999999995,,response,,,99,,,,,,Space,keypress(Space),,,,,---- -- ----- -- ------ - ------- --- ----------<br>------------- ------ ------ ---- ---- ------- ----- -- ----<br>-------- ------- is ---------- --- - --- ----- ----- ----<br>---- --- --- ----- --- ---- ---- ------- ----- ---- -------<br>--- --- -- ----- -- --- ---- -- --- ---- -- ------ ------<br>--- ----- -- ----,97665.39999999851,97664.5,97241.051,97249.59999999963,97257.721,97674.457,,20,is
screen,html.Screen,0_2_0_1_21,2021-11-12T13:23:14.930Z,,,,,,,,,,,,,,,,53,,,,,,,,,,,,,,406.442999998515,,response,,,99,,,,,,Space,keypress(Space),,,,,---- -- ----- -- ------ - ------- --- ----------<br>------------- ------ ------ ---- ---- ------- ----- -- ----<br>-------- ------- -- paramount. --- - --- ----- ----- ----<br>---- --- --- ----- --- ---- ---- ------- ----- ---- -------<br>--- --- -- ----- -- --- ---- -- --- ---- -- ------ ------<br>--- ----- -- ----,98081.69999999925,98080.89999999851,97657.787,97665.59999999963,97674.457,98091.23,,21,paramount.
screen,html.Screen,0_2_0_1_22,2021-11-12T13:23:16.153Z,,,,,,,,,,,,,,,,53,,,,,,,,,,,,,,1213.169999998514,,response,,,99,,,,,,Space,keypress(Space),,,,,---- -- ----- -- ------ - ------- --- ----------<br>------------- ------ ------ ---- ---- ------- ----- -- ----<br>-------- ------- -- ---------- But - --- ----- ----- ----<br>---- --- --- ----- --- ---- ---- ------- ----- ---- -------<br>--- --- -- ----- -- --- ---- -- --- ---- -- ------ ------<br>--- ----- -- ----,99305.19999999925,99304.39999999851,98074.56,98082.19999999925,98091.23,99307.923,,22,But
screen,html.Screen,0_2_0_1_23,2021-11-12T13:23:16.681Z,,,,,,,,,,,,,,,,53,,,,,,,,,,,,,,524.3769999988872,,response,,,99,,,,,,Space,keypress(Space),,,,,---- -- ----- -- ------ - ------- --- ----------<br>------------- ------ ------ ---- ---- ------- ----- -- ----<br>-------- ------- -- ---------- --- a --- ----- ----- ----<br>---- --- --- ----- --- ---- ---- ------- ----- ---- -------<br>--- --- -- ----- -- --- ---- -- --- ---- -- ------ ------<br>--- ----- -- ----,99833.29999999888,99832.29999999888,99291.255,99305.5,99307.923,99841.693,,23,a
screen,html.Screen,0_2_0_1_24,2021-11-12T13:23:17.113Z,,,,,,,,,,,,,,,,53,,,,,,,,,,,,,,422.7069999985106,,response,,,99,,,,,,Space,keypress(Space),,,,,---- -- ----- -- ------ - ------- --- ----------<br>------------- ------ ------ ---- ---- ------- ----- -- ----<br>-------- ------- -- ---------- --- - new ----- ----- ----<br>---- --- --- ----- --- ---- ---- ------- ----- ---- -------<br>--- --- -- ----- -- --- ---- -- --- ---- -- ------ ------<br>--- ----- -- ----,100265.19999999925,100264.39999999851,99825.021,99833.59999999963,99841.693,100274.985,,24,new
screen,html.Screen,0_2_0_1_25,2021-11-12T13:23:17.553Z,,,,,,,,,,,,,,,,53,,,,,,,,,,,,,,429.21499999925436,,response,,,99,,,,,,Space,keypress(Space),,,,,---- -- ----- -- ------ - ------- --- ----------<br>------------- ------ ------ ---- ---- ------- ----- -- ----<br>-------- ------- -- ---------- --- - --- study ----- ----<br>---- --- --- ----- --- ---- ---- ------- ----- ---- -------<br>--- --- -- ----- -- --- ---- -- --- ---- -- ------ ------<br>--- ----- -- ----,100705.19999999925,100704.19999999925,100258.316,100265.59999999963,100274.985,100708.635,,25,study
screen,html.Screen,0_2_0_1_26,2021-11-12T13:23:18.065Z,,,,,,,,,,,,,,,,53,,,,,,,,,,,,,,507.66499999888765,,response,,,99,,,,,,Space,keypress(Space),,,,,---- -- ----- -- ------ - ------- --- ----------<br>------------- ------ ------ ---- ---- ------- ----- -- ----<br>-------- ------- -- ---------- --- - --- ----- finds ----<br>---- --- --- ----- --- ---- ---- ------- ----- ---- -------<br>--- --- -- ----- -- --- ---- -- --- ---- -- ------ ------<br>--- ----- -- ----,101217.19999999925,101216.29999999888,100691.963,100705.5,100708.635,101225.324,,26,finds
screen,html.Screen,0_2_0_1_27,2021-11-12T13:23:18.545Z,,,,,,,,,,,,,,,,53,,,,,,,,,,,,,,470.8759999992617,,response,,,99,,,,,,Space,keypress(Space),,,,,---- -- ----- -- ------ - ------- --- ----------<br>------------- ------ ------ ---- ---- ------- ----- -- ----<br>-------- ------- -- ---------- --- - --- ----- ----- that<br>---- --- --- ----- --- ---- ---- ------- ----- ---- -------<br>--- --- -- ----- -- --- ---- -- --- ---- -- ------ ------<br>--- ----- -- ----,101697.19999999925,101696.19999999925,101208.654,101217.5,101225.324,101708.763,,27,that
screen,html.Screen,0_2_0_1_28,2021-11-12T13:23:19.033Z,,,,,,,,,,,,,,,,53,,,,,,,,,,,,,,475.43699999924866,,response,,,99,,,,,,Space,keypress(Space),,,,,---- -- ----- -- ------ - ------- --- ----------<br>------------- ------ ------ ---- ---- ------- ----- -- ----<br>-------- ------- -- ---------- --- - --- ----- ----- ----<br>it's --- --- ----- --- ---- ---- ------- ----- ---- -------<br>--- --- -- ----- -- --- ---- -- --- ---- -- ------ ------<br>--- ----- -- ----,102185.09999999963,102184.19999999925,101692.093,101697.39999999851,101708.763,102192.3,,28,it's
screen,html.Screen,0_2_0_1_29,2021-11-12T13:23:19.505Z,,,,,,,,,,,,,,,,53,,,,,,,,,,,,,,463.89999999925203,,response,,,99,,,,,,Space,keypress(Space),,,,,---- -- ----- -- ------ - ------- --- ----------<br>------------- ------ ------ ---- ---- ------- ----- -- ----<br>-------- ------- -- ---------- --- - --- ----- ----- ----<br>---- not --- ----- --- ---- ---- ------- ----- ---- -------<br>--- --- -- ----- -- --- ---- -- --- ---- -- ------ ------<br>--- ----- -- ----,102657,102656.19999999925,102175.629,102185.39999999851,102192.3,102659.002,,29,not
screen,html.Screen,0_2_0_1_30,2021-11-12T13:23:20.033Z,,,,,,,,,,,,,,,,53,,,,,,,,,,,,,,525.1979999992618,,response,,,99,,,,,,Space,keypress(Space),,,,,---- -- ----- -- ------ - ------- --- ----------<br>------------- ------ ------ ---- ---- ------- ----- -- ----<br>-------- ------- -- ---------- --- - --- ----- ----- ----<br>---- --- how ----- --- ---- ---- ------- ----- ---- -------<br>--- --- -- ----- -- --- ---- -- --- ---- -- ------ ------<br>--- ----- -- ----,103185,103184.19999999925,102642.332,102657.29999999888,102659.002,103192.467,,30,how
screen,html.Screen,0_2_0_1_31,2021-11-12T13:23:20.489Z,,,,,,,,,,,,,,,,53,,,,,,,,,,,,,,447.73299999925075,,response,,,99,,,,,,Space,keypress(Space),,,,,---- -- ----- -- ------ - ------- --- ----------<br>------------- ------ ------ ---- ---- ------- ----- -- ----<br>-------- ------- -- ---------- --- - --- ----- ----- ----<br>---- --- --- close --- ---- ---- ------- ----- ---- -------<br>--- --- -- ----- -- --- ---- -- --- ---- -- ------ ------<br>--- ----- -- ----,103640.89999999851,103640.19999999925,103175.797,103185.19999999925,103192.467,103642.579,,31,close
screen,html.Screen,0_2_0_1_32,2021-11-12T13:23:20.865Z,,,,,,,,,,,,,,,,53,,,,,,,,,,,,,,373.52099999962957,,response,,,99,,,,,,Space,keypress(Space),,,,,---- -- ----- -- ------ - ------- --- ----------<br>------------- ------ ------ ---- ---- ------- ----- -- ----<br>-------- ------- -- ---------- --- - --- ----- ----- ----<br>---- --- --- ----- you ---- ---- ------- ----- ---- -------<br>--- --- -- ----- -- --- ---- -- --- ---- -- ------ ------<br>--- ----- -- ----,104017.09999999963,104016.09999999963,103625.909,103641.19999999925,103642.579,104026.007,,32,you
screen,html.Screen,0_2_0_1_33,2021-11-12T13:23:21.241Z,,,,,,,,,,,,,,,,53,,,,,,,,,,,,,,366.0929999996297,,response,,,99,,,,,,Space,keypress(Space),,,,,---- -- ----- -- ------ - ------- --- ----------<br>------------- ------ ------ ---- ---- ------- ----- -- ----<br>-------- ------- -- ---------- --- - --- ----- ----- ----<br>---- --- --- ----- --- feel ---- ------- ----- ---- -------<br>--- --- -- ----- -- --- ---- -- --- ---- -- ------ ------<br>--- ----- -- ----,104393,104392.09999999963,104009.337,104017.39999999851,104026.007,104409.44,,33,feel
screen,html.Screen,0_2_0_1_34,2021-11-12T13:23:21.625Z,,,,,,,,,,,,,,,,53,,,,,,,,,,,,,,366.65999999962514,,response,,,99,,,,,,Space,keypress(Space),,,,,---- -- ----- -- ------ - ------- --- ----------<br>------------- ------ ------ ---- ---- ------- ----- -- ----<br>-------- ------- -- ---------- --- - --- ----- ----- ----<br>---- --- --- ----- --- ---- that ------- ----- ---- -------<br>--- --- -- ----- -- --- ---- -- --- ---- -- ------ ------<br>--- ----- -- ----,104777,104776.09999999963,104392.77,104393.29999999888,104409.44,104792.857,,34,that
screen,html.Screen,0_2_0_1_35,2021-11-12T13:23:22.105Z,,,,,,,,,,,,,,,,53,,,,,,,,,,,,,,463.1429999999964,,response,,,99,,,,,,Space,keypress(Space),,,,,---- -- ----- -- ------ - ------- --- ----------<br>------------- ------ ------ ---- ---- ------- ----- -- ----<br>-------- ------- -- ---------- --- - --- ----- ----- ----<br>---- --- --- ----- --- ---- ---- matters ----- ---- -------<br>--- --- -- ----- -- --- ---- -- --- ---- -- ------ ------<br>--- ----- -- ----,105256.79999999888,105256,104776.187,104777.39999999851,104792.857,105259.701,,35,matters
screen,html.Screen,0_2_0_1_36,2021-11-12T13:23:22.513Z,,,,,,,,,,,,,,,,53,,,,,,,,,,,,,,404.29899999999907,,response,,,99,,,,,,Space,keypress(Space),,,,,"---- -- ----- -- ------ - ------- --- ----------<br>------------- ------ ------ ---- ---- ------- ----- -- ----<br>-------- ------- -- ---------- --- - --- ----- ----- ----<br>---- --- --- ----- --- ---- ---- ------- most, ---- -------<br>--- --- -- ----- -- --- ---- -- --- ---- -- ------ ------<br>--- ----- -- ----",105665.09999999963,105664,105243.03,105257.09999999963,105259.701,105676.458,,36,"most,"
screen,html.Screen,0_2_0_1_37,2021-11-12T13:23:22.929Z,,,,,,,,,,,,,,,,53,,,,,,,,,,,,,,403.5420000000013,,response,,,99,,,,,,Space,keypress(Space),,,,,---- -- ----- -- ------ - ------- --- ----------<br>------------- ------ ------ ---- ---- ------- ----- -- ----<br>-------- ------- -- ---------- --- - --- ----- ----- ----<br>---- --- --- ----- --- ---- ---- ------- ----- it's -------<br>--- --- -- ----- -- --- ---- -- --- ---- -- ------ ------<br>--- ----- -- ----,106080.79999999888,106080,105659.787,105665.29999999888,105676.458,106093.114,,37,it's
screen,html.Screen,0_2_0_1_38,2021-11-12T13:23:23.337Z,,,,,,,,,,,,,,,,53,,,,,,,,,,,,,,394.8859999999986,,response,,,99,,,,,,Space,keypress(Space),,,,,---- -- ----- -- ------ - ------- --- ----------<br>------------- ------ ------ ---- ---- ------- ----- -- ----<br>-------- ------- -- ---------- --- - --- ----- ----- ----<br>---- --- --- ----- --- ---- ---- ------- ----- ---- whether<br>--- --- -- ----- -- --- ---- -- --- ---- -- ------ ------<br>--- ----- -- ----,106488.69999999925,106488,106076.445,106081,106093.114,106493.289,,38,whether
screen,html.Screen,0_2_0_1_39,2021-11-12T13:23:23.769Z,,,,,,,,,,,,,,,,53,,,,,,,,,,,,,,426.6109999985056,,response,,,99,,,,,,Space,keypress(Space),,,,,---- -- ----- -- ------ - ------- --- ----------<br>------------- ------ ------ ---- ---- ------- ----- -- ----<br>-------- ------- -- ---------- --- - --- ----- ----- ----<br>---- --- --- ----- --- ---- ---- ------- ----- ---- -------<br>you --- -- ----- -- --- ---- -- --- ---- -- ------ ------<br>--- ----- -- ----,106920.79999999888,106919.89999999851,106476.619,106489,106493.289,106926.654,,39,you
screen,html.Screen,0_2_0_1_40,2021-11-12T13:23:24.185Z,,,,,,,,,,,,,,,,53,,,,,,,,,,,,,,409.2459999985149,,response,,,99,,,,,,Space,keypress(Space),,,,,---- -- ----- -- ------ - ------- --- ----------<br>------------- ------ ------ ---- ---- ------- ----- -- ----<br>-------- ------- -- ---------- --- - --- ----- ----- ----<br>---- --- --- ----- --- ---- ---- ------- ----- ---- -------<br>--- are -- ----- -- --- ---- -- --- ---- -- ------ ------<br>--- ----- -- ----,107336.59999999963,107335.89999999851,106909.985,106921,106926.654,107343.551,,40,are
screen,html.Screen,0_2_0_1_41,2021-11-12T13:23:24.593Z,,,,,,,,,,,,,,,,53,,,,,,,,,,,,,,400.24899999887566,,response,,,99,,,,,,Space,keypress(Space),,,,,---- -- ----- -- ------ - ------- --- ----------<br>------------- ------ ------ ---- ---- ------- ----- -- ----<br>-------- ------- -- ---------- --- - --- ----- ----- ----<br>---- --- --- ----- --- ---- ---- ------- ----- ---- -------<br>--- --- as ----- -- --- ---- -- --- ---- -- ------ ------<br>--- ----- -- ----,107744.59999999963,107743.79999999888,107326.88,107336.89999999851,107343.551,107760.266,,41,as
screen,html.Screen,0_2_0_1_42,2021-11-12T13:23:25.009Z,,,,,,,,,,,,,,,,53,,,,,,,,,,,,,,399.8339999996242,,response,,,99,,,,,,Space,keypress(Space),,,,,---- -- ----- -- ------ - ------- --- ----------<br>------------- ------ ------ ---- ---- ------- ----- -- ----<br>-------- ------- -- ---------- --- - --- ----- ----- ----<br>---- --- --- ----- --- ---- ---- ------- ----- ---- -------<br>--- --- -- close -- --- ---- -- --- ---- -- ------ ------<br>--- ----- -- ----,108161,108160.09999999963,107743.596,107744.89999999851,107760.266,108176.967,,42,close
screen,html.Screen,0_2_0_1_43,2021-11-12T13:23:25.425Z,,,,,,,,,,,,,,,,53,,,,,,,,,,,,,,398.8329999988782,,response,,,99,,,,,,Space,keypress(Space),,,,,---- -- ----- -- ------ - ------- --- ----------<br>------------- ------ ------ ---- ---- ------- ----- -- ----<br>-------- ------- -- ---------- --- - --- ----- ----- ----<br>---- --- --- ----- --- ---- ---- ------- ----- ---- -------<br>--- --- -- ----- as --- ---- -- --- ---- -- ------ ------<br>--- ----- -- ----,108576.59999999963,108575.79999999888,108160.298,108161.19999999925,108176.967,108593.699,,43,as
screen,html.Screen,0_2_0_1_44,2021-11-12T13:23:25.849Z,,,,,,,,,,,,,,,,53,,,,,,,,,,,,,,406.10099999888916,,response,,,99,,,,,,Space,keypress(Space),,,,,---- -- ----- -- ------ - ------- --- ----------<br>------------- ------ ------ ---- ---- ------- ----- -- ----<br>-------- ------- -- ---------- --- - --- ----- ----- ----<br>---- --- --- ----- --- ---- ---- ------- ----- ---- -------<br>--- --- -- ----- -- you ---- -- --- ---- -- ------ ------<br>--- ----- -- ----,109000.59999999963,108999.79999999888,108577.03,108576.89999999851,108593.699,109010.654,,44,you
screen,html.Screen,0_2_0_1_45,2021-11-12T13:23:26.248Z,,,,,,,,,,,,,,,,53,,,,,,,,,,,,,,389.04599999925995,,response,,,99,,,,,,Space,keypress(Space),,,,,---- -- ----- -- ------ - ------- --- ----------<br>------------- ------ ------ ---- ---- ------- ----- -- ----<br>-------- ------- -- ---------- --- - --- ----- ----- ----<br>---- --- --- ----- --- ---- ---- ------- ----- ---- -------<br>--- --- -- ----- -- --- want -- --- ---- -- ------ ------<br>--- ----- -- ----,109400.5,109399.69999999925,108993.982,109000.79999999888,109010.654,109410.66,,45,want
screen,html.Screen,0_2_0_1_46,2021-11-12T13:23:26.616Z,,,,,,,,,,,,,,,,53,,,,,,,,,,,,,,357.03999999925145,,response,,,99,,,,,,Space,keypress(Space),,,,,---- -- ----- -- ------ - ------- --- ----------<br>------------- ------ ------ ---- ---- ------- ----- -- ----<br>-------- ------- -- ---------- --- - --- ----- ----- ----<br>---- --- --- ----- --- ---- ---- ------- ----- ---- -------<br>--- --- -- ----- -- --- ---- to --- ---- -- ------ ------<br>--- ----- -- ----,109768.5,109767.69999999925,109393.99,109400.79999999888,109410.66,109777.43,,46,to
screen,html.Screen,0_2_0_1_47,2021-11-12T13:23:26.992Z,,,,,,,,,,,,,,,,53,,,,,,,,,,,,,,366.3699999988894,,response,,,99,,,,,,Space,keypress(Space),,,,,"---- -- ----- -- ------ - ------- --- ----------<br>------------- ------ ------ ---- ---- ------- ----- -- ----<br>-------- ------- -- ---------- --- - --- ----- ----- ----<br>---- --- --- ----- --- ---- ---- ------- ----- ---- -------<br>--- --- -- ----- -- --- ---- -- be, ---- -- ------ ------<br>--- ----- -- ----",110144.5,110143.79999999888,109760.76,109768.79999999888,109777.43,110160.827,,47,"be,"
screen,html.Screen,0_2_0_1_48,2021-11-12T13:23:27.416Z,,,,,,,,,,,,,,,,53,,,,,,,,,,,,,,406.7729999996227,,response,,,99,,,,,,Space,keypress(Space),,,,,---- -- ----- -- ------ - ------- --- ----------<br>------------- ------ ------ ---- ---- ------- ----- -- ----<br>-------- ------- -- ---------- --- - --- ----- ----- ----<br>---- --- --- ----- --- ---- ---- ------- ----- ---- -------<br>--- --- -- ----- -- --- ---- -- --- even -- ------ ------<br>--- ----- -- ----,110568.39999999851,110567.59999999963,110144.157,110144.79999999888,110160.827,110577.623,,48,even
screen,html.Screen,0_2_0_1_49,2021-11-12T13:23:27.864Z,,,,,,,,,,,,,,,,53,,,,,,,,,,,,,,437.9769999996206,,response,,,99,,,,,,Space,keypress(Space),,,,,---- -- ----- -- ------ - ------- --- ----------<br>------------- ------ ------ ---- ---- ------- ----- -- ----<br>-------- ------- -- ---------- --- - --- ----- ----- ----<br>---- --- --- ----- --- ---- ---- ------- ----- ---- -------<br>--- --- -- ----- -- --- ---- -- --- ---- if ------ ------<br>--- ----- -- ----,111016.39999999851,111015.59999999963,110560.953,110568.59999999963,110577.623,111027.709,,49,if
screen,html.Screen,0_2_0_1_50,2021-11-12T13:23:28.296Z,,,,,,,,,,,,,,,,53,,,,,,,,,,,,,,419.79099999999744,,response,,,99,,,,,,Space,keypress(Space),,,,,---- -- ----- -- ------ - ------- --- ----------<br>------------- ------ ------ ---- ---- ------- ----- -- ----<br>-------- ------- -- ---------- --- - --- ----- ----- ----<br>---- --- --- ----- --- ---- ---- ------- ----- ---- -------<br>--- --- -- ----- -- --- ---- -- --- ---- -- that's ------<br>--- ----- -- ----,111448.29999999888,111447.5,111011.039,111016.59999999963,111027.709,111461.142,,50,that's
screen,html.Screen,0_2_0_1_51,2021-11-12T13:23:28.720Z,,,,,,,,,,,,,,,,53,,,,,,,,,,,,,,410.3579999999929,,response,,,99,,,,,,Space,keypress(Space),,,,,---- -- ----- -- ------ - ------- --- ----------<br>------------- ------ ------ ---- ---- ------- ----- -- ----<br>-------- ------- -- ---------- --- - --- ----- ----- ----<br>---- --- --- ----- --- ---- ---- ------- ----- ---- -------<br>--- --- -- ----- -- --- ---- -- --- ---- -- ------ really<br>--- ----- -- ----,111872.29999999888,111871.5,111444.472,111448.59999999963,111461.142,111877.917,,51,really
screen,html.Screen,0_2_0_1_52,2021-11-12T13:23:29.136Z,,,,,,,,,,,,,,,,53,,,,,,,,,,,,,,409.5829999999987,,response,,,99,,,,,,Space,keypress(Space),,,,,---- -- ----- -- ------ - ------- --- ----------<br>------------- ------ ------ ---- ---- ------- ----- -- ----<br>-------- ------- -- ---------- --- - --- ----- ----- ----<br>---- --- --- ----- --- ---- ---- ------- ----- ---- -------<br>--- --- -- ----- -- --- ---- -- --- ---- -- ------ ------<br>not ----- -- ----,112288.29999999888,112287.5,111861.247,111872.5,111877.917,112294.611,,52,not
screen,html.Screen,0_2_0_1_53,2021-11-12T13:23:29.600Z,,,,,,,,,,,,,,,,53,,,,,,,,,,,,,,456.8889999999956,,response,,,99,,,,,,Space,keypress(Space),,,,,---- -- ----- -- ------ - ------- --- ----------<br>------------- ------ ------ ---- ---- ------- ----- -- ----<br>-------- ------- -- ---------- --- - --- ----- ----- ----<br>---- --- --- ----- --- ---- ---- ------- ----- ---- -------<br>--- --- -- ----- -- --- ---- -- --- ---- -- ------ ------<br>--- close -- ----,112752.19999999925,112751.5,112277.942,112288.5,112294.611,112761.517,,53,close
screen,html.Screen,0_2_0_1_54,2021-11-12T13:23:30.008Z,,,,,,,,,,,,,,,,53,,,,,,,,,,,,,,397.9829999999929,,response,,,99,,,,,,Space,keypress(Space),,,,,---- -- ----- -- ------ - ------- --- ----------<br>------------- ------ ------ ---- ---- ------- ----- -- ----<br>-------- ------- -- ---------- --- - --- ----- ----- ----<br>---- --- --- ----- --- ---- ---- ------- ----- ---- -------<br>--- --- -- ----- -- --- ---- -- --- ---- -- ------ ------<br>--- ----- at ----,113160.29999999888,113159.5,112744.846,112752.5,112761.517,113161.565,,54,at
screen,html.Screen,0_2_0_1_55,2021-11-12T13:23:30.408Z,,,,,,,,,,,,,,,,53,,,,,,,,,,,,,,397.83499999850756,,response,,,99,,,,,,Space,keypress(Space),,,,,---- -- ----- -- ------ - ------- --- ----------<br>------------- ------ ------ ---- ---- ------- ----- -- ----<br>-------- ------- -- ---------- --- - --- ----- ----- ----<br>---- --- --- ----- --- ---- ---- ------- ----- ---- -------<br>--- --- -- ----- -- --- ---- -- --- ---- -- ------ ------<br>--- ----- -- all.,113560.19999999925,113559.39999999851,113144.895,113160.5,113161.565,113578.336,,55,all.
Item 99,flow.Loop,0_2_0_1,2021-11-12T13:23:30.413Z,,,,,,,,,,,,,,,,,,,,,,,,,,,,,,27237.923999998515,,completion,,,,E,,,,,,,,,,silence,,113564.59999999963,113559.39999999851,86304.807,86311.19999999925,86321.476,113578.336,,,
Question 1,html.Screen,0_2_0_2,2021-11-12T13:23:35.008Z,,,,,,,,,,,,,,,,,,,,,,,,,,,false,FALSE,,4580.563999998514,,response,,,99,E,,,,,TRUE,click #choice-1,,,,silence,,118160.29999999888,118158.89999999851,113561.666,113564.79999999888,113578.336,118162.791,,,
Question 2,html.Screen,0_2_0_3,2021-11-12T13:23:40.291Z,,,,,,,,,,,,,,,,,,,,,,,,,,,true,TRUE,,5275.709000000003,,response,,,99,E,,,,,TRUE,click #choice-1,,,,silence,,123439.69999999925,123438.5,118146.121,118160.59999999963,118162.791,123447.489,,,
Item 99,flow.Sequence,0_2_0,2021-11-12T13:23:40.292Z,,,,,,,,,,,,,,,,,,,,,,,,,,,,,,47119.19899999999,,completion,,,,,,,,,,,,,,,,123440.19999999925,123438.5,76302.628,76308.5,76319.301,123447.489,,,
Holding screen,html.Screen,0_2_1_0,2021-11-12T13:23:50.286Z,,,,,,,,,,,,,,,,,,,,,,,,,,,,,,10002.113000000012,,timeout,,,,,,,,,,,,,,,,133434.29999999888,133432.933,123430.817,123440.5,123447.489,133449.602,,,
screen,html.Screen,0_2_1_1_0,2021-11-12T13:23:51.203Z,,,,,,,,,,,,,,,,54,,,,,,,,,,,,,,900.7979999984964,,response,,,100,,,,,,Space,keypress(Space),,,,,At --- ---- --- ------ ----- ------- ---- -- --- ------- --<br>------- ---------- ------ -- ----- -- ----- -- ---- ------<br>--- ----- --- --- ------ -------- ----- --- ------ ----- --<br>----- ----- ---------- --- --- ------ ------ ---- -- ------<br>------- --- ------ ----- --- ---- ------- -- ---- --- --<br>------- ------,134351.3999999985,134350.3999999985,133432.933,133434.79999999888,133449.602,134366.809,,0,At
screen,html.Screen,0_2_1_1_1,2021-11-12T13:23:51.658Z,,,,,,,,,,,,,,,,54,,,,,,,,,,,,,,439.1909999999916,,response,,,100,,,,,,Space,keypress(Space),,,,,-- the ---- --- ------ ----- ------- ---- -- --- ------- --<br>------- ---------- ------ -- ----- -- ----- -- ---- ------<br>--- ----- --- --- ------ -------- ----- --- ------ ----- --<br>----- ----- ---------- --- --- ------ ------ ---- -- ------<br>------- --- ------ ----- --- ---- ------- -- ---- --- --<br>------- ------,134806.69999999925,134806,134350.138,134351.59999999963,134366.809,134816.827,,1,the
screen,html.Screen,0_2_1_1_2,2021-11-12T13:23:52.106Z,,,,,,,,,,,,,,,,54,,,,,,,,,,,,,,437.07299999851966,,response,,,100,,,,,,Space,keypress(Space),,,,,-- --- time --- ------ ----- ------- ---- -- --- ------- --<br>------- ---------- ------ -- ----- -- ----- -- ---- ------<br>--- ----- --- --- ------ -------- ----- --- ------ ----- --<br>----- ----- ---------- --- --- ------ ------ ---- -- ------<br>------- --- ------ ----- --- ---- ------- -- ---- --- --<br>------- ------,135254.8999999985,135253.8999999985,134800.157,134807.09999999963,134816.827,135266.962,,2,time
screen,html.Screen,0_2_1_1_3,2021-11-12T13:23:52.554Z,,,,,,,,,,,,,,,,54,,,,,,,,,,,,,,434.93799999851035,,response,,,100,,,,,,Space,keypress(Space),,,,,-- --- ---- the ------ ----- ------- ---- -- --- ------- --<br>------- ---------- ------ -- ----- -- ----- -- ---- ------<br>--- ----- --- --- ------ -------- ----- --- ------ ----- --<br>----- ----- ---------- --- --- ------ ------ ---- -- ------<br>------- --- ------ ----- --- ---- ------- -- ---- --- --<br>------- ------,135702.79999999888,135701.8999999985,135250.292,135255.09999999963,135266.962,135716.899,,3,the
screen,html.Screen,0_2_1_1_4,2021-11-12T13:23:53.138Z,,,,,,,,,,,,,,,,54,,,,,,,,,,,,,,569.000999998505,,response,,,100,,,,,,Space,keypress(Space),,,,,-- --- ---- --- French ----- ------- ---- -- --- ------- --<br>------- ---------- ------ -- ----- -- ----- -- ---- ------<br>--- ----- --- --- ------ -------- ----- --- ------ ----- --<br>----- ----- ---------- --- --- ------ ------ ---- -- ------<br>------- --- ------ ----- --- ---- ------- -- ---- --- --<br>------- ------,136286.8999999985,136285.8999999985,135700.231,135703,135716.899,136300.623,,4,French
screen,html.Screen,0_2_1_1_5,2021-11-12T13:23:53.834Z,,,,,,,,,,,,,,,,54,,,,,,,,,,,,,,681.1769999988901,,response,,,100,,,,,,Space,keypress(Space),,,,,-- --- ---- --- ------ crown ------- ---- -- --- ------- --<br>------- ---------- ------ -- ----- -- ----- -- ---- ------<br>--- ----- --- --- ------ -------- ----- --- ------ ----- --<br>----- ----- ---------- --- --- ------ ------ ---- -- ------<br>------- --- ------ ----- --- ---- ------- -- ---- --- --<br>------- ------,136982.69999999925,136981.79999999888,136283.951,136287.09999999963,136300.623,136984.025,,5,crown
screen,html.Screen,0_2_1_1_6,2021-11-12T13:23:55.122Z,,,,,,,,,,,,,,,,54,,,,,,,,,,,,,,1285.6749999992608,,response,,,100,,,,,,Space,keypress(Space),,,,,-- --- ---- --- ------ ----- secured ---- -- --- ------- --<br>------- ---------- ------ -- ----- -- ----- -- ---- ------<br>--- ----- --- --- ------ -------- ----- --- ------ ----- --<br>----- ----- ---------- --- --- ------ ------ ---- -- ------<br>------- --- ------ ----- --- ---- ------- -- ---- --- --<br>------- ------,138270.59999999963,138269.69999999925,136967.355,136982.8999999985,136984.025,138284.115,,6,secured
screen,html.Screen,0_2_1_1_7,2021-11-12T13:23:55.546Z,,,,,,,,,,,,,,,,54,,,,,,,,,,,,,,409.58499999926426,,response,,,100,,,,,,Space,keypress(Space),,,,,-- --- ---- --- ------ ----- ------- much -- --- ------- --<br>------- ---------- ------ -- ----- -- ----- -- ---- ------<br>--- ----- --- --- ------ -------- ----- --- ------ ----- --<br>----- ----- ---------- --- --- ------ ------ ---- -- ------<br>------- --- ------ ----- --- ---- ------- -- ---- --- --<br>------- ------,138694.5,138693.69999999925,138267.446,138270.79999999888,138284.115,138701.267,,7,much
screen,html.Screen,0_2_1_1_8,2021-11-12T13:23:56.218Z,,,,,,,,,,,,,,,,54,,,,,,,,,,,,,,664.4329999992624,,response,,,100,,,,,,Space,keypress(Space),,,,,-- --- ---- --- ------ ----- ------- ---- of --- ------- --<br>------- ---------- ------ -- ----- -- ----- -- ---- ------<br>--- ----- --- --- ------ -------- ----- --- ------ ----- --<br>----- ----- ---------- --- --- ------ ------ ---- -- ------<br>------- --- ------ ----- --- ---- ------- -- ---- --- --<br>------- ------,139366.5,139365.69999999925,138684.595,138694.69999999925,138701.267,139367.927,,8,of
screen,html.Screen,0_2_1_1_9,2021-11-12T13:23:56.690Z,,,,,,,,,,,,,,,,54,,,,,,,,,,,,,,469.67299999963143,,response,,,100,,,,,,Space,keypress(Space),,,,,-- --- ---- --- ------ ----- ------- ---- -- its ------- --<br>------- ---------- ------ -- ----- -- ----- -- ---- ------<br>--- ----- --- --- ------ -------- ----- --- ------ ----- --<br>----- ----- ---------- --- --- ------ ------ ---- -- ------<br>------- --- ------ ----- --- ---- ------- -- ---- --- --<br>------- ------,139838.3999999985,139837.59999999963,139351.257,139366.69999999925,139367.927,139851.207,,9,its
screen,html.Screen,0_2_1_1_10,2021-11-12T13:23:57.914Z,,,,,,,,,,,,,,,,54,,,,,,,,,,,,,,1210.3929999996326,,response,,,100,,,,,,Space,keypress(Space),,,,,-- --- ---- --- ------ ----- ------- ---- -- --- revenue --<br>------- ---------- ------ -- ----- -- ----- -- ---- ------<br>--- ----- --- --- ------ -------- ----- --- ------ ----- --<br>----- ----- ---------- --- --- ------ ------ ---- -- ------<br>------- --- ------ ----- --- ---- ------- -- ---- --- --<br>------- ------,141062.3999999985,141061.59999999963,139834.539,139838.69999999925,139851.207,141068.423,,10,revenue
screen,html.Screen,0_2_1_1_11,2021-11-12T13:23:58.410Z,,,,,,,,,,,,,,,,54,,,,,,,,,,,,,,489.0769999999902,,response,,,100,,,,,,Space,keypress(Space),,,,,-- --- ---- --- ------ ----- ------- ---- -- --- ------- by<br>------- ---------- ------ -- ----- -- ----- -- ---- ------<br>--- ----- --- --- ------ -------- ----- --- ------ ----- --<br>----- ----- ---------- --- --- ------ ------ ---- -- ------<br>------- --- ------ ----- --- ---- ------- -- ---- --- --<br>------- ------,141558.29999999888,141557.5,141051.752,141062.69999999925,141068.423,141568.441,,11,by
screen,html.Screen,0_2_1_1_12,2021-11-12T13:23:59.002Z,,,,,,,,,,,,,,,,54,,,,,,,,,,,,,,580.8589999988908,,response,,,100,,,,,,Space,keypress(Space),,,,,-- --- ---- --- ------ ----- ------- ---- -- --- ------- --<br>issuing ---------- ------ -- ----- -- ----- -- ---- ------<br>--- ----- --- --- ------ -------- ----- --- ------ ----- --<br>----- ----- ---------- --- --- ------ ------ ---- -- ------<br>------- --- ------ ----- --- ---- ------- -- ---- --- --<br>------- ------,142150.5,142149.29999999888,141551.771,141558.59999999963,141568.441,142151.939,,12,issuing
screen,html.Screen,0_2_1_1_13,2021-11-12T13:23:59.418Z,,,,,,,,,,,,,,,,54,,,,,,,,,,,,,,413.56099999998696,,response,,,100,,,,,,Space,keypress(Space),,,,,-- --- ---- --- ------ ----- ------- ---- -- --- ------- --<br>------- government ------ -- ----- -- ----- -- ---- ------<br>--- ----- --- --- ------ -------- ----- --- ------ ----- --<br>----- ----- ---------- --- --- ------ ------ ---- -- ------<br>------- --- ------ ----- --- ---- ------- -- ---- --- --<br>------- ------,142566.19999999925,142565.5,142135.269,142150.69999999925,142151.939,142568.712,,13,government
screen,html.Screen,0_2_1_1_14,2021-11-12T13:23:59.850Z,,,,,,,,,,,,,,,,54,,,,,,,,,,,,,,428.68799999851035,,response,,,100,,,,,,Space,keypress(Space),,,,,-- --- ---- --- ------ ----- ------- ---- -- --- ------- --<br>------- ---------- bonds. -- ----- -- ----- -- ---- ------<br>--- ----- --- --- ------ -------- ----- --- ------ ----- --<br>----- ----- ---------- --- --- ------ ------ ---- -- ------<br>------- --- ------ ----- --- ---- ------- -- ---- --- --<br>------- ------,142998.29999999888,142997.3999999985,142552.042,142566.5,142568.712,143001.98,,14,bonds.
screen,html.Screen,0_2_1_1_15,2021-11-12T13:24:00.610Z,,,,,,,,,,,,,,,,54,,,,,,,,,,,,,,755.4199999984994,,response,,,100,,,,,,Space,keypress(Space),,,,,-- --- ---- --- ------ ----- ------- ---- -- --- ------- --<br>------- ---------- ------ In ----- -- ----- -- ---- ------<br>--- ----- --- --- ------ -------- ----- --- ------ ----- --<br>----- ----- ---------- --- --- ------ ------ ---- -- ------<br>------- --- ------ ----- --- ---- ------- -- ---- --- --<br>------- ------,143758.09999999963,143757.3999999985,142985.312,142998.5,143001.98,143769.138,,15,In
screen,html.Screen,0_2_1_1_16,2021-11-12T13:24:02.234Z,,,,,,,,,,,,,,,,54,,,,,,,,,,,,,,1612.4619999996212,,response,,,100,,,,,,Space,keypress(Space),,,,,"-- --- ---- --- ------ ----- ------- ---- -- --- ------- --<br>------- ---------- ------ -- 1727, -- ----- -- ---- ------<br>--- ----- --- --- ------ -------- ----- --- ------ ----- --<br>----- ----- ---------- --- --- ------ ------ ---- -- ------<br>------- --- ------ ----- --- ---- ------- -- ---- --- --<br>------- ------",145382.3999999985,145381.59999999963,143752.466,143758.3999999985,143769.138,145385.813,,16,"1727,"
screen,html.Screen,0_2_1_1_17,2021-11-12T13:24:02.978Z,,,,,,,,,,,,,,,,54,,,,,,,,,,,,,,739.3869999992603,,response,,,100,,,,,,Space,keypress(Space),,,,,-- --- ---- --- ------ ----- ------- ---- -- --- ------- --<br>------- ---------- ------ -- ----- in ----- -- ---- ------<br>--- ----- --- --- ------ -------- ----- --- ------ ----- --<br>----- ----- ---------- --- --- ------ ------ ---- -- ------<br>------- --- ------ ----- --- ---- ------- -- ---- --- --<br>------- ------,146126.09999999963,146125.19999999925,145369.144,145382.69999999925,145385.813,146136.325,,17,in
screen,html.Screen,0_2_1_1_18,2021-11-12T13:24:03.506Z,,,,,,,,,,,,,,,,54,,,,,,,,,,,,,,516.7749999996158,,response,,,100,,,,,,Space,keypress(Space),,,,,-- --- ---- --- ------ ----- ------- ---- -- --- ------- --<br>------- ---------- ------ -- ----- -- order -- ---- ------<br>--- ----- --- --- ------ -------- ----- --- ------ ----- --<br>----- ----- ---------- --- --- ------ ------ ---- -- ------<br>------- --- ------ ----- --- ---- ------- -- ---- --- --<br>------- ------,146653.8999999985,146653.09999999963,146119.654,146126.29999999888,146136.325,146669.636,,18,order
screen,html.Screen,0_2_1_1_19,2021-11-12T13:24:04.042Z,,,,,,,,,,,,,,,,54,,,,,,,,,,,,,,519.4639999996289,,response,,,100,,,,,,Space,keypress(Space),,,,,-- --- ---- --- ------ ----- ------- ---- -- --- ------- --<br>------- ---------- ------ -- ----- -- ----- to ---- ------<br>--- ----- --- --- ------ -------- ----- --- ------ ----- --<br>----- ----- ---------- --- --- ------ ------ ---- -- ------<br>------- --- ------ ----- --- ---- ------- -- ---- --- --<br>------- ------,147189.8999999985,147189.09999999963,146652.966,146654.19999999925,146669.636,147203.225,,19,to
screen,html.Screen,0_2_1_1_20,2021-11-12T13:24:04.562Z,,,,,,,,,,,,,,,,54,,,,,,,,,,,,,,505.87499999962165,,response,,,100,,,,,,Space,keypress(Space),,,,,-- --- ---- --- ------ ----- ------- ---- -- --- ------- --<br>------- ---------- ------ -- ----- -- ----- -- save ------<br>--- ----- --- --- ------ -------- ----- --- ------ ----- --<br>----- ----- ---------- --- --- ------ ------ ---- -- ------<br>------- --- ------ ----- --- ---- ------- -- ---- --- --<br>------- ------,147709.8999999985,147709.09999999963,147186.554,147190.09999999963,147203.225,147719.92,,20,save
screen,html.Screen,0_2_1_1_21,2021-11-12T13:24:05.081Z,,,,,,,,,,,,,,,,54,,,,,,,,,,,,,,509.17999999961467,,response,,,100,,,,,,Space,keypress(Space),,,,,"-- --- ---- --- ------ ----- ------- ---- -- --- ------- --<br>------- ---------- ------ -- ----- -- ----- -- ---- money,<br>--- ----- --- --- ------ -------- ----- --- ------ ----- --<br>----- ----- ---------- --- --- ------ ------ ---- -- ------<br>------- --- ------ ----- --- ---- ------- -- ---- --- --<br>------- ------",148229.8999999985,148229.09999999963,147703.25,147710.19999999925,147719.92,148236.816,,21,"money,"
screen,html.Screen,0_2_1_1_22,2021-11-12T13:24:05.633Z,,,,,,,,,,,,,,,,54,,,,,,,,,,,,,,544.1840000000084,,response,,,100,,,,,,Space,keypress(Space),,,,,-- --- ---- --- ------ ----- ------- ---- -- --- ------- --<br>------- ---------- ------ -- ----- -- ----- -- ---- ------<br>the ----- --- --- ------ -------- ----- --- ------ ----- --<br>----- ----- ---------- --- --- ------ ------ ---- -- ------<br>------- --- ------ ----- --- ---- ------- -- ---- --- --<br>------- ------,148781.69999999925,148781,148220.145,148230.09999999963,148236.816,148786.888,,22,the
screen,html.Screen,0_2_1_1_23,2021-11-12T13:24:06.177Z,,,,,,,,,,,,,,,,54,,,,,,,,,,,,,,538.0119999985036,,response,,,100,,,,,,Space,keypress(Space),,,,,-- --- ---- --- ------ ----- ------- ---- -- --- ------- --<br>------- ---------- ------ -- ----- -- ----- -- ---- ------<br>--- state --- --- ------ -------- ----- --- ------ ----- --<br>----- ----- ---------- --- --- ------ ------ ---- -- ------<br>------- --- ------ ----- --- ---- ------- -- ---- --- --<br>------- ------,149325.8999999985,149324.8999999985,148770.218,148782.09999999963,148786.888,149337.038,,23,state
screen,html.Screen,0_2_1_1_24,2021-11-12T13:24:06.753Z,,,,,,,,,,,,,,,,54,,,,,,,,,,,,,,563.761999998882,,response,,,100,,,,,,Space,keypress(Space),,,,,-- --- ---- --- ------ ----- ------- ---- -- --- ------- --<br>------- ---------- ------ -- ----- -- ----- -- ---- ------<br>--- ----- cut --- ------ -------- ----- --- ------ ----- --<br>----- ----- ---------- --- --- ------ ------ ---- -- ------<br>------- --- ------ ----- --- ---- ------- -- ---- --- --<br>------- ------,149901.59999999963,149900.79999999888,149320.368,149326.19999999925,149337.038,149903.833,,24,cut
screen,html.Screen,0_2_1_1_25,2021-11-12T13:24:07.321Z,,,,,,,,,,,,,,,,54,,,,,,,,,,,,,,564.9669999988691,,response,,,100,,,,,,Space,keypress(Space),,,,,-- --- ---- --- ------ ----- ------- ---- -- --- ------- --<br>------- ---------- ------ -- ----- -- ----- -- ---- ------<br>--- ----- --- the ------ -------- ----- --- ------ ----- --<br>----- ----- ---------- --- --- ------ ------ ---- -- ------<br>------- --- ------ ----- --- ---- ------- -- ---- --- --<br>------- ------,150469.59999999963,150468.79999999888,149887.163,149901.8999999985,149903.833,150487.292,,25,the
screen,html.Screen,0_2_1_1_26,2021-11-12T13:24:07.945Z,,,,,,,,,,,,,,,,54,,,,,,,,,,,,,,605.5079999988957,,response,,,100,,,,,,Space,keypress(Space),,,,,-- --- ---- --- ------ ----- ------- ---- -- --- ------- --<br>------- ---------- ------ -- ----- -- ----- -- ---- ------<br>--- ----- --- --- bonds' -------- ----- --- ------ ----- --<br>----- ----- ---------- --- --- ------ ------ ---- -- ------<br>------- --- ------ ----- --- ---- ------- -- ---- --- --<br>------- ------,151093.69999999925,151092.79999999888,150470.622,150470.5,150487.292,151104.138,,26,bonds'
screen,html.Screen,0_2_1_1_27,2021-11-12T13:24:08.489Z,,,,,,,,,,,,,,,,54,,,,,,,,,,,,,,532.6619999988761,,response,,,100,,,,,,Space,keypress(Space),,,,,-- --- ---- --- ------ ----- ------- ---- -- --- ------- --<br>------- ---------- ------ -- ----- -- ----- -- ---- ------<br>--- ----- --- --- ------ interest ----- --- ------ ----- --<br>----- ----- ---------- --- --- ------ ------ ---- -- ------<br>------- --- ------ ----- --- ---- ------- -- ---- --- --<br>------- ------,151637.59999999963,151636.79999999888,151087.468,151093.8999999985,151104.138,151654.244,,27,interest
screen,html.Screen,0_2_1_1_28,2021-11-12T13:24:08.969Z,,,,,,,,,,,,,,,,54,,,,,,,,,,,,,,462.4559999992489,,response,,,100,,,,,,Space,keypress(Space),,,,,-- --- ---- --- ------ ----- ------- ---- -- --- ------- --<br>------- ---------- ------ -- ----- -- ----- -- ---- ------<br>--- ----- --- --- ------ -------- rate. --- ------ ----- --<br>----- ----- ---------- --- --- ------ ------ ---- -- ------<br>------- --- ------ ----- --- ---- ------- -- ---- --- --<br>------- ------,152117.59999999963,152116.69999999925,151637.574,151637.79999999888,151654.244,152121.043,,28,rate.
screen,html.Screen,0_2_1_1_29,2021-11-12T13:24:09.601Z,,,,,,,,,,,,,,,,54,,,,,,,,,,,,,,627.6569999992498,,response,,,100,,,,,,Space,keypress(Space),,,,,-- --- ---- --- ------ ----- ------- ---- -- --- ------- --<br>------- ---------- ------ -- ----- -- ----- -- ---- ------<br>--- ----- --- --- ------ -------- ----- The ------ ----- --<br>----- ----- ---------- --- --- ------ ------ ---- -- ------<br>------- --- ------ ----- --- ---- ------- -- ---- --- --<br>------- ------,152749.5,152748.69999999925,152104.373,152117.8999999985,152121.043,152754.505,,29,The
screen,html.Screen,0_2_1_1_30,2021-11-12T13:24:10.249Z,,,,,,,,,,,,,,,,54,,,,,,,,,,,,,,642.0949999996228,,response,,,100,,,,,,Space,keypress(Space),,,,,-- --- ---- --- ------ ----- ------- ---- -- --- ------- --<br>------- ---------- ------ -- ----- -- ----- -- ---- ------<br>--- ----- --- --- ------ -------- ----- --- market ----- --<br>----- ----- ---------- --- --- ------ ------ ---- -- ------<br>------- --- ------ ----- --- ---- ------- -- ---- --- --<br>------- ------,153397.5,153396.59999999963,152737.835,152749.69999999925,152754.505,153404.652,,30,market
screen,html.Screen,0_2_1_1_31,2021-11-12T13:24:11.089Z,,,,,,,,,,,,,,,,54,,,,,,,,,,,,,,831.9479999996256,,response,,,100,,,,,,Space,keypress(Space),,,,,-- --- ---- --- ------ ----- ------- ---- -- --- ------- --<br>------- ---------- ------ -- ----- -- ----- -- ---- ------<br>--- ----- --- --- ------ -------- ----- --- ------ value --<br>----- ----- ---------- --- --- ------ ------ ---- -- ------<br>------- --- ------ ----- --- ---- ------- -- ---- --- --<br>------- ------,154237.3999999985,154236.59999999963,153387.982,153397.79999999888,153404.652,154254.889,,31,value
screen,html.Screen,0_2_1_1_32,2021-11-12T13:24:11.969Z,,,,,,,,,,,,,,,,54,,,,,,,,,,,,,,861.7109999996319,,response,,,100,,,,,,Space,keypress(Space),,,,,-- --- ---- --- ------ ----- ------- ---- -- --- ------- --<br>------- ---------- ------ -- ----- -- ----- -- ---- ------<br>--- ----- --- --- ------ -------- ----- --- ------ ----- of<br>----- ----- ---------- --- --- ------ ------ ---- -- ------<br>------- --- ------ ----- --- ---- ------- -- ---- --- --<br>------- ------,155117.3999999985,155116.59999999963,154238.219,154237.69999999925,154254.889,155121.731,,32,of
screen,html.Screen,0_2_1_1_33,2021-11-12T13:24:12.585Z,,,,,,,,,,,,,,,,54,,,,,,,,,,,,,,611.1689999985101,,response,,,100,,,,,,Space,keypress(Space),,,,,-- --- ---- --- ------ ----- ------- ---- -- --- ------- --<br>------- ---------- ------ -- ----- -- ----- -- ---- ------<br>--- ----- --- --- ------ -------- ----- --- ------ ----- --<br>these ----- ---------- --- --- ------ ------ ---- -- ------<br>------- --- ------ ----- --- ---- ------- -- ---- --- --<br>------- ------,155733.69999999925,155732.8999999985,155105.061,155117.59999999963,155121.731,155738.568,,33,these
screen,html.Screen,0_2_1_1_34,2021-11-12T13:24:13.569Z,,,,,,,,,,,,,,,,54,,,,,,,,,,,,,,977.9320000000007,,response,,,100,,,,,,Space,keypress(Space),,,,,-- --- ---- --- ------ ----- ------- ---- -- --- ------- --<br>------- ---------- ------ -- ----- -- ----- -- ---- ------<br>--- ----- --- --- ------ -------- ----- --- ------ ----- --<br>----- bonds ---------- --- --- ------ ------ ---- -- ------<br>------- --- ------ ----- --- ---- ------- -- ---- --- --<br>------- ------,156717.29999999888,156716.5,155721.898,155733.8999999985,155738.568,156722.154,,34,bonds
screen,html.Screen,0_2_1_1_35,2021-11-12T13:24:14.689Z,,,,,,,,,,,,,,,,54,,,,,,,,,,,,,,1114.1459999988729,,response,,,100,,,,,,Space,keypress(Space),,,,,"-- --- ---- --- ------ ----- ------- ---- -- --- ------- --<br>------- ---------- ------ -- ----- -- ----- -- ---- ------<br>--- ----- --- --- ------ -------- ----- --- ------ ----- --<br>----- ----- plummeted, --- --- ------ ------ ---- -- ------<br>------- --- ------ ----- --- ---- ------- -- ---- --- --<br>------- ------",157837.19999999925,157836.29999999888,156705.484,156717.5,156722.154,157855.718,,35,"plummeted,"
screen,html.Screen,0_2_1_1_36,2021-11-12T13:24:15.321Z,,,,,,,,,,,,,,,,54,,,,,,,,,,,,,,612.6819999985164,,response,,,100,,,,,,Space,keypress(Space),,,,,-- --- ---- --- ------ ----- ------- ---- -- --- ------- --<br>------- ---------- ------ -- ----- -- ----- -- ---- ------<br>--- ----- --- --- ------ -------- ----- --- ------ ----- --<br>----- ----- ---------- and --- ------ ------ ---- -- ------<br>------- --- ------ ----- --- ---- ------- -- ---- --- --<br>------- ------,158469.29999999888,158468.3999999985,157839.048,157838.79999999888,157855.718,158472.572,,36,and
screen,html.Screen,0_2_1_1_37,2021-11-12T13:24:15.889Z,,,,,,,,,,,,,,,,54,,,,,,,,,,,,,,563.7279999988968,,response,,,100,,,,,,Space,keypress(Space),,,,,-- --- ---- --- ------ ----- ------- ---- -- --- ------- --<br>------- ---------- ------ -- ----- -- ----- -- ---- ------<br>--- ----- --- --- ------ -------- ----- --- ------ ----- --<br>----- ----- ---------- --- the ------ ------ ---- -- ------<br>------- --- ------ ----- --- ---- ------- -- ---- --- --<br>------- ------,159037.09999999963,159036.29999999888,158455.902,158469.59999999963,158472.572,159039.376,,37,the
screen,html.Screen,0_2_1_1_38,2021-11-12T13:24:16.785Z,,,,,,,,,,,,,,,,54,,,,,,,,,,,,,,892.9239999988931,,response,,,100,,,,,,Space,keypress(Space),,,,,-- --- ---- --- ------ ----- ------- ---- -- --- ------- --<br>------- ---------- ------ -- ----- -- ----- -- ---- ------<br>--- ----- --- --- ------ -------- ----- --- ------ ----- --<br>----- ----- ---------- --- --- market ------ ---- -- ------<br>------- --- ------ ----- --- ---- ------- -- ---- --- --<br>------- ------,159933,159932.29999999888,159022.706,159037.3999999985,159039.376,159939.58,,38,market
screen,html.Screen,0_2_1_1_39,2021-11-12T13:24:17.361Z,,,,,,,,,,,,,,,,54,,,,,,,,,,,,,,568.6199999992677,,response,,,100,,,,,,Space,keypress(Space),,,,,-- --- ---- --- ------ ----- ------- ---- -- --- ------- --<br>------- ---------- ------ -- ----- -- ----- -- ---- ------<br>--- ----- --- --- ------ -------- ----- --- ------ ----- --<br>----- ----- ---------- --- --- ------ became ---- -- ------<br>------- --- ------ ----- --- ---- ------- -- ---- --- --<br>------- ------,160509,160508.19999999925,159922.91,159933.19999999925,159939.58,160523.089,,39,became
screen,html.Screen,0_2_1_1_40,2021-11-12T13:24:17.977Z,,,,,,,,,,,,,,,,54,,,,,,,,,,,,,,601.1109999992477,,response,,,100,,,,,,Space,keypress(Space),,,,,-- --- ---- --- ------ ----- ------- ---- -- --- ------- --<br>------- ---------- ------ -- ----- -- ----- -- ---- ------<br>--- ----- --- --- ------ -------- ----- --- ------ ----- --<br>----- ----- ---------- --- --- ------ ------ wary -- ------<br>------- --- ------ ----- --- ---- ------- -- ---- --- --<br>------- ------,161125,161124.19999999925,160506.419,160509.19999999925,160523.089,161139.869,,40,wary
screen,html.Screen,0_2_1_1_41,2021-11-12T13:24:18.752Z,,,,,,,,,,,,,,,,54,,,,,,,,,,,,,,760.2309999996214,,response,,,100,,,,,,Space,keypress(Space),,,,,-- --- ---- --- ------ ----- ------- ---- -- --- ------- --<br>------- ---------- ------ -- ----- -- ----- -- ---- ------<br>--- ----- --- --- ------ -------- ----- --- ------ ----- --<br>----- ----- ---------- --- --- ------ ------ ---- of ------<br>------- --- ------ ----- --- ---- ------- -- ---- --- --<br>------- ------,161900.8999999985,161900.09999999963,161123.199,161125.29999999888,161139.869,161906.721,,41,of
screen,html.Screen,0_2_1_1_42,2021-11-12T13:24:19.440Z,,,,,,,,,,,,,,,,54,,,,,,,,,,,,,,681.2790000000095,,response,,,100,,,,,,Space,keypress(Space),,,,,-- --- ---- --- ------ ----- ------- ---- -- --- ------- --<br>------- ---------- ------ -- ----- -- ----- -- ---- ------<br>--- ----- --- --- ------ -------- ----- --- ------ ----- --<br>----- ----- ---------- --- --- ------ ------ ---- -- French<br>------- --- ------ ----- --- ---- ------- -- ---- --- --<br>------- ------,162588.8999999985,162588,161890.051,161901.09999999963,161906.721,162590.216,,42,French
screen,html.Screen,0_2_1_1_43,2021-11-12T13:24:20.600Z,,,,,,,,,,,,,,,,54,,,,,,,,,,,,,,1157.683999998524,,response,,,100,,,,,,Space,keypress(Space),,,,,-- --- ---- --- ------ ----- ------- ---- -- --- ------- --<br>------- ---------- ------ -- ----- -- ----- -- ---- ------<br>--- ----- --- --- ------ -------- ----- --- ------ ----- --<br>----- ----- ---------- --- --- ------ ------ ---- -- ------<br>credit. --- ------ ----- --- ---- ------- -- ---- --- --<br>------- ------,163748.69999999925,163747.8999999985,162573.546,162589,162590.216,163757.186,,43,credit.
screen,html.Screen,0_2_1_1_44,2021-11-12T13:24:21.240Z,,,,,,,,,,,,,,,,54,,,,,,,,,,,,,,630.6139999988955,,response,,,100,,,,,,Space,keypress(Space),,,,,-- --- ---- --- ------ ----- ------- ---- -- --- ------- --<br>------- ---------- ------ -- ----- -- ----- -- ---- ------<br>--- ----- --- --- ------ -------- ----- --- ------ ----- --<br>----- ----- ---------- --- --- ------ ------ ---- -- ------<br>------- The ------ ----- --- ---- ------- -- ---- --- --<br>------- ------,164388.69999999925,164387.79999999888,163740.516,163749,163757.186,164390.63,,44,The
screen,html.Screen,0_2_1_1_45,2021-11-12T13:24:22.617Z,,,,,,,,,,,,,,,,54,,,,,,,,,,,,,,1373.5699999992503,,response,,,100,,,,,,Space,keypress(Space),,,,,-- --- ---- --- ------ ----- ------- ---- -- --- ------- --<br>------- ---------- ------ -- ----- -- ----- -- ---- ------<br>--- ----- --- --- ------ -------- ----- --- ------ ----- --<br>----- ----- ---------- --- --- ------ ------ ---- -- ------<br>------- --- French ----- --- ---- ------- -- ---- --- --<br>------- ------,165765,165764.19999999925,164373.96,164388.8999999985,164390.63,165774.321,,45,French
screen,html.Screen,0_2_1_1_46,2021-11-12T13:24:23.392Z,,,,,,,,,,,,,,,,54,,,,,,,,,,,,,,765.4789999988861,,response,,,100,,,,,,Space,keypress(Space),,,,,-- --- ---- --- ------ ----- ------- ---- -- --- ------- --<br>------- ---------- ------ -- ----- -- ----- -- ---- ------<br>--- ----- --- --- ------ -------- ----- --- ------ ----- --<br>----- ----- ---------- --- --- ------ ------ ---- -- ------<br>------- --- ------ state --- ---- ------- -- ---- --- --<br>------- ------,166540.5,166539.79999999888,165757.651,165765.19999999925,165774.321,166557.808,,46,state
screen,html.Screen,0_2_1_1_47,2021-11-12T13:24:23.888Z,,,,,,,,,,,,,,,,54,,,,,,,,,,,,,,477.89199999926495,,response,,,100,,,,,,Space,keypress(Space),,,,,-- --- ---- --- ------ ----- ------- ---- -- --- ------- --<br>------- ---------- ------ -- ----- -- ----- -- ---- ------<br>--- ----- --- --- ------ -------- ----- --- ------ ----- --<br>----- ----- ---------- --- --- ------ ------ ---- -- ------<br>------- --- ------ ----- was ---- ------- -- ---- --- --<br>------- ------,167036.5,167035.69999999925,166541.138,166540.79999999888,166557.808,167041.327,,47,was
screen,html.Screen,0_2_1_1_48,2021-11-12T13:24:24.416Z,,,,,,,,,,,,,,,,54,,,,,,,,,,,,,,522.2729999996372,,response,,,100,,,,,,Space,keypress(Space),,,,,-- --- ---- --- ------ ----- ------- ---- -- --- ------- --<br>------- ---------- ------ -- ----- -- ----- -- ---- ------<br>--- ----- --- --- ------ -------- ----- --- ------ ----- --<br>----- ----- ---------- --- --- ------ ------ ---- -- ------<br>------- --- ------ ----- --- left ------- -- ---- --- --<br>------- ------,167564.3999999985,167563.59999999963,167024.657,167036.79999999888,167041.327,167574.766,,48,left
screen,html.Screen,0_2_1_1_49,2021-11-12T13:24:25.160Z,,,,,,,,,,,,,,,,54,,,,,,,,,,,,,,732.8339999996242,,response,,,100,,,,,,Space,keypress(Space),,,,,-- --- ---- --- ------ ----- ------- ---- -- --- ------- --<br>------- ---------- ------ -- ----- -- ----- -- ---- ------<br>--- ----- --- --- ------ -------- ----- --- ------ ----- --<br>----- ----- ---------- --- --- ------ ------ ---- -- ------<br>------- --- ------ ----- --- ---- without -- ---- --- --<br>------- ------,168308.3999999985,168307.59999999963,167558.096,167564.69999999925,167574.766,168324.956,,49,without
screen,html.Screen,0_2_1_1_50,2021-11-12T13:24:25.688Z,,,,,,,,,,,,,,,,54,,,,,,,,,,,,,,510.6439999996219,,response,,,100,,,,,,Space,keypress(Space),,,,,-- --- ---- --- ------ ----- ------- ---- -- --- ------- --<br>------- ---------- ------ -- ----- -- ----- -- ---- ------<br>--- ----- --- --- ------ -------- ----- --- ------ ----- --<br>----- ----- ---------- --- --- ------ ------ ---- -- ------<br>------- --- ------ ----- --- ---- ------- an ---- --- --<br>------- ------,168836.3999999985,168835.59999999963,168308.286,168308.59999999963,168324.956,168841.732,,50,an
screen,html.Screen,0_2_1_1_51,2021-11-12T13:24:26.328Z,,,,,,,,,,,,,,,,54,,,,,,,,,,,,,,633.7680000000109,,response,,,100,,,,,,Space,keypress(Space),,,,,-- --- ---- --- ------ ----- ------- ---- -- --- ------- --<br>------- ---------- ------ -- ----- -- ----- -- ---- ------<br>--- ----- --- --- ------ -------- ----- --- ------ ----- --<br>----- ----- ---------- --- --- ------ ------ ---- -- ------<br>------- --- ------ ----- --- ---- ------- -- easy --- --<br>------- ------,169476.3999999985,169475.5,168825.062,168836.59999999963,168841.732,169491.91,,51,easy
screen,html.Screen,0_2_1_1_52,2021-11-12T13:24:27.280Z,,,,,,,,,,,,,,,,54,,,,,,,,,,,,,,935.689999999624,,response,,,100,,,,,,Space,keypress(Space),,,,,-- --- ---- --- ------ ----- ------- ---- -- --- ------- --<br>------- ---------- ------ -- ----- -- ----- -- ---- ------<br>--- ----- --- --- ------ -------- ----- --- ------ ----- --<br>----- ----- ---------- --- --- ------ ------ ---- -- ------<br>------- --- ------ ----- --- ---- ------- -- ---- way --<br>------- ------,170428.29999999888,170427.59999999963,169475.24,169476.59999999963,169491.91,170441.993,,52,way
screen,html.Screen,0_2_1_1_53,2021-11-12T13:24:28.040Z,,,,,,,,,,,,,,,,54,,,,,,,,,,,,,,745.4069999985222,,response,,,100,,,,,,Space,keypress(Space),,,,,-- --- ---- --- ------ ----- ------- ---- -- --- ------- --<br>------- ---------- ------ -- ----- -- ----- -- ---- ------<br>--- ----- --- --- ------ -------- ----- --- ------ ----- --<br>----- ----- ---------- --- --- ------ ------ ---- -- ------<br>------- --- ------ ----- --- ---- ------- -- ---- --- of<br>------- ------,171188.29999999888,171187.3999999985,170425.324,170428.5,170441.993,171192.409,,53,of
screen,html.Screen,0_2_1_1_54,2021-11-12T13:24:28.656Z,,,,,,,,,,,,,,,,54,,,,,,,,,,,,,,610.9909999984957,,response,,,100,,,,,,Space,keypress(Space),,,,,-- --- ---- --- ------ ----- ------- ---- -- --- ------- --<br>------- ---------- ------ -- ----- -- ----- -- ---- ------<br>--- ----- --- --- ------ -------- ----- --- ------ ----- --<br>----- ----- ---------- --- --- ------ ------ ---- -- ------<br>------- --- ------ ----- --- ---- ------- -- ---- --- --<br>raising ------,171804.19999999925,171803.3999999985,171175.738,171188.5,171192.409,171809.118,,54,raising
screen,html.Screen,0_2_1_1_55,2021-11-12T13:24:29.176Z,,,,,,,,,,,,,,,,54,,,,,,,,,,,,,,514.2819999985222,,response,,,100,,,,,,Space,keypress(Space),,,,,-- --- ---- --- ------ ----- ------- ---- -- --- ------- --<br>------- ---------- ------ -- ----- -- ----- -- ---- ------<br>--- ----- --- --- ------ -------- ----- --- ------ ----- --<br>----- ----- ---------- --- --- ------ ------ ---- -- ------<br>------- --- ------ ----- --- ---- ------- -- ---- --- --<br>------- money.,172324.19999999925,172323.3999999985,171792.448,171804.3999999985,171809.118,172342.611,,55,money.
Item 100,flow.Loop,0_2_1_1,2021-11-12T13:24:29.176Z,,,,,,,,,,,,,,,,,,,,,,,,,,,,,,38873.7979999985,,completion,,,,E,,,,,,,,,,silence,,172324.69999999925,172323.3999999985,133432.933,133434.59999999963,133449.602,172342.611,,,
Question 1,html.Screen,0_2_1_2,2021-11-12T13:24:35.960Z,,,,,,,,,,,,,,,,,,,,,,,,,,,true,TRUE,,6764.0889999992505,,response,,,100,E,,,,,TRUE,click #choice-1,,,,silence,,179107.8999999985,179106.69999999925,172325.941,172324.79999999888,172342.611,179110.836,,,
Question 2,html.Screen,0_2_1_3,2021-11-12T13:24:39.283Z,,,,,,,,,,,,,,,,,,,,,,,,,,,true,FALSE,,3315.6639999999898,,response,,,100,E,,,,,FALSE,click #choice-2,,,,silence,,182427.5,182426.5,179094.166,179108.19999999925,179110.836,182428.394,,,
Item 100,flow.Sequence,0_2_1,2021-11-12T13:24:39.284Z,,,,,,,,,,,,,,,,,,,,,,,,,,,,,,58979.011,,completion,,,,,,,,,,,,,,,,182428,182426.5,123430.817,123440.39999999851,123447.489,182428.394,,,
End of Practice,html.Page,0_2_2,2021-11-12T13:24:51.204Z,,,,,,,,,,,,,,,,,,,,,,,,,,,,,,11918.805999999255,,form submission,,,,,,,,,,,,,,,,194347.8999999985,194347.19999999925,182411.724,182428.19999999925,182428.394,194347.94,,,
Practice,flow.Sequence,0_2,2021-11-12T13:24:51.204Z,,,,,,,,,,,,,,,,,,,,,,,,,,,,,,118027.89899999925,,completion,,,,,,,,,,,,,,,,194348.29999999888,194347.19999999925,76302.628,76308.29999999888,76319.301,194347.94,,,
Trap_instruction,html.Page,0_3_0,2021-11-12T13:24:58.939Z,,,,,,,,,,,,,,,,,,,,,,,,,,,,,,7734.559999999998,,form submission,,,,,,,,,,,,,,,,202083,202082.5,194331.27,194348.69999999925,194347.94,202132.889,,,
trap_trial,html.Screen,0_3_1,2021-11-12T13:25:01.626Z,,,,,,,,,,,,,,,,,,,,,,,,,,,true,1,,2636.0109999985143,,response,,,,,,,,,1,click #choice-1,,,,,,204770.09999999963,204768.8999999985,202066.209,202083.29999999888,202132.889,204775.785,,,
end of trap trial,html.Page,0_3_2,2021-11-12T13:25:04.083Z,,,,,,,,,,,,,,,,,,,,,,,,,,,,,,2450.514999998879,,form submission,,,,,,,,,,,,,,,,207226.79999999888,207226.29999999888,204759.167,204770.3999999985,204775.785,207234.291,,,
Trap 1,flow.Sequence,0_3,2021-11-12T13:25:04.083Z,,,,,,,,,,,,,,,,,,,,,,,,,,,,,,12878.35999999888,,completion,,,,,,,,,,,,,,,,207227.09999999963,207226.29999999888,194331.27,194348.59999999963,194347.94,207234.291,,,
Standby,html.Page,0_4_0,2021-11-12T13:25:12.077Z,,,,,,,,,,,,,,,,,,,,,,,,,,,,,,8002.254000000015,,timeout,,,,,,,,,,,,,,,,215220.79999999888,215219.874,207217.621,207227.3999999985,207234.291,215236.545,,,
Holding screen,html.Screen,0_4_1_0_0,2021-11-12T13:25:19.078Z,,,,,,,,,,,,,,,,,,,,,,,,,,,,,,7001.459999999992,,timeout,,,,,,,,,,,,,,,,222222.3999999985,222221.335,215219.874,215221.19999999925,215236.545,222238.005,,,
screen,html.Screen,0_4_1_0_1_0,2021-11-12T13:25:19.769Z,,,,,,,,,,,,,,,,2,,,,,,,,,,,,,,674.1949999992503,,response,,,1,E,,,,,Space,keypress(Space),,,,lyrical,Two ---- ------ --- ------- ---------- ------- ----------<br>--- --------- --- ----------- ------- ----- ------- ---<br>--------- ---- -- --- ---- -- --------- -- ---- -------<br>-- --------- ------ --- ----- ------ ---- --- --------- --<br>------ - ---- -- --- ----------- ------- ---- ----- -----<br>--- -------- - ------ ---- -- ----- ---- --- --- -----------<br>-- -------,222913.19999999925,222912.19999999925,222221.335,222222.79999999888,222238.005,222921.544,,0,Two
screen,html.Screen,0_4_1_0_1_1,2021-11-12T13:25:20.249Z,,,,,,,,,,,,,,,,2,,,,,,,,,,,,,,470.255999998888,,response,,,1,E,,,,,Space,keypress(Space),,,,lyrical,--- days ------ --- ------- ---------- ------- ----------<br>--- --------- --- ----------- ------- ----- ------- ---<br>--------- ---- -- --- ---- -- --------- -- ---- -------<br>-- --------- ------ --- ----- ------ ---- --- --------- --<br>------ - ---- -- --- ----------- ------- ---- ----- -----<br>--- -------- - ------ ---- -- ----- ---- --- --- -----------<br>-- -------,223392.59999999963,223391.79999999888,222904.874,222913.59999999963,222921.544,223404.857,,1,days
screen,html.Screen,0_4_1_0_1_2,2021-11-12T13:25:20.680Z,,,,,,,,,,,,,,,,2,,,,,,,,,,,,,,418.94299999889336,,response,,,1,E,,,,,Space,keypress(Space),,,,lyrical,"--- ---- later, --- ------- ---------- ------- ----------<br>--- --------- --- ----------- ------- ----- ------- ---<br>--------- ---- -- --- ---- -- --------- -- ---- -------<br>-- --------- ------ --- ----- ------ ---- --- --------- --<br>------ - ---- -- --- ----------- ------- ---- ----- -----<br>--- -------- - ------ ---- -- ----- ---- --- --- -----------<br>-- -------",223824.69999999925,223823.79999999888,223388.188,223393,223404.857,223838.559,,2,"later,"
screen,html.Screen,0_4_1_0_1_3,2021-11-12T13:25:21.080Z,,,,,,,,,,,,,,,,2,,,,,,,,,,,,,,385.24099999887403,,response,,,1,E,,,,,Space,keypress(Space),,,,lyrical,--- ---- ------ the ------- ---------- ------- ----------<br>--- --------- --- ----------- ------- ----- ------- ---<br>--------- ---- -- --- ---- -- --------- -- ---- -------<br>-- --------- ------ --- ----- ------ ---- --- --------- --<br>------ - ---- -- --- ----------- ------- ---- ----- -----<br>--- -------- - ------ ---- -- ----- ---- --- --- -----------<br>-- -------,224224.5,224223.79999999888,223821.887,223825,223838.559,224238.46,,3,the
screen,html.Screen,0_4_1_0_1_4,2021-11-12T13:25:21.569Z,,,,,,,,,,,,,,,,2,,,,,,,,,,,,,,473.33999999889056,,response,,,1,E,,,,,Space,keypress(Space),,,,lyrical,--- ---- ------ --- British ---------- ------- ----------<br>--- --------- --- ----------- ------- ----- ------- ---<br>--------- ---- -- --- ---- -- --------- -- ---- -------<br>-- --------- ------ --- ----- ------ ---- --- --------- --<br>------ - ---- -- --- ----------- ------- ---- ----- -----<br>--- -------- - ------ ---- -- ----- ---- --- --- -----------<br>-- -------,224712.69999999925,224711.79999999888,224221.791,224224.8999999985,224238.46,224722.102,,4,British
screen,html.Screen,0_4_1_0_1_5,2021-11-12T13:25:22.024Z,,,,,,,,,,,,,,,,2,,,,,,,,,,,,,,445.59799999924144,,response,,,1,E,,,,,Space,keypress(Space),,,,lyrical,--- ---- ------ --- ------- astronomer ------- ----------<br>--- --------- --- ----------- ------- ----- ------- ---<br>--------- ---- -- --- ---- -- --------- -- ---- -------<br>-- --------- ------ --- ----- ------ ---- --- --------- --<br>------ - ---- -- --- ----------- ------- ---- ----- -----<br>--- -------- - ------ ---- -- ----- ---- --- --- -----------<br>-- -------,225168.5,225167.69999999925,224705.43,224713,224722.102,225172.107,,5,astronomer
screen,html.Screen,0_4_1_0_1_6,2021-11-12T13:25:22.744Z,,,,,,,,,,,,,,,,2,,,,,,,,,,,,,,715.4929999996384,,response,,,1,E,,,,,Space,keypress(Space),,,,lyrical,--- ---- ------ --- ------- ---------- Richard ----------<br>--- --------- --- ----------- ------- ----- ------- ---<br>--------- ---- -- --- ---- -- --------- -- ---- -------<br>-- --------- ------ --- ----- ------ ---- --- --------- --<br>------ - ---- -- --- ----------- ------- ---- ----- -----<br>--- -------- - ------ ---- -- ----- ---- --- --- -----------<br>-- -------,225888.3999999985,225887.59999999963,225155.437,225168.79999999888,225172.107,225905.626,,6,Richard
screen,html.Screen,0_4_1_0_1_7,2021-11-12T13:25:23.416Z,,,,,,,,,,,,,,,,2,,,,,,,,,,,,,,653.9739999996382,,response,,,1,E,,,,,Space,keypress(Space),,,,lyrical,--- ---- ------ --- ------- ---------- ------- Carrington<br>--- --------- --- ----------- ------- ----- ------- ---<br>--------- ---- -- --- ---- -- --------- -- ---- -------<br>-- --------- ------ --- ----- ------ ---- --- --------- --<br>------ - ---- -- --- ----------- ------- ---- ----- -----<br>--- -------- - ------ ---- -- ----- ---- --- --- -----------<br>-- -------,226560.3999999985,226559.59999999963,225888.956,225888.69999999925,225905.626,226572.359,,7,Carrington
screen,html.Screen,0_4_1_0_1_8,2021-11-12T13:25:24.072Z,,,,,,,,,,,,,,,,2,,,,,,,,,,,,,,643.2409999996307,,response,,,1,E,,,,,Space,keypress(Space),,,,lyrical,--- ---- ------ --- ------- ---------- ------- ----------<br>was --------- --- ----------- ------- ----- ------- ---<br>--------- ---- -- --- ---- -- --------- -- ---- -------<br>-- --------- ------ --- ----- ------ ---- --- --------- --<br>------ - ---- -- --- ----------- ------- ---- ----- -----<br>--- -------- - ------ ---- -- ----- ---- --- --- -----------<br>-- -------,227216.3999999985,227215.59999999963,226555.69,226560.69999999925,226572.359,227222.6,,8,was
screen,html.Screen,0_4_1_0_1_9,2021-11-12T13:25:24.528Z,,,,,,,,,,,,,,,,2,,,,,,,,,,,,,,448.8999999999942,,response,,,1,E,,,,,Space,keypress(Space),,,,lyrical,--- ---- ------ --- ------- ---------- ------- ----------<br>--- observing --- ----------- ------- ----- ------- ---<br>--------- ---- -- --- ---- -- --------- -- ---- -------<br>-- --------- ------ --- ----- ------ ---- --- --------- --<br>------ - ---- -- --- ----------- ------- ---- ----- -----<br>--- -------- - ------ ---- -- ----- ---- --- --- -----------<br>-- -------,227672.3999999985,227671.5,227205.93,227216.69999999925,227222.6,227689.258,,9,observing
screen,html.Screen,0_4_1_0_1_10,2021-11-12T13:25:24.976Z,,,,,,,,,,,,,,,,2,,,,,,,,,,,,,,430.24199999999837,,response,,,1,E,,,,,Space,keypress(Space),,,,lyrical,--- ---- ------ --- ------- ---------- ------- ----------<br>--- --------- the ----------- ------- ----- ------- ---<br>--------- ---- -- --- ---- -- --------- -- ---- -------<br>-- --------- ------ --- ----- ------ ---- --- --------- --<br>------ - ---- -- --- ----------- ------- ---- ----- -----<br>--- -------- - ------ ---- -- ----- ---- --- --- -----------<br>-- -------,228120.29999999888,228119.5,227672.589,227672.69999999925,227689.258,228122.892,,10,the
screen,html.Screen,0_4_1_0_1_11,2021-11-12T13:25:25.536Z,,,,,,,,,,,,,,,,2,,,,,,,,,,,,,,556.6080000000075,,response,,,1,E,,,,,Space,keypress(Space),,,,lyrical,--- ---- ------ --- ------- ---------- ------- ----------<br>--- --------- --- interesting ------- ----- ------- ---<br>--------- ---- -- --- ---- -- --------- -- ---- -------<br>-- --------- ------ --- ----- ------ ---- --- --------- --<br>------ - ---- -- --- ----------- ------- ---- ----- -----<br>--- -------- - ------ ---- -- ----- ---- --- --- -----------<br>-- -------,228680.19999999925,228679.5,228106.221,228120.5,228122.892,228689.649,,11,interesting
screen,html.Screen,0_4_1_0_1_12,2021-11-12T13:25:26.160Z,,,,,,,,,,,,,,,,2,,,,,,,,,,,,,,613.750999998505,,response,,,1,E,,,,,Space,keypress(Space),,,,lyrical,--- ---- ------ --- ------- ---------- ------- ----------<br>--- --------- --- ----------- sunspot ----- ------- ---<br>--------- ---- -- --- ---- -- --------- -- ---- -------<br>-- --------- ------ --- ----- ------ ---- --- --------- --<br>------ - ---- -- --- ----------- ------- ---- ----- -----<br>--- -------- - ------ ---- -- ----- ---- --- --- -----------<br>-- -------,229304.19999999925,229303.3999999985,228672.979,228680.3999999985,228689.649,229306.423,,12,sunspot
screen,html.Screen,0_4_1_0_1_13,2021-11-12T13:25:27.104Z,,,,,,,,,,,,,,,,2,,,,,,,,,,,,,,940.8769999988726,,response,,,1,E,,,,,Space,keypress(Space),,,,lyrical,--- ---- ------ --- ------- ---------- ------- ----------<br>--- --------- --- ----------- ------- group ------- ---<br>--------- ---- -- --- ---- -- --------- -- ---- -------<br>-- --------- ------ --- ----- ------ ---- --- --------- --<br>------ - ---- -- --- ----------- ------- ---- ----- -----<br>--- -------- - ------ ---- -- ----- ---- --- --- -----------<br>-- -------,230248,230247.29999999888,229289.753,229304.5,229306.423,230256.643,,13,group
screen,html.Screen,0_4_1_0_1_14,2021-11-12T13:25:27.792Z,,,,,,,,,,,,,,,,2,,,,,,,,,,,,,,678.6569999988715,,response,,,1,E,,,,,Space,keypress(Space),,,,lyrical,--- ---- ------ --- ------- ---------- ------- ----------<br>--- --------- --- ----------- ------- ----- through ---<br>--------- ---- -- --- ---- -- --------- -- ---- -------<br>-- --------- ------ --- ----- ------ ---- --- --------- --<br>------ - ---- -- --- ----------- ------- ---- ----- -----<br>--- -------- - ------ ---- -- ----- ---- --- --- -----------<br>-- -------,230936.09999999963,230935.29999999888,230239.973,230248.29999999888,230256.643,230940.145,,14,through
screen,html.Screen,0_4_1_0_1_15,2021-11-12T13:25:28.288Z,,,,,,,,,,,,,,,,2,,,,,,,,,,,,,,491.0549999992654,,response,,,1,E,,,,,Space,keypress(Space),,,,lyrical,--- ---- ------ --- ------- ---------- ------- ----------<br>--- --------- --- ----------- ------- ----- ------- his<br>--------- ---- -- --- ---- -- --------- -- ---- -------<br>-- --------- ------ --- ----- ------ ---- --- --------- --<br>------ - ---- -- --- ----------- ------- ---- ----- -----<br>--- -------- - ------ ---- -- ----- ---- --- --- -----------<br>-- -------,231432.09999999963,231431.19999999925,230923.475,230936.29999999888,230940.145,231440.29,,15,his
screen,html.Screen,0_4_1_0_1_16,2021-11-12T13:25:29.000Z,,,,,,,,,,,,,,,,2,,,,,,,,,,,,,,703.0099999988743,,response,,,1,E,,,,,Space,keypress(Space),,,,lyrical,--- ---- ------ --- ------- ---------- ------- ----------<br>--- --------- --- ----------- ------- ----- ------- ---<br>telescope ---- -- --- ---- -- --------- -- ---- -------<br>-- --------- ------ --- ----- ------ ---- --- --------- --<br>------ - ---- -- --- ----------- ------- ---- ----- -----<br>--- -------- - ------ ---- -- ----- ---- --- --- -----------<br>-- -------,232144,232143.29999999888,231423.62,231432.29999999888,231440.29,232157.11,,16,telescope
screen,html.Screen,0_4_1_0_1_17,2021-11-12T13:25:29.488Z,,,,,,,,,,,,,,,,2,,,,,,,,,,,,,,473.98999999964144,,response,,,1,E,,,,,Space,keypress(Space),,,,lyrical,--- ---- ------ --- ------- ---------- ------- ----------<br>--- --------- --- ----------- ------- ----- ------- ---<br>--------- when -- --- ---- -- --------- -- ---- -------<br>-- --------- ------ --- ----- ------ ---- --- --------- --<br>------ - ---- -- --- ----------- ------- ---- ----- -----<br>--- -------- - ------ ---- -- ----- ---- --- --- -----------<br>-- -------,232632,232631.09999999963,232140.44,232144.29999999888,232157.11,232640.605,,17,when
screen,html.Screen,0_4_1_0_1_18,2021-11-12T13:25:29.968Z,,,,,,,,,,,,,,,,2,,,,,,,,,,,,,,470.8949999999895,,response,,,1,E,,,,,Space,keypress(Space),,,,lyrical,--- ---- ------ --- ------- ---------- ------- ----------<br>--- --------- --- ----------- ------- ----- ------- ---<br>--------- ---- he --- ---- -- --------- -- ---- -------<br>-- --------- ------ --- ----- ------ ---- --- --------- --<br>------ - ---- -- --- ----------- ------- ---- ----- -----<br>--- -------- - ------ ---- -- ----- ---- --- --- -----------<br>-- -------,233112.29999999888,233111.5,232623.935,232632.29999999888,232640.605,233124.034,,18,he
screen,html.Screen,0_4_1_0_1_19,2021-11-12T13:25:30.400Z,,,,,,,,,,,,,,,,2,,,,,,,,,,,,,,419.06599999961327,,response,,,1,E,,,,,Space,keypress(Space),,,,lyrical,--- ---- ------ --- ------- ---------- ------- ----------<br>--- --------- --- ----------- ------- ----- ------- ---<br>--------- ---- -- saw ---- -- --------- -- ---- -------<br>-- --------- ------ --- ----- ------ ---- --- --------- --<br>------ - ---- -- --- ----------- ------- ---- ----- -----<br>--- -------- - ------ ---- -- ----- ---- --- --- -----------<br>-- -------,233543.8999999985,233543.09999999963,233107.364,233112.5,233124.034,233557.494,,19,saw
screen,html.Screen,0_4_1_0_1_20,2021-11-12T13:25:31.032Z,,,,,,,,,,,,,,,,2,,,,,,,,,,,,,,617.505999999994,,response,,,1,E,,,,,Space,keypress(Space),,,,lyrical,--- ---- ------ --- ------- ---------- ------- ----------<br>--- --------- --- ----------- ------- ----- ------- ---<br>--------- ---- -- --- what -- --------- -- ---- -------<br>-- --------- ------ --- ----- ------ ---- --- --------- --<br>------ - ---- -- --- ----------- ------- ---- ----- -----<br>--- -------- - ------ ---- -- ----- ---- --- --- -----------<br>-- -------,234175.8999999985,234175,233540.824,233544.09999999963,233557.494,234190.802,,20,what
screen,html.Screen,0_4_1_0_1_21,2021-11-12T13:25:31.512Z,,,,,,,,,,,,,,,,2,,,,,,,,,,,,,,464.19800000000396,,response,,,1,E,,,,,Space,keypress(Space),,,,lyrical,--- ---- ------ --- ------- ---------- ------- ----------<br>--- --------- --- ----------- ------- ----- ------- ---<br>--------- ---- -- --- ---- he --------- -- ---- -------<br>-- --------- ------ --- ----- ------ ---- --- --------- --<br>------ - ---- -- --- ----------- ------- ---- ----- -----<br>--- -------- - ------ ---- -- ----- ---- --- --- -----------<br>-- -------,234655.79999999888,234655,234174.134,234176.09999999963,234190.802,234657.852,,21,he
screen,html.Screen,0_4_1_0_1_22,2021-11-12T13:25:32.168Z,,,,,,,,,,,,,,,,2,,,,,,,,,,,,,,653.1479999999865,,response,,,1,E,,,,,Space,keypress(Space),,,,lyrical,--- ---- ------ --- ------- ---------- ------- ----------<br>--- --------- --- ----------- ------- ----- ------- ---<br>--------- ---- -- --- ---- -- described -- ---- -------<br>-- --------- ------ --- ----- ------ ---- --- --------- --<br>------ - ---- -- --- ----------- ------- ---- ----- -----<br>--- -------- - ------ ---- -- ----- ---- --- --- -----------<br>-- -------,235311.79999999888,235311,234641.18,234656.09999999963,234657.852,235324.449,,22,described
screen,html.Screen,0_4_1_0_1_23,2021-11-12T13:25:32.848Z,,,,,,,,,,,,,,,,2,,,,,,,,,,,,,,666.4509999985166,,response,,,1,E,,,,,Space,keypress(Space),,,,lyrical,--- ---- ------ --- ------- ---------- ------- ----------<br>--- --------- --- ----------- ------- ----- ------- ---<br>--------- ---- -- --- ---- -- --------- as ---- -------<br>-- --------- ------ --- ----- ------ ---- --- --------- --<br>------ - ---- -- --- ----------- ------- ---- ----- -----<br>--- -------- - ------ ---- -- ----- ---- --- --- -----------<br>-- -------,235991.69999999925,235990.8999999985,235307.78,235312,235324.449,236008.211,,23,as
screen,html.Screen,0_4_1_0_1_24,2021-11-12T13:25:33.400Z,,,,,,,,,,,,,,,,2,,,,,,,,,,,,,,534.6889999984996,,response,,,1,E,,,,,Space,keypress(Space),,,,lyrical,"--- ---- ------ --- ------- ---------- ------- ----------<br>--- --------- --- ----------- ------- ----- ------- ---<br>--------- ---- -- --- ---- -- --------- -- ""two -------<br>-- --------- ------ --- ----- ------ ---- --- --------- --<br>------ - ---- -- --- ----------- ------- ---- ----- -----<br>--- -------- - ------ ---- -- ----- ---- --- --- -----------<br>-- -------",236543.69999999925,236542.8999999985,235991.539,235992,236008.211,236558.194,,24,"""two"
screen,html.Screen,0_4_1_0_1_25,2021-11-12T13:25:34.463Z,,,,,,,,,,,,,,,,2,,,,,,,,,,,,,,1048.5059999992664,,response,,,1,E,,,,,Space,keypress(Space),,,,lyrical,--- ---- ------ --- ------- ---------- ------- ----------<br>--- --------- --- ----------- ------- ----- ------- ---<br>--------- ---- -- --- ---- -- --------- -- ---- patches<br>-- --------- ------ --- ----- ------ ---- --- --------- --<br>------ - ---- -- --- ----------- ------- ---- ----- -----<br>--- -------- - ------ ---- -- ----- ---- --- --- -----------<br>-- -------,237607.59999999963,237606.69999999925,236541.524,236543.8999999985,236558.194,237625.095,,25,patches
screen,html.Screen,0_4_1_0_1_26,2021-11-12T13:25:35.032Z,,,,,,,,,,,,,,,,2,,,,,,,,,,,,,,549.7049999988812,,response,,,1,E,,,,,Space,keypress(Space),,,,lyrical,--- ---- ------ --- ------- ---------- ------- ----------<br>--- --------- --- ----------- ------- ----- ------- ---<br>--------- ---- -- --- ---- -- --------- -- ---- -------<br>of --------- ------ --- ----- ------ ---- --- --------- --<br>------ - ---- -- --- ----------- ------- ---- ----- -----<br>--- -------- - ------ ---- -- ----- ---- --- --- -----------<br>-- -------,238175.59999999963,238174.79999999888,237608.425,237607.8999999985,237625.095,238191.932,,26,of
screen,html.Screen,0_4_1_0_1_27,2021-11-12T13:25:36.487Z,,,,,,,,,,,,,,,,2,,,,,,,,,,,,,,1438.7679999992542,,response,,,1,E,,,,,Space,keypress(Space),,,,lyrical,--- ---- ------ --- ------- ---------- ------- ----------<br>--- --------- --- ----------- ------- ----- ------- ---<br>--------- ---- -- --- ---- -- --------- -- ---- -------<br>-- intensely ------ --- ----- ------ ---- --- --------- --<br>------ - ---- -- --- ----------- ------- ---- ----- -----<br>--- -------- - ------ ---- -- ----- ---- --- --- -----------<br>-- -------,239631.5,239630.69999999925,238175.262,238175.8999999985,238191.932,239642.248,,27,intensely
screen,html.Screen,0_4_1_0_1_28,2021-11-12T13:25:37.095Z,,,,,,,,,,,,,,,,2,,,,,,,,,,,,,,596.3519999996352,,response,,,1,E,,,,,Space,keypress(Space),,,,lyrical,--- ---- ------ --- ------- ---------- ------- ----------<br>--- --------- --- ----------- ------- ----- ------- ---<br>--------- ---- -- --- ---- -- --------- -- ---- -------<br>-- --------- bright --- ----- ------ ---- --- --------- --<br>------ - ---- -- --- ----------- ------- ---- ----- -----<br>--- -------- - ------ ---- -- ----- ---- --- --- -----------<br>-- -------,240239.3999999985,240238.59999999963,239625.578,239631.79999999888,239642.248,240242.374,,28,bright
screen,html.Screen,0_4_1_0_1_29,2021-11-12T13:25:37.631Z,,,,,,,,,,,,,,,,2,,,,,,,,,,,,,,532.3259999992442,,response,,,1,E,,,,,Space,keypress(Space),,,,lyrical,--- ---- ------ --- ------- ---------- ------- ----------<br>--- --------- --- ----------- ------- ----- ------- ---<br>--------- ---- -- --- ---- -- --------- -- ---- -------<br>-- --------- ------ and ----- ------ ---- --- --------- --<br>------ - ---- -- --- ----------- ------- ---- ----- -----<br>--- -------- - ------ ---- -- ----- ---- --- --- -----------<br>-- -------,240775.5,240774.69999999925,240225.704,240239.59999999963,240242.374,240792.537,,29,and
screen,html.Screen,0_4_1_0_1_30,2021-11-12T13:25:38.256Z,,,,,,,,,,,,,,,,2,,,,,,,,,,,,,,605.9629999999888,,response,,,1,E,,,,,Space,keypress(Space),,,,lyrical,--- ---- ------ --- ------- ---------- ------- ----------<br>--- --------- --- ----------- ------- ----- ------- ---<br>--------- ---- -- --- ---- -- --------- -- ---- -------<br>-- --------- ------ --- white ------ ---- --- --------- --<br>------ - ---- -- --- ----------- ------- ---- ----- -----<br>--- -------- - ------ ---- -- ----- ---- --- --- -----------<br>-- -------,241399.29999999888,241398.5,240775.867,240775.79999999888,240792.537,241409.438,,30,white
screen,html.Screen,0_4_1_0_1_31,2021-11-12T13:25:39.016Z,,,,,,,,,,,,,,,,2,,,,,,,,,,,,,,749.0620000000054,,response,,,1,E,,,,,Space,keypress(Space),,,,lyrical,"--- ---- ------ --- ------- ---------- ------- ----------<br>--- --------- --- ----------- ------- ----- ------- ---<br>--------- ---- -- --- ---- -- --------- -- ---- -------<br>-- --------- ------ --- ----- light"" ---- --- --------- --<br>------ - ---- -- --- ----------- ------- ---- ----- -----<br>--- -------- - ------ ---- -- ----- ---- --- --- -----------<br>-- -------",242159.19999999925,242158.5,241392.767,241399.59999999963,241409.438,242176.253,,31,"light"""
screen,html.Screen,0_4_1_0_1_32,2021-11-12T13:25:39.568Z,,,,,,,,,,,,,,,,2,,,,,,,,,,,,,,534.247000000003,,response,,,1,E,,,,,Space,keypress(Space),,,,lyrical,--- ---- ------ --- ------- ---------- ------- ----------<br>--- --------- --- ----------- ------- ----- ------- ---<br>--------- ---- -- --- ---- -- --------- -- ---- -------<br>-- --------- ------ --- ----- ------ over --- --------- --<br>------ - ---- -- --- ----------- ------- ---- ----- -----<br>--- -------- - ------ ---- -- ----- ---- --- --- -----------<br>-- -------,242711.19999999925,242710.5,242159.583,242159.5,242176.253,242726.23,,32,over
screen,html.Screen,0_4_1_0_1_33,2021-11-12T13:25:40.112Z,,,,,,,,,,,,,,,,2,,,,,,,,,,,,,,528.5699999988719,,response,,,1,E,,,,,Space,keypress(Space),,,,lyrical,--- ---- ------ --- ------- ---------- ------- ----------<br>--- --------- --- ----------- ------- ----- ------- ---<br>--------- ---- -- --- ---- -- --------- -- ---- -------<br>-- --------- ------ --- ----- ------ ---- the --------- --<br>------ - ---- -- --- ----------- ------- ---- ----- -----<br>--- -------- - ------ ---- -- ----- ---- --- --- -----------<br>-- -------,243255.59999999963,243254.79999999888,242709.561,242711.59999999963,242726.23,243259.899,,33,the
screen,html.Screen,0_4_1_0_1_34,2021-11-12T13:25:41.320Z,,,,,,,,,,,,,,,,2,,,,,,,,,,,,,,1202.500999998505,,response,,,1,E,,,,,Space,keypress(Space),,,,lyrical,--- ---- ------ --- ------- ---------- ------- ----------<br>--- --------- --- ----------- ------- ----- ------- ---<br>--------- ---- -- --- ---- -- --------- -- ---- -------<br>-- --------- ------ --- ----- ------ ---- --- sunspots. --<br>------ - ---- -- --- ----------- ------- ---- ----- -----<br>--- -------- - ------ ---- -- ----- ---- --- --- -----------<br>-- -------,244463.19999999925,244462.3999999985,243243.228,243255.79999999888,243259.899,244476.772,,34,sunspots.
screen,html.Screen,0_4_1_0_1_35,2021-11-12T13:25:41.824Z,,,,,,,,,,,,,,,,2,,,,,,,,,,,,,,489.5279999988852,,response,,,1,E,,,,,Space,keypress(Space),,,,lyrical,--- ---- ------ --- ------- ---------- ------- ----------<br>--- --------- --- ----------- ------- ----- ------- ---<br>--------- ---- -- --- ---- -- --------- -- ---- -------<br>-- --------- ------ --- ----- ------ ---- --- --------- He<br>------ - ---- -- --- ----------- ------- ---- ----- -----<br>--- -------- - ------ ---- -- ----- ---- --- --- -----------<br>-- -------,244967.19999999925,244966.29999999888,244460.102,244463.5,244476.772,244976.905,,35,He
screen,html.Screen,0_4_1_0_1_36,2021-11-12T13:25:42.880Z,,,,,,,,,,,,,,,,2,,,,,,,,,,,,,,1045.294999999256,,response,,,1,E,,,,,Space,keypress(Space),,,,lyrical,--- ---- ------ --- ------- ---------- ------- ----------<br>--- --------- --- ----------- ------- ----- ------- ---<br>--------- ---- -- --- ---- -- --------- -- ---- -------<br>-- --------- ------ --- ----- ------ ---- --- --------- --<br>jotted - ---- -- --- ----------- ------- ---- ----- -----<br>--- -------- - ------ ---- -- ----- ---- --- --- -----------<br>-- -------,246023.09999999963,246022.19999999925,244960.235,244967.5,244976.905,246026.999,,36,jotted
screen,html.Screen,0_4_1_0_1_37,2021-11-12T13:25:43.424Z,,,,,,,,,,,,,,,,2,,,,,,,,,,,,,,539.1009999996168,,response,,,1,E,,,,,Space,keypress(Space),,,,lyrical,--- ---- ------ --- ------- ---------- ------- ----------<br>--- --------- --- ----------- ------- ----- ------- ---<br>--------- ---- -- --- ---- -- --------- -- ---- -------<br>-- --------- ------ --- ----- ------ ---- --- --------- --<br>------ a ---- -- --- ----------- ------- ---- ----- -----<br>--- -------- - ------ ---- -- ----- ---- --- --- -----------<br>-- -------,246567,246566.09999999963,246010.33,246023.3999999985,246026.999,246577.448,,37,a
screen,html.Screen,0_4_1_0_1_38,2021-11-12T13:25:43.984Z,,,,,,,,,,,,,,,,2,,,,,,,,,,,,,,548.551999999996,,response,,,1,E,,,,,Space,keypress(Space),,,,lyrical,--- ---- ------ --- ------- ---------- ------- ----------<br>--- --------- --- ----------- ------- ----- ------- ---<br>--------- ---- -- --- ---- -- --------- -- ---- -------<br>-- --------- ------ --- ----- ------ ---- --- --------- --<br>------ - note -- --- ----------- ------- ---- ----- -----<br>--- -------- - ------ ---- -- ----- ---- --- --- -----------<br>-- -------,247126.8999999985,247126,246560.776,246567.3999999985,246577.448,247144.091,,38,note
screen,html.Screen,0_4_1_0_1_39,2021-11-12T13:25:44.768Z,,,,,,,,,,,,,,,,2,,,,,,,,,,,,,,766.1089999992691,,response,,,1,E,,,,,Space,keypress(Space),,,,lyrical,--- ---- ------ --- ------- ---------- ------- ----------<br>--- --------- --- ----------- ------- ----- ------- ---<br>--------- ---- -- --- ---- -- --------- -- ---- -------<br>-- --------- ------ --- ----- ------ ---- --- --------- --<br>------ - ---- in --- ----------- ------- ---- ----- -----<br>--- -------- - ------ ---- -- ----- ---- --- --- -----------<br>-- -------,247911,247910.19999999925,247127.421,247127.19999999925,247144.091,247927.627,,39,in
screen,html.Screen,0_4_1_0_1_40,2021-11-12T13:25:45.192Z,,,,,,,,,,,,,,,,2,,,,,,,,,,,,,,406.4729999996198,,response,,,1,E,,,,,Space,keypress(Space),,,,lyrical,--- ---- ------ --- ------- ---------- ------- ----------<br>--- --------- --- ----------- ------- ----- ------- ---<br>--------- ---- -- --- ---- -- --------- -- ---- -------<br>-- --------- ------ --- ----- ------ ---- --- --------- --<br>------ - ---- -- his ----------- ------- ---- ----- -----<br>--- -------- - ------ ---- -- ----- ---- --- --- -----------<br>-- -------,248335,248334.09999999963,247910.957,247911.29999999888,247927.627,248344.413,,40,his
screen,html.Screen,0_4_1_0_1_41,2021-11-12T13:25:46.216Z,,,,,,,,,,,,,,,,2,,,,,,,,,,,,,,1013.4869999985094,,response,,,1,E,,,,,Space,keypress(Space),,,,lyrical,--- ---- ------ --- ------- ---------- ------- ----------<br>--- --------- --- ----------- ------- ----- ------- ---<br>--------- ---- -- --- ---- -- --------- -- ---- -------<br>-- --------- ------ --- ----- ------ ---- --- --------- --<br>------ - ---- -- --- painstaking ------- ---- ----- -----<br>--- -------- - ------ ---- -- ----- ---- --- --- -----------<br>-- -------,249358.79999999888,249357.8999999985,248327.743,248335.3999999985,248344.413,249361.285,,41,painstaking
screen,html.Screen,0_4_1_0_1_42,2021-11-12T13:25:47.128Z,,,,,,,,,,,,,,,,2,,,,,,,,,,,,,,908.7149999999965,,response,,,1,E,,,,,Space,keypress(Space),,,,lyrical,--- ---- ------ --- ------- ---------- ------- ----------<br>--- --------- --- ----------- ------- ----- ------- ---<br>--------- ---- -- --- ---- -- --------- -- ---- -------<br>-- --------- ------ --- ----- ------ ---- --- --------- --<br>------ - ---- -- --- ----------- record. ---- ----- -----<br>--- -------- - ------ ---- -- ----- ---- --- --- -----------<br>-- -------,250270.79999999888,250270,249344.615,249359.09999999963,249361.285,250278.192,,42,record.
screen,html.Screen,0_4_1_0_1_43,2021-11-12T13:25:48.024Z,,,,,,,,,,,,,,,,2,,,,,,,,,,,,,,887.6079999988724,,response,,,1,E,,,,,Space,keypress(Space),,,,lyrical,--- ---- ------ --- ------- ---------- ------- ----------<br>--- --------- --- ----------- ------- ----- ------- ---<br>--------- ---- -- --- ---- -- --------- -- ---- -------<br>-- --------- ------ --- ----- ------ ---- --- --------- --<br>------ - ---- -- --- ----------- ------- That ----- -----<br>--- -------- - ------ ---- -- ----- ---- --- --- -----------<br>-- -------,251166.69999999925,251165.79999999888,250261.522,250271.09999999963,250278.192,251178.389,,43,That
screen,html.Screen,0_4_1_0_1_44,2021-11-12T13:25:48.751Z,,,,,,,,,,,,,,,,2,,,,,,,,,,,,,,715.4109999988868,,response,,,1,E,,,,,Space,keypress(Space),,,,lyrical,--- ---- ------ --- ------- ---------- ------- ----------<br>--- --------- --- ----------- ------- ----- ------- ---<br>--------- ---- -- --- ---- -- --------- -- ---- -------<br>-- --------- ------ --- ----- ------ ---- --- --------- --<br>------ - ---- -- --- ----------- ------- ---- night -----<br>--- -------- - ------ ---- -- ----- ---- --- --- -----------<br>-- -------,251894.69999999925,251893.79999999888,251161.719,251167,251178.389,251911.913,,44,night
screen,html.Screen,0_4_1_0_1_45,2021-11-12T13:25:49.231Z,,,,,,,,,,,,,,,,2,,,,,,,,,,,,,,461.88699999888195,,response,,,1,E,,,,,Space,keypress(Space),,,,lyrical,--- ---- ------ --- ------- ---------- ------- ----------<br>--- --------- --- ----------- ------- ----- ------- ---<br>--------- ---- -- --- ---- -- --------- -- ---- -------<br>-- --------- ------ --- ----- ------ ---- --- --------- --<br>------ - ---- -- --- ----------- ------- ---- ----- there<br>--- -------- - ------ ---- -- ----- ---- --- --- -----------<br>-- -------,252374.59999999963,252373.79999999888,251895.243,251895,251911.913,252378.723,,45,there
screen,html.Screen,0_4_1_0_1_46,2021-11-12T13:25:49.800Z,,,,,,,,,,,,,,,,2,,,,,,,,,,,,,,563.1769999985117,,response,,,1,E,,,,,Space,keypress(Space),,,,lyrical,--- ---- ------ --- ------- ---------- ------- ----------<br>--- --------- --- ----------- ------- ----- ------- ---<br>--------- ---- -- --- ---- -- --------- -- ---- -------<br>-- --------- ------ --- ----- ------ ---- --- --------- --<br>------ - ---- -- --- ----------- ------- ---- ----- -----<br>was -------- - ------ ---- -- ----- ---- --- --- -----------<br>-- -------,252942.8999999985,252941.8999999985,252362.053,252374.8999999985,252378.723,252945.529,,46,was
screen,html.Screen,0_4_1_0_1_47,2021-11-12T13:25:52.040Z,,,,,,,,,,,,,,,,2,,,,,,,,,,,,,,2236.4709999999905,,response,,,1,E,,,,,Space,keypress(Space),,,,lyrical,--- ---- ------ --- ------- ---------- ------- ----------<br>--- --------- --- ----------- ------- ----- ------- ---<br>--------- ---- -- --- ---- -- --------- -- ---- -------<br>-- --------- ------ --- ----- ------ ---- --- --------- --<br>------ - ---- -- --- ----------- ------- ---- ----- -----<br>--- scarcely - ------ ---- -- ----- ---- --- --- -----------<br>-- -------,255182.69999999925,255182,252928.859,252943.09999999963,252945.529,255196.004,,47,scarcely
screen,html.Screen,0_4_1_0_1_48,2021-11-12T13:25:52.599Z,,,,,,,,,,,,,,,,2,,,,,,,,,,,,,,545.4960000000137,,response,,,1,E,,,,,Space,keypress(Space),,,,lyrical,--- ---- ------ --- ------- ---------- ------- ----------<br>--- --------- --- ----------- ------- ----- ------- ---<br>--------- ---- -- --- ---- -- --------- -- ---- -------<br>-- --------- ------ --- ----- ------ ---- --- --------- --<br>------ - ---- -- --- ----------- ------- ---- ----- -----<br>--- -------- a ------ ---- -- ----- ---- --- --- -----------<br>-- -------,255742.3999999985,255741.5,255179.334,255183,255196.004,255746.161,,48,a
screen,html.Screen,0_4_1_0_1_49,2021-11-12T13:25:53.279Z,,,,,,,,,,,,,,,,2,,,,,,,,,,,,,,675.3390000000072,,response,,,1,E,,,,,Space,keypress(Space),,,,lyrical,--- ---- ------ --- ------- ---------- ------- ----------<br>--- --------- --- ----------- ------- ----- ------- ---<br>--------- ---- -- --- ---- -- --------- -- ---- -------<br>-- --------- ------ --- ----- ------ ---- --- --------- --<br>------ - ---- -- --- ----------- ------- ---- ----- -----<br>--- -------- - square ---- -- ----- ---- --- --- -----------<br>-- -------,256422.29999999888,256421.5,255729.491,255742.79999999888,255746.161,256429.629,,49,square
