sender,sender_type,sender_id,timestamp,meta,,Blues,Classical,Country,Dance,Electronic,Folk,Gospel,Hip-Hop,Jazz,Latin,Musical/Film,New-age,Pop,Provo_ID,R&B,Rap,Reggae,Religious,Rock,Soul,Swing,Traditional,age,artist_name,correct,correctResponse,distraction,duration,education,ended_on,familiarity,gender,item,list,music_frequency,offensiveness,pleasantness,preference,response,response_action,snippet_file,song_name,song_rating,sound,text,time_commit,time_end,time_render,time_run,time_show,time_switch,url,word,word_ID
Instructions,html.Page,0_0,2021-12-10T12:43:05.724Z,"{""labjs_version"":""20.2.3"",""labjs_build"":{""flavor"":""production"",""commit"":""7ea907d66ca8aeef8054924ca5d82ffbe11e34e5""},""location"":""https://run.pavlovia.org/mvasilev/lab_music_a/"",""userAgent"":""Mozilla/5.0 (Windows NT 6.1; Win64; x64) AppleWebKit/537.36 (KHTML, like Gecko) Chrome/96.0.4664.93 Safari/537.36"",""platform"":""Win32"",""language"":""en-US"",""locale"":""en-US"",""timeZone"":""Europe/London"",""timezoneOffset"":0,""screen_width"":1920,""screen_height"":1080,""scroll_width"":1920,""scroll_height"":959,""window_innerWidth"":1920,""window_innerHeight"":1007,""devicePixelRatio"":1}",,,,,,,,,,,,,,,,,,,,,,,,,,,,,41241.480000000374,,form submission,,,,,,,,,,,,,,,,69263.5,69262.40000000037,28004.25,28009.200000001118,28020.92,69262.286,{},,
Headphones,html.Page,0_1,2021-12-10T12:43:09.863Z,,,,,,,,,,,,,,,,,,,,,,,,,,,,,,4139.214000000007,,form submission,,,,,,,,,,,,,,,,73401.80000000075,73401.5,69245.639,69263.90000000037,69262.286,73417.445,,,
Holding screen,html.Screen,0_2_0_0,2021-12-10T12:43:19.865Z,,,,,,,,,,,,,,,,,,,,,,,,,,,,,,9999.532999999996,,timeout,,,,,,,,,,,,,,,,83404,83400.313,73400.781,73402.20000000112,73417.445,83416.978,,,
screen,html.Screen,0_2_0_1_0,2021-12-10T12:43:20.948Z,,,,,,,,,,,,,,,,53,,,,,,,,,,,,,,1069.1219999996247,,response,,,99,,,,,,Space,keypress(Space),,,,,When -- ----- -- ------ - ------- --- ----------<br>------------- ------ ------ ---- ---- ------- ----- -- ----<br>-------- ------- -- ---------- --- - --- ----- ----- ----<br>---- --- --- ----- --- ---- ---- ------- ----- ---- -------<br>--- --- -- ----- -- --- ---- -- --- ---- -- ------ ------<br>--- ----- -- ----,84487.09999999963,84486.09999999963,83400.313,83404.30000000075,83416.978,84500.193,,0,When
screen,html.Screen,0_2_0_1_1,2021-12-10T12:43:21.611Z,,,,,,,,,,,,,,,,53,,,,,,,,,,,,,,649.7070000003732,,response,,,99,,,,,,Space,keypress(Space),,,,,---- it ----- -- ------ - ------- --- ----------<br>------------- ------ ------ ---- ---- ------- ----- -- ----<br>-------- ------- -- ---------- --- - --- ----- ----- ----<br>---- --- --- ----- --- ---- ---- ------- ----- ---- -------<br>--- --- -- ----- -- --- ---- -- --- ---- -- ------ ------<br>--- ----- -- ----,85150.70000000112,85149.90000000037,84483.528,84487.40000000037,84500.193,85166.819,,1,it
screen,html.Screen,0_2_0_1_2,2021-12-10T12:43:22.219Z,,,,,,,,,,,,,,,,53,,,,,,,,,,,,,,591.1809999999969,,response,,,99,,,,,,Space,keypress(Space),,,,,---- -- comes -- ------ - ------- --- ----------<br>------------- ------ ------ ---- ---- ------- ----- -- ----<br>-------- ------- -- ---------- --- - --- ----- ----- ----<br>---- --- --- ----- --- ---- ---- ------- ----- ---- -------<br>--- --- -- ----- -- --- ---- -- --- ---- -- ------ ------<br>--- ----- -- ----,85758.59999999963,85758,85150.154,85150.90000000037,85166.819,85766.783,,2,comes
screen,html.Screen,0_2_0_1_3,2021-12-10T12:43:22.628Z,,,,,,,,,,,,,,,,53,,,,,,,,,,,,,,399.31699999963166,,response,,,99,,,,,,Space,keypress(Space),,,,,---- -- ----- to ------ - ------- --- ----------<br>------------- ------ ------ ---- ---- ------- ----- -- ----<br>-------- ------- -- ---------- --- - --- ----- ----- ----<br>---- --- --- ----- --- ---- ---- ------- ----- ---- -------<br>--- --- -- ----- -- --- ---- -- --- ---- -- ------ ------<br>--- ----- -- ----,86166.80000000075,86166.09999999963,85750.118,85758.80000000075,85766.783,86183.442,,3,to
screen,html.Screen,0_2_0_1_4,2021-12-10T12:43:23.284Z,,,,,,,,,,,,,,,,53,,,,,,,,,,,,,,638.8580000007496,,response,,,99,,,,,,Space,keypress(Space),,,,,---- -- ----- -- having - ------- --- ----------<br>------------- ------ ------ ---- ---- ------- ----- -- ----<br>-------- ------- -- ---------- --- - --- ----- ----- ----<br>---- --- --- ----- --- ---- ---- ------- ----- ---- -------<br>--- --- -- ----- -- --- ---- -- --- ---- -- ------ ------<br>--- ----- -- ----,86823.09999999963,86822.30000000075,86166.777,86167.20000000112,86183.442,86833.382,,4,having
screen,html.Screen,0_2_0_1_5,2021-12-10T12:43:23.699Z,,,,,,,,,,,,,,,,53,,,,,,,,,,,,,,404.41800000074727,,response,,,99,,,,,,Space,keypress(Space),,,,,---- -- ----- -- ------ a ------- --- ----------<br>------------- ------ ------ ---- ---- ------- ----- -- ----<br>-------- ------- -- ---------- --- - --- ----- ----- ----<br>---- --- --- ----- --- ---- ---- ------- ----- ---- -------<br>--- --- -- ----- -- --- ---- -- --- ---- -- ------ ------<br>--- ----- -- ----,87238.59999999963,87237.80000000075,86816.717,86823.30000000075,86833.382,87250.06,,5,a
screen,html.Screen,0_2_0_1_6,2021-12-10T12:43:24.323Z,,,,,,,,,,,,,,,,53,,,,,,,,,,,,,,611.7400000007474,,response,,,99,,,,,,Space,keypress(Space),,,,,---- -- ----- -- ------ - lasting --- ----------<br>------------- ------ ------ ---- ---- ------- ----- -- ----<br>-------- ------- -- ---------- --- - --- ----- ----- ----<br>---- --- --- ----- --- ---- ---- ------- ----- ---- -------<br>--- --- -- ----- -- --- ---- -- --- ---- -- ------ ------<br>--- ----- -- ----,87862.59999999963,87861.80000000075,87233.395,87238.90000000037,87250.06,87866.658,,6,lasting
screen,html.Screen,0_2_0_1_7,2021-12-10T12:43:24.739Z,,,,,,,,,,,,,,,,53,,,,,,,,,,,,,,411.14200000074925,,response,,,99,,,,,,Space,keypress(Space),,,,,---- -- ----- -- ------ - ------- and ----------<br>------------- ------ ------ ---- ---- ------- ----- -- ----<br>-------- ------- -- ---------- --- - --- ----- ----- ----<br>---- --- --- ----- --- ---- ---- ------- ----- ---- -------<br>--- --- -- ----- -- --- ---- -- --- ---- -- ------ ------<br>--- ----- -- ----,88278.59999999963,88277.80000000075,87849.993,87862.70000000112,87866.658,88283.255,,7,and
screen,html.Screen,0_2_0_1_8,2021-12-10T12:43:25.547Z,,,,,,,,,,,,,,,,53,,,,,,,,,,,,,,802.4450000011129,,response,,,99,,,,,,Space,keypress(Space),,,,,---- -- ----- -- ------ - ------- --- fulfilling<br>------------- ------ ------ ---- ---- ------- ----- -- ----<br>-------- ------- -- ---------- --- - --- ----- ----- ----<br>---- --- --- ----- --- ---- ---- ------- ----- ---- -------<br>--- --- -- ----- -- --- ---- -- --- ---- -- ------ ------<br>--- ----- -- ----,89086.59999999963,89085.70000000112,88266.591,88278.80000000075,88283.255,89099.807,,8,fulfilling
screen,html.Screen,0_2_0_1_9,2021-12-10T12:43:26.099Z,,,,,,,,,,,,,,,,53,,,,,,,,,,,,,,537.9930000007444,,response,,,99,,,,,,Space,keypress(Space),,,,,"---- -- ----- -- ------ - ------- --- ----------<br>relationship, ------ ------ ---- ---- ------- ----- -- ----<br>-------- ------- -- ---------- --- - --- ----- ----- ----<br>---- --- --- ----- --- ---- ---- ------- ----- ---- -------<br>--- --- -- ----- -- --- ---- -- --- ---- -- ------ ------<br>--- ----- -- ----",89638.40000000037,89637.80000000075,89083.143,89086.80000000075,89099.807,89649.928,,9,"relationship,"
screen,html.Screen,0_2_0_1_10,2021-12-10T12:43:26.555Z,,,,,,,,,,,,,,,,53,,,,,,,,,,,,,,443.6719999996276,,response,,,99,,,,,,Space,keypress(Space),,,,,---- -- ----- -- ------ - ------- --- ----------<br>------------- common ------ ---- ---- ------- ----- -- ----<br>-------- ------- -- ---------- --- - --- ----- ----- ----<br>---- --- --- ----- --- ---- ---- ------- ----- ---- -------<br>--- --- -- ----- -- --- ---- -- --- ---- -- ------ ------<br>--- ----- -- ----,90094.30000000075,90093.59999999963,89633.262,89638.59999999963,89649.928,90099.77,,10,common
screen,html.Screen,0_2_0_1_11,2021-12-10T12:43:27.107Z,,,,,,,,,,,,,,,,53,,,,,,,,,,,,,,545.8299999996234,,response,,,99,,,,,,Space,keypress(Space),,,,,---- -- ----- -- ------ - ------- --- ----------<br>------------- ------ wisdom ---- ---- ------- ----- -- ----<br>-------- ------- -- ---------- --- - --- ----- ----- ----<br>---- --- --- ----- --- ---- ---- ------- ----- ---- -------<br>--- --- -- ----- -- --- ---- -- --- ---- -- ------ ------<br>--- ----- -- ----,90646.30000000075,90645.59999999963,90083.106,90094.5,90099.77,90649.766,,11,wisdom
screen,html.Screen,0_2_0_1_12,2021-12-10T12:43:27.739Z,,,,,,,,,,,,,,,,53,,,,,,,,,,,,,,627.8339999996242,,response,,,99,,,,,,Space,keypress(Space),,,,,---- -- ----- -- ------ - ------- --- ----------<br>------------- ------ ------ says ---- ------- ----- -- ----<br>-------- ------- -- ---------- --- - --- ----- ----- ----<br>---- --- --- ----- --- ---- ---- ------- ----- ---- -------<br>--- --- -- ----- -- --- ---- -- --- ---- -- ------ ------<br>--- ----- -- ----,91278.30000000075,91277.59999999963,90633.101,90646.5,90649.766,91283.051,,12,says
screen,html.Screen,0_2_0_1_13,2021-12-10T12:43:28.171Z,,,,,,,,,,,,,,,,53,,,,,,,,,,,,,,426.44899999999325,,response,,,99,,,,,,Space,keypress(Space),,,,,---- -- ----- -- ------ - ------- --- ----------<br>------------- ------ ------ ---- that ------- ----- -- ----<br>-------- ------- -- ---------- --- - --- ----- ----- ----<br>---- --- --- ----- --- ---- ---- ------- ----- ---- -------<br>--- --- -- ----- -- --- ---- -- --- ---- -- ------ ------<br>--- ----- -- ----,91710.09999999963,91709.5,91266.386,91278.40000000037,91283.051,91716.358,,13,that
screen,html.Screen,0_2_0_1_14,2021-12-10T12:43:28.587Z,,,,,,,,,,,,,,,,53,,,,,,,,,,,,,,409.1420000000071,,response,,,99,,,,,,Space,keypress(Space),,,,,---- -- ----- -- ------ - ------- --- ----------<br>------------- ------ ------ ---- ---- feeling ----- -- ----<br>-------- ------- -- ---------- --- - --- ----- ----- ----<br>---- --- --- ----- --- ---- ---- ------- ----- ---- -------<br>--- --- -- ----- -- --- ---- -- --- ---- -- ------ ------<br>--- ----- -- ----,92126.20000000112,92125.5,91699.693,91710.30000000075,91716.358,92132.918,,14,feeling
screen,html.Screen,0_2_0_1_15,2021-12-10T12:43:29.099Z,,,,,,,,,,,,,,,,53,,,,,,,,,,,,,,504.5819999999949,,response,,,99,,,,,,Space,keypress(Space),,,,,---- -- ----- -- ------ - ------- --- ----------<br>------------- ------ ------ ---- ---- ------- close -- ----<br>-------- ------- -- ---------- --- - --- ----- ----- ----<br>---- --- --- ----- --- ---- ---- ------- ----- ---- -------<br>--- --- -- ----- -- --- ---- -- --- ---- -- ------ ------<br>--- ----- -- ----,92638.30000000075,92637.5,92116.254,92126.40000000037,92132.918,92649.755,,15,close
screen,html.Screen,0_2_0_1_16,2021-12-10T12:43:29.451Z,,,,,,,,,,,,,,,,53,,,,,,,,,,,,,,339.6450000003679,,response,,,99,,,,,,Space,keypress(Space),,,,,---- -- ----- -- ------ - ------- --- ----------<br>------------- ------ ------ ---- ---- ------- ----- to ----<br>-------- ------- -- ---------- --- - --- ----- ----- ----<br>---- --- --- ----- --- ---- ---- ------- ----- ---- -------<br>--- --- -- ----- -- --- ---- -- --- ---- -- ------ ------<br>--- ----- -- ----,92990,92989.40000000037,92633.088,92638.5,92649.755,92999.616,,16,to
screen,html.Screen,0_2_0_1_17,2021-12-10T12:43:29.883Z,,,,,,,,,,,,,,,,53,,,,,,,,,,,,,,421.784000000378,,response,,,99,,,,,,Space,keypress(Space),,,,,---- -- ----- -- ------ - ------- --- ----------<br>------------- ------ ------ ---- ---- ------- ----- -- your<br>-------- ------- -- ---------- --- - --- ----- ----- ----<br>---- --- --- ----- --- ---- ---- ------- ----- ---- -------<br>--- --- -- ----- -- --- ---- -- --- ---- -- ------ ------<br>--- ----- -- ----,93422,93421.40000000037,92982.951,92990.20000000112,92999.616,93432.944,,17,your
screen,html.Screen,0_2_0_1_18,2021-12-10T12:43:30.363Z,,,,,,,,,,,,,,,,53,,,,,,,,,,,,,,468.4560000003694,,response,,,99,,,,,,Space,keypress(Space),,,,,---- -- ----- -- ------ - ------- --- ----------<br>------------- ------ ------ ---- ---- ------- ----- -- ----<br>romantic ------- -- ---------- --- - --- ----- ----- ----<br>---- --- --- ----- --- ---- ---- ------- ----- ---- -------<br>--- --- -- ----- -- --- ---- -- --- ---- -- ------ ------<br>--- ----- -- ----,93902,93901.40000000037,93416.279,93422.20000000112,93432.944,93916.224,,18,romantic
screen,html.Screen,0_2_0_1_19,2021-12-10T12:43:30.699Z,,,,,,,,,,,,,,,,53,,,,,,,,,,,,,,321.17600000037055,,response,,,99,,,,,,Space,keypress(Space),,,,,---- -- ----- -- ------ - ------- --- ----------<br>------------- ------ ------ ---- ---- ------- ----- -- ----<br>-------- partner -- ---------- --- - --- ----- ----- ----<br>---- --- --- ----- --- ---- ---- ------- ----- ---- -------<br>--- --- -- ----- -- --- ---- -- --- ---- -- ------ ------<br>--- ----- -- ----,94238.09999999963,94237.40000000037,93899.559,93902.09999999963,93916.224,94249.537,,19,partner
screen,html.Screen,0_2_0_1_20,2021-12-10T12:43:31.067Z,,,,,,,,,,,,,,,,53,,,,,,,,,,,,,,355.76300000074843,,response,,,99,,,,,,Space,keypress(Space),,,,,---- -- ----- -- ------ - ------- --- ----------<br>------------- ------ ------ ---- ---- ------- ----- -- ----<br>-------- ------- is ---------- --- - --- ----- ----- ----<br>---- --- --- ----- --- ---- ---- ------- ----- ---- -------<br>--- --- -- ----- -- --- ---- -- --- ---- -- ------ ------<br>--- ----- -- ----,94606,94605.30000000075,94232.872,94238.30000000075,94249.537,94616.179,,20,is
screen,html.Screen,0_2_0_1_21,2021-12-10T12:43:31.467Z,,,,,,,,,,,,,,,,53,,,,,,,,,,,,,,389.12100000074133,,response,,,99,,,,,,Space,keypress(Space),,,,,---- -- ----- -- ------ - ------- --- ----------<br>------------- ------ ------ ---- ---- ------- ----- -- ----<br>-------- ------- -- paramount. --- - --- ----- ----- ----<br>---- --- --- ----- --- ---- ---- ------- ----- ---- -------<br>--- --- -- ----- -- --- ---- -- --- ---- -- ------ ------<br>--- ----- -- ----,95005.80000000075,95005.30000000075,94599.514,94606.20000000112,94616.179,95016.161,,21,paramount.
screen,html.Screen,0_2_0_1_22,2021-12-10T12:43:32.603Z,,,,,,,,,,,,,,,,53,,,,,,,,,,,,,,1125.1390000007523,,response,,,99,,,,,,Space,keypress(Space),,,,,---- -- ----- -- ------ - ------- --- ----------<br>------------- ------ ------ ---- ---- ------- ----- -- ----<br>-------- ------- -- ---------- But - --- ----- ----- ----<br>---- --- --- ----- --- ---- ---- ------- ----- ---- -------<br>--- --- -- ----- -- --- ---- -- --- ---- -- ------ ------<br>--- ----- -- ----,96142,96141.30000000075,94999.496,95006.09999999963,95016.161,96149.196,,22,But
screen,html.Screen,0_2_0_1_23,2021-12-10T12:43:32.995Z,,,,,,,,,,,,,,,,53,,,,,,,,,,,,,,384.20400000037625,,response,,,99,,,,,,Space,keypress(Space),,,,,---- -- ----- -- ------ - ------- --- ----------<br>------------- ------ ------ ---- ---- ------- ----- -- ----<br>-------- ------- -- ---------- --- a --- ----- ----- ----<br>---- --- --- ----- --- ---- ---- ------- ----- ---- -------<br>--- --- -- ----- -- --- ---- -- --- ---- -- ------ ------<br>--- ----- -- ----,96533.90000000037,96533.40000000037,96132.533,96142.09999999963,96149.196,96549.445,,23,a
screen,html.Screen,0_2_0_1_24,2021-12-10T12:43:33.394Z,,,,,,,,,,,,,,,,53,,,,,,,,,,,,,,383.6549999996205,,response,,,99,,,,,,Space,keypress(Space),,,,,---- -- ----- -- ------ - ------- --- ----------<br>------------- ------ ------ ---- ---- ------- ----- -- ----<br>-------- ------- -- ---------- --- - new ----- ----- ----<br>---- --- --- ----- --- ---- ---- ------- ----- ---- -------<br>--- --- -- ----- -- --- ---- -- --- ---- -- ------ ------<br>--- ----- -- ----,96933.70000000112,96933.09999999963,96532.779,96534.20000000112,96549.445,96949.33,,24,new
screen,html.Screen,0_2_0_1_25,2021-12-10T12:43:33.794Z,,,,,,,,,,,,,,,,53,,,,,,,,,,,,,,383.7699999996257,,response,,,99,,,,,,Space,keypress(Space),,,,,---- -- ----- -- ------ - ------- --- ----------<br>------------- ------ ------ ---- ---- ------- ----- -- ----<br>-------- ------- -- ---------- --- - --- study ----- ----<br>---- --- --- ----- --- ---- ---- ------- ----- ---- -------<br>--- --- -- ----- -- --- ---- -- --- ---- -- ------ ------<br>--- ----- -- ----,97333.70000000112,97333.09999999963,96932.665,96933.90000000037,96949.33,97349.311,,25,study
screen,html.Screen,0_2_0_1_26,2021-12-10T12:43:34.211Z,,,,,,,,,,,,,,,,53,,,,,,,,,,,,,,399.78899999962596,,response,,,99,,,,,,Space,keypress(Space),,,,,---- -- ----- -- ------ - ------- --- ----------<br>------------- ------ ------ ---- ---- ------- ----- -- ----<br>-------- ------- -- ---------- --- - --- ----- finds ----<br>---- --- --- ----- --- ---- ---- ------- ----- ---- -------<br>--- --- -- ----- -- --- ---- -- --- ---- -- ------ ------<br>--- ----- -- ----,97749.80000000075,97749.09999999963,97332.646,97333.90000000037,97349.311,97765.936,,26,finds
screen,html.Screen,0_2_0_1_27,2021-12-10T12:43:34.611Z,,,,,,,,,,,,,,,,53,,,,,,,,,,,,,,383.16399999962596,,response,,,99,,,,,,Space,keypress(Space),,,,,---- -- ----- -- ------ - ------- --- ----------<br>------------- ------ ------ ---- ---- ------- ----- -- ----<br>-------- ------- -- ---------- --- - --- ----- ----- that<br>---- --- --- ----- --- ---- ---- ------- ----- ---- -------<br>--- --- -- ----- -- --- ---- -- --- ---- -- ------ ------<br>--- ----- -- ----,98149.80000000075,98149.09999999963,97749.271,97750,97765.936,98165.908,,27,that
screen,html.Screen,0_2_0_1_28,2021-12-10T12:43:35.138Z,,,,,,,,,,,,,,,,53,,,,,,,,,,,,,,511.19199999963166,,response,,,99,,,,,,Space,keypress(Space),,,,,---- -- ----- -- ------ - ------- --- ----------<br>------------- ------ ------ ---- ---- ------- ----- -- ----<br>-------- ------- -- ---------- --- - --- ----- ----- ----<br>it's --- --- ----- --- ---- ---- ------- ----- ---- -------<br>--- --- -- ----- -- --- ---- -- --- ---- -- ------ ------<br>--- ----- -- ----,98677.70000000112,98677.09999999963,98149.243,98150.09999999963,98165.908,98682.606,,28,it's
screen,html.Screen,0_2_0_1_29,2021-12-10T12:43:35.458Z,,,,,,,,,,,,,,,,53,,,,,,,,,,,,,,314.39400000000023,,response,,,99,,,,,,Space,keypress(Space),,,,,---- -- ----- -- ------ - ------- --- ----------<br>------------- ------ ------ ---- ---- ------- ----- -- ----<br>-------- ------- -- ---------- --- - --- ----- ----- ----<br>---- not --- ----- --- ---- ---- ------- ----- ---- -------<br>--- --- -- ----- -- --- ---- -- --- ---- -- ------ ------<br>--- ----- -- ----,98997.59999999963,98997,98665.94,98677.90000000037,98682.606,98999.203,,29,not
screen,html.Screen,0_2_0_1_30,2021-12-10T12:43:35.722Z,,,,,,,,,,,,,,,,53,,,,,,,,,,,,,,261.79700000000594,,response,,,99,,,,,,Space,keypress(Space),,,,,---- -- ----- -- ------ - ------- --- ----------<br>------------- ------ ------ ---- ---- ------- ----- -- ----<br>-------- ------- -- ---------- --- - --- ----- ----- ----<br>---- --- how ----- --- ---- ---- ------- ----- ---- -------<br>--- --- -- ----- -- --- ---- -- --- ---- -- ------ ------<br>--- ----- -- ----,99261.70000000112,99261,98982.538,98997.70000000112,98999.203,99265.864,,30,how
screen,html.Screen,0_2_0_1_31,2021-12-10T12:43:35.930Z,,,,,,,,,,,,,,,,53,,,,,,,,,,,,,,203.03600000037113,,response,,,99,,,,,,Space,keypress(Space),,,,,---- -- ----- -- ------ - ------- --- ----------<br>------------- ------ ------ ---- ---- ------- ----- -- ----<br>-------- ------- -- ---------- --- - --- ----- ----- ----<br>---- --- --- close --- ---- ---- ------- ----- ---- -------<br>--- --- -- ----- -- --- ---- -- --- ---- -- ------ ------<br>--- ----- -- ----,99469.59999999963,99468.90000000037,99249.199,99261.90000000037,99265.864,99482.467,,31,close
screen,html.Screen,0_2_0_1_32,2021-12-10T12:43:36.546Z,,,,,,,,,,,,,,,,53,,,,,,,,,,,,,,602.5329999999958,,response,,,99,,,,,,Space,keypress(Space),,,,,---- -- ----- -- ------ - ------- --- ----------<br>------------- ------ ------ ---- ---- ------- ----- -- ----<br>-------- ------- -- ---------- --- - --- ----- ----- ----<br>---- --- --- ----- you ---- ---- ------- ----- ---- -------<br>--- --- -- ----- -- --- ---- -- --- ---- -- ------ ------<br>--- ----- -- ----,100085.5,100085,99465.803,99469.70000000112,99482.467,100099.166,,32,you
screen,html.Screen,0_2_0_1_33,2021-12-10T12:43:36.930Z,,,,,,,,,,,,,,,,53,,,,,,,,,,,,,,369.7340000003751,,response,,,99,,,,,,Space,keypress(Space),,,,,---- -- ----- -- ------ - ------- --- ----------<br>------------- ------ ------ ---- ---- ------- ----- -- ----<br>-------- ------- -- ---------- --- - --- ----- ----- ----<br>---- --- --- ----- --- feel ---- ------- ----- ---- -------<br>--- --- -- ----- -- --- ---- -- --- ---- -- ------ ------<br>--- ----- -- ----,100469.5,100468.90000000037,100082.5,100085.70000000112,100099.166,100482.454,,33,feel
screen,html.Screen,0_2_0_1_34,2021-12-10T12:43:37.354Z,,,,,,,,,,,,,,,,53,,,,,,,,,,,,,,410.4460000003746,,response,,,99,,,,,,Space,keypress(Space),,,,,---- -- ----- -- ------ - ------- --- ----------<br>------------- ------ ------ ---- ---- ------- ----- -- ----<br>-------- ------- -- ---------- --- - --- ----- ----- ----<br>---- --- --- ----- --- ---- that ------- ----- ---- -------<br>--- --- -- ----- -- --- ---- -- --- ---- -- ------ ------<br>--- ----- -- ----,100893.5,100892.90000000037,100465.789,100469.70000000112,100482.454,100898.991,,34,that
screen,html.Screen,0_2_0_1_35,2021-12-10T12:43:37.658Z,,,,,,,,,,,,,,,,53,,,,,,,,,,,,,,297.909000000378,,response,,,99,,,,,,Space,keypress(Space),,,,,---- -- ----- -- ------ - ------- --- ----------<br>------------- ------ ------ ---- ---- ------- ----- -- ----<br>-------- ------- -- ---------- --- - --- ----- ----- ----<br>---- --- --- ----- --- ---- ---- matters ----- ---- -------<br>--- --- -- ----- -- --- ---- -- --- ---- -- ------ ------<br>--- ----- -- ----,101197.5,101196.90000000037,100882.327,100893.70000000112,100898.991,101199.092,,35,matters
screen,html.Screen,0_2_0_1_36,2021-12-10T12:43:38.210Z,,,,,,,,,,,,,,,,53,,,,,,,,,,,,,,549.8080000003683,,response,,,99,,,,,,Space,keypress(Space),,,,,"---- -- ----- -- ------ - ------- --- ----------<br>------------- ------ ------ ---- ---- ------- ----- -- ----<br>-------- ------- -- ---------- --- - --- ----- ----- ----<br>---- --- --- ----- --- ---- ---- ------- most, ---- -------<br>--- --- -- ----- -- --- ---- -- --- ---- -- ------ ------<br>--- ----- -- ----",101749.5,101748.90000000037,101182.426,101197.70000000112,101199.092,101765.616,,36,"most,"
screen,html.Screen,0_2_0_1_37,2021-12-10T12:43:38.642Z,,,,,,,,,,,,,,,,53,,,,,,,,,,,,,,415.18400000075053,,response,,,99,,,,,,Space,keypress(Space),,,,,---- -- ----- -- ------ - ------- --- ----------<br>------------- ------ ------ ---- ---- ------- ----- -- ----<br>-------- ------- -- ---------- --- - --- ----- ----- ----<br>---- --- --- ----- --- ---- ---- ------- ----- it's -------<br>--- --- -- ----- -- --- ---- -- --- ---- -- ------ ------<br>--- ----- -- ----,102181.5,102180.80000000075,101748.952,101749.70000000112,101765.616,102198.9,,37,it's
screen,html.Screen,0_2_0_1_38,2021-12-10T12:43:38.930Z,,,,,,,,,,,,,,,,53,,,,,,,,,,,,,,269.8000000011234,,response,,,99,,,,,,Space,keypress(Space),,,,,---- -- ----- -- ------ - ------- --- ----------<br>------------- ------ ------ ---- ---- ------- ----- -- ----<br>-------- ------- -- ---------- --- - --- ----- ----- ----<br>---- --- --- ----- --- ---- ---- ------- ----- ---- whether<br>--- --- -- ----- -- --- ---- -- --- ---- -- ------ ------<br>--- ----- -- ----,102469.30000000075,102468.70000000112,102182.236,102181.70000000112,102198.9,102482.33,,38,whether
screen,html.Screen,0_2_0_1_39,2021-12-10T12:43:39.474Z,,,,,,,,,,,,,,,,53,,,,,,,,,,,,,,530.3700000011158,,response,,,99,,,,,,Space,keypress(Space),,,,,---- -- ----- -- ------ - ------- --- ----------<br>------------- ------ ------ ---- ---- ------- ----- -- ----<br>-------- ------- -- ---------- --- - --- ----- ----- ----<br>---- --- --- ----- --- ---- ---- ------- ----- ---- -------<br>you --- -- ----- -- --- ---- -- --- ---- -- ------ ------<br>--- ----- -- ----,103013.30000000075,103012.70000000112,102465.664,102469.5,102482.33,103015.581,,39,you
screen,html.Screen,0_2_0_1_40,2021-12-10T12:43:39.826Z,,,,,,,,,,,,,,,,53,,,,,,,,,,,,,,349.119000001112,,response,,,99,,,,,,Space,keypress(Space),,,,,---- -- ----- -- ------ - ------- --- ----------<br>------------- ------ ------ ---- ---- ------- ----- -- ----<br>-------- ------- -- ---------- --- - --- ----- ----- ----<br>---- --- --- ----- --- ---- ---- ------- ----- ---- -------<br>--- are -- ----- -- --- ---- -- --- ---- -- ------ ------<br>--- ----- -- ----,103365.30000000075,103364.70000000112,102998.916,103013.5,103015.581,103382.234,,40,are
screen,html.Screen,0_2_0_1_41,2021-12-10T12:43:40.146Z,,,,,,,,,,,,,,,,53,,,,,,,,,,,,,,302.46600000112085,,response,,,99,,,,,,Space,keypress(Space),,,,,---- -- ----- -- ------ - ------- --- ----------<br>------------- ------ ------ ---- ---- ------- ----- -- ----<br>-------- ------- -- ---------- --- - --- ----- ----- ----<br>---- --- --- ----- --- ---- ---- ------- ----- ---- -------<br>--- --- as ----- -- --- ---- -- --- ---- -- ------ ------<br>--- ----- -- ----,103685.30000000075,103684.70000000112,103365.569,103365.5,103382.234,103698.871,,41,as
screen,html.Screen,0_2_0_1_42,2021-12-10T12:43:40.434Z,,,,,,,,,,,,,,,,53,,,,,,,,,,,,,,273.7289999996283,,response,,,99,,,,,,Space,keypress(Space),,,,,---- -- ----- -- ------ - ------- --- ----------<br>------------- ------ ------ ---- ---- ------- ----- -- ----<br>-------- ------- -- ---------- --- - --- ----- ----- ----<br>---- --- --- ----- --- ---- ---- ------- ----- ---- -------<br>--- --- -- close -- --- ---- -- --- ---- -- ------ ------<br>--- ----- -- ----,103973.20000000112,103972.59999999963,103682.206,103685.40000000037,103698.871,103982.186,,42,close
screen,html.Screen,0_2_0_1_43,2021-12-10T12:43:40.906Z,,,,,,,,,,,,,,,,53,,,,,,,,,,,,,,462.5140000011161,,response,,,99,,,,,,Space,keypress(Space),,,,,---- -- ----- -- ------ - ------- --- ----------<br>------------- ------ ------ ---- ---- ------- ----- -- ----<br>-------- ------- -- ---------- --- - --- ----- ----- ----<br>---- --- --- ----- --- ---- ---- ------- ----- ---- -------<br>--- --- -- ----- as --- ---- -- --- ---- -- ------ ------<br>--- ----- -- ----,104445.30000000075,104444.70000000112,103965.521,103973.40000000037,103982.186,104448.766,,43,as
screen,html.Screen,0_2_0_1_44,2021-12-10T12:43:41.346Z,,,,,,,,,,,,,,,,53,,,,,,,,,,,,,,435.8339999996242,,response,,,99,,,,,,Space,keypress(Space),,,,,---- -- ----- -- ------ - ------- --- ----------<br>------------- ------ ------ ---- ---- ------- ----- -- ----<br>-------- ------- -- ---------- --- - --- ----- ----- ----<br>---- --- --- ----- --- ---- ---- ------- ----- ---- -------<br>--- --- -- ----- -- you ---- -- --- ---- -- ------ ------<br>--- ----- -- ----,104885.09999999963,104884.59999999963,104432.102,104445.40000000037,104448.766,104898.835,,44,you
screen,html.Screen,0_2_0_1_45,2021-12-10T12:43:41.778Z,,,,,,,,,,,,,,,,53,,,,,,,,,,,,,,417.76499999962107,,response,,,99,,,,,,Space,keypress(Space),,,,,---- -- ----- -- ------ - ------- --- ----------<br>------------- ------ ------ ---- ---- ------- ----- -- ----<br>-------- ------- -- ---------- --- - --- ----- ----- ----<br>---- --- --- ----- --- ---- ---- ------- ----- ---- -------<br>--- --- -- ----- -- --- want -- --- ---- -- ------ ------<br>--- ----- -- ----,105317.20000000112,105316.59999999963,104882.169,104885.40000000037,104898.835,105332.082,,45,want
screen,html.Screen,0_2_0_1_46,2021-12-10T12:43:42.218Z,,,,,,,,,,,,,,,,53,,,,,,,,,,,,,,424.4180000000051,,response,,,99,,,,,,Space,keypress(Space),,,,,---- -- ----- -- ------ - ------- --- ----------<br>------------- ------ ------ ---- ---- ------- ----- -- ----<br>-------- ------- -- ---------- --- - --- ----- ----- ----<br>---- --- --- ----- --- ---- ---- ------- ----- ---- -------<br>--- --- -- ----- -- --- ---- to --- ---- -- ------ ------<br>--- ----- -- ----,105757.20000000112,105756.5,105315.417,105317.30000000075,105332.082,105765.332,,46,to
screen,html.Screen,0_2_0_1_47,2021-12-10T12:43:42.618Z,,,,,,,,,,,,,,,,53,,,,,,,,,,,,,,391.1680000000051,,response,,,99,,,,,,Space,keypress(Space),,,,,"---- -- ----- -- ------ - ------- --- ----------<br>------------- ------ ------ ---- ---- ------- ----- -- ----<br>-------- ------- -- ---------- --- - --- ----- ----- ----<br>---- --- --- ----- --- ---- ---- ------- ----- ---- -------<br>--- --- -- ----- -- --- ---- -- be, ---- -- ------ ------<br>--- ----- -- ----",106157.09999999963,106156.5,105748.668,105757.40000000037,105765.332,106165.413,,47,"be,"
screen,html.Screen,0_2_0_1_48,2021-12-10T12:43:43.050Z,,,,,,,,,,,,,,,,53,,,,,,,,,,,,,,423.186999999627,,response,,,99,,,,,,Space,keypress(Space),,,,,---- -- ----- -- ------ - ------- --- ----------<br>------------- ------ ------ ---- ---- ------- ----- -- ----<br>-------- ------- -- ---------- --- - --- ----- ----- ----<br>---- --- --- ----- --- ---- ---- ------- ----- ---- -------<br>--- --- -- ----- -- --- ---- -- --- even -- ------ ------<br>--- ----- -- ----,106589.30000000075,106588.59999999963,106148.747,106157.30000000075,106165.413,106598.664,,48,even
screen,html.Screen,0_2_0_1_49,2021-12-10T12:43:43.482Z,,,,,,,,,,,,,,,,53,,,,,,,,,,,,,,421.7360000003682,,response,,,99,,,,,,Space,keypress(Space),,,,,---- -- ----- -- ------ - ------- --- ----------<br>------------- ------ ------ ---- ---- ------- ----- -- ----<br>-------- ------- -- ---------- --- - --- ----- ----- ----<br>---- --- --- ----- --- ---- ---- ------- ----- ---- -------<br>--- --- -- ----- -- --- ---- -- --- ---- if ------ ------<br>--- ----- -- ----,107021,107020.40000000037,106581.999,106589.5,106598.664,107031.893,,49,if
screen,html.Screen,0_2_0_1_50,2021-12-10T12:43:43.874Z,,,,,,,,,,,,,,,,53,,,,,,,,,,,,,,380.6070000000036,,response,,,99,,,,,,Space,keypress(Space),,,,,---- -- ----- -- ------ - ------- --- ----------<br>------------- ------ ------ ---- ---- ------- ----- -- ----<br>-------- ------- -- ---------- --- - --- ----- ----- ----<br>---- --- --- ----- --- ---- ---- ------- ----- ---- -------<br>--- --- -- ----- -- --- ---- -- --- ---- -- that's ------<br>--- ----- -- ----,107413.40000000037,107412.5,107015.229,107021.09999999963,107031.893,107415.311,,50,that's
screen,html.Screen,0_2_0_1_51,2021-12-10T12:43:44.298Z,,,,,,,,,,,,,,,,53,,,,,,,,,,,,,,421.089000000371,,response,,,99,,,,,,Space,keypress(Space),,,,,---- -- ----- -- ------ - ------- --- ----------<br>------------- ------ ------ ---- ---- ------- ----- -- ----<br>-------- ------- -- ---------- --- - --- ----- ----- ----<br>---- --- --- ----- --- ---- ---- ------- ----- ---- -------<br>--- --- -- ----- -- --- ---- -- --- ---- -- ------ really<br>--- ----- -- ----,107837,107836.40000000037,107398.645,107413.5,107415.311,107848.44,,51,really
screen,html.Screen,0_2_0_1_52,2021-12-10T12:43:44.738Z,,,,,,,,,,,,,,,,53,,,,,,,,,,,,,,427.86000000074273,,response,,,99,,,,,,Space,keypress(Space),,,,,---- -- ----- -- ------ - ------- --- ----------<br>------------- ------ ------ ---- ---- ------- ----- -- ----<br>-------- ------- -- ---------- --- - --- ----- ----- ----<br>---- --- --- ----- --- ---- ---- ------- ----- ---- -------<br>--- --- -- ----- -- --- ---- -- --- ---- -- ------ ------<br>not ----- -- ----,108277,108276.30000000075,107831.777,107837.09999999963,107848.44,108281.949,,52,not
screen,html.Screen,0_2_0_1_53,2021-12-10T12:43:45.194Z,,,,,,,,,,,,,,,,53,,,,,,,,,,,,,,450.3510000007518,,response,,,99,,,,,,Space,keypress(Space),,,,,---- -- ----- -- ------ - ------- --- ----------<br>------------- ------ ------ ---- ---- ------- ----- -- ----<br>-------- ------- -- ---------- --- - --- ----- ----- ----<br>---- --- --- ----- --- ---- ---- ------- ----- ---- -------<br>--- --- -- ----- -- --- ---- -- --- ---- -- ------ ------<br>--- close -- ----,108732.90000000037,108732.30000000075,108265.282,108277.09999999963,108281.949,108748.525,,53,close
screen,html.Screen,0_2_0_1_54,2021-12-10T12:43:45.746Z,,,,,,,,,,,,,,,,53,,,,,,,,,,,,,,535.7750000007509,,response,,,99,,,,,,Space,keypress(Space),,,,,---- -- ----- -- ------ - ------- --- ----------<br>------------- ------ ------ ---- ---- ------- ----- -- ----<br>-------- ------- -- ---------- --- - --- ----- ----- ----<br>---- --- --- ----- --- ---- ---- ------- ----- ---- -------<br>--- --- -- ----- -- --- ---- -- --- ---- -- ------ ------<br>--- ----- at ----,109284.90000000037,109284.30000000075,108731.86,108733.20000000112,108748.525,109298.491,,54,at
screen,html.Screen,0_2_0_1_55,2021-12-10T12:43:46.146Z,,,,,,,,,,,,,,,,53,,,,,,,,,,,,,,385.80900000075053,,response,,,99,,,,,,Space,keypress(Space),,,,,---- -- ----- -- ------ - ------- --- ----------<br>------------- ------ ------ ---- ---- ------- ----- -- ----<br>-------- ------- -- ---------- --- - --- ----- ----- ----<br>---- --- --- ----- --- ---- ---- ------- ----- ---- -------<br>--- --- -- ----- -- --- ---- -- --- ---- -- ------ ------<br>--- ----- -- all.,109684.90000000037,109684.30000000075,109281.826,109285.09999999963,109298.491,109698.451,,55,all.
Item 99,flow.Loop,0_2_0_1,2021-12-10T12:43:46.148Z,,,,,,,,,,,,,,,,,,,,,,,,,,,,,,26267.322000000742,,completion,,,,A,,,,,,,,,,silence,,109687.80000000075,109684.30000000075,83400.313,83404.20000000112,83416.978,109698.451,,,
Question 1,html.Screen,0_2_0_2,2021-12-10T12:43:53.242Z,,,,,,,,,,,,,,,,,,,,,,,,,,,true,FALSE,,7081.449000000372,,response,,,99,A,,,,,FALSE,click #choice-2,,,,silence,,116780.90000000037,116779.90000000037,109681.786,109688,109698.451,116781.207,,,
Question 2,html.Screen,0_2_0_3,2021-12-10T12:43:59.373Z,,,,,,,,,,,,,,,,,,,,,,,,,,,true,TRUE,,6130.293000000005,,response,,,99,A,,,,,TRUE,click #choice-1,,,,silence,,122912.40000000037,122911.5,116764.544,116781.09999999963,116781.207,122914.213,,,
Item 99,flow.Sequence,0_2_0,2021-12-10T12:43:59.373Z,,,,,,,,,,,,,,,,,,,,,,,,,,,,,,49494.05499999999,,completion,,,,,,,,,,,,,,,,122912.70000000112,122911.5,73400.781,73402.09999999963,73417.445,122914.213,,,
Holding screen,html.Screen,0_2_1_0,2021-12-10T12:44:09.362Z,,,,,,,,,,,,,,,,,,,,,,,,,,,,,,9999.238999999987,,timeout,,,,,,,,,,,,,,,,132897.59999999963,132896.787,122897.546,122912.90000000037,122914.213,132913.452,,,
screen,html.Screen,0_2_1_1_0,2021-12-10T12:44:10.180Z,,,,,,,,,,,,,,,,54,,,,,,,,,,,,,,801.3480000007548,,response,,,100,,,,,,Space,keypress(Space),,,,,At --- ---- --- ------ ----- ------- ---- -- --- ------- --<br>------- ---------- ------ -- ----- -- ----- -- ---- ------<br>--- ----- --- --- ------ -------- ----- --- ------ ----- --<br>----- ----- ---------- --- --- ------ ------ ---- -- ------<br>------- --- ------ ----- --- ---- ------- -- ---- --- --<br>------- ------,133715.5,133714.80000000075,132896.787,132897.90000000037,132913.452,133730.089,,0,At
screen,html.Screen,0_2_1_1_1,2021-12-10T12:44:10.620Z,,,,,,,,,,,,,,,,54,,,,,,,,,,,,,,424.51099999962025,,response,,,100,,,,,,Space,keypress(Space),,,,,-- the ---- --- ------ ----- ------- ---- -- --- ------- --<br>------- ---------- ------ -- ----- -- ----- -- ---- ------<br>--- ----- --- --- ------ -------- ----- --- ------ ----- --<br>----- ----- ---------- --- --- ------ ------ ---- -- ------<br>------- --- ------ ----- --- ---- ------- -- ---- --- --<br>------- ------,134155.09999999963,134154.59999999963,133713.424,133715.70000000112,133730.089,134163.385,,1,the
screen,html.Screen,0_2_1_1_2,2021-12-10T12:44:11.060Z,,,,,,,,,,,,,,,,54,,,,,,,,,,,,,,431.1149999999907,,response,,,100,,,,,,Space,keypress(Space),,,,,-- --- time --- ------ ----- ------- ---- -- --- ------- --<br>------- ---------- ------ -- ----- -- ----- -- ---- ------<br>--- ----- --- --- ------ -------- ----- --- ------ ----- --<br>----- ----- ---------- --- --- ------ ------ ---- -- ------<br>------- --- ------ ----- --- ---- ------- -- ---- --- --<br>------- ------,134595.09999999963,134594.5,134146.72,134155.30000000075,134163.385,134596.69,,2,time
screen,html.Screen,0_2_1_1_3,2021-12-10T12:44:11.436Z,,,,,,,,,,,,,,,,54,,,,,,,,,,,,,,373.8099999999977,,response,,,100,,,,,,Space,keypress(Space),,,,,-- --- ---- the ------ ----- ------- ---- -- --- ------- --<br>------- ---------- ------ -- ----- -- ----- -- ---- ------<br>--- ----- --- --- ------ -------- ----- --- ------ ----- --<br>----- ----- ---------- --- --- ------ ------ ---- -- ------<br>------- --- ------ ----- --- ---- ------- -- ---- --- --<br>------- ------,134971,134970.5,134580.025,134595.20000000112,134596.69,134980.009,,3,the
screen,html.Screen,0_2_1_1_4,2021-12-10T12:44:11.860Z,,,,,,,,,,,,,,,,54,,,,,,,,,,,,,,414.4910000000091,,response,,,100,,,,,,Space,keypress(Space),,,,,-- --- ---- --- French ----- ------- ---- -- --- ------- --<br>------- ---------- ------ -- ----- -- ----- -- ---- ------<br>--- ----- --- --- ------ -------- ----- --- ------ ----- --<br>----- ----- ---------- --- --- ------ ------ ---- -- ------<br>------- --- ------ ----- --- ---- ------- -- ---- --- --<br>------- ------,135395.09999999963,135394.5,134963.344,134971.20000000112,134980.009,135396.584,,4,French
screen,html.Screen,0_2_1_1_5,2021-12-10T12:44:12.228Z,,,,,,,,,,,,,,,,54,,,,,,,,,,,,,,365.91599999999744,,response,,,100,,,,,,Space,keypress(Space),,,,,-- --- ---- --- ------ crown ------- ---- -- --- ------- --<br>------- ---------- ------ -- ----- -- ----- -- ---- ------<br>--- ----- --- --- ------ -------- ----- --- ------ ----- --<br>----- ----- ---------- --- --- ------ ------ ---- -- ------<br>------- --- ------ ----- --- ---- ------- -- ---- --- --<br>------- ------,135763,135762.5,135379.92,135395.30000000075,135396.584,135779.955,,5,crown
screen,html.Screen,0_2_1_1_6,2021-12-10T12:44:12.844Z,,,,,,,,,,,,,,,,54,,,,,,,,,,,,,,598.4450000003853,,response,,,100,,,,,,Space,keypress(Space),,,,,-- --- ---- --- ------ ----- secured ---- -- --- ------- --<br>------- ---------- ------ -- ----- -- ----- -- ---- ------<br>--- ----- --- --- ------ -------- ----- --- ------ ----- --<br>----- ----- ---------- --- --- ------ ------ ---- -- ------<br>------- --- ------ ----- --- ---- ------- -- ---- --- --<br>------- ------,136379.09999999963,136378.40000000037,135763.29,135763.20000000112,135779.955,136396.571,,6,secured
screen,html.Screen,0_2_1_1_7,2021-12-10T12:44:13.268Z,,,,,,,,,,,,,,,,54,,,,,,,,,,,,,,405.82900000037625,,response,,,100,,,,,,Space,keypress(Space),,,,,-- --- ---- --- ------ ----- ------- much -- --- ------- --<br>------- ---------- ------ -- ----- -- ----- -- ---- ------<br>--- ----- --- --- ------ -------- ----- --- ------ ----- --<br>----- ----- ---------- --- --- ------ ------ ---- -- ------<br>------- --- ------ ----- --- ---- ------- -- ---- --- --<br>------- ------,136803,136802.40000000037,136379.906,136379.40000000037,136396.571,136813.123,,7,much
screen,html.Screen,0_2_1_1_8,2021-12-10T12:44:13.724Z,,,,,,,,,,,,,,,,54,,,,,,,,,,,,,,445.2770000003802,,response,,,100,,,,,,Space,keypress(Space),,,,,-- --- ---- --- ------ ----- ------- ---- of --- ------- --<br>------- ---------- ------ -- ----- -- ----- -- ---- ------<br>--- ----- --- --- ------ -------- ----- --- ------ ----- --<br>----- ----- ---------- --- --- ------ ------ ---- -- ------<br>------- --- ------ ----- --- ---- ------- -- ---- --- --<br>------- ------,137259.09999999963,137258.40000000037,136796.459,136803.20000000112,136813.123,137263.161,,8,of
screen,html.Screen,0_2_1_1_9,2021-12-10T12:44:14.124Z,,,,,,,,,,,,,,,,54,,,,,,,,,,,,,,395.23900000037975,,response,,,100,,,,,,Space,keypress(Space),,,,,-- --- ---- --- ------ ----- ------- ---- -- its ------- --<br>------- ---------- ------ -- ----- -- ----- -- ---- ------<br>--- ----- --- --- ------ -------- ----- --- ------ ----- --<br>----- ----- ---------- --- --- ------ ------ ---- -- ------<br>------- --- ------ ----- --- ---- ------- -- ---- --- --<br>------- ------,137659,137658.40000000037,137246.496,137259.20000000112,137263.161,137663.192,,9,its
screen,html.Screen,0_2_1_1_10,2021-12-10T12:44:14.491Z,,,,,,,,,,,,,,,,54,,,,,,,,,,,,,,363.0080000011076,,response,,,100,,,,,,Space,keypress(Space),,,,,-- --- ---- --- ------ ----- ------- ---- -- --- revenue --<br>------- ---------- ------ -- ----- -- ----- -- ---- ------<br>--- ----- --- --- ------ -------- ----- --- ------ ----- --<br>----- ----- ---------- --- --- ------ ------ ---- -- ------<br>------- --- ------ ----- --- ---- ------- -- ---- --- --<br>------- ------,138026.80000000075,138026.20000000112,137646.526,137659.20000000112,137663.192,138029.788,,10,revenue
screen,html.Screen,0_2_1_1_11,2021-12-10T12:44:16.044Z,,,,,,,,,,,,,,,,54,,,,,,,,,,,,,,1548.4120000011171,,response,,,100,,,,,,Space,keypress(Space),,,,,-- --- ---- --- ------ ----- ------- ---- -- --- ------- by<br>------- ---------- ------ -- ----- -- ----- -- ---- ------<br>--- ----- --- --- ------ -------- ----- --- ------ ----- --<br>----- ----- ---------- --- --- ------ ------ ---- -- ------<br>------- --- ------ ----- --- ---- ------- -- ---- --- --<br>------- ------,139578.90000000037,139578.20000000112,138013.123,138026.90000000037,138029.788,139596.309,,11,by
screen,html.Screen,0_2_1_1_12,2021-12-10T12:44:16.675Z,,,,,,,,,,,,,,,,54,,,,,,,,,,,,,,613.8910000011092,,response,,,100,,,,,,Space,keypress(Space),,,,,-- --- ---- --- ------ ----- ------- ---- -- --- ------- --<br>issuing ---------- ------ -- ----- -- ----- -- ---- ------<br>--- ----- --- --- ------ -------- ----- --- ------ ----- --<br>----- ----- ---------- --- --- ------ ------ ---- -- ------<br>------- --- ------ ----- --- ---- ------- -- ---- --- --<br>------- ------,140210.80000000075,140210.20000000112,139579.644,139579.09999999963,139596.309,140212.615,,12,issuing
screen,html.Screen,0_2_1_1_13,2021-12-10T12:44:17.267Z,,,,,,,,,,,,,,,,54,,,,,,,,,,,,,,589.4849999996368,,response,,,100,,,,,,Space,keypress(Space),,,,,-- --- ---- --- ------ ----- ------- ---- -- --- ------- --<br>------- government ------ -- ----- -- ----- -- ---- ------<br>--- ----- --- --- ------ -------- ----- --- ------ ----- --<br>----- ----- ---------- --- --- ------ ------ ---- -- ------<br>------- --- ------ ----- --- ---- ------- -- ---- --- --<br>------- ------,140802.70000000112,140802.09999999963,140195.952,140211,140212.615,140812.93,,13,government
screen,html.Screen,0_2_1_1_14,2021-12-10T12:44:17.907Z,,,,,,,,,,,,,,,,54,,,,,,,,,,,,,,629.1699999996345,,response,,,100,,,,,,Space,keypress(Space),,,,,-- --- ---- --- ------ ----- ------- ---- -- --- ------- --<br>------- ---------- bonds. -- ----- -- ----- -- ---- ------<br>--- ----- --- --- ------ -------- ----- --- ------ ----- --<br>----- ----- ---------- --- --- ------ ------ ---- -- ------<br>------- --- ------ ----- --- ---- ------- -- ---- --- --<br>------- ------,141442.70000000112,141442.09999999963,140796.265,140802.90000000037,140812.93,141446.033,,14,bonds.
screen,html.Screen,0_2_1_1_15,2021-12-10T12:44:18.267Z,,,,,,,,,,,,,,,,54,,,,,,,,,,,,,,355.9670000000042,,response,,,100,,,,,,Space,keypress(Space),,,,,-- --- ---- --- ------ ----- ------- ---- -- --- ------- --<br>------- ---------- ------ In ----- -- ----- -- ---- ------<br>--- ----- --- --- ------ -------- ----- --- ------ ----- --<br>----- ----- ---------- --- --- ------ ------ ---- -- ------<br>------- --- ------ ----- --- ---- ------- -- ---- --- --<br>------- ------,141802.59999999963,141802,141429.37,141442.90000000037,141446.033,141812.948,,15,In
screen,html.Screen,0_2_1_1_16,2021-12-10T12:44:19.867Z,,,,,,,,,,,,,,,,54,,,,,,,,,,,,,,1588.9520000003686,,response,,,100,,,,,,Space,keypress(Space),,,,,"-- --- ---- --- ------ ----- ------- ---- -- --- ------- --<br>------- ---------- ------ -- 1727, -- ----- -- ---- ------<br>--- ----- --- --- ------ -------- ----- --- ------ ----- --<br>----- ----- ---------- --- --- ------ ------ ---- -- ------<br>------- --- ------ ----- --- ---- ------- -- ---- --- --<br>------- ------",143402.59999999963,143401.90000000037,141796.281,141802.80000000075,141812.948,143412.58,,16,"1727,"
screen,html.Screen,0_2_1_1_17,2021-12-10T12:44:20.411Z,,,,,,,,,,,,,,,,54,,,,,,,,,,,,,,533.5199999996403,,response,,,100,,,,,,Space,keypress(Space),,,,,-- --- ---- --- ------ ----- ------- ---- -- --- ------- --<br>------- ---------- ------ -- ----- in ----- -- ---- ------<br>--- ----- --- --- ------ -------- ----- --- ------ ----- --<br>----- ----- ---------- --- --- ------ ------ ---- -- ------<br>------- --- ------ ----- --- ---- ------- -- ---- --- --<br>------- ------,143946.70000000112,143946.09999999963,143395.916,143402.80000000075,143412.58,143962.78,,17,in
screen,html.Screen,0_2_1_1_18,2021-12-10T12:44:20.915Z,,,,,,,,,,,,,,,,54,,,,,,,,,,,,,,487.1200000003737,,response,,,100,,,,,,Space,keypress(Space),,,,,-- --- ---- --- ------ ----- ------- ---- -- --- ------- --<br>------- ---------- ------ -- ----- -- order -- ---- ------<br>--- ----- --- --- ------ -------- ----- --- ------ ----- --<br>----- ----- ---------- --- --- ------ ------ ---- -- ------<br>------- --- ------ ----- --- ---- ------- -- ---- --- --<br>------- ------,144450.40000000037,144449.90000000037,143946.114,143946.80000000075,143962.78,144462.562,,18,order
screen,html.Screen,0_2_1_1_19,2021-12-10T12:44:21.355Z,,,,,,,,,,,,,,,,54,,,,,,,,,,,,,,427.13800000111223,,response,,,100,,,,,,Space,keypress(Space),,,,,-- --- ---- --- ------ ----- ------- ---- -- --- ------- --<br>------- ---------- ------ -- ----- -- ----- to ---- ------<br>--- ----- --- --- ------ -------- ----- --- ------ ----- --<br>----- ----- ---------- --- --- ------ ------ ---- -- ------<br>------- --- ------ ----- --- ---- ------- -- ---- --- --<br>------- ------,144890.5,144889.70000000112,144445.898,144450.59999999963,144462.562,144896.011,,19,to
screen,html.Screen,0_2_1_1_20,2021-12-10T12:44:21.779Z,,,,,,,,,,,,,,,,54,,,,,,,,,,,,,,417.78900000074646,,response,,,100,,,,,,Space,keypress(Space),,,,,-- --- ---- --- ------ ----- ------- ---- -- --- ------- --<br>------- ---------- ------ -- ----- -- ----- -- save ------<br>--- ----- --- --- ------ -------- ----- --- ------ ----- --<br>----- ----- ---------- --- --- ------ ------ ---- -- ------<br>------- --- ------ ----- --- ---- ------- -- ---- --- --<br>------- ------,145314.30000000075,145313.80000000075,144879.345,144890.59999999963,144896.011,145329.288,,20,save
screen,html.Screen,0_2_1_1_21,2021-12-10T12:44:22.155Z,,,,,,,,,,,,,,,,54,,,,,,,,,,,,,,360.4120000011171,,response,,,100,,,,,,Space,keypress(Space),,,,,"-- --- ---- --- ------ ----- ------- ---- -- --- ------- --<br>------- ---------- ------ -- ----- -- ----- -- ---- money,<br>--- ----- --- --- ------ -------- ----- --- ------ ----- --<br>----- ----- ---------- --- --- ------ ------ ---- -- ------<br>------- --- ------ ----- --- ---- ------- -- ---- --- --<br>------- ------",145690.30000000075,145689.70000000112,145312.623,145314.5,145329.288,145695.86,,21,"money,"
screen,html.Screen,0_2_1_1_22,2021-12-10T12:44:22.659Z,,,,,,,,,,,,,,,,54,,,,,,,,,,,,,,497.84000000113156,,response,,,100,,,,,,Space,keypress(Space),,,,,-- --- ---- --- ------ ----- ------- ---- -- --- ------- --<br>------- ---------- ------ -- ----- -- ----- -- ---- ------<br>the ----- --- --- ------ -------- ----- --- ------ ----- --<br>----- ----- ---------- --- --- ------ ------ ---- -- ------<br>------- --- ------ ----- --- ---- ------- -- ---- --- --<br>------- ------,146194.30000000075,146193.70000000112,145679.196,145690.5,145695.86,146195.886,,22,the
screen,html.Screen,0_2_1_1_23,2021-12-10T12:44:23.011Z,,,,,,,,,,,,,,,,54,,,,,,,,,,,,,,349.71399999962887,,response,,,100,,,,,,Space,keypress(Space),,,,,-- --- ---- --- ------ ----- ------- ---- -- --- ------- --<br>------- ---------- ------ -- ----- -- ----- -- ---- ------<br>--- state --- --- ------ -------- ----- --- ------ ----- --<br>----- ----- ---------- --- --- ------ ------ ---- -- ------<br>------- --- ------ ----- --- ---- ------- -- ---- --- --<br>------- ------,146546.30000000075,146545.59999999963,146179.221,146194.5,146195.886,146562.477,,23,state
screen,html.Screen,0_2_1_1_24,2021-12-10T12:44:23.403Z,,,,,,,,,,,,,,,,54,,,,,,,,,,,,,,375.12299999961397,,response,,,100,,,,,,Space,keypress(Space),,,,,-- --- ---- --- ------ ----- ------- ---- -- --- ------- --<br>------- ---------- ------ -- ----- -- ----- -- ---- ------<br>--- ----- cut --- ------ -------- ----- --- ------ ----- --<br>----- ----- ---------- --- --- ------ ------ ---- -- ------<br>------- --- ------ ----- --- ---- ------- -- ---- --- --<br>------- ------,146938.20000000112,146937.59999999963,146545.813,146546.40000000037,146562.477,146945.759,,24,cut
screen,html.Screen,0_2_1_1_25,2021-12-10T12:44:23.811Z,,,,,,,,,,,,,,,,54,,,,,,,,,,,,,,399.84099999963655,,response,,,100,,,,,,Space,keypress(Space),,,,,-- --- ---- --- ------ ----- ------- ---- -- --- ------- --<br>------- ---------- ------ -- ----- -- ----- -- ---- ------<br>--- ----- --- the ------ -------- ----- --- ------ ----- --<br>----- ----- ---------- --- --- ------ ------ ---- -- ------<br>------- --- ------ ----- --- ---- ------- -- ---- --- --<br>------- ------,147346.30000000075,147345.59999999963,146929.095,146938.30000000075,146945.759,147362.495,,25,the
screen,html.Screen,0_2_1_1_26,2021-12-10T12:44:24.171Z,,,,,,,,,,,,,,,,54,,,,,,,,,,,,,,343.1049999996321,,response,,,100,,,,,,Space,keypress(Space),,,,,-- --- ---- --- ------ ----- ------- ---- -- --- ------- --<br>------- ---------- ------ -- ----- -- ----- -- ---- ------<br>--- ----- --- --- bonds' -------- ----- --- ------ ----- --<br>----- ----- ---------- --- --- ------ ------ ---- -- ------<br>------- --- ------ ----- --- ---- ------- -- ---- --- --<br>------- ------,147706.30000000075,147705.59999999963,147345.829,147346.5,147362.495,147712.421,,26,bonds'
screen,html.Screen,0_2_1_1_27,2021-12-10T12:44:24.739Z,,,,,,,,,,,,,,,,54,,,,,,,,,,,,,,561.1789999996254,,response,,,100,,,,,,Space,keypress(Space),,,,,-- --- ---- --- ------ ----- ------- ---- -- --- ------- --<br>------- ---------- ------ -- ----- -- ----- -- ---- ------<br>--- ----- --- --- ------ interest ----- --- ------ ----- --<br>----- ----- ---------- --- --- ------ ------ ---- -- ------<br>------- --- ------ ----- --- ---- ------- -- ---- --- --<br>------- ------,148274.09999999963,148273.59999999963,147695.756,147706.5,147712.421,148279.112,,27,interest
screen,html.Screen,0_2_1_1_28,2021-12-10T12:44:25.363Z,,,,,,,,,,,,,,,,54,,,,,,,,,,,,,,618.3880000000063,,response,,,100,,,,,,Space,keypress(Space),,,,,-- --- ---- --- ------ ----- ------- ---- -- --- ------- --<br>------- ---------- ------ -- ----- -- ----- -- ---- ------<br>--- ----- --- --- ------ -------- rate. --- ------ ----- --<br>----- ----- ---------- --- --- ------ ------ ---- -- ------<br>------- --- ------ ----- --- ---- ------- -- ---- --- --<br>------- ------,148898.30000000075,148897.5,148262.446,148274.30000000075,148279.112,148912.343,,28,rate.
screen,html.Screen,0_2_1_1_29,2021-12-10T12:44:25.787Z,,,,,,,,,,,,,,,,54,,,,,,,,,,,,,,409.1570000000065,,response,,,100,,,,,,Space,keypress(Space),,,,,-- --- ---- --- ------ ----- ------- ---- -- --- ------- --<br>------- ---------- ------ -- ----- -- ----- -- ---- ------<br>--- ----- --- --- ------ -------- ----- The ------ ----- --<br>----- ----- ---------- --- --- ------ ------ ---- -- ------<br>------- --- ------ ----- --- ---- ------- -- ---- --- --<br>------- ------,149322.20000000112,149321.5,148895.678,148898.5,148912.343,149328.987,,29,The
screen,html.Screen,0_2_1_1_30,2021-12-10T12:44:26.179Z,,,,,,,,,,,,,,,,54,,,,,,,,,,,,,,384.5130000000063,,response,,,100,,,,,,Space,keypress(Space),,,,,-- --- ---- --- ------ ----- ------- ---- -- --- ------- --<br>------- ---------- ------ -- ----- -- ----- -- ---- ------<br>--- ----- --- --- ------ -------- ----- --- market ----- --<br>----- ----- ---------- --- --- ------ ------ ---- -- ------<br>------- --- ------ ----- --- ---- ------- -- ---- --- --<br>------- ------,149714.09999999963,149713.5,149312.322,149322.40000000037,149328.987,149728.961,,30,market
screen,html.Screen,0_2_1_1_31,2021-12-10T12:44:26.539Z,,,,,,,,,,,,,,,,54,,,,,,,,,,,,,,344.4390000003623,,response,,,100,,,,,,Space,keypress(Space),,,,,-- --- ---- --- ------ ----- ------- ---- -- --- ------- --<br>------- ---------- ------ -- ----- -- ----- -- ---- ------<br>--- ----- --- --- ------ -------- ----- --- ------ value --<br>----- ----- ---------- --- --- ------ ------ ---- -- ------<br>------- --- ------ ----- --- ---- ------- -- ---- --- --<br>------- ------,150074,150073.40000000037,149712.296,149714.40000000037,149728.961,150078.938,,31,value
screen,html.Screen,0_2_1_1_32,2021-12-10T12:44:26.939Z,,,,,,,,,,,,,,,,54,,,,,,,,,,,,,,394.3620000007504,,response,,,100,,,,,,Space,keypress(Space),,,,,-- --- ---- --- ------ ----- ------- ---- -- --- ------- --<br>------- ---------- ------ -- ----- -- ----- -- ---- ------<br>--- ----- --- --- ------ -------- ----- --- ------ ----- of<br>----- ----- ---------- --- --- ------ ------ ---- -- ------<br>------- --- ------ ----- --- ---- ------- -- ---- --- --<br>------- ------,150474,150473.30000000075,150062.273,150074.30000000075,150078.938,150478.911,,32,of
screen,html.Screen,0_2_1_1_33,2021-12-10T12:44:27.331Z,,,,,,,,,,,,,,,,54,,,,,,,,,,,,,,386.48900000037975,,response,,,100,,,,,,Space,keypress(Space),,,,,-- --- ---- --- ------ ----- ------- ---- -- --- ------- --<br>------- ---------- ------ -- ----- -- ----- -- ---- ------<br>--- ----- --- --- ------ -------- ----- --- ------ ----- --<br>these ----- ---------- --- --- ------ ------ ---- -- ------<br>------- --- ------ ----- --- ---- ------- -- ---- --- --<br>------- ------,150865.90000000037,150865.40000000037,150462.246,150474.30000000075,150478.911,150878.842,,33,these
screen,html.Screen,0_2_1_1_34,2021-12-10T12:44:27.755Z,,,,,,,,,,,,,,,,54,,,,,,,,,,,,,,410.55800000036834,,response,,,100,,,,,,Space,keypress(Space),,,,,-- --- ---- --- ------ ----- ------- ---- -- --- ------- --<br>------- ---------- ------ -- ----- -- ----- -- ---- ------<br>--- ----- --- --- ------ -------- ----- --- ------ ----- --<br>----- bonds ---------- --- --- ------ ------ ---- -- ------<br>------- --- ------ ----- --- ---- ------- -- ---- --- --<br>------- ------,151290,151289.40000000037,150862.178,150866.20000000112,150878.842,151295.523,,34,bonds
screen,html.Screen,0_2_1_1_35,2021-12-10T12:44:28.659Z,,,,,,,,,,,,,,,,54,,,,,,,,,,,,,,897.7770000007586,,response,,,100,,,,,,Space,keypress(Space),,,,,"-- --- ---- --- ------ ----- ------- ---- -- --- ------- --<br>------- ---------- ------ -- ----- -- ----- -- ---- ------<br>--- ----- --- --- ------ -------- ----- --- ------ ----- --<br>----- ----- plummeted, --- --- ------ ------ ---- -- ------<br>------- --- ------ ----- --- ---- ------- -- ---- --- --<br>------- ------",152194,152193.30000000075,151278.858,151290.20000000112,151295.523,152195.437,,35,"plummeted,"
screen,html.Screen,0_2_1_1_36,2021-12-10T12:44:29.299Z,,,,,,,,,,,,,,,,54,,,,,,,,,,,,,,637.7630000011122,,response,,,100,,,,,,Space,keypress(Space),,,,,-- --- ---- --- ------ ----- ------- ---- -- --- ------- --<br>------- ---------- ------ -- ----- -- ----- -- ---- ------<br>--- ----- --- --- ------ -------- ----- --- ------ ----- --<br>----- ----- ---------- and --- ------ ------ ---- -- ------<br>------- --- ------ ----- --- ---- ------- -- ---- --- --<br>------- ------,152834.80000000075,152833.20000000112,152178.772,152194.20000000112,152195.437,152845.323,,36,and
screen,html.Screen,0_2_1_1_37,2021-12-10T12:44:29.722Z,,,,,,,,,,,,,,,,54,,,,,,,,,,,,,,411.87700000111363,,response,,,100,,,,,,Space,keypress(Space),,,,,-- --- ---- --- ------ ----- ------- ---- -- --- ------- --<br>------- ---------- ------ -- ----- -- ----- -- ---- ------<br>--- ----- --- --- ------ -------- ----- --- ------ ----- --<br>----- ----- ---------- --- the ------ ------ ---- -- ------<br>------- --- ------ ----- --- ---- ------- -- ---- --- --<br>------- ------,153257.80000000075,153257.20000000112,152828.659,152834.90000000037,152845.323,153262.057,,37,the
screen,html.Screen,0_2_1_1_38,2021-12-10T12:44:30.155Z,,,,,,,,,,,,,,,,54,,,,,,,,,,,,,,427.5429999996268,,response,,,100,,,,,,Space,keypress(Space),,,,,-- --- ---- --- ------ ----- ------- ---- -- --- ------- --<br>------- ---------- ------ -- ----- -- ----- -- ---- ------<br>--- ----- --- --- ------ -------- ----- --- ------ ----- --<br>----- ----- ---------- --- --- market ------ ---- -- ------<br>------- --- ------ ----- --- ---- ------- -- ---- --- --<br>------- ------,153690.20000000112,153689.59999999963,153245.392,153258,153262.057,153695.361,,38,market
screen,html.Screen,0_2_1_1_39,2021-12-10T12:44:30.571Z,,,,,,,,,,,,,,,,54,,,,,,,,,,,,,,410.0390000003681,,response,,,100,,,,,,Space,keypress(Space),,,,,-- --- ---- --- ------ ----- ------- ---- -- --- ------- --<br>------- ---------- ------ -- ----- -- ----- -- ---- ------<br>--- ----- --- --- ------ -------- ----- --- ------ ----- --<br>----- ----- ---------- --- --- ------ became ---- -- ------<br>------- --- ------ ----- --- ---- ------- -- ---- --- --<br>------- ------,154106,154105.40000000037,153678.696,153690.40000000037,153695.361,154111.986,,39,became
screen,html.Screen,0_2_1_1_40,2021-12-10T12:44:31.002Z,,,,,,,,,,,,,,,,54,,,,,,,,,,,,,,425.21400000111316,,response,,,100,,,,,,Space,keypress(Space),,,,,-- --- ---- --- ------ ----- ------- ---- -- --- ------- --<br>------- ---------- ------ -- ----- -- ----- -- ---- ------<br>--- ----- --- --- ------ -------- ----- --- ------ ----- --<br>----- ----- ---------- --- --- ------ ------ wary -- ------<br>------- --- ------ ----- --- ---- ------- -- ---- --- --<br>------- ------,154537.70000000112,154537.20000000112,154095.321,154106.20000000112,154111.986,154545.232,,40,wary
screen,html.Screen,0_2_1_1_41,2021-12-10T12:44:31.402Z,,,,,,,,,,,,,,,,54,,,,,,,,,,,,,,391.8679999996384,,response,,,100,,,,,,Space,keypress(Space),,,,,-- --- ---- --- ------ ----- ------- ---- -- --- ------- --<br>------- ---------- ------ -- ----- -- ----- -- ---- ------<br>--- ----- --- --- ------ -------- ----- --- ------ ----- --<br>----- ----- ---------- --- --- ------ ------ ---- of ------<br>------- --- ------ ----- --- ---- ------- -- ---- --- --<br>------- ------,154937.70000000112,154937.09999999963,154528.568,154537.90000000037,154545.232,154945.308,,41,of
screen,html.Screen,0_2_1_1_42,2021-12-10T12:44:31.794Z,,,,,,,,,,,,,,,,54,,,,,,,,,,,,,,383.7919999996375,,response,,,100,,,,,,Space,keypress(Space),,,,,-- --- ---- --- ------ ----- ------- ---- -- --- ------- --<br>------- ---------- ------ -- ----- -- ----- -- ---- ------<br>--- ----- --- --- ------ -------- ----- --- ------ ----- --<br>----- ----- ---------- --- --- ------ ------ ---- -- French<br>------- --- ------ ----- --- ---- ------- -- ---- --- --<br>------- ------,155329.59999999963,155329.09999999963,154928.642,154937.80000000075,154945.308,155345.246,,42,French
screen,html.Screen,0_2_1_1_43,2021-12-10T12:44:32.426Z,,,,,,,,,,,,,,,,54,,,,,,,,,,,,,,615.8539999996137,,response,,,100,,,,,,Space,keypress(Space),,,,,-- --- ---- --- ------ ----- ------- ---- -- --- ------- --<br>------- ---------- ------ -- ----- -- ----- -- ---- ------<br>--- ----- --- --- ------ -------- ----- --- ------ ----- --<br>----- ----- ---------- --- --- ------ ------ ---- -- ------<br>credit. --- ------ ----- --- ---- ------- -- ---- --- --<br>------- ------,155961.70000000112,155961.09999999963,155328.581,155329.80000000075,155345.246,155978.441,,43,credit.
screen,html.Screen,0_2_1_1_44,2021-12-10T12:44:32.850Z,,,,,,,,,,,,,,,,54,,,,,,,,,,,,,,406.5590000000084,,response,,,100,,,,,,Space,keypress(Space),,,,,-- --- ---- --- ------ ----- ------- ---- -- --- ------- --<br>------- ---------- ------ -- ----- -- ----- -- ---- ------<br>--- ----- --- --- ------ -------- ----- --- ------ ----- --<br>----- ----- ---------- --- --- ------ ------ ---- -- ------<br>------- The ------ ----- --- ---- ------- -- ---- --- --<br>------- ------,156385.59999999963,156385,155961.777,155961.80000000075,155978.441,156395.219,,44,The
screen,html.Screen,0_2_1_1_45,2021-12-10T12:44:33.242Z,,,,,,,,,,,,,,,,54,,,,,,,,,,,,,,381.68100000036065,,response,,,100,,,,,,Space,keypress(Space),,,,,-- --- ---- --- ------ ----- ------- ---- -- --- ------- --<br>------- ---------- ------ -- ----- -- ----- -- ---- ------<br>--- ----- --- --- ------ -------- ----- --- ------ ----- --<br>----- ----- ---------- --- --- ------ ------ ---- -- ------<br>------- --- French ----- --- ---- ------- -- ---- --- --<br>------- ------,156777.59999999963,156776.90000000037,156378.553,156385.70000000112,156395.219,156778.466,,45,French
screen,html.Screen,0_2_1_1_46,2021-12-10T12:44:33.658Z,,,,,,,,,,,,,,,,54,,,,,,,,,,,,,,414.43400000038673,,response,,,100,,,,,,Space,keypress(Space),,,,,-- --- ---- --- ------ ----- ------- ---- -- --- ------- --<br>------- ---------- ------ -- ----- -- ----- -- ---- ------<br>--- ----- --- --- ------ -------- ----- --- ------ ----- --<br>----- ----- ---------- --- --- ------ ------ ---- -- ------<br>------- --- ------ state --- ---- ------- -- ---- --- --<br>------- ------,157193.5,157192.90000000037,156761.801,156777.70000000112,156778.466,157195.049,,46,state
screen,html.Screen,0_2_1_1_47,2021-12-10T12:44:34.034Z,,,,,,,,,,,,,,,,54,,,,,,,,,,,,,,373.751000000746,,response,,,100,,,,,,Space,keypress(Space),,,,,-- --- ---- --- ------ ----- ------- ---- -- --- ------- --<br>------- ---------- ------ -- ----- -- ----- -- ---- ------<br>--- ----- --- --- ------ -------- ----- --- ------ ----- --<br>----- ----- ---------- --- --- ------ ------ ---- -- ------<br>------- --- ------ ----- was ---- ------- -- ---- --- --<br>------- ------,157569.5,157568.80000000075,157178.385,157193.70000000112,157195.049,157578.421,,47,was
screen,html.Screen,0_2_1_1_48,2021-12-10T12:44:34.466Z,,,,,,,,,,,,,,,,54,,,,,,,,,,,,,,422.47900000037043,,response,,,100,,,,,,Space,keypress(Space),,,,,-- --- ---- --- ------ ----- ------- ---- -- --- ------- --<br>------- ---------- ------ -- ----- -- ----- -- ---- ------<br>--- ----- --- --- ------ -------- ----- --- ------ ----- --<br>----- ----- ---------- --- --- ------ ------ ---- -- ------<br>------- --- ------ ----- --- left ------- -- ---- --- --<br>------- ------,158001.5,158000.90000000037,157561.756,157569.59999999963,157578.421,158011.649,,48,left
screen,html.Screen,0_2_1_1_49,2021-12-10T12:44:34.954Z,,,,,,,,,,,,,,,,54,,,,,,,,,,,,,,477.15100000074017,,response,,,100,,,,,,Space,keypress(Space),,,,,-- --- ---- --- ------ ----- ------- ---- -- --- ------- --<br>------- ---------- ------ -- ----- -- ----- -- ---- ------<br>--- ----- --- --- ------ -------- ----- --- ------ ----- --<br>----- ----- ---------- --- --- ------ ------ ---- -- ------<br>------- --- ------ ----- --- ---- without -- ---- --- --<br>------- ------,158489.5,158488.80000000075,157994.985,158001.70000000112,158011.649,158495.066,,49,without
screen,html.Screen,0_2_1_1_50,2021-12-10T12:44:35.362Z,,,,,,,,,,,,,,,,54,,,,,,,,,,,,,,401.63400000112597,,response,,,100,,,,,,Space,keypress(Space),,,,,-- --- ---- --- ------ ----- ------- ---- -- --- ------- --<br>------- ---------- ------ -- ----- -- ----- -- ---- ------<br>--- ----- --- --- ------ -------- ----- --- ------ ----- --<br>----- ----- ---------- --- --- ------ ------ ---- -- ------<br>------- --- ------ ----- --- ---- ------- an ---- --- --<br>------- ------,158897.40000000037,158896.70000000112,158478.4,158489.80000000075,158495.066,158911.571,,50,an
screen,html.Screen,0_2_1_1_51,2021-12-10T12:44:35.794Z,,,,,,,,,,,,,,,,54,,,,,,,,,,,,,,417.1290000011213,,response,,,100,,,,,,Space,keypress(Space),,,,,-- --- ---- --- ------ ----- ------- ---- -- --- ------- --<br>------- ---------- ------ -- ----- -- ----- -- ---- ------<br>--- ----- --- --- ------ -------- ----- --- ------ ----- --<br>----- ----- ---------- --- --- ------ ------ ---- -- ------<br>------- --- ------ ----- --- ---- ------- -- easy --- --<br>------- ------,159329.40000000037,159328.70000000112,158894.907,158897.59999999963,158911.571,159344.941,,51,easy
screen,html.Screen,0_2_1_1_52,2021-12-10T12:44:36.210Z,,,,,,,,,,,,,,,,54,,,,,,,,,,,,,,399.85900000075344,,response,,,100,,,,,,Space,keypress(Space),,,,,-- --- ---- --- ------ ----- ------- ---- -- --- ------- --<br>------- ---------- ------ -- ----- -- ----- -- ---- ------<br>--- ----- --- --- ------ -------- ----- --- ------ ----- --<br>----- ----- ---------- --- --- ------ ------ ---- -- ------<br>------- --- ------ ----- --- ---- ------- -- ---- way --<br>------- ------,159745.5,159744.80000000075,159328.276,159329.5,159344.941,159761.456,,52,way
screen,html.Screen,0_2_1_1_53,2021-12-10T12:44:36.690Z,,,,,,,,,,,,,,,,54,,,,,,,,,,,,,,463.244000001112,,response,,,100,,,,,,Space,keypress(Space),,,,,-- --- ---- --- ------ ----- ------- ---- -- --- ------- --<br>------- ---------- ------ -- ----- -- ----- -- ---- ------<br>--- ----- --- --- ------ -------- ----- --- ------ ----- --<br>----- ----- ---------- --- --- ------ ------ ---- -- ------<br>------- --- ------ ----- --- ---- ------- -- ---- --- of<br>------- ------,160225.40000000037,160224.70000000112,159744.793,159745.59999999963,159761.456,160228.267,,53,of
screen,html.Screen,0_2_1_1_54,2021-12-10T12:44:37.386Z,,,,,,,,,,,,,,,,54,,,,,,,,,,,,,,692.433000001125,,response,,,100,,,,,,Space,keypress(Space),,,,,-- --- ---- --- ------ ----- ------- ---- -- --- ------- --<br>------- ---------- ------ -- ----- -- ----- -- ---- ------<br>--- ----- --- --- ------ -------- ----- --- ------ ----- --<br>----- ----- ---------- --- --- ------ ------ ---- -- ------<br>------- --- ------ ----- --- ---- ------- -- ---- --- --<br>raising ------,160921.30000000075,160920.70000000112,160211.601,160225.59999999963,160228.267,160928.179,,54,raising
screen,html.Screen,0_2_1_1_55,2021-12-10T12:44:37.986Z,,,,,,,,,,,,,,,,54,,,,,,,,,,,,,,592.3209999999963,,response,,,100,,,,,,Space,keypress(Space),,,,,-- --- ---- --- ------ ----- ------- ---- -- --- ------- --<br>------- ---------- ------ -- ----- -- ----- -- ---- ------<br>--- ----- --- --- ------ -------- ----- --- ------ ----- --<br>----- ----- ---------- --- --- ------ ------ ---- -- ------<br>------- --- ------ ----- --- ---- ------- -- ---- --- --<br>------- money.,161521.20000000112,161520.5,160911.514,160921.5,160928.179,161528.12,,55,money.
Item 100,flow.Loop,0_2_1_1,2021-12-10T12:44:37.986Z,,,,,,,,,,,,,,,,,,,,,,,,,,,,,,28607.04800000001,,completion,,,,A,,,,,,,,,,silence,,161521.5,161520.5,132896.787,132897.90000000037,132913.452,161528.12,,,
Question 1,html.Screen,0_2_1_2,2021-12-10T12:44:42.997Z,,,,,,,,,,,,,,,,,,,,,,,,,,,true,TRUE,,5003.380000000005,,response,,,100,A,,,,,TRUE,click #choice-1,,,,silence,,166532.30000000075,166531.5,161511.455,161521.70000000112,161528.12,166544.422,,,
Question 2,html.Screen,0_2_1_3,2021-12-10T12:44:47.272Z,,,,,,,,,,,,,,,,,,,,,,,,,,,true,FALSE,,4262.478000000381,,response,,,100,A,,,,,FALSE,click #choice-2,,,,silence,,170807.70000000112,170806.90000000037,166527.757,166532.5,166544.422,170810.904,,,
Item 100,flow.Sequence,0_2_1,2021-12-10T12:44:47.272Z,,,,,,,,,,,,,,,,,,,,,,,,,,,,,,47892.68700000037,,completion,,,,,,,,,,,,,,,,170807.90000000037,170806.90000000037,122897.546,122912.90000000037,122914.213,170810.904,,,
End of Practice,html.Page,0_2_2,2021-12-10T12:44:50.462Z,,,,,,,,,,,,,,,,,,,,,,,,,,,,,,3186.3960000007355,,form submission,,,,,,,,,,,,,,,,173997.70000000112,173997.30000000075,170794.235,170808,170810.904,174010.616,,,
Practice,flow.Sequence,0_2,2021-12-10T12:44:50.463Z,,,,,,,,,,,,,,,,,,,,,,,,,,,,,,100579.85500000074,,completion,,,,,,,,,,,,,,,,173998,173997.30000000075,73400.781,73402,73417.445,174010.616,,,
Trap_instruction,html.Page,0_3_0,2021-12-10T12:44:52.256Z,,,,,,,,,,,,,,,,,,,,,,,,,,,,,,1780.5840000011085,,form submission,,,,,,,,,,,,,,,,175791.59999999963,175791.20000000112,173993.951,173998.09999999963,174010.616,175810.476,,,
trap_trial,html.Screen,0_3_1,2021-12-10T12:44:57.354Z,,,,,,,,,,,,,,,,,,,,,,,,,,,true,1,,5078.123999999632,,response,,,,,,,,,1,click #choice-1,,,,,,180889.59999999963,180888.59999999963,175777.146,175791.70000000112,175810.476,180893.271,,,
end of trap trial,html.Page,0_3_2,2021-12-10T12:44:59.149Z,,,,,,,,,,,,,,,,,,,,,,,,,,,,,,1790.3289999996196,,form submission,,,,,,,,,,,,,,,,182684,182683.59999999963,180876.606,180889.80000000075,180893.271,182693.377,,,
Trap 1,flow.Sequence,0_3,2021-12-10T12:44:59.149Z,,,,,,,,,,,,,,,,,,,,,,,,,,,,,,8672.983999999618,,completion,,,,,,,,,,,,,,,,182684.30000000075,182683.59999999963,173993.951,173998.09999999963,174010.616,182693.377,,,
Standby,html.Page,0_4_0,2021-12-10T12:45:07.147Z,,,,,,,,,,,,,,,,,,,,,,,,,,,,,,8000.63499999998,,timeout,,,,,,,,,,,,,,,,190678.40000000037,190677.344,182676.709,182684.5,182693.377,190694.012,,,
Holding screen,html.Screen,0_4_1_0_0,2021-12-10T12:45:14.145Z,,,,,,,,,,,,,,,,,,,,,,,,,,,,,,6998.093000000023,,timeout,,,,,,,,,,,,,,,,197676.09999999963,197675.441,190677.344,190678.70000000112,190694.012,197692.105,,,
screen,html.Screen,0_4_1_0_1_0,2021-12-10T12:45:14.852Z,,,,,,,,,,,,,,,,11,,,,,,,,,,,,,,690.1950000007346,,response,,,4,A,,,,,Space,keypress(Space),,,,silence,Known -- ---- --- -- --- -------- ------------ ---------- --<br>- ------- ------ --------- -- ------------ -- --- ---- -----<br>------ ---- ---- ------ ------ ------- --- ----- ---------<br>---- --- -------- -------- --- --- -- ------- --- --- -----<br>-- --- ------ ------- --- --- -------- ---- --------- --<br>---------- -- -------- ----------------,198383,198382.30000000075,197675.441,197676.5,197692.105,198392.219,,0,Known
screen,html.Screen,0_4_1_0_1_1,2021-12-10T12:45:15.523Z,,,,,,,,,,,,,,,,11,,,,,,,,,,,,,,661.6810000003607,,response,,,4,A,,,,,Space,keypress(Space),,,,silence,----- as ---- --- -- --- -------- ------------ ---------- --<br>- ------- ------ --------- -- ------------ -- --- ---- -----<br>------ ---- ---- ------ ------ ------- --- ----- ---------<br>---- --- -------- -------- --- --- -- ------- --- --- -----<br>-- --- ------ ------- --- --- -------- ---- --------- --<br>---------- -- -------- ----------------,199054.59999999963,199053.90000000037,198375.554,198383.30000000075,198392.219,199058.731,,1,as
screen,html.Screen,0_4_1_0_1_2,2021-12-10T12:45:16.531Z,,,,,,,,,,,,,,,,11,,,,,,,,,,,,,,1003.1690000003728,,response,,,4,A,,,,,Space,keypress(Space),,,,silence,----- -- Rapa --- -- --- -------- ------------ ---------- --<br>- ------- ------ --------- -- ------------ -- --- ---- -----<br>------ ---- ---- ------ ------ ------- --- ----- ---------<br>---- --- -------- -------- --- --- -- ------- --- --- -----<br>-- --- ------ ------- --- --- -------- ---- --------- --<br>---------- -- -------- ----------------,200062.5,200061.90000000037,199042.067,199054.70000000112,199058.731,200075.494,,2,Rapa
screen,html.Screen,0_4_1_0_1_3,2021-12-10T12:45:17.267Z,,,,,,,,,,,,,,,,11,,,,,,,,,,,,,,722.4060000003665,,response,,,4,A,,,,,Space,keypress(Space),,,,silence,----- -- ---- Nui -- --- -------- ------------ ---------- --<br>- ------- ------ --------- -- ------------ -- --- ---- -----<br>------ ---- ---- ------ ------ ------- --- ----- ---------<br>---- --- -------- -------- --- --- -- ------- --- --- -----<br>-- --- ------ ------- --- --- -------- ---- --------- --<br>---------- -- -------- ----------------,200798.40000000037,200797.90000000037,200058.828,200062.70000000112,200075.494,200808.604,,3,Nui
screen,html.Screen,0_4_1_0_1_4,2021-12-10T12:45:17.875Z,,,,,,,,,,,,,,,,11,,,,,,,,,,,,,,597.2960000003804,,response,,,4,A,,,,,Space,keypress(Space),,,,silence,----- -- ---- --- to --- -------- ------------ ---------- --<br>- ------- ------ --------- -- ------------ -- --- ---- -----<br>------ ---- ---- ------ ------ ------- --- ----- ---------<br>---- --- -------- -------- --- --- -- ------- --- --- -----<br>-- --- ------ ------- --- --- -------- ---- --------- --<br>---------- -- -------- ----------------,201406.40000000037,201405.90000000037,200791.94,200798.59999999963,200808.604,201408.631,,4,to
screen,html.Screen,0_4_1_0_1_5,2021-12-10T12:45:18.427Z,,,,,,,,,,,,,,,,11,,,,,,,,,,,,,,549.1690000007511,,response,,,4,A,,,,,Space,keypress(Space),,,,silence,----- -- ---- --- -- the -------- ------------ ---------- --<br>- ------- ------ --------- -- ------------ -- --- ---- -----<br>------ ---- ---- ------ ------ ------- --- ----- ---------<br>---- --- -------- -------- --- --- -- ------- --- --- -----<br>-- --- ------ ------- --- --- -------- ---- --------- --<br>---------- -- -------- ----------------,201958.40000000037,201957.80000000075,201391.966,201406.59999999963,201408.631,201975.288,,5,the
screen,html.Screen,0_4_1_0_1_6,2021-12-10T12:45:19.283Z,,,,,,,,,,,,,,,,11,,,,,,,,,,,,,,838.4120000011171,,response,,,4,A,,,,,Space,keypress(Space),,,,silence,----- -- ---- --- -- --- island's ------------ ---------- --<br>- ------- ------ --------- -- ------------ -- --- ---- -----<br>------ ---- ---- ------ ------ ------- --- ----- ---------<br>---- --- -------- -------- --- --- -- ------- --- --- -----<br>-- --- ------ ------- --- --- -------- ---- --------- --<br>---------- -- -------- ----------------,202814.30000000075,202813.70000000112,201958.623,201958.59999999963,201975.288,202825.241,,6,island's
screen,html.Screen,0_4_1_0_1_7,2021-12-10T12:45:20.155Z,,,,,,,,,,,,,,,,11,,,,,,,,,,,,,,860.4590000011085,,response,,,4,A,,,,,Space,keypress(Space),,,,silence,"----- -- ---- --- -- --- -------- inhabitants, ---------- --<br>- ------- ------ --------- -- ------------ -- --- ---- -----<br>------ ---- ---- ------ ------ ------- --- ----- ---------<br>---- --- -------- -------- --- --- -- ------- --- --- -----<br>-- --- ------ ------- --- --- -------- ---- --------- --<br>---------- -- -------- ----------------",203686.5,203685.70000000112,202808.576,202814.5,202825.241,203691.821,,7,"inhabitants,"
screen,html.Screen,0_4_1_0_1_8,2021-12-10T12:45:21.451Z,,,,,,,,,,,,,,,,11,,,,,,,,,,,,,,1289.7789999996312,,response,,,4,A,,,,,Space,keypress(Space),,,,silence,----- -- ---- --- -- --- -------- ------------ Rongorongo --<br>- ------- ------ --------- -- ------------ -- --- ---- -----<br>------ ---- ---- ------ ------ ------- --- ----- ---------<br>---- --- -------- -------- --- --- -- ------- --- --- -----<br>-- --- ------ ------- --- --- -------- ---- --------- --<br>---------- -- -------- ----------------,204982.20000000112,204981.59999999963,203675.156,203686.70000000112,203691.821,204991.608,,8,Rongorongo
screen,html.Screen,0_4_1_0_1_9,2021-12-10T12:45:22.043Z,,,,,,,,,,,,,,,,11,,,,,,,,,,,,,,581.8919999999925,,response,,,4,A,,,,,Space,keypress(Space),,,,silence,----- -- ---- --- -- --- -------- ------------ ---------- is<br>- ------- ------ --------- -- ------------ -- --- ---- -----<br>------ ---- ---- ------ ------ ------- --- ----- ---------<br>---- --- -------- -------- --- --- -- ------- --- --- -----<br>-- --- ------ ------- --- --- -------- ---- --------- --<br>---------- -- -------- ----------------,205574.09999999963,205573.5,204974.944,204982.30000000075,204991.608,205574.998,,9,is
screen,html.Screen,0_4_1_0_1_10,2021-12-10T12:45:22.595Z,,,,,,,,,,,,,,,,11,,,,,,,,,,,,,,550.4020000003802,,response,,,4,A,,,,,Space,keypress(Space),,,,silence,----- -- ---- --- -- --- -------- ------------ ---------- --<br>a ------- ------ --------- -- ------------ -- --- ---- -----<br>------ ---- ---- ------ ------ ------- --- ----- ---------<br>---- --- -------- -------- --- --- -- ------- --- --- -----<br>-- --- ------ ------- --- --- -------- ---- --------- --<br>---------- -- -------- ----------------,206126.09999999963,206125.40000000037,205558.333,205574.40000000037,205574.998,206141.634,,10,a
screen,html.Screen,0_4_1_0_1_11,2021-12-10T12:45:23.291Z,,,,,,,,,,,,,,,,11,,,,,,,,,,,,,,679.7660000003816,,response,,,4,A,,,,,Space,keypress(Space),,,,silence,----- -- ---- --- -- --- -------- ------------ ---------- --<br>- writing ------ --------- -- ------------ -- --- ---- -----<br>------ ---- ---- ------ ------ ------- --- ----- ---------<br>---- --- -------- -------- --- --- -- ------- --- --- -----<br>-- --- ------ ------- --- --- -------- ---- --------- --<br>---------- -- -------- ----------------,206822.09999999963,206821.40000000037,206124.969,206126.30000000075,206141.634,206824.916,,11,writing
screen,html.Screen,0_4_1_0_1_12,2021-12-10T12:45:24.019Z,,,,,,,,,,,,,,,,11,,,,,,,,,,,,,,724.4840000003751,,response,,,4,A,,,,,Space,keypress(Space),,,,silence,----- -- ---- --- -- --- -------- ------------ ---------- --<br>- ------- system --------- -- ------------ -- --- ---- -----<br>------ ---- ---- ------ ------ ------- --- ----- ---------<br>---- --- -------- -------- --- --- -- ------- --- --- -----<br>-- --- ------ ------- --- --- -------- ---- --------- --<br>---------- -- -------- ----------------,207550.09999999963,207549.40000000037,206808.251,206822.30000000075,206824.916,207558.194,,12,system
screen,html.Screen,0_4_1_0_1_13,2021-12-10T12:45:25.019Z,,,,,,,,,,,,,,,,11,,,,,,,,,,,,,,991.4059999996389,,response,,,4,A,,,,,Space,keypress(Space),,,,silence,----- -- ---- --- -- --- -------- ------------ ---------- --<br>- ------- ------ comprised -- ------------ -- --- ---- -----<br>------ ---- ---- ------ ------ ------- --- ----- ---------<br>---- --- -------- -------- --- --- -- ------- --- --- -----<br>-- --- ------ ------- --- --- -------- ---- --------- --<br>---------- -- -------- ----------------,208550.20000000112,208549.59999999963,207541.529,207550.20000000112,207558.194,208558.156,,13,comprised
screen,html.Screen,0_4_1_0_1_14,2021-12-10T12:45:26.003Z,,,,,,,,,,,,,,,,11,,,,,,,,,,,,,,975.1440000007569,,response,,,4,A,,,,,Space,keypress(Space),,,,silence,----- -- ---- --- -- --- -------- ------------ ---------- --<br>- ------- ------ --------- of ------------ -- --- ---- -----<br>------ ---- ---- ------ ------ ------- --- ----- ---------<br>---- --- -------- -------- --- --- -- ------- --- --- -----<br>-- --- ------ ------- --- --- -------- ---- --------- --<br>---------- -- -------- ----------------,209533.90000000037,209533.30000000075,208541.491,208550.40000000037,208558.156,209541.392,,14,of
screen,html.Screen,0_4_1_0_1_15,2021-12-10T12:45:27.291Z,,,,,,,,,,,,,,,,11,,,,,,,,,,,,,,1279.707999999635,,response,,,4,A,,,,,Space,keypress(Space),,,,silence,----- -- ---- --- -- --- -------- ------------ ---------- --<br>- ------- ------ --------- -- pictographs. -- --- ---- -----<br>------ ---- ---- ------ ------ ------- --- ----- ---------<br>---- --- -------- -------- --- --- -- ------- --- --- -----<br>-- --- ------ ------- --- --- -------- ---- --------- --<br>---------- -- -------- ----------------,210821.80000000075,210821.09999999963,209524.727,209534,209541.392,210824.517,,15,pictographs.
screen,html.Screen,0_4_1_0_1_16,2021-12-10T12:45:28.074Z,,,,,,,,,,,,,,,,11,,,,,,,,,,,,,,780.5829999996349,,response,,,4,A,,,,,Space,keypress(Space),,,,silence,----- -- ---- --- -- --- -------- ------------ ---------- --<br>- ------- ------ --------- -- ------------ It --- ---- -----<br>------ ---- ---- ------ ------ ------- --- ----- ---------<br>---- --- -------- -------- --- --- -- ------- --- --- -----<br>-- --- ------ ------- --- --- -------- ---- --------- --<br>---------- -- -------- ----------------,211605.80000000075,211605.09999999963,210807.853,210822,210824.517,211607.898,,16,It
screen,html.Screen,0_4_1_0_1_17,2021-12-10T12:45:28.634Z,,,,,,,,,,,,,,,,11,,,,,,,,,,,,,,557.201999999641,,response,,,4,A,,,,,Space,keypress(Space),,,,silence,----- -- ---- --- -- --- -------- ------------ ---------- --<br>- ------- ------ --------- -- ------------ -- has ---- -----<br>------ ---- ---- ------ ------ ------- --- ----- ---------<br>---- --- -------- -------- --- --- -- ------- --- --- -----<br>-- --- ------ ------- --- --- -------- ---- --------- --<br>---------- -- -------- ----------------,212165.59999999963,212165.09999999963,211591.233,211605.90000000037,211607.898,212174.571,,17,has
screen,html.Screen,0_4_1_0_1_18,2021-12-10T12:45:29.058Z,,,,,,,,,,,,,,,,11,,,,,,,,,,,,,,414.4290000000037,,response,,,4,A,,,,,Space,keypress(Space),,,,silence,----- -- ---- --- -- --- -------- ------------ ---------- --<br>- ------- ------ --------- -- ------------ -- --- been -----<br>------ ---- ---- ------ ------ ------- --- ----- ---------<br>---- --- -------- -------- --- --- -- ------- --- --- -----<br>-- --- ------ ------- --- --- -------- ---- --------- --<br>---------- -- -------- ----------------,212589.59999999963,212589,212157.906,212165.90000000037,212174.571,212591.201,,18,been
screen,html.Screen,0_4_1_0_1_19,2021-12-10T12:45:29.466Z,,,,,,,,,,,,,,,,11,,,,,,,,,,,,,,405.79899999999907,,response,,,4,A,,,,,Space,keypress(Space),,,,silence,----- -- ---- --- -- --- -------- ------------ ---------- --<br>- ------- ------ --------- -- ------------ -- --- ---- found<br>------ ---- ---- ------ ------ ------- --- ----- ---------<br>---- --- -------- -------- --- --- -- ------- --- --- -----<br>-- --- ------ ------- --- --- -------- ---- --------- --<br>---------- -- -------- ----------------,212997.59999999963,212997,212574.536,212589.80000000075,212591.201,213007.793,,19,found
screen,html.Screen,0_4_1_0_1_20,2021-12-10T12:45:30.194Z,,,,,,,,,,,,,,,,11,,,,,,,,,,,,,,717.2069999999949,,response,,,4,A,,,,,Space,keypress(Space),,,,silence,----- -- ---- --- -- --- -------- ------------ ---------- --<br>- ------- ------ --------- -- ------------ -- --- ---- -----<br>carved ---- ---- ------ ------ ------- --- ----- ---------<br>---- --- -------- -------- --- --- -- ------- --- --- -----<br>-- --- ------ ------- --- --- -------- ---- --------- --<br>---------- -- -------- ----------------,213725.5,213725,212991.129,212997.70000000112,213007.793,213741.127,,20,carved
screen,html.Screen,0_4_1_0_1_21,2021-12-10T12:45:31.010Z,,,,,,,,,,,,,,,,11,,,,,,,,,,,,,,799.8729999999923,,response,,,4,A,,,,,Space,keypress(Space),,,,silence,----- -- ---- --- -- --- -------- ------------ ---------- --<br>- ------- ------ --------- -- ------------ -- --- ---- -----<br>------ into ---- ------ ------ ------- --- ----- ---------<br>---- --- -------- -------- --- --- -- ------- --- --- -----<br>-- --- ------ ------- --- --- -------- ---- --------- --<br>---------- -- -------- ----------------,214541.59999999963,214541,213724.462,213725.70000000112,213741.127,214557.715,,21,into
screen,html.Screen,0_4_1_0_1_22,2021-12-10T12:45:31.474Z,,,,,,,,,,,,,,,,11,,,,,,,,,,,,,,447.185000000376,,response,,,4,A,,,,,Space,keypress(Space),,,,silence,----- -- ---- --- -- --- -------- ------------ ---------- --<br>- ------- ------ --------- -- ------------ -- --- ---- -----<br>------ ---- many ------ ------ ------- --- ----- ---------<br>---- --- -------- -------- --- --- -- ------- --- --- -----<br>-- --- ------ ------- --- --- -------- ---- --------- --<br>---------- -- -------- ----------------,215005.5,215004.90000000037,214541.05,214541.80000000075,214557.715,215007.712,,22,many
screen,html.Screen,0_4_1_0_1_23,2021-12-10T12:45:32.330Z,,,,,,,,,,,,,,,,11,,,,,,,,,,,,,,853.0880000007455,,response,,,4,A,,,,,Space,keypress(Space),,,,silence,----- -- ---- --- -- --- -------- ------------ ---------- --<br>- ------- ------ --------- -- ------------ -- --- ---- -----<br>------ ---- ---- oblong ------ ------- --- ----- ---------<br>---- --- -------- -------- --- --- -- ------- --- --- -----<br>-- --- ------ ------- --- --- -------- ---- --------- --<br>---------- -- -------- ----------------,215861.5,215860.80000000075,214991.047,215005.59999999963,215007.712,215874.291,,23,oblong
screen,html.Screen,0_4_1_0_1_24,2021-12-10T12:45:32.890Z,,,,,,,,,,,,,,,,11,,,,,,,,,,,,,,546.4090000011201,,response,,,4,A,,,,,Space,keypress(Space),,,,silence,----- -- ---- --- -- --- -------- ------------ ---------- --<br>- ------- ------ --------- -- ------------ -- --- ---- -----<br>------ ---- ---- ------ wooden ------- --- ----- ---------<br>---- --- -------- -------- --- --- -- ------- --- --- -----<br>-- --- ------ ------- --- --- -------- ---- --------- --<br>---------- -- -------- ----------------,216421.40000000037,216420.70000000112,215857.626,215861.70000000112,215874.291,216424.275,,24,wooden
screen,html.Screen,0_4_1_0_1_25,2021-12-10T12:45:33.434Z,,,,,,,,,,,,,,,,11,,,,,,,,,,,,,,540.4250000011234,,response,,,4,A,,,,,Space,keypress(Space),,,,silence,----- -- ---- --- -- --- -------- ------------ ---------- --<br>- ------- ------ --------- -- ------------ -- --- ---- -----<br>------ ---- ---- ------ ------ tablets --- ----- ---------<br>---- --- -------- -------- --- --- -- ------- --- --- -----<br>-- --- ------ ------- --- --- -------- ---- --------- --<br>---------- -- -------- ----------------,216965.30000000075,216964.70000000112,216407.61,216421.59999999963,216424.275,216974.108,,25,tablets
screen,html.Screen,0_4_1_0_1_26,2021-12-10T12:45:33.874Z,,,,,,,,,,,,,,,,11,,,,,,,,,,,,,,430.49199999962,,response,,,4,A,,,,,Space,keypress(Space),,,,silence,----- -- ---- --- -- --- -------- ------------ ---------- --<br>- ------- ------ --------- -- ------------ -- --- ---- -----<br>------ ---- ---- ------ ------ ------- and ----- ---------<br>---- --- -------- -------- --- --- -- ------- --- --- -----<br>-- --- ------ ------- --- --- -------- ---- --------- --<br>---------- -- -------- ----------------,217405.30000000075,217404.59999999963,216957.444,216965.5,216974.108,217407.564,,26,and
screen,html.Screen,0_4_1_0_1_27,2021-12-10T12:45:34.322Z,,,,,,,,,,,,,,,,11,,,,,,,,,,,,,,445.13600000110455,,response,,,4,A,,,,,Space,keypress(Space),,,,silence,----- -- ---- --- -- --- -------- ------------ ---------- --<br>- ------- ------ --------- -- ------------ -- --- ---- -----<br>------ ---- ---- ------ ------ ------- --- other ---------<br>---- --- -------- -------- --- --- -- ------- --- --- -----<br>-- --- ------ ------- --- --- -------- ---- --------- --<br>---------- -- -------- ----------------,217853.30000000075,217852.70000000112,217390.898,217405.40000000037,217407.564,217857.569,,27,other
screen,html.Screen,0_4_1_0_1_28,2021-12-10T12:45:34.898Z,,,,,,,,,,,,,,,,11,,,,,,,,,,,,,,571.131000001129,,response,,,4,A,,,,,Space,keypress(Space),,,,silence,----- -- ---- --- -- --- -------- ------------ ---------- --<br>- ------- ------ --------- -- ------------ -- --- ---- -----<br>------ ---- ---- ------ ------ ------- --- ----- artifacts<br>---- --- -------- -------- --- --- -- ------- --- --- -----<br>-- --- ------ ------- --- --- -------- ---- --------- --<br>---------- -- -------- ----------------,218429.30000000075,218428.70000000112,217840.903,217853.40000000037,217857.569,218440.746,,28,artifacts
screen,html.Screen,0_4_1_0_1_29,2021-12-10T12:45:35.826Z,,,,,,,,,,,,,,,,11,,,,,,,,,,,,,,916.0540000007313,,response,,,4,A,,,,,Space,keypress(Space),,,,silence,----- -- ---- --- -- --- -------- ------------ ---------- --<br>- ------- ------ --------- -- ------------ -- --- ---- -----<br>------ ---- ---- ------ ------ ------- --- ----- ---------<br>from --- -------- -------- --- --- -- ------- --- --- -----<br>-- --- ------ ------- --- --- -------- ---- --------- --<br>---------- -- -------- ----------------,219357.40000000037,219356.80000000075,218424.082,218429.5,218440.746,219374.043,,29,from
screen,html.Screen,0_4_1_0_1_30,2021-12-10T12:45:36.290Z,,,,,,,,,,,,,,,,11,,,,,,,,,,,,,,446.4569999999949,,response,,,4,A,,,,,Space,keypress(Space),,,,silence,----- -- ---- --- -- --- -------- ------------ ---------- --<br>- ------- ------ --------- -- ------------ -- --- ---- -----<br>------ ---- ---- ------ ------ ------- --- ----- ---------<br>---- the -------- -------- --- --- -- ------- --- --- -----<br>-- --- ------ ------- --- --- -------- ---- --------- --<br>---------- -- -------- ----------------,219821.20000000112,219820.5,219357.378,219357.59999999963,219374.043,219824.04,,30,the
screen,html.Screen,0_4_1_0_1_31,2021-12-10T12:45:36.882Z,,,,,,,,,,,,,,,,11,,,,,,,,,,,,,,588.4599999999919,,response,,,4,A,,,,,Space,keypress(Space),,,,silence,----- -- ---- --- -- --- -------- ------------ ---------- --<br>- ------- ------ --------- -- ------------ -- --- ---- -----<br>------ ---- ---- ------ ------ ------- --- ----- ---------<br>---- --- island's -------- --- --- -- ------- --- --- -----<br>-- --- ------ ------- --- --- -------- ---- --------- --<br>---------- -- -------- ----------------,220413.09999999963,220412.5,219807.375,219821.40000000037,219824.04,220423.899,,31,island's
screen,html.Screen,0_4_1_0_1_32,2021-12-10T12:45:37.522Z,,,,,,,,,,,,,,,,11,,,,,,,,,,,,,,628.5010000003676,,response,,,4,A,,,,,Space,keypress(Space),,,,silence,----- -- ---- --- -- --- -------- ------------ ---------- --<br>- ------- ------ --------- -- ------------ -- --- ---- -----<br>------ ---- ---- ------ ------ ------- --- ----- ---------<br>---- --- -------- history. --- --- -- ------- --- --- -----<br>-- --- ------ ------- --- --- -------- ---- --------- --<br>---------- -- -------- ----------------,221053.59999999963,221052.40000000037,220407.235,220413.20000000112,220423.899,221057.312,,32,history.
screen,html.Screen,0_4_1_0_1_33,2021-12-10T12:45:38.042Z,,,,,,,,,,,,,,,,11,,,,,,,,,,,,,,515.0880000003672,,response,,,4,A,,,,,Space,keypress(Space),,,,silence,----- -- ---- --- -- --- -------- ------------ ---------- --<br>- ------- ------ --------- -- ------------ -- --- ---- -----<br>------ ---- ---- ------ ------ ------- --- ----- ---------<br>---- --- -------- -------- The --- -- ------- --- --- -----<br>-- --- ------ ------- --- --- -------- ---- --------- --<br>---------- -- -------- ----------------,221573,221572.40000000037,221040.646,221053.80000000075,221057.312,221573.914,,33,The
screen,html.Screen,0_4_1_0_1_34,2021-12-10T12:45:38.490Z,,,,,,,,,,,,,,,,11,,,,,,,,,,,,,,446.3860000007553,,response,,,4,A,,,,,Space,keypress(Space),,,,silence,----- -- ---- --- -- --- -------- ------------ ---------- --<br>- ------- ------ --------- -- ------------ -- --- ---- -----<br>------ ---- ---- ------ ------ ------- --- ----- ---------<br>---- --- -------- -------- --- art -- ------- --- --- -----<br>-- --- ------ ------- --- --- -------- ---- --------- --<br>---------- -- -------- ----------------,222021,222020.30000000075,221557.249,221573.09999999963,221573.914,222023.778,,34,art
screen,html.Screen,0_4_1_0_1_35,2021-12-10T12:45:38.970Z,,,,,,,,,,,,,,,,11,,,,,,,,,,,,,,476.5220000007539,,response,,,4,A,,,,,Space,keypress(Space),,,,silence,----- -- ---- --- -- --- -------- ------------ ---------- --<br>- ------- ------ --------- -- ------------ -- --- ---- -----<br>------ ---- ---- ------ ------ ------- --- ----- ---------<br>---- --- -------- -------- --- --- of ------- --- --- -----<br>-- --- ------ ------- --- --- -------- ---- --------- --<br>---------- -- -------- ----------------,222500.90000000037,222500.30000000075,222007.114,222021.09999999963,222023.778,222507.23,,35,of
screen,html.Screen,0_4_1_0_1_36,2021-12-10T12:45:39.498Z,,,,,,,,,,,,,,,,11,,,,,,,,,,,,,,521.0700000007346,,response,,,4,A,,,,,Space,keypress(Space),,,,silence,----- -- ---- --- -- --- -------- ------------ ---------- --<br>- ------- ------ --------- -- ------------ -- --- ---- -----<br>------ ---- ---- ------ ------ ------- --- ----- ---------<br>---- --- -------- -------- --- --- -- writing --- --- -----<br>-- --- ------ ------- --- --- -------- ---- --------- --<br>---------- -- -------- ----------------,223028.80000000075,223028.30000000075,222490.564,222501,222507.23,223040.46,,36,writing
screen,html.Screen,0_4_1_0_1_37,2021-12-10T12:45:40.026Z,,,,,,,,,,,,,,,,11,,,,,,,,,,,,,,515.8400000007532,,response,,,4,A,,,,,Space,keypress(Space),,,,silence,----- -- ---- --- -- --- -------- ------------ ---------- --<br>- ------- ------ --------- -- ------------ -- --- ---- -----<br>------ ---- ---- ------ ------ ------- --- ----- ---------<br>---- --- -------- -------- --- --- -- ------- was --- -----<br>-- --- ------ ------- --- --- -------- ---- --------- --<br>---------- -- -------- ----------------,223556.90000000037,223556.30000000075,223023.795,223029,223040.46,223573.703,,37,was
screen,html.Screen,0_4_1_0_1_38,2021-12-10T12:45:40.554Z,,,,,,,,,,,,,,,,11,,,,,,,,,,,,,,510.497000001109,,response,,,4,A,,,,,Space,keypress(Space),,,,silence,----- -- ---- --- -- --- -------- ------------ ---------- --<br>- ------- ------ --------- -- ------------ -- --- ---- -----<br>------ ---- ---- ------ ------ ------- --- ----- ---------<br>---- --- -------- -------- --- --- -- ------- --- not -----<br>-- --- ------ ------- --- --- -------- ---- --------- --<br>---------- -- -------- ----------------,224084.80000000075,224084.20000000112,223557.039,223557,223573.703,224090.388,,38,not
screen,html.Screen,0_4_1_0_1_39,2021-12-10T12:45:41.138Z,,,,,,,,,,,,,,,,11,,,,,,,,,,,,,,577.8120000011113,,response,,,4,A,,,,,Space,keypress(Space),,,,silence,----- -- ---- --- -- --- -------- ------------ ---------- --<br>- ------- ------ --------- -- ------------ -- --- ---- -----<br>------ ---- ---- ------ ------ ------- --- ----- ---------<br>---- --- -------- -------- --- --- -- ------- --- --- known<br>-- --- ------ ------- --- --- -------- ---- --------- --<br>---------- -- -------- ----------------,224668.90000000037,224668.20000000112,224073.723,224085,224090.388,224673.665,,39,known
screen,html.Screen,0_4_1_0_1_40,2021-12-10T12:45:41.857Z,,,,,,,,,,,,,,,,11,,,,,,,,,,,,,,714.5350000011094,,response,,,4,A,,,,,Space,keypress(Space),,,,silence,----- -- ---- --- -- --- -------- ------------ ---------- --<br>- ------- ------ --------- -- ------------ -- --- ---- -----<br>------ ---- ---- ------ ------ ------- --- ----- ---------<br>---- --- -------- -------- --- --- -- ------- --- --- -----<br>in --- ------ ------- --- --- -------- ---- --------- --<br>---------- -- -------- ----------------,225388.80000000075,225388.20000000112,224657,224669,224673.665,225390.275,,40,in
screen,html.Screen,0_4_1_0_1_41,2021-12-10T12:45:42.361Z,,,,,,,,,,,,,,,,11,,,,,,,,,,,,,,501.8249999996333,,response,,,4,A,,,,,Space,keypress(Space),,,,silence,----- -- ---- --- -- --- -------- ------------ ---------- --<br>- ------- ------ --------- -- ------------ -- --- ---- -----<br>------ ---- ---- ------ ------ ------- --- ----- ---------<br>---- --- -------- -------- --- --- -- ------- --- --- -----<br>-- any ------ ------- --- --- -------- ---- --------- --<br>---------- -- -------- ----------------,225892.80000000075,225892.09999999963,225373.61,225389,225390.275,225906.953,,41,any
screen,html.Screen,0_4_1_0_1_42,2021-12-10T12:45:42.801Z,,,,,,,,,,,,,,,,11,,,,,,,,,,,,,,425.0469999999914,,response,,,4,A,,,,,Space,keypress(Space),,,,silence,----- -- ---- --- -- --- -------- ------------ ---------- --<br>- ------- ------ --------- -- ------------ -- --- ---- -----<br>------ ---- ---- ------ ------ ------- --- ----- ---------<br>---- --- -------- -------- --- --- -- ------- --- --- -----<br>-- --- nearby ------- --- --- -------- ---- --------- --<br>---------- -- -------- ----------------,226332.59999999963,226332,225890.288,225893,225906.953,226340.131,,42,nearby
screen,html.Screen,0_4_1_0_1_43,2021-12-10T12:45:43.337Z,,,,,,,,,,,,,,,,11,,,,,,,,,,,,,,527.869000000006,,response,,,4,A,,,,,Space,keypress(Space),,,,silence,----- -- ---- --- -- --- -------- ------------ ---------- --<br>- ------- ------ --------- -- ------------ -- --- ---- -----<br>------ ---- ---- ------ ------ ------- --- ----- ---------<br>---- --- -------- -------- --- --- -- ------- --- --- -----<br>-- --- ------ islands --- --- -------- ---- --------- --<br>---------- -- -------- ----------------,226868.59999999963,226868,226323.467,226332.90000000037,226340.131,226873.597,,43,islands
screen,html.Screen,0_4_1_0_1_44,2021-12-10T12:45:43.825Z,,,,,,,,,,,,,,,,11,,,,,,,,,,,,,,482.3030000003637,,response,,,4,A,,,,,Space,keypress(Space),,,,silence,----- -- ---- --- -- --- -------- ------------ ---------- --<br>- ------- ------ --------- -- ------------ -- --- ---- -----<br>------ ---- ---- ------ ------ ------- --- ----- ---------<br>---- --- -------- -------- --- --- -- ------- --- --- -----<br>-- --- ------ ------- and --- -------- ---- --------- --<br>---------- -- -------- ----------------,227356.59999999963,227355.90000000037,226856.931,226868.80000000075,226873.597,227373.325,,44,and
screen,html.Screen,0_4_1_0_1_45,2021-12-10T12:45:44.225Z,,,,,,,,,,,,,,,,11,,,,,,,,,,,,,,382.5750000003609,,response,,,4,A,,,,,Space,keypress(Space),,,,silence,----- -- ---- --- -- --- -------- ------------ ---------- --<br>- ------- ------ --------- -- ------------ -- --- ---- -----<br>------ ---- ---- ------ ------ ------- --- ----- ---------<br>---- --- -------- -------- --- --- -- ------- --- --- -----<br>-- --- ------ ------- --- the -------- ---- --------- --<br>---------- -- -------- ----------------,227756.59999999963,227755.90000000037,227356.662,227356.80000000075,227373.325,227773.53,,45,the
screen,html.Screen,0_4_1_0_1_46,2021-12-10T12:45:44.729Z,,,,,,,,,,,,,,,,11,,,,,,,,,,,,,,486.3700000003737,,response,,,4,A,,,,,Space,keypress(Space),,,,silence,----- -- ---- --- -- --- -------- ------------ ---------- --<br>- ------- ------ --------- -- ------------ -- --- ---- -----<br>------ ---- ---- ------ ------ ------- --- ----- ---------<br>---- --- -------- -------- --- --- -- ------- --- --- -----<br>-- --- ------ ------- --- --- script's ---- --------- --<br>---------- -- -------- ----------------,228260.59999999963,228259.90000000037,227756.864,227756.70000000112,227773.53,228273.437,,46,script's
screen,html.Screen,0_4_1_0_1_47,2021-12-10T12:45:45.121Z,,,,,,,,,,,,,,,,11,,,,,,,,,,,,,,378.3630000007397,,response,,,4,A,,,,,Space,keypress(Space),,,,silence,----- -- ---- --- -- --- -------- ------------ ---------- --<br>- ------- ------ --------- -- ------------ -- --- ---- -----<br>------ ---- ---- ------ ------ ------- --- ----- ---------<br>---- --- -------- -------- --- --- -- ------- --- --- -----<br>-- --- ------ ------- --- --- -------- mere --------- --<br>---------- -- -------- ----------------,228652.40000000037,228651.80000000075,228256.772,228260.80000000075,228273.437,228656.738,,47,mere
screen,html.Screen,0_4_1_0_1_48,2021-12-10T12:45:47.225Z,,,,,,,,,,,,,,,,11,,,,,,,,,,,,,,2099.3619999996154,,response,,,4,A,,,,,Space,keypress(Space),,,,silence,----- -- ---- --- -- --- -------- ------------ ---------- --<br>- ------- ------ --------- -- ------------ -- --- ---- -----<br>------ ---- ---- ------ ------ ------- --- ----- ---------<br>---- --- -------- -------- --- --- -- ------- --- --- -----<br>-- --- ------ ------- --- --- -------- ---- existence --<br>---------- -- -------- ----------------,230756.59999999963,230756.09999999963,228640.073,228652.59999999963,228656.738,230773.219,,48,existence
screen,html.Screen,0_4_1_0_1_49,2021-12-10T12:45:47.737Z,,,,,,,,,,,,,,,,11,,,,,,,,,,,,,,494.5810000007332,,response,,,4,A,,,,,Space,keypress(Space),,,,silence,----- -- ---- --- -- --- -------- ------------ ---------- --<br>- ------- ------ --------- -- ------------ -- --- ---- -----<br>------ ---- ---- ------ ------ ------- --- ----- ---------<br>---- --- -------- -------- --- --- -- ------- --- --- -----<br>-- --- ------ ------- --- --- -------- ---- --------- is<br>---------- -- -------- ----------------,231268.40000000037,231267.80000000075,230756.554,230756.80000000075,230773.219,231273.194,,49,is
screen,html.Screen,0_4_1_0_1_50,2021-12-10T12:45:48.353Z,,,,,,,,,,,,,,,,11,,,,,,,,,,,,,,610.506000001129,,response,,,4,A,,,,,Space,keypress(Space),,,,silence,----- -- ---- --- -- --- -------- ------------ ---------- --<br>- ------- ------ --------- -- ------------ -- --- ---- -----<br>------ ---- ---- ------ ------ ------- --- ----- ---------<br>---- --- -------- -------- --- --- -- ------- --- --- -----<br>-- --- ------ ------- --- --- -------- ---- --------- --<br>sufficient -- -------- ----------------,231884.30000000075,231883.70000000112,231256.529,231268.5,231273.194,231889.758,,50,sufficient
