sender,sender_type,sender_id,timestamp,meta,,Blues,Classical,Country,Dance,Electronic,Folk,Gospel,Hip-Hop,Jazz,Latin,Musical/Film,New-age,Pop,Provo_ID,R&B,Rap,Reggae,Religious,Rock,Soul,Swing,Traditional,age,artist_name,correct,correctResponse,distraction,duration,education,ended_on,familiarity,gender,item,list,music_frequency,offensiveness,pleasantness,preference,response,response_action,snippet_file,song_name,song_rating,sound,text,time_commit,time_end,time_render,time_run,time_show,time_switch,url,word,word_ID
Instructions,html.Page,0_0,2021-10-22T11:00:43.611Z,"{""labjs_version"":""20.2.3"",""labjs_build"":{""flavor"":""production"",""commit"":""7ea907d66ca8aeef8054924ca5d82ffbe11e34e5""},""location"":""https://run.pavlovia.org/mvasilev/lab_music_c/"",""userAgent"":""Mozilla/5.0 (Windows NT 6.1; Win64; x64) AppleWebKit/537.36 (KHTML, like Gecko) Chrome/80.0.3987.122 Safari/537.36"",""platform"":""Win32"",""language"":""en-US"",""locale"":""en-US"",""timeZone"":""Europe/London"",""timezoneOffset"":-60,""screen_width"":1920,""screen_height"":1080,""scroll_width"":1920,""scroll_height"":983,""window_innerWidth"":1920,""window_innerHeight"":1007,""devicePixelRatio"":1}",,,,,,,,,,,,,,,,,,,,,,,,,,,,,6000.636000439881,,form submission,,,,,,,,,,,,,,,,43245.410000905395,43243.82000043988,37226.53,37246.78000062704,37243.184,43241.312,{},,
Headphones,html.Page,0_1,2021-10-22T11:00:45.765Z,,,,,,,,,,,,,,,,,,,,,,,,,,,,,,2157.2230001603384,,form submission,,,,,,,,,,,,,,,,45399.170000106096,45398.53500016034,43224.643,43246.515000239015,43241.312,45425.189,,,
Holding screen,html.Screen,0_2_0_0,2021-10-22T11:00:55.809Z,,,,,,,,,,,,,,,,,,,,,,,,,,,,,,10152.371,,timeout,,,,,,,,,,,,,,,,55443.11499968171,55410.87,45391.851,45399.98000115156,45425.189,55577.56,,,
screen,html.Screen,0_2_0_1_0,2021-10-22T11:00:58.110Z,,,,,,,,,,,,,,,,53,,,,,,,,,,,,,,2164.540000381472,,response,,,99,,,,,,Space,keypress(Space),,,,,When -- ----- -- ------ - ------- --- ----------<br>------------- ------ ------ ---- ---- ------- ----- -- ----<br>-------- ------- -- ---------- --- - --- ----- ----- ----<br>---- --- --- ----- --- ---- ---- ------- ----- ---- -------<br>--- --- -- ----- -- --- ---- -- --- ---- -- ------ ------<br>--- ----- -- ----,57744.04999986291,57742.10000038147,55410.87,55443.81000101566,55577.56,57761.722,,0,When
screen,html.Screen,0_2_0_1_1,2021-10-22T11:00:58.757Z,,,,,,,,,,,,,,,,53,,,,,,,,,,,,,,628.8080013720974,,response,,,99,,,,,,Space,keypress(Space),,,,,---- it ----- -- ------ - ------- --- ----------<br>------------- ------ ------ ---- ---- ------- ----- -- ----<br>-------- ------- -- ---------- --- - --- ----- ----- ----<br>---- --- --- ----- --- ---- ---- ------- ----- ---- -------<br>--- --- -- ----- -- --- ---- -- --- ---- -- ------ ------<br>--- ----- -- ----,58391.78500138223,58390.5300013721,57745.051,57744.58499997854,57761.722,58411.7,,1,it
screen,html.Screen,0_2_0_1_2,2021-10-22T11:00:59.237Z,,,,,,,,,,,,,,,,53,,,,,,,,,,,,,,458.2550013989239,,response,,,99,,,,,,Space,keypress(Space),,,,,---- -- comes -- ------ - ------- --- ----------<br>------------- ------ ------ ---- ---- ------- ----- -- ----<br>-------- ------- -- ---------- --- - --- ----- ----- ----<br>---- --- --- ----- --- ---- ---- ------- ----- ---- -------<br>--- --- -- ----- -- --- ---- -- --- ---- -- ------ ------<br>--- ----- -- ----,58871.19000032544,58869.95500139892,58378.36,58392.160000279546,58411.7,58878.544,,2,comes
screen,html.Screen,0_2_0_1_3,2021-10-22T11:00:59.597Z,,,,,,,,,,,,,,,,53,,,,,,,,,,,,,,351.38100104009936,,response,,,99,,,,,,Space,keypress(Space),,,,,---- -- ----- to ------ - ------- --- ----------<br>------------- ------ ------ ---- ---- ------- ----- -- ----<br>-------- ------- -- ---------- --- - --- ----- ----- ----<br>---- --- --- ----- --- ---- ---- ------- ----- ---- -------<br>--- --- -- ----- -- --- ---- -- --- ---- -- ------ ------<br>--- ----- -- ----,59231.270000338554,59229.9250010401,58861.874,58871.58000096679,58878.544,59245.394,,3,to
screen,html.Screen,0_2_0_1_4,2021-10-22T11:00:59.949Z,,,,,,,,,,,,,,,,53,,,,,,,,,,,,,,336.5109999117849,,response,,,99,,,,,,Space,keypress(Space),,,,,---- -- ----- -- having - ------- --- ----------<br>------------- ------ ------ ---- ---- ------- ----- -- ----<br>-------- ------- -- ---------- --- - --- ----- ----- ----<br>---- --- --- ----- --- ---- ---- ------- ----- ---- -------<br>--- --- -- ----- -- --- ---- -- --- ---- -- ------ ------<br>--- ----- -- ----,59583.09500105679,59581.904999911785,59228.723,59231.6600009799,59245.394,59595.475,,4,having
screen,html.Screen,0_2_0_1_5,2021-10-22T11:01:00.425Z,,,,,,,,,,,,,,,,53,,,,,,,,,,,,,,458.3399997591987,,response,,,99,,,,,,Space,keypress(Space),,,,,---- -- ----- -- ------ a ------- --- ----------<br>------------- ------ ------ ---- ---- ------- ----- -- ----<br>-------- ------- -- ---------- --- - --- ----- ----- ----<br>---- --- --- ----- --- ---- ---- ------- ----- ---- -------<br>--- --- -- ----- -- --- ---- -- --- ---- -- ------ ------<br>--- ----- -- ----,60055.15499971807,60053.8149997592,59578.804,59583.47500115633,59595.475,60062.228,,5,a
screen,html.Screen,0_2_0_1_6,2021-10-22T11:01:00.801Z,,,,,,,,,,,,,,,,53,,,,,,,,,,,,,,367.54200027894694,,response,,,99,,,,,,Space,keypress(Space),,,,,---- -- ----- -- ------ - lasting --- ----------<br>------------- ------ ------ ---- ---- ------- ----- -- ----<br>-------- ------- -- ---------- --- - --- ----- ----- ----<br>---- --- --- ----- --- ---- ---- ------- ----- ---- -------<br>--- --- -- ----- -- --- ---- -- --- ---- -- ------ ------<br>--- ----- -- ----,60430.98000064492,60429.77000027895,60045.558,60055.55500090122,60062.228,60445.661,,6,lasting
screen,html.Screen,0_2_0_1_7,2021-10-22T11:01:01.217Z,,,,,,,,,,,,,,,,53,,,,,,,,,,,,,,400.229000462532,,response,,,99,,,,,,Space,keypress(Space),,,,,---- -- ----- -- ------ - ------- and ----------<br>------------- ------ ------ ---- ---- ------- ----- -- ----<br>-------- ------- -- ---------- --- - --- ----- ----- ----<br>---- --- --- ----- --- ---- ---- ------- ----- ---- -------<br>--- --- -- ----- -- --- ---- -- --- ---- -- ------ ------<br>--- ----- -- ----,60847.03000076115,60845.89000046253,60428.991,60431.33999966085,60445.661,60862.43,,7,and
screen,html.Screen,0_2_0_1_8,2021-10-22T11:01:01.657Z,,,,,,,,,,,,,,,,53,,,,,,,,,,,,,,423.4199996364114,,response,,,99,,,,,,Space,keypress(Space),,,,,---- -- ----- -- ------ - ------- --- fulfilling<br>------------- ------ ------ ---- ---- ------- ----- -- ----<br>-------- ------- -- ---------- --- - --- ----- ----- ----<br>---- --- --- ----- --- ---- ---- ------- ----- ---- -------<br>--- --- -- ----- -- --- ---- -- --- ---- -- ------ ------<br>--- ----- -- ----,61287.15500049293,61285.84999963641,60845.76,60847.395000979304,60862.43,61295.725,,8,fulfilling
screen,html.Screen,0_2_0_1_9,2021-10-22T11:01:02.001Z,,,,,,,,,,,,,,,,53,,,,,,,,,,,,,,334.08499983847287,,response,,,99,,,,,,Space,keypress(Space),,,,,"---- -- ----- -- ------ - ------- --- ----------<br>relationship, ------ ------ ---- ---- ------- ----- -- ----<br>-------- ------- -- ---------- --- - --- ----- ----- ----<br>---- --- --- ----- --- ---- ---- ------- ----- ---- -------<br>--- --- -- ----- -- --- ---- -- --- ---- -- ------ ------<br>--- ----- -- ----",61630.975000560284,61629.80999983847,61279.057,61287.5050008297,61295.725,61646.064,,9,"relationship,"
screen,html.Screen,0_2_0_1_10,2021-10-22T11:01:02.337Z,,,,,,,,,,,,,,,,53,,,,,,,,,,,,,,319.73600035464915,,response,,,99,,,,,,Space,keypress(Space),,,,,---- -- ----- -- ------ - ------- --- ----------<br>------------- common ------ ---- ---- ------- ----- -- ----<br>-------- ------- -- ---------- --- - --- ----- ----- ----<br>---- --- --- ----- --- ---- ---- ------- ----- ---- -------<br>--- --- -- ----- -- --- ---- -- --- ---- -- ------ ------<br>--- ----- -- ----,61966.959999874234,61965.80000035465,61629.392,61631.32500089705,61646.064,61979.388,,10,common
screen,html.Screen,0_2_0_1_11,2021-10-22T11:01:02.729Z,,,,,,,,,,,,,,,,53,,,,,,,,,,,,,,378.4020007367144,,response,,,99,,,,,,Space,keypress(Space),,,,,---- -- ----- -- ------ - ------- --- ----------<br>------------- ------ wisdom ---- ---- ------- ----- -- ----<br>-------- ------- -- ---------- --- - --- ----- ----- ----<br>---- --- --- ----- --- ---- ---- ------- ----- ---- -------<br>--- --- -- ----- -- --- ---- -- --- ---- -- ------ ------<br>--- ----- -- ----,62359.07000117004,62357.79000073671,61962.718,61967.310000211,61979.388,62379.461,,11,wisdom
screen,html.Screen,0_2_0_1_12,2021-10-22T11:01:03.097Z,,,,,,,,,,,,,,,,53,,,,,,,,,,,,,,346.2989998265475,,response,,,99,,,,,,Space,keypress(Space),,,,,---- -- ----- -- ------ - ------- --- ----------<br>------------- ------ ------ says ---- ------- ----- -- ----<br>-------- ------- -- ---------- --- - --- ----- ----- ----<br>---- --- --- ----- --- ---- ---- ------- ----- ---- -------<br>--- --- -- ----- -- --- ---- -- --- ---- -- ------ ------<br>--- ----- -- ----,62727.09000110626,62725.75999982655,62346.121,62359.48500037193,62379.461,62746.231,,12,says
screen,html.Screen,0_2_0_1_13,2021-10-22T11:01:03.417Z,,,,,,,,,,,,,,,,53,,,,,,,,,,,,,,299.50900090360665,,response,,,99,,,,,,Space,keypress(Space),,,,,---- -- ----- -- ------ - ------- --- ----------<br>------------- ------ ------ ---- that ------- ----- -- ----<br>-------- ------- -- ---------- --- - --- ----- ----- ----<br>---- --- --- ----- --- ---- ---- ------- ----- ---- -------<br>--- --- -- ----- -- --- ---- -- --- ---- -- ------ ------<br>--- ----- -- ----,63047.01500013471,63045.74000090361,62712.891,62727.549999952316,62746.231,63063.023,,13,that
screen,html.Screen,0_2_0_1_14,2021-10-22T11:01:03.688Z,,,,,,,,,,,,,,,,53,,,,,,,,,,,,,,254.70200090300932,,response,,,99,,,,,,Space,keypress(Space),,,,,---- -- ----- -- ------ - ------- --- ----------<br>------------- ------ ------ ---- ---- feeling ----- -- ----<br>-------- ------- -- ---------- --- - --- ----- ----- ----<br>---- --- --- ----- --- ---- ---- ------- ----- ---- -------<br>--- --- -- ----- -- --- ---- -- --- ---- -- ------ ------<br>--- ----- -- ----,63318.86500120163,63317.72500090301,63046.352,63047.50999994576,63063.023,63329.717,,14,feeling
screen,html.Screen,0_2_0_1_15,2021-10-22T11:01:04.208Z,,,,,,,,,,,,,,,,53,,,,,,,,,,,,,,507.97300135362457,,response,,,99,,,,,,Space,keypress(Space),,,,,---- -- ----- -- ------ - ------- --- ----------<br>------------- ------ ------ ---- ---- ------- close -- ----<br>-------- ------- -- ---------- --- - --- ----- ----- ----<br>---- --- --- ----- --- ---- ---- ------- ----- ---- -------<br>--- --- -- ----- -- --- ---- -- --- ---- -- ------ ------<br>--- ----- -- ----,63838.80500122905,63837.69000135362,63313.047,63319.20500099659,63329.717,63846.499,,15,close
screen,html.Screen,0_2_0_1_16,2021-10-22T11:01:04.672Z,,,,,,,,,,,,,,,,53,,,,,,,,,,,,,,455.15100073611393,,response,,,99,,,,,,Space,keypress(Space),,,,,---- -- ----- -- ------ - ------- --- ----------<br>------------- ------ ------ ---- ---- ------- ----- to ----<br>-------- ------- -- ---------- --- - --- ----- ----- ----<br>---- --- --- ----- --- ---- ---- ------- ----- ---- -------<br>--- --- -- ----- -- --- ---- -- --- ---- -- ------ ------<br>--- ----- -- ----,64302.89000086486,64301.65000073612,63829.829,63839.13999982178,63846.499,64313.218,,16,to
screen,html.Screen,0_2_0_1_17,2021-10-22T11:01:05.016Z,,,,,,,,,,,,,,,,53,,,,,,,,,,,,,,332.41200015914364,,response,,,99,,,,,,Space,keypress(Space),,,,,---- -- ----- -- ------ - ------- --- ----------<br>------------- ------ ------ ---- ---- ------- ----- -- your<br>-------- ------- -- ---------- --- - --- ----- ----- ----<br>---- --- --- ----- --- ---- ---- ------- ----- ---- -------<br>--- --- -- ----- -- --- ---- -- --- ---- -- ------ ------<br>--- ----- -- ----,64646.78500033915,64645.630000159144,64296.549,64303.23000065982,64313.218,64663.422,,17,your
screen,html.Screen,0_2_0_1_18,2021-10-22T11:01:05.432Z,,,,,,,,,,,,,,,,53,,,,,,,,,,,,,,398.19300141024723,,response,,,99,,,,,,Space,keypress(Space),,,,,---- -- ----- -- ------ - ------- --- ----------<br>------------- ------ ------ ---- ---- ------- ----- -- ----<br>romantic ------- -- ---------- --- - --- ----- ----- ----<br>---- --- --- ----- --- ---- ---- ------- ----- ---- -------<br>--- --- -- ----- -- --- ---- -- --- ---- -- ------ ------<br>--- ----- -- ----,65062.8300011158,65061.615001410246,64646.751,64647.130001336336,64663.422,65080.138,,18,romantic
screen,html.Screen,0_2_0_1_19,2021-10-22T11:01:05.840Z,,,,,,,,,,,,,,,,53,,,,,,,,,,,,,,389.44200026643375,,response,,,99,,,,,,Space,keypress(Space),,,,,---- -- ----- -- ------ - ------- --- ----------<br>------------- ------ ------ ---- ---- ------- ----- -- ----<br>-------- partner -- ---------- --- - --- ----- ----- ----<br>---- --- --- ----- --- ---- ---- ------- ----- ---- -------<br>--- --- -- ----- -- --- ---- -- --- ---- -- ------ ------<br>--- ----- -- ----,65470.665000379086,65469.58000026643,65063.468,65063.17500025034,65080.138,65480.247,,19,partner
screen,html.Screen,0_2_0_1_20,2021-10-22T11:01:06.176Z,,,,,,,,,,,,,,,,53,,,,,,,,,,,,,,325.3280001221865,,response,,,99,,,,,,Space,keypress(Space),,,,,---- -- ----- -- ------ - ------- --- ----------<br>------------- ------ ------ ---- ---- ------- ----- -- ----<br>-------- ------- is ---------- --- - --- ----- ----- ----<br>---- --- --- ----- --- ---- ---- ------- ----- ---- -------<br>--- --- -- ----- -- --- ---- -- --- ---- -- ------ ------<br>--- ----- -- ----,65806.67000077665,65805.57500012219,65463.577,65471.01000137627,65480.247,65813.701,,20,is
screen,html.Screen,0_2_0_1_21,2021-10-22T11:01:06.608Z,,,,,,,,,,,,,,,,53,,,,,,,,,,,,,,423.8339998474112,,response,,,99,,,,,,Space,keypress(Space),,,,,---- -- ----- -- ------ - ------- --- ----------<br>------------- ------ ------ ---- ---- ------- ----- -- ----<br>-------- ------- -- paramount. --- - --- ----- ----- ----<br>---- --- --- ----- --- ---- ---- ------- ----- ---- -------<br>--- --- -- ----- -- --- ---- -- --- ---- -- ------ ------<br>--- ----- -- ----,66238.80499973893,66237.53499984741,65797.03,65807.00500123203,65813.701,66247.097,,21,paramount.
screen,html.Screen,0_2_0_1_22,2021-10-22T11:01:07.504Z,,,,,,,,,,,,,,,,53,,,,,,,,,,,,,,886.3780000387487,,response,,,99,,,,,,Space,keypress(Space),,,,,---- -- ----- -- ------ - ------- --- ----------<br>------------- ------ ------ ---- ---- ------- ----- -- ----<br>-------- ------- -- ---------- But - --- ----- ----- ----<br>---- --- --- ----- --- ---- ---- ------- ----- ---- -------<br>--- --- -- ----- -- --- ---- -- --- ---- -- ------ ------<br>--- ----- -- ----,67134.66500118375,67133.47500003874,66230.427,66239.14000019431,66247.097,67147.382,,22,But
screen,html.Screen,0_2_0_1_23,2021-10-22T11:01:07.808Z,,,,,,,,,,,,,,,,53,,,,,,,,,,,,,,290.0779996954225,,response,,,99,,,,,,Space,keypress(Space),,,,,---- -- ----- -- ------ - ------- --- ----------<br>------------- ------ ------ ---- ---- ------- ----- -- ----<br>-------- ------- -- ---------- --- a --- ----- ----- ----<br>---- --- --- ----- --- ---- ---- ------- ----- ---- -------<br>--- --- -- ----- -- --- ---- -- --- ---- -- ------ ------<br>--- ----- -- ----,67438.54499980807,67437.45999969542,67130.711,67134.99999977648,67147.382,67447.412,,23,a
screen,html.Screen,0_2_0_1_24,2021-10-22T11:01:08.224Z,,,,,,,,,,,,,,,,53,,,,,,,,,,,,,,406.0230004047189,,response,,,99,,,,,,Space,keypress(Space),,,,,---- -- ----- -- ------ - ------- --- ----------<br>------------- ------ ------ ---- ---- ------- ----- -- ----<br>-------- ------- -- ---------- --- - new ----- ----- ----<br>---- --- --- ----- --- ---- ---- ------- ----- ---- -------<br>--- --- -- ----- -- --- ---- -- --- ---- -- ------ ------<br>--- ----- -- ----,67854.53999973834,67853.43500040472,67430.742,67438.89000080526,67447.412,67864.178,,24,new
screen,html.Screen,0_2_0_1_25,2021-10-22T11:01:08.632Z,,,,,,,,,,,,,,,,53,,,,,,,,,,,,,,397.2270004631282,,response,,,99,,,,,,Space,keypress(Space),,,,,---- -- ----- -- ------ - ------- --- ----------<br>------------- ------ ------ ---- ---- ------- ----- -- ----<br>-------- ------- -- ---------- --- - --- study ----- ----<br>---- --- --- ----- --- ---- ---- ------- ----- ---- -------<br>--- --- -- ----- -- --- ---- -- --- ---- -- ------ ------<br>--- ----- -- ----,68262.6050002873,68261.40500046313,67847.508,67854.88000139594,67864.178,68280.937,,25,study
screen,html.Screen,0_2_0_1_26,2021-10-22T11:01:09.001Z,,,,,,,,,,,,,,,,53,,,,,,,,,,,,,,349.01800117539824,,response,,,99,,,,,,Space,keypress(Space),,,,,---- -- ----- -- ------ - ------- --- ----------<br>------------- ------ ------ ---- ---- ------- ----- -- ----<br>-------- ------- -- ---------- --- - --- ----- finds ----<br>---- --- --- ----- --- ---- ---- ------- ----- ---- -------<br>--- --- -- ----- -- --- ---- -- --- ---- -- ------ ------<br>--- ----- -- ----,68631.18000142276,68629.9550011754,68247.597,68262.94500008225,68280.937,68647.695,,26,finds
screen,html.Screen,0_2_0_1_27,2021-10-22T11:01:09.384Z,,,,,,,,,,,,,,,,53,,,,,,,,,,,,,,365.6599999445607,,response,,,99,,,,,,Space,keypress(Space),,,,,---- -- ----- -- ------ - ------- --- ----------<br>------------- ------ ------ ---- ---- ------- ----- -- ----<br>-------- ------- -- ---------- --- - --- ----- ----- that<br>---- --- --- ----- --- ---- ---- ------- ----- ---- -------<br>--- --- -- ----- -- --- ---- -- --- ---- -- ------ ------<br>--- ----- -- ----,69014.47500102222,69013.35499994457,68631.025,68631.54000043869,68647.695,69031.165,,27,that
screen,html.Screen,0_2_0_1_28,2021-10-22T11:01:09.808Z,,,,,,,,,,,,,,,,53,,,,,,,,,,,,,,406.1650001025264,,response,,,99,,,,,,Space,keypress(Space),,,,,---- -- ----- -- ------ - ------- --- ----------<br>------------- ------ ------ ---- ---- ------- ----- -- ----<br>-------- ------- -- ---------- --- - --- ----- ----- ----<br>it's --- --- ----- --- ---- ---- ------- ----- ---- -------<br>--- --- -- ----- -- --- ---- -- --- ---- -- ------ ------<br>--- ----- -- ----,69438.4200014174,69437.33000010252,69014.494,69014.82500135899,69031.165,69447.889,,28,it's
screen,html.Screen,0_2_0_1_29,2021-10-22T11:01:10.112Z,,,,,,,,,,,,,,,,53,,,,,,,,,,,,,,293.42599975920166,,response,,,99,,,,,,Space,keypress(Space),,,,,---- -- ----- -- ------ - ------- --- ----------<br>------------- ------ ------ ---- ---- ------- ----- -- ----<br>-------- ------- -- ---------- --- - --- ----- ----- ----<br>---- not --- ----- --- ---- ---- ------- ----- ---- -------<br>--- --- -- ----- -- --- ---- -- --- ---- -- ------ ------<br>--- ----- -- ----,69742.38000065088,69741.3149997592,69431.219,69438.75500001013,69447.889,69764.677,,29,not
screen,html.Screen,0_2_0_1_30,2021-10-22T11:01:10.448Z,,,,,,,,,,,,,,,,53,,,,,,,,,,,,,,312.6080010544101,,response,,,99,,,,,,Space,keypress(Space),,,,,---- -- ----- -- ------ - ------- --- ----------<br>------------- ------ ------ ---- ---- ------- ----- -- ----<br>-------- ------- -- ---------- --- - --- ----- ----- ----<br>---- --- how ----- --- ---- ---- ------- ----- ---- -------<br>--- --- -- ----- -- --- ---- -- --- ---- -- ------ ------<br>--- ----- -- ----,70078.49500142038,70077.2850010544,69731.335,69742.72000044584,69764.677,70097.996,,30,how
screen,html.Screen,0_2_0_1_31,2021-10-22T11:01:10.792Z,,,,,,,,,,,,,,,,53,,,,,,,,,,,,,,323.2640011378535,,response,,,99,,,,,,Space,keypress(Space),,,,,---- -- ----- -- ------ - ------- --- ----------<br>------------- ------ ------ ---- ---- ------- ----- -- ----<br>-------- ------- -- ---------- --- - --- ----- ----- ----<br>---- --- --- close --- ---- ---- ------- ----- ---- -------<br>--- --- -- ----- -- --- ---- -- --- ---- -- ------ ------<br>--- ----- -- ----,70422.3250001669,70421.26000113785,70064.658,70078.83500121534,70097.996,70431.401,,31,close
screen,html.Screen,0_2_0_1_32,2021-10-22T11:01:11.184Z,,,,,,,,,,,,,,,,53,,,,,,,,,,,,,,381.8390009781142,,response,,,99,,,,,,Space,keypress(Space),,,,,---- -- ----- -- ------ - ------- --- ----------<br>------------- ------ ------ ---- ---- ------- ----- -- ----<br>-------- ------- -- ---------- --- - --- ----- ----- ----<br>---- --- --- ----- you ---- ---- ------- ----- ---- -------<br>--- --- -- ----- -- --- ---- -- --- ---- -- ------ ------<br>--- ----- -- ----,70814.31999988854,70813.24000097811,70414.732,70422.66499996185,70431.401,70831.711,,32,you
screen,html.Screen,0_2_0_1_33,2021-10-22T11:01:11.504Z,,,,,,,,,,,,,,,,53,,,,,,,,,,,,,,301.514001394753,,response,,,99,,,,,,Space,keypress(Space),,,,,---- -- ----- -- ------ - ------- --- ----------<br>------------- ------ ------ ---- ---- ------- ----- -- ----<br>-------- ------- -- ---------- --- - --- ----- ----- ----<br>---- --- --- ----- --- feel ---- ------- ----- ---- -------<br>--- --- -- ----- -- --- ---- -- --- ---- -- ------ ------<br>--- ----- -- ----,71134.44500043988,71133.22500139475,70815.038,70814.65500034392,70831.711,71148.311,,33,feel
screen,html.Screen,0_2_0_1_34,2021-10-22T11:01:11.696Z,,,,,,,,,,,,,,,,53,,,,,,,,,,,,,,176.90400065922586,,response,,,99,,,,,,Space,keypress(Space),,,,,---- -- ----- -- ------ - ------- --- ----------<br>------------- ------ ------ ---- ---- ------- ----- -- ----<br>-------- ------- -- ---------- --- - --- ----- ----- ----<br>---- --- --- ----- --- ---- that ------- ----- ---- -------<br>--- --- -- ----- -- --- ---- -- --- ---- -- ------ ------<br>--- ----- -- ----,71326.29000023007,71325.21500065923,71131.641,71134.78500023484,71148.311,71348.311,,34,that
screen,html.Screen,0_2_0_1_35,2021-10-22T11:01:12.176Z,,,,,,,,,,,,,,,,53,,,,,,,,,,,,,,456.86400080168096,,response,,,99,,,,,,Space,keypress(Space),,,,,---- -- ----- -- ------ - ------- --- ----------<br>------------- ------ ------ ---- ---- ------- ----- -- ----<br>-------- ------- -- ---------- --- - --- ----- ----- ----<br>---- --- --- ----- --- ---- ---- matters ----- ---- -------<br>--- --- -- ----- -- --- ---- -- --- ---- -- ------ ------<br>--- ----- -- ----,71806.24500103295,71805.17500080168,71314.973,71326.62500068545,71348.311,71815.23,,35,matters
screen,html.Screen,0_2_0_1_36,2021-10-22T11:01:12.488Z,,,,,,,,,,,,,,,,53,,,,,,,,,,,,,,301.92000122785976,,response,,,99,,,,,,Space,keypress(Space),,,,,"---- -- ----- -- ------ - ------- --- ----------<br>------------- ------ ------ ---- ---- ------- ----- -- ----<br>-------- ------- -- ---------- --- - --- ----- ----- ----<br>---- --- --- ----- --- ---- ---- ------- most, ---- -------<br>--- --- -- ----- -- --- ---- -- --- ---- -- ------ ------<br>--- ----- -- ----",72118.35999973118,72117.15000122786,71798.558,71806.58500082791,71815.23,72131.948,,36,"most,"
screen,html.Screen,0_2_0_1_37,2021-10-22T11:01:12.856Z,,,,,,,,,,,,,,,,53,,,,,,,,,,,,,,353.182000859495,,response,,,99,,,,,,Space,keypress(Space),,,,,---- -- ----- -- ------ - ------- --- ----------<br>------------- ------ ------ ---- ---- ------- ----- -- ----<br>-------- ------- -- ---------- --- - --- ----- ----- ----<br>---- --- --- ----- --- ---- ---- ------- ----- it's -------<br>--- --- -- ----- -- --- ---- -- --- ---- -- ------ ------<br>--- ----- -- ----,72486.20500043035,72485.1300008595,72115.277,72118.70000138879,72131.948,72498.656,,37,it's
screen,html.Screen,0_2_0_1_38,2021-10-22T11:01:13.208Z,,,,,,,,,,,,,,,,53,,,,,,,,,,,,,,338.4440010520193,,response,,,99,,,,,,Space,keypress(Space),,,,,---- -- ----- -- ------ - ------- --- ----------<br>------------- ------ ------ ---- ---- ------- ----- -- ----<br>-------- ------- -- ---------- --- - --- ----- ----- ----<br>---- --- --- ----- --- ---- ---- ------- ----- ---- whether<br>--- --- -- ----- -- --- ---- -- --- ---- -- ------ ------<br>--- ----- -- ----,72838.16000074148,72837.10000105202,72481.986,72486.55000142753,72498.656,72848.739,,38,whether
screen,html.Screen,0_2_0_1_39,2021-10-22T11:01:13.528Z,,,,,,,,,,,,,,,,53,,,,,,,,,,,,,,308.3560001478181,,response,,,99,,,,,,Space,keypress(Space),,,,,---- -- ----- -- ------ - ------- --- ----------<br>------------- ------ ------ ---- ---- ------- ----- -- ----<br>-------- ------- -- ---------- --- - --- ----- ----- ----<br>---- --- --- ----- --- ---- ---- ------- ----- ---- -------<br>you --- -- ----- -- --- ---- -- --- ---- -- ------ ------<br>--- ----- -- ----,73158.2900006324,73157.09500014782,72832.069,72838.51000107825,72848.739,73165.422,,39,you
screen,html.Screen,0_2_0_1_40,2021-10-22T11:01:13.840Z,,,,,,,,,,,,,,,,53,,,,,,,,,,,,,,303.658001115793,,response,,,99,,,,,,Space,keypress(Space),,,,,---- -- ----- -- ------ - ------- --- ----------<br>------------- ------ ------ ---- ---- ------- ----- -- ----<br>-------- ------- -- ---------- --- - --- ----- ----- ----<br>---- --- --- ----- --- ---- ---- ------- ----- ---- -------<br>--- are -- ----- -- --- ---- -- --- ---- -- ------ ------<br>--- ----- -- ----,73470.13500146568,73469.0800011158,73148.753,73158.63499976695,73165.422,73482.303,,40,are
screen,html.Screen,0_2_0_1_41,2021-10-22T11:01:14.160Z,,,,,,,,,,,,,,,,53,,,,,,,,,,,,,,306.73700110924256,,response,,,99,,,,,,Space,keypress(Space),,,,,---- -- ----- -- ------ - ------- --- ----------<br>------------- ------ ------ ---- ---- ------- ----- -- ----<br>-------- ------- -- ---------- --- - --- ----- ----- ----<br>---- --- --- ----- --- ---- ---- ------- ----- ---- -------<br>--- --- as ----- -- --- ---- -- --- ---- -- ------ ------<br>--- ----- -- ----,73790.14000110328,73789.04000110924,73465.631,73470.47000005841,73482.303,73799.025,,41,as
screen,html.Screen,0_2_0_1_42,2021-10-22T11:01:14.456Z,,,,,,,,,,,,,,,,53,,,,,,,,,,,,,,286.005000656849,,response,,,99,,,,,,Space,keypress(Space),,,,,---- -- ----- -- ------ - ------- --- ----------<br>------------- ------ ------ ---- ---- ------- ----- -- ----<br>-------- ------- -- ---------- --- - --- ----- ----- ----<br>---- --- --- ----- --- ---- ---- ------- ----- ---- -------<br>--- --- -- close -- --- ---- -- --- ---- -- ------ ------<br>--- ----- -- ----,74086.2199999392,74085.03000065684,73782.354,73790.48000089824,73799.025,74099.06,,42,close
screen,html.Screen,0_2_0_1_43,2021-10-22T11:01:14.855Z,,,,,,,,,,,,,,,,53,,,,,,,,,,,,,,385.7900005900883,,response,,,99,,,,,,Space,keypress(Space),,,,,---- -- ----- -- ------ - ------- --- ----------<br>------------- ------ ------ ---- ---- ------- ----- -- ----<br>-------- ------- -- ---------- --- - --- ----- ----- ----<br>---- --- --- ----- --- ---- ---- ------- ----- ---- -------<br>--- --- -- ----- as --- ---- -- --- ---- -- ------ ------<br>--- ----- -- ----,74485.91000027955,74484.85000059009,74082.39,74086.55500039458,74099.06,74499.149,,43,as
screen,html.Screen,0_2_0_1_44,2021-10-22T11:01:15.224Z,,,,,,,,,,,,,,,,53,,,,,,,,,,,,,,353.83600023781764,,response,,,99,,,,,,Space,keypress(Space),,,,,---- -- ----- -- ------ - ------- --- ----------<br>------------- ------ ------ ---- ---- ------- ----- -- ----<br>-------- ------- -- ---------- --- - --- ----- ----- ----<br>---- --- --- ----- --- ---- ---- ------- ----- ---- -------<br>--- --- -- ----- -- you ---- -- --- ---- -- ------ ------<br>--- ----- -- ----,74854.03500124812,74852.98500023782,74482.479,74486.25500127673,74499.149,74865.956,,44,you
screen,html.Screen,0_2_0_1_45,2021-10-22T11:01:15.520Z,,,,,,,,,,,,,,,,53,,,,,,,,,,,,,,282.94899971806444,,response,,,99,,,,,,Space,keypress(Space),,,,,---- -- ----- -- ------ - ------- --- ----------<br>------------- ------ ------ ---- ---- ------- ----- -- ----<br>-------- ------- -- ---------- --- - --- ----- ----- ----<br>---- --- --- ----- --- ---- ---- ------- ----- ---- -------<br>--- --- -- ----- -- --- want -- --- ---- -- ------ ------<br>--- ----- -- ----,75150.12500062585,75148.90499971807,74849.285,74854.37500104308,74865.956,75165.985,,45,want
screen,html.Screen,0_2_0_1_46,2021-10-22T11:01:15.856Z,,,,,,,,,,,,,,,,53,,,,,,,,,,,,,,318.9600010806316,,response,,,99,,,,,,Space,keypress(Space),,,,,---- -- ----- -- ------ - ------- --- ----------<br>------------- ------ ------ ---- ---- ------- ----- -- ----<br>-------- ------- -- ---------- --- - --- ----- ----- ----<br>---- --- --- ----- --- ---- ---- ------- ----- ---- -------<br>--- --- -- ----- -- --- ---- to --- ---- -- ------ ------<br>--- ----- -- ----,75486.00000143051,75484.94500108063,75149.315,75150.46500042081,75165.985,75499.407,,46,to
screen,html.Screen,0_2_0_1_47,2021-10-22T11:01:16.176Z,,,,,,,,,,,,,,,,53,,,,,,,,,,,,,,305.5030004136497,,response,,,99,,,,,,Space,keypress(Space),,,,,"---- -- ----- -- ------ - ------- --- ----------<br>------------- ------ ------ ---- ---- ------- ----- -- ----<br>-------- ------- -- ---------- --- - --- ----- ----- ----<br>---- --- --- ----- --- ---- ---- ------- ----- ---- -------<br>--- --- -- ----- -- --- ---- -- be, ---- -- ------ ------<br>--- ----- -- ----",75806.00500106812,75804.91000041366,75482.737,75486.34999990463,75499.407,75816.153,,47,"be,"
screen,html.Screen,0_2_0_1_48,2021-10-22T11:01:16.448Z,,,,,,,,,,,,,,,,53,,,,,,,,,,,,,,260.70700131070043,,response,,,99,,,,,,Space,keypress(Space),,,,,---- -- ----- -- ------ - ------- --- ----------<br>------------- ------ ------ ---- ---- ------- ----- -- ----<br>-------- ------- -- ---------- --- - --- ----- ----- ----<br>---- --- --- ----- --- ---- ---- ------- ----- ---- -------<br>--- --- -- ----- -- --- ---- -- --- even -- ------ ------<br>--- ----- -- ----,76078.0300013721,76076.8600013107,75799.483,75806.35000020266,75816.153,76099.608,,48,even
screen,html.Screen,0_2_0_1_49,2021-10-22T11:01:16.799Z,,,,,,,,,,,,,,,,53,,,,,,,,,,,,,,329.1470002336573,,response,,,99,,,,,,Space,keypress(Space),,,,,---- -- ----- -- ------ - ------- --- ----------<br>------------- ------ ------ ---- ---- ------- ----- -- ----<br>-------- ------- -- ---------- --- - --- ----- ----- ----<br>---- --- --- ----- --- ---- ---- ------- ----- ---- -------<br>--- --- -- ----- -- --- ---- -- --- ---- if ------ ------<br>--- ----- -- ----,76429.84499968588,76428.75500023365,76066.266,76078.37500050664,76099.608,76449.648,,49,if
screen,html.Screen,0_2_0_1_50,2021-10-22T11:01:17.088Z,,,,,,,,,,,,,,,,53,,,,,,,,,,,,,,267.2670002300729,,response,,,99,,,,,,Space,keypress(Space),,,,,---- -- ----- -- ------ - ------- --- ----------<br>------------- ------ ------ ---- ---- ------- ----- -- ----<br>-------- ------- -- ---------- --- - --- ----- ----- ----<br>---- --- --- ----- --- ---- ---- ------- ----- ---- -------<br>--- --- -- ----- -- --- ---- -- --- ---- -- that's ------<br>--- ----- -- ----,76717.98999980092,76716.91500023007,76416.308,76430.18500134349,76449.648,76732.892,,50,that's
screen,html.Screen,0_2_0_1_51,2021-10-22T11:01:17.488Z,,,,,,,,,,,,,,,,53,,,,,,,,,,,,,,383.90800089108234,,response,,,99,,,,,,Space,keypress(Space),,,,,---- -- ----- -- ------ - ------- --- ----------<br>------------- ------ ------ ---- ---- ------- ----- -- ----<br>-------- ------- -- ---------- --- - --- ----- ----- ----<br>---- --- --- ----- --- ---- ---- ------- ----- ---- -------<br>--- --- -- ----- -- --- ---- -- --- ---- -- ------ really<br>--- ----- -- ----,77117.98500083387,77116.80000089109,76716.225,76718.3350007981,76732.892,77133.217,,51,really
screen,html.Screen,0_2_0_1_52,2021-10-22T11:01:17.799Z,,,,,,,,,,,,,,,,53,,,,,,,,,,,,,,295.478000708099,,response,,,99,,,,,,Space,keypress(Space),,,,,---- -- ----- -- ------ - ------- --- ----------<br>------------- ------ ------ ---- ---- ------- ----- -- ----<br>-------- ------- -- ---------- --- - --- ----- ----- ----<br>---- --- --- ----- --- ---- ---- ------- ----- ---- -------<br>--- --- -- ----- -- --- ---- -- --- ---- -- ------ ------<br>not ----- -- ----,77429.75500039756,77428.6950007081,77116.545,77118.34000051022,77133.217,77449.892,,52,not
screen,html.Screen,0_2_0_1_53,2021-10-22T11:01:18.135Z,,,,,,,,,,,,,,,,53,,,,,,,,,,,,,,314.7930012242723,,response,,,99,,,,,,Space,keypress(Space),,,,,---- -- ----- -- ------ - ------- --- ----------<br>------------- ------ ------ ---- ---- ------- ----- -- ----<br>-------- ------- -- ---------- --- - --- ----- ----- ----<br>---- --- --- ----- --- ---- ---- ------- ----- ---- -------<br>--- --- -- ----- -- --- ---- -- --- ---- -- ------ ------<br>--- close -- ----,77765.84500074387,77764.68500122428,77416.552,77430.09500019252,77449.892,77783.339,,53,close
screen,html.Screen,0_2_0_1_54,2021-10-22T11:01:18.487Z,,,,,,,,,,,,,,,,53,,,,,,,,,,,,,,333.2910009936022,,response,,,99,,,,,,Space,keypress(Space),,,,,---- -- ----- -- ------ - ------- --- ----------<br>------------- ------ ------ ---- ---- ------- ----- -- ----<br>-------- ------- -- ---------- --- - --- ----- ----- ----<br>---- --- --- ----- --- ---- ---- ------- ----- ---- -------<br>--- --- -- ----- -- --- ---- -- --- ---- -- ------ ------<br>--- ----- at ----,78117.89000034332,78116.63000099361,77766.668,77766.18500053883,77783.339,78133.267,,54,at
screen,html.Screen,0_2_0_1_55,2021-10-22T11:01:18.872Z,,,,,,,,,,,,,,,,53,,,,,,,,,,,,,,367.4880008594919,,response,,,99,,,,,,Space,keypress(Space),,,,,---- -- ----- -- ------ - ------- --- ----------<br>------------- ------ ------ ---- ---- ------- ----- -- ----<br>-------- ------- -- ---------- --- - --- ----- ----- ----<br>---- --- --- ----- --- ---- ---- ------- ----- ---- -------<br>--- --- -- ----- -- --- ---- -- --- ---- -- ------ ------<br>--- ----- -- all.,78502.05000117421,78500.7550008595,78116.599,78120.02000026405,78133.267,78533.594,,55,all.
Item 99,flow.Loop,0_2_0_1,2021-10-22T11:01:18.877Z,,,,,,,,,,,,,,,,,,,,,,,,,,,,,,22923.1950008595,,completion,,,,C,,,,,,,,,,silence,,78507.23499991,78500.7550008595,55410.87,55443.61500069499,55577.56,78533.594,,,
Question 1,html.Screen,0_2_0_2,2021-10-22T11:01:24.650Z,,,,,,,,,,,,,,,,,,,,,,,,,,,false,FALSE,,5744.990999963644,,response,,,99,C,,,,,TRUE,click #choice-1,,,,silence,,84280.51500022411,84278.58499996364,78500.248,78507.61000066996,78533.594,84301.528,,,
Question 2,html.Screen,0_2_0_3,2021-10-22T11:01:29.340Z,,,,,,,,,,,,,,,,,,,,,,,,,,,true,TRUE,,4667.022000339741,,response,,,99,C,,,,,TRUE,click #choice-1,,,,silence,,88970.21500021219,88968.55000033975,84268.192,84280.92000074685,84301.528,89002.773,,,
Item 99,flow.Sequence,0_2_0,2021-10-22T11:01:29.340Z,,,,,,,,,,,,,,,,,,,,,,,,,,,,,,43543.36100033975,,completion,,,,,,,,,,,,,,,,88970.84000147879,88968.55000033975,45391.851,45399.83000047505,45425.189,89002.773,,,
Holding screen,html.Screen,0_2_1_0,2021-10-22T11:01:39.372Z,,,,,,,,,,,,,,,,,,,,,,,,,,,,,,10019.034,,timeout,,,,,,,,,,,,,,,,99002.02500075102,98988.467,88969.433,88971.344999969,89002.773,99021.807,,,
screen,html.Screen,0_2_1_1_0,2021-10-22T11:01:40.111Z,,,,,,,,,,,,,,,,54,,,,,,,,,,,,,,718.1330006979697,,response,,,100,,,,,,Space,keypress(Space),,,,,At --- ---- --- ------ ----- ------- ---- -- --- ------- --<br>------- ---------- ------ -- ----- -- ----- -- ---- ------<br>--- ----- --- --- ------ -------- ----- --- ------ ----- --<br>----- ----- ---------- --- --- ------ ------ ---- -- ------<br>------- --- ------ ----- --- ---- ------- -- ---- --- --<br>------- ------,99741.04500003159,99739.94000069797,98988.467,99002.67000123858,99021.807,99755.495,,0,At
screen,html.Screen,0_2_1_1_1,2021-10-22T11:01:40.406Z,,,,,,,,,,,,,,,,54,,,,,,,,,,,,,,279.8900014507817,,response,,,100,,,,,,Space,keypress(Space),,,,,-- the ---- --- ------ ----- ------- ---- -- --- ------- --<br>------- ---------- ------ -- ----- -- ----- -- ---- ------<br>--- ----- --- --- ------ -------- ----- --- ------ ----- --<br>----- ----- ---------- --- --- ------ ------ ---- -- ------<br>------- --- ------ ----- --- ---- ------- -- ---- --- --<br>------- ------,100036.43000125885,100035.38500145078,99738.824,99741.39500036836,99755.495,100055.527,,1,the
screen,html.Screen,0_2_1_1_2,2021-10-22T11:01:40.702Z,,,,,,,,,,,,,,,,54,,,,,,,,,,,,,,275.8330011169892,,response,,,100,,,,,,Space,keypress(Space),,,,,-- --- time --- ------ ----- ------- ---- -- --- ------- --<br>------- ---------- ------ -- ----- -- ----- -- ---- ------<br>--- ----- --- --- ------ -------- ----- --- ------ ----- --<br>----- ----- ---------- --- --- ------ ------ ---- -- ------<br>------- --- ------ ----- --- ---- ------- -- ---- --- --<br>------- ------,100332.41000026464,100331.36000111699,100022.187,100036.7850009352,100055.527,100338.913,,2,time
screen,html.Screen,0_2_1_1_3,2021-10-22T11:01:40.950Z,,,,,,,,,,,,,,,,54,,,,,,,,,,,,,,240.4070004845853,,response,,,100,,,,,,Space,keypress(Space),,,,,-- --- ---- the ------ ----- ------- ---- -- --- ------- --<br>------- ---------- ------ -- ----- -- ----- -- ---- ------<br>--- ----- --- --- ------ -------- ----- --- ------ ----- --<br>----- ----- ---------- --- --- ------ ------ ---- -- ------<br>------- --- ------ ----- --- ---- ------- -- ---- --- --<br>------- ------,100580.37500083447,100579.32000048459,100322.243,100332.7500000596,100338.913,100589.017,,3,the
screen,html.Screen,0_2_1_1_4,2021-10-22T11:01:41.150Z,,,,,,,,,,,,,,,,54,,,,,,,,,,,,,,190.32800016271358,,response,,,100,,,,,,Space,keypress(Space),,,,,-- --- ---- --- French ----- ------- ---- -- --- ------- --<br>------- ---------- ------ -- ----- -- ----- -- ---- ------<br>--- ----- --- --- ------ -------- ----- --- ------ ----- --<br>----- ----- ---------- --- --- ------ ------ ---- -- ------<br>------- --- ------ ----- --- ---- ------- -- ---- --- --<br>------- ------,100780.39500117302,100779.34500016272,100572.346,100580.71500062943,100589.017,100789.046,,4,French
screen,html.Screen,0_2_1_1_5,2021-10-22T11:01:41.350Z,,,,,,,,,,,,,,,,54,,,,,,,,,,,,,,190.27900019669323,,response,,,100,,,,,,Space,keypress(Space),,,,,-- --- ---- --- ------ crown ------- ---- -- --- ------- --<br>------- ---------- ------ -- ----- -- ----- -- ---- ------<br>--- ----- --- --- ------ -------- ----- --- ------ ----- --<br>----- ----- ---------- --- --- ------ ------ ---- -- ------<br>------- --- ------ ----- --- ---- ------- -- ---- --- --<br>------- ------,100980.38000054657,100979.3250001967,100772.376,100780.73500096798,100789.046,100989.088,,5,crown
screen,html.Screen,0_2_1_1_6,2021-10-22T11:01:42.078Z,,,,,,,,,,,,,,,,54,,,,,,,,,,,,,,718.192000671741,,response,,,100,,,,,,Space,keypress(Space),,,,,-- --- ---- --- ------ ----- secured ---- -- --- ------- --<br>------- ---------- ------ -- ----- -- ----- -- ---- ------<br>--- ----- --- --- ------ -------- ----- --- ------ ----- --<br>----- ----- ---------- --- --- ------ ------ ---- -- ------<br>------- --- ------ ----- --- ---- ------- -- ---- --- --<br>------- ------,101708.3400003612,101707.28000067174,100972.418,100980.72499968112,100989.088,101722.637,,6,secured
screen,html.Screen,0_2_1_1_7,2021-10-22T11:01:42.358Z,,,,,,,,,,,,,,,,54,,,,,,,,,,,,,,264.62300078022236,,response,,,100,,,,,,Space,keypress(Space),,,,,-- --- ---- --- ------ ----- ------- much -- --- ------- --<br>------- ---------- ------ -- ----- -- ----- -- ---- ------<br>--- ----- --- --- ------ -------- ----- --- ------ ----- --<br>----- ----- ---------- --- --- ------ ------ ---- -- ------<br>------- --- ------ ----- --- ---- ------- -- ---- --- --<br>------- ------,101988.3050005883,101987.26000078022,101705.966,101708.68500135839,101722.637,102005.947,,7,much
screen,html.Screen,0_2_1_1_8,2021-10-22T11:01:42.662Z,,,,,,,,,,,,,,,,54,,,,,,,,,,,,,,285.2879998950957,,response,,,100,,,,,,Space,keypress(Space),,,,,-- --- ---- --- ------ ----- ------- ---- of --- ------- --<br>------- ---------- ------ -- ----- -- ----- -- ---- ------<br>--- ----- --- --- ------ -------- ----- --- ------ ----- --<br>----- ----- ---------- --- --- ------ ------ ---- -- ------<br>------- --- ------ ----- --- ---- ------- -- ---- --- --<br>------- ------,102292.2950014472,102291.2349998951,101989.278,101989.97499980032,102005.947,102306.077,,8,of
screen,html.Screen,0_2_1_1_9,2021-10-22T11:01:42.942Z,,,,,,,,,,,,,,,,54,,,,,,,,,,,,,,265.1380000035715,,response,,,100,,,,,,Space,keypress(Space),,,,,-- --- ---- --- ------ ----- ------- ---- -- its ------- --<br>------- ---------- ------ -- ----- -- ----- -- ---- ------<br>--- ----- --- --- ------ -------- ----- --- ------ ----- --<br>----- ----- ---------- --- --- ------ ------ ---- -- ------<br>------- --- ------ ----- --- ---- ------- -- ---- --- --<br>------- ------,102572.27499969304,102571.21500000358,102289.407,102292.62000136077,102306.077,102589.483,,9,its
screen,html.Screen,0_2_1_1_10,2021-10-22T11:01:43.198Z,,,,,,,,,,,,,,,,54,,,,,,,,,,,,,,237.71199990344758,,response,,,100,,,,,,Space,keypress(Space),,,,,-- --- ---- --- ------ ----- ------- ---- -- --- revenue --<br>------- ---------- ------ -- ----- -- ----- -- ---- ------<br>--- ----- --- --- ------ -------- ----- --- ------ ----- --<br>----- ----- ---------- --- --- ------ ------ ---- -- ------<br>------- --- ------ ----- --- ---- ------- -- ---- --- --<br>------- ------,102828.2650001347,102827.19499990344,102572.813,102572.60000146925,102589.483,102839.55,,10,revenue
screen,html.Screen,0_2_1_1_11,2021-10-22T11:01:43.518Z,,,,,,,,,,,,,,,,54,,,,,,,,,,,,,,307.63499965965457,,response,,,100,,,,,,Space,keypress(Space),,,,,-- --- ---- --- ------ ----- ------- ---- -- --- ------- by<br>------- ---------- ------ -- ----- -- ----- -- ---- ------<br>--- ----- --- --- ------ -------- ----- --- ------ ----- --<br>----- ----- ---------- --- --- ------ ------ ---- -- ------<br>------- --- ------ ----- --- ---- ------- -- ---- --- --<br>------- ------,103148.3300011605,103147.18499965966,102822.88,102828.5850007087,102839.55,103156.284,,11,by
screen,html.Screen,0_2_1_1_12,2021-10-22T11:01:43.822Z,,,,,,,,,,,,,,,,54,,,,,,,,,,,,,,294.8959998581413,,response,,,100,,,,,,Space,keypress(Space),,,,,-- --- ---- --- ------ ----- ------- ---- -- --- ------- --<br>issuing ---------- ------ -- ----- -- ----- -- ---- ------<br>--- ----- --- --- ------ -------- ----- --- ------ ----- --<br>----- ----- ---------- --- --- ------ ------ ---- -- ------<br>------- --- ------ ----- --- ---- ------- -- ---- --- --<br>------- ------,103452.23500020802,103451.17999985814,103139.614,103148.66000041366,103156.284,103473.034,,12,issuing
screen,html.Screen,0_2_1_1_13,2021-10-22T11:01:44.102Z,,,,,,,,,,,,,,,,54,,,,,,,,,,,,,,258.111000085235,,response,,,100,,,,,,Space,keypress(Space),,,,,-- --- ---- --- ------ ----- ------- ---- -- --- ------- --<br>------- government ------ -- ----- -- ----- -- ---- ------<br>--- ----- --- --- ------ -------- ----- --- ------ ----- --<br>----- ----- ---------- --- --- ------ ------ ---- -- ------<br>------- --- ------ ----- --- ---- ------- -- ---- --- --<br>------- ------,103732.19500109553,103731.14500008523,103439.694,103452.5700006634,103473.034,103739.799,,13,government
screen,html.Screen,0_2_1_1_14,2021-10-22T11:01:44.638Z,,,,,,,,,,,,,,,,54,,,,,,,,,,,,,,527.2110014656791,,response,,,100,,,,,,Space,keypress(Space),,,,,-- --- ---- --- ------ ----- ------- ---- -- --- ------- --<br>------- ---------- bonds. -- ----- -- ----- -- ---- ------<br>--- ----- --- --- ------ -------- ----- --- ------ ----- --<br>----- ----- ---------- --- --- ------ ------ ---- -- ------<br>------- --- ------ ----- --- ---- ------- -- ---- --- --<br>------- ------,104268.07000115514,104267.01000146568,103723.128,103732.52999968827,103739.799,104289.905,,14,bonds.
screen,html.Screen,0_2_1_1_15,2021-10-22T11:01:44.926Z,,,,,,,,,,,,,,,,54,,,,,,,,,,,,,,265.18500085294363,,response,,,100,,,,,,Space,keypress(Space),,,,,-- --- ---- --- ------ ----- ------- ---- -- --- ------- --<br>------- ---------- ------ In ----- -- ----- -- ---- ------<br>--- ----- --- --- ------ -------- ----- --- ------ ----- --<br>----- ----- ---------- --- --- ------ ------ ---- -- ------<br>------- --- ------ ----- --- ---- ------- -- ---- --- --<br>------- ------,104556.1400000006,104555.09000085294,104256.565,104268.40499974787,104289.905,104573.26,,15,In
screen,html.Screen,0_2_1_1_16,2021-10-22T11:01:45.222Z,,,,,,,,,,,,,,,,54,,,,,,,,,,,,,,277.80999985874223,,response,,,100,,,,,,Space,keypress(Space),,,,,"-- --- ---- --- ------ ----- ------- ---- -- --- ------- --<br>------- ---------- ------ -- 1727, -- ----- -- ---- ------<br>--- ----- --- --- ------ -------- ----- --- ------ ----- --<br>----- ----- ---------- --- --- ------ ------ ---- -- ------<br>------- --- ------ ----- --- ---- ------- -- ---- --- --<br>------- ------",104852.12000086904,104851.06999985874,104556.591,104556.4700011164,104573.26,104873.414,,16,"1727,"
screen,html.Screen,0_2_1_1_17,2021-10-22T11:01:45.750Z,,,,,,,,,,,,,,,,54,,,,,,,,,,,,,,505.6359996393876,,response,,,100,,,,,,Space,keypress(Space),,,,,-- --- ---- --- ------ ----- ------- ---- -- --- ------- --<br>------- ---------- ------ -- ----- in ----- -- ---- ------<br>--- ----- --- --- ------ -------- ----- --- ------ ----- --<br>----- ----- ---------- --- --- ------ ------ ---- -- ------<br>------- --- ------ ----- --- ---- ------- -- ---- --- --<br>------- ------,105380.10000064969,105379.04999963939,104840.072,104852.45500132442,104873.414,105390.047,,17,in
screen,html.Screen,0_2_1_1_18,2021-10-22T11:01:46.006Z,,,,,,,,,,,,,,,,54,,,,,,,,,,,,,,244.98800074147584,,response,,,100,,,,,,Space,keypress(Space),,,,,-- --- ---- --- ------ ----- ------- ---- -- --- ------- --<br>------- ---------- ------ -- ----- -- order -- ---- ------<br>--- ----- --- --- ------ -------- ----- --- ------ ----- --<br>----- ----- ---------- --- --- ------ ------ ---- -- ------<br>------- --- ------ ----- --- ---- ------- -- ---- --- --<br>------- ------,105636.08000054955,105635.03500074148,105373.379,105380.43500110507,105390.047,105656.83,,18,order
screen,html.Screen,0_2_1_1_19,2021-10-22T11:01:46.350Z,,,,,,,,,,,,,,,,54,,,,,,,,,,,,,,322.18000082492654,,response,,,100,,,,,,Space,keypress(Space),,,,,-- --- ---- --- ------ ----- ------- ---- -- --- ------- --<br>------- ---------- ------ -- ----- -- ----- to ---- ------<br>--- ----- --- --- ------ -------- ----- --- ------ ----- --<br>----- ----- ---------- --- --- ------ ------ ---- -- ------<br>------- --- ------ ----- --- ---- ------- -- ---- --- --<br>------- ------,105980.05999997258,105979.01000082493,105623.492,105636.41500100493,105656.83,105990.362,,19,to
screen,html.Screen,0_2_1_1_20,2021-10-22T11:01:46.742Z,,,,,,,,,,,,,,,,54,,,,,,,,,,,,,,380.61300078380737,,response,,,100,,,,,,Space,keypress(Space),,,,,-- --- ---- --- ------ ----- ------- ---- -- --- ------- --<br>------- ---------- ------ -- ----- -- ----- -- save ------<br>--- ----- --- --- ------ -------- ----- --- ------ ----- --<br>----- ----- ---------- --- --- ------ ------ ---- -- ------<br>------- --- ------ ----- --- ---- ------- -- ---- --- --<br>------- ------,106372.03999981284,106370.9750007838,105973.691,105980.39500042796,105990.362,106390.458,,20,save
screen,html.Screen,0_2_1_1_21,2021-10-22T11:01:47.078Z,,,,,,,,,,,,,,,,54,,,,,,,,,,,,,,316.4920014185918,,response,,,100,,,,,,Space,keypress(Space),,,,,"-- --- ---- --- ------ ----- ------- ---- -- --- ------- --<br>------- ---------- ------ -- ----- -- ----- -- ---- money,<br>--- ----- --- --- ------ -------- ----- --- ------ ----- --<br>----- ----- ---------- --- --- ------ ------ ---- -- ------<br>------- --- ------ ----- --- ---- ------- -- ---- --- --<br>------- ------",106708.06000009179,106706.95000141859,106357.116,106372.37000092864,106390.458,106723.881,,21,"money,"
screen,html.Screen,0_2_1_1_22,2021-10-22T11:01:47.430Z,,,,,,,,,,,,,,,,54,,,,,,,,,,,,,,335.0590008320869,,response,,,100,,,,,,Space,keypress(Space),,,,,-- --- ---- --- ------ ----- ------- ---- -- --- ------- --<br>------- ---------- ------ -- ----- -- ----- -- ---- ------<br>the ----- --- --- ------ -------- ----- --- ------ ----- --<br>----- ----- ---------- --- --- ------ ------ ---- -- ------<br>------- --- ------ ----- --- ---- ------- -- ---- --- --<br>------- ------,107060.0700005889,107058.94000083208,106707.21,106708.39500054717,106723.881,107073.915,,22,the
screen,html.Screen,0_2_1_1_23,2021-10-22T11:01:47.742Z,,,,,,,,,,,,,,,,54,,,,,,,,,,,,,,297.02000047922775,,response,,,100,,,,,,Space,keypress(Space),,,,,-- --- ---- --- ------ ----- ------- ---- -- --- ------- --<br>------- ---------- ------ -- ----- -- ----- -- ---- ------<br>--- state --- --- ------ -------- ----- --- ------ ----- --<br>----- ----- ---------- --- --- ------ ------ ---- -- ------<br>------- --- ------ ----- --- ---- ------- -- ---- --- --<br>------- ------,107372.0000013709,107370.93500047922,107057.245,107060.39999984205,107073.915,107390.704,,23,state
screen,html.Screen,0_2_1_1_24,2021-10-22T11:01:48.053Z,,,,,,,,,,,,,,,,54,,,,,,,,,,,,,,292.1810004822037,,response,,,100,,,,,,Space,keypress(Space),,,,,-- --- ---- --- ------ ----- ------- ---- -- --- ------- --<br>------- ---------- ------ -- ----- -- ----- -- ---- ------<br>--- ----- cut --- ------ -------- ----- --- ------ ----- --<br>----- ----- ---------- --- --- ------ ------ ---- -- ------<br>------- --- ------ ----- --- ---- ------- -- ---- --- --<br>------- ------,107683.93499962986,107682.8850004822,107357.362,107372.32500128448,107390.704,107690.784,,24,cut
screen,html.Screen,0_2_1_1_25,2021-10-22T11:01:48.373Z,,,,,,,,,,,,,,,,54,,,,,,,,,,,,,,312.0809996966127,,response,,,100,,,,,,Space,keypress(Space),,,,,-- --- ---- --- ------ ----- ------- ---- -- --- ------- --<br>------- ---------- ------ -- ----- -- ----- -- ---- ------<br>--- ----- --- the ------ -------- ----- --- ------ ----- --<br>----- ----- ---------- --- --- ------ ------ ---- -- ------<br>------- --- ------ ----- --- ---- ------- -- ---- --- --<br>------- ------,108003.92500124872,108002.86499969661,107674.113,107684.29500050843,107690.784,108024.157,,25,the
screen,html.Screen,0_2_1_1_26,2021-10-22T11:01:48.685Z,,,,,,,,,,,,,,,,54,,,,,,,,,,,,,,290.7030012063915,,response,,,100,,,,,,Space,keypress(Space),,,,,-- --- ---- --- ------ ----- ------- ---- -- --- ------- --<br>------- ---------- ------ -- ----- -- ----- -- ---- ------<br>--- ----- --- --- bonds' -------- ----- --- ------ ----- --<br>----- ----- ---------- --- --- ------ ------ ---- -- ------<br>------- --- ------ ----- --- ---- ------- -- ---- --- --<br>------- ------,108315.93000143766,108314.8600012064,107990.817,108004.25500050187,108024.157,108324.232,,26,bonds'
screen,html.Screen,0_2_1_1_27,2021-10-22T11:01:49.045Z,,,,,,,,,,,,,,,,54,,,,,,,,,,,,,,350.65300103354093,,response,,,100,,,,,,Space,keypress(Space),,,,,-- --- ---- --- ------ ----- ------- ---- -- --- ------- --<br>------- ---------- ------ -- ----- -- ----- -- ---- ------<br>--- ----- --- --- ------ interest ----- --- ------ ----- --<br>----- ----- ---------- --- --- ------ ------ ---- -- ------<br>------- --- ------ ----- --- ---- ------- -- ---- --- --<br>------- ------,108675.945000723,108674.88500103354,108307.562,108316.26000069082,108324.232,108691.058,,27,interest
screen,html.Screen,0_2_1_1_28,2021-10-22T11:01:49.365Z,,,,,,,,,,,,,,,,54,,,,,,,,,,,,,,303.75700126421,,response,,,100,,,,,,Space,keypress(Space),,,,,-- --- ---- --- ------ ----- ------- ---- -- --- ------- --<br>------- ---------- ------ -- ----- -- ----- -- ---- ------<br>--- ----- --- --- ------ -------- rate. --- ------ ----- --<br>----- ----- ---------- --- --- ------ ------ ---- -- ------<br>------- --- ------ ----- --- ---- ------- -- ---- --- --<br>------- ------,108995.86999975145,108994.81500126421,108674.387,108676.27499997616,108691.058,109007.751,,28,rate.
screen,html.Screen,0_2_1_1_29,2021-10-22T11:01:49.653Z,,,,,,,,,,,,,,,,54,,,,,,,,,,,,,,275.0490001609287,,response,,,100,,,,,,Space,keypress(Space),,,,,-- --- ---- --- ------ ----- ------- ---- -- --- ------- --<br>------- ---------- ------ -- ----- -- ----- -- ---- ------<br>--- ----- --- --- ------ -------- ----- The ------ ----- --<br>----- ----- ---------- --- --- ------ ------ ---- -- ------<br>------- --- ------ ----- --- ---- ------- -- ---- --- --<br>------- ------,109283.86500105262,109282.80000016093,108991.081,108996.20000086725,109007.751,109291.142,,29,The
screen,html.Screen,0_2_1_1_30,2021-10-22T11:01:49.973Z,,,,,,,,,,,,,,,,54,,,,,,,,,,,,,,311.6330000357557,,response,,,100,,,,,,Space,keypress(Space),,,,,-- --- ---- --- ------ ----- ------- ---- -- --- ------- --<br>------- ---------- ------ -- ----- -- ----- -- ---- ------<br>--- ----- --- --- ------ -------- ----- --- market ----- --<br>----- ----- ---------- --- --- ------ ------ ---- -- ------<br>------- --- ------ ----- --- ---- ------- -- ---- --- --<br>------- ------,109603.81000116467,109602.77500003576,109274.472,109284.19000096619,109291.142,109624.598,,30,market
screen,html.Screen,0_2_1_1_31,2021-10-22T11:01:50.246Z,,,,,,,,,,,,,,,,54,,,,,,,,,,,,,,250.6019996602554,,response,,,100,,,,,,Space,keypress(Space),,,,,-- --- ---- --- ------ ----- ------- ---- -- --- ------- --<br>------- ---------- ------ -- ----- -- ----- -- ---- ------<br>--- ----- --- --- ------ -------- ----- --- ------ value --<br>----- ----- ---------- --- --- ------ ------ ---- -- ------<br>------- --- ------ ----- --- ---- ------- -- ---- --- --<br>------- ------,109876.24500133097,109875.19999966025,109591.256,109604.15000095963,109624.598,109891.3,,31,value
screen,html.Screen,0_2_1_1_32,2021-10-22T11:01:50.549Z,,,,,,,,,,,,,,,,54,,,,,,,,,,,,,,287.39000136851973,,response,,,100,,,,,,Space,keypress(Space),,,,,-- --- ---- --- ------ ----- ------- ---- -- --- ------- --<br>------- ---------- ------ -- ----- -- ----- -- ---- ------<br>--- ----- --- --- ------ -------- ----- --- ------ ----- of<br>----- ----- ---------- --- --- ------ ------ ---- -- ------<br>------- --- ------ ----- --- ---- ------- -- ---- --- --<br>------- ------,110179.87000010908,110178.69000136852,109874.63,109876.57000124454,109891.3,110191.368,,32,of
screen,html.Screen,0_2_1_1_33,2021-10-22T11:01:50.869Z,,,,,,,,,,,,,,,,54,,,,,,,,,,,,,,307.292000041125,,response,,,100,,,,,,Space,keypress(Space),,,,,-- --- ---- --- ------ ----- ------- ---- -- --- ------- --<br>------- ---------- ------ -- ----- -- ----- -- ---- ------<br>--- ----- --- --- ------ -------- ----- --- ------ ----- --<br>these ----- ---------- --- --- ------ ------ ---- -- ------<br>------- --- ------ ----- --- ---- ------- -- ---- --- --<br>------- ------,110499.7400008142,110498.66000004113,110174.698,110180.22499978542,110191.368,110508.05,,33,these
screen,html.Screen,0_2_1_1_34,2021-10-22T11:01:51.149Z,,,,,,,,,,,,,,,,54,,,,,,,,,,,,,,270.5300006240577,,response,,,100,,,,,,Space,keypress(Space),,,,,-- --- ---- --- ------ ----- ------- ---- -- --- ------- --<br>------- ---------- ------ -- ----- -- ----- -- ---- ------<br>--- ----- --- --- ------ -------- ----- --- ------ ----- --<br>----- bonds ---------- --- --- ------ ------ ---- -- ------<br>------- --- ------ ----- --- ---- ------- -- ---- --- --<br>------- ------,110779.62999977171,110778.58000062406,110491.381,110500.07500126958,110508.05,110791.45,,34,bonds
screen,html.Screen,0_2_1_1_35,2021-10-22T11:01:51.437Z,,,,,,,,,,,,,,,,54,,,,,,,,,,,,,,275.23000109494023,,response,,,100,,,,,,Space,keypress(Space),,,,,"-- --- ---- --- ------ ----- ------- ---- -- --- ------- --<br>------- ---------- ------ -- ----- -- ----- -- ---- ------<br>--- ----- --- --- ------ -------- ----- --- ------ ----- --<br>----- ----- plummeted, --- --- ------ ------ ---- -- ------<br>------- --- ------ ----- --- ---- ------- -- ---- --- --<br>------- ------",111067.83000007272,111066.68000109494,110774.781,110779.9650002271,110791.45,111074.991,,35,"plummeted,"
screen,html.Screen,0_2_1_1_36,2021-10-22T11:01:51.749Z,,,,,,,,,,,,,,,,54,,,,,,,,,,,,,,303.5639998283441,,response,,,100,,,,,,Space,keypress(Space),,,,,-- --- ---- --- ------ ----- ------- ---- -- --- ------- --<br>------- ---------- ------ -- ----- -- ----- -- ---- ------<br>--- ----- --- --- ------ -------- ----- --- ------ ----- --<br>----- ----- ---------- and --- ------ ------ ---- -- ------<br>------- --- ------ ----- --- ---- ------- -- ---- --- --<br>------- ------,111379.60500083864,111378.55499982834,111058.319,111068.16000118852,111074.991,111391.67,,36,and
screen,html.Screen,0_2_1_1_37,2021-10-22T11:01:51.997Z,,,,,,,,,,,,,,,,54,,,,,,,,,,,,,,234.83000117719348,,response,,,100,,,,,,Space,keypress(Space),,,,,-- --- ---- --- ------ ----- ------- ---- -- --- ------- --<br>------- ---------- ------ -- ----- -- ----- -- ---- ------<br>--- ----- --- --- ------ -------- ----- --- ------ ----- --<br>----- ----- ---------- --- the ------ ------ ---- -- ------<br>------- --- ------ ----- --- ---- ------- -- ---- --- --<br>------- ------,111627.66500003636,111626.50000117719,111375,111379.93500009179,111391.67,111641.769,,37,the
screen,html.Screen,0_2_1_1_38,2021-10-22T11:01:52.261Z,,,,,,,,,,,,,,,,54,,,,,,,,,,,,,,248.81599969542003,,response,,,100,,,,,,Space,keypress(Space),,,,,-- --- ---- --- ------ ----- ------- ---- -- --- ------- --<br>------- ---------- ------ -- ----- -- ----- -- ---- ------<br>--- ----- --- --- ------ -------- ----- --- ------ ----- --<br>----- ----- ---------- --- --- market ------ ---- -- ------<br>------- --- ------ ----- --- ---- ------- -- ---- --- --<br>------- ------,111891.64500124753,111890.58499969542,111625.098,111628.00000049174,111641.769,111908.468,,38,market
screen,html.Screen,0_2_1_1_39,2021-10-22T11:01:52.502Z,,,,,,,,,,,,,,,,54,,,,,,,,,,,,,,222.10700123978313,,response,,,100,,,,,,Space,keypress(Space),,,,,-- --- ---- --- ------ ----- ------- ---- -- --- ------- --<br>------- ---------- ------ -- ----- -- ----- -- ---- ------<br>--- ----- --- --- ------ -------- ----- --- ------ ----- --<br>----- ----- ---------- --- --- ------ became ---- -- ------<br>------- --- ------ ----- --- ---- ------- -- ---- --- --<br>------- ------,112131.985001266,112130.57500123978,111891.798,111892.04000122845,111908.468,112141.857,,39,became
screen,html.Screen,0_2_1_1_40,2021-10-22T11:01:52.781Z,,,,,,,,,,,,,,,,54,,,,,,,,,,,,,,268.69300014602777,,response,,,100,,,,,,Space,keypress(Space),,,,,-- --- ---- --- ------ ----- ------- ---- -- --- ------- --<br>------- ---------- ------ -- ----- -- ----- -- ---- ------<br>--- ----- --- --- ------ -------- ----- --- ------ ----- --<br>----- ----- ---------- --- --- ------ ------ wary -- ------<br>------- --- ------ ----- --- ---- ------- -- ---- --- --<br>------- ------,112411.58500127494,112410.55000014603,112125.187,112132.30000063777,112141.857,112425.125,,40,wary
screen,html.Screen,0_2_1_1_41,2021-10-22T11:01:53.085Z,,,,,,,,,,,,,,,,54,,,,,,,,,,,,,,289.40000112354755,,response,,,100,,,,,,Space,keypress(Space),,,,,-- --- ---- --- ------ ----- ------- ---- -- --- ------- --<br>------- ---------- ------ -- ----- -- ----- -- ---- ------<br>--- ----- --- --- ------ -------- ----- --- ------ ----- --<br>----- ----- ---------- --- --- ------ ------ ---- of ------<br>------- --- ------ ----- --- ---- ------- -- ---- --- --<br>------- ------,112715.58000147343,112714.52500112355,112408.458,112411.90499998629,112425.125,112725.471,,41,of
screen,html.Screen,0_2_1_1_42,2021-10-22T11:01:53.341Z,,,,,,,,,,,,,,,,54,,,,,,,,,,,,,,244.97399963521457,,response,,,100,,,,,,Space,keypress(Space),,,,,-- --- ---- --- ------ ----- ------- ---- -- --- ------- --<br>------- ---------- ------ -- ----- -- ----- -- ---- ------<br>--- ----- --- --- ------ -------- ----- --- ------ ----- --<br>----- ----- ---------- --- --- ------ ------ ---- -- French<br>------- --- ------ ----- --- ---- ------- -- ---- --- --<br>------- ------,112971.52000106871,112970.44499963522,112708.797,112715.8950008452,112725.471,112991.933,,42,French
screen,html.Screen,0_2_1_1_43,2021-10-22T11:01:53.645Z,,,,,,,,,,,,,,,,54,,,,,,,,,,,,,,282.562000019665,,response,,,100,,,,,,Space,keypress(Space),,,,,-- --- ---- --- ------ ----- ------- ---- -- --- ------- --<br>------- ---------- ------ -- ----- -- ----- -- ---- ------<br>--- ----- --- --- ------ -------- ----- --- ------ ----- --<br>----- ----- ---------- --- --- ------ ------ ---- -- ------<br>credit. --- ------ ----- --- ---- ------- -- ---- --- --<br>------- ------,113275.70500038564,113274.49500001967,112958.599,112971.83500044048,112991.933,113292.239,,43,credit.
screen,html.Screen,0_2_1_1_44,2021-10-22T11:01:53.973Z,,,,,,,,,,,,,,,,54,,,,,,,,,,,,,,310.2160013244138,,response,,,100,,,,,,Space,keypress(Space),,,,,-- --- ---- --- ------ ----- ------- ---- -- --- ------- --<br>------- ---------- ------ -- ----- -- ----- -- ---- ------<br>--- ----- --- --- ------ -------- ----- --- ------ ----- --<br>----- ----- ---------- --- --- ------ ------ ---- -- ------<br>------- The ------ ----- --- ---- ------- -- ---- --- --<br>------- ------,113603.50999981165,113602.45500132442,113275.566,113276.02500095963,113292.239,113625.556,,44,The
screen,html.Screen,0_2_1_1_45,2021-10-22T11:01:54.285Z,,,,,,,,,,,,,,,,54,,,,,,,,,,,,,,288.8990003111394,,response,,,100,,,,,,Space,keypress(Space),,,,,-- --- ---- --- ------ ----- ------- ---- -- --- ------- --<br>------- ---------- ------ -- ----- -- ----- -- ---- ------<br>--- ----- --- --- ------ -------- ----- --- ------ ----- --<br>----- ----- ---------- --- --- ------ ------ ---- -- ------<br>------- --- French ----- --- ---- ------- -- ---- --- --<br>------- ------,113915.50000011921,113914.45500031114,113592.216,113603.84500026703,113625.556,113925.686,,45,French
screen,html.Screen,0_2_1_1_46,2021-10-22T11:01:54.557Z,,,,,,,,,,,,,,,,54,,,,,,,,,,,,,,260.71900120818464,,response,,,100,,,,,,Space,keypress(Space),,,,,-- --- ---- --- ------ ----- ------- ---- -- --- ------- --<br>------- ---------- ------ -- ----- -- ----- -- ---- ------<br>--- ----- --- --- ------ -------- ----- --- ------ ----- --<br>----- ----- ---------- --- --- ------ ------ ---- -- ------<br>------- --- ------ state --- ---- ------- -- ---- --- --<br>------- ------,114187.58499994874,114186.40500120819,113909.015,113915.83000123501,113925.686,114209.045,,46,state
screen,html.Screen,0_2_1_1_47,2021-10-22T11:01:54.845Z,,,,,,,,,,,,,,,,54,,,,,,,,,,,,,,265.3700005280989,,response,,,100,,,,,,Space,keypress(Space),,,,,-- --- ---- --- ------ ----- ------- ---- -- --- ------- --<br>------- ---------- ------ -- ----- -- ----- -- ---- ------<br>--- ----- --- --- ------ -------- ----- --- ------ ----- --<br>----- ----- ---------- --- --- ------ ------ ---- -- ------<br>------- --- ------ ----- was ---- ------- -- ---- --- --<br>------- ------,114475.44999979436,114474.4150005281,114175.705,114187.91500106454,114209.045,114492.36,,47,was
screen,html.Screen,0_2_1_1_48,2021-10-22T11:01:55.125Z,,,,,,,,,,,,,,,,54,,,,,,,,,,,,,,262.07500094115676,,response,,,100,,,,,,Space,keypress(Space),,,,,-- --- ---- --- ------ ----- ------- ---- -- --- ------- --<br>------- ---------- ------ -- ----- -- ----- -- ---- ------<br>--- ----- --- --- ------ -------- ----- --- ------ ----- --<br>----- ----- ---------- --- --- ------ ------ ---- -- ------<br>------- --- ------ ----- --- left ------- -- ---- --- --<br>------- ------,114755.48500008881,114754.43500094116,114475.692,114475.84000043571,114492.36,114775.926,,48,left
screen,html.Screen,0_2_1_1_49,2021-10-22T11:01:55.461Z,,,,,,,,,,,,,,,,54,,,,,,,,,,,,,,314.4990014573268,,response,,,100,,,,,,Space,keypress(Space),,,,,-- --- ---- --- ------ ----- ------- ---- -- --- ------- --<br>------- ---------- ------ -- ----- -- ----- -- ---- ------<br>--- ----- --- --- ------ -------- ----- --- ------ ----- --<br>----- ----- ---------- --- --- ------ ------ ---- -- ------<br>------- --- ------ ----- --- ---- without -- ---- --- --<br>------- ------,115091.58500097692,115090.42500145733,114742.582,114755.81500120461,114775.926,115109.255,,49,without
screen,html.Screen,0_2_1_1_50,2021-10-22T11:01:55.789Z,,,,,,,,,,,,,,,,54,,,,,,,,,,,,,,309.1550013226224,,response,,,100,,,,,,Space,keypress(Space),,,,,-- --- ---- --- ------ ----- ------- ---- -- --- ------- --<br>------- ---------- ------ -- ----- -- ----- -- ---- ------<br>--- ----- --- --- ------ -------- ----- --- ------ ----- --<br>----- ----- ---------- --- --- ------ ------ ---- -- ------<br>------- --- ------ ----- --- ---- ------- an ---- --- --<br>------- ------,115419.44999992847,115418.41000132263,115092.585,115091.9100008905,115109.255,115426.012,,50,an
screen,html.Screen,0_2_1_1_51,2021-10-22T11:01:56.093Z,,,,,,,,,,,,,,,,54,,,,,,,,,,,,,,296.3779997770762,,response,,,100,,,,,,Space,keypress(Space),,,,,-- --- ---- --- ------ ----- ------- ---- -- --- ------- --<br>------- ---------- ------ -- ----- -- ----- -- ---- ------<br>--- ----- --- --- ------ -------- ----- --- ------ ----- --<br>----- ----- ---------- --- --- ------ ------ ---- -- ------<br>------- --- ------ ----- --- ---- ------- -- easy --- --<br>------- ------,115723.44000078738,115722.38999977708,115409.342,115419.75999996066,115426.012,115742.646,,51,easy
screen,html.Screen,0_2_1_1_52,2021-10-22T11:01:56.357Z,,,,,,,,,,,,,,,,54,,,,,,,,,,,,,,243.72400098825165,,response,,,100,,,,,,Space,keypress(Space),,,,,-- --- ---- --- ------ ----- ------- ---- -- --- ------- --<br>------- ---------- ------ -- ----- -- ----- -- ---- ------<br>--- ----- --- --- ------ -------- ----- --- ------ ----- --<br>----- ----- ---------- --- --- ------ ------ ---- -- ------<br>------- --- ------ ----- --- ---- ------- -- ---- way --<br>------- ------,115987.40500025451,115986.37000098825,115709.31,115723.75500015914,115742.646,116009.552,,52,way
screen,html.Screen,0_2_1_1_53,2021-10-22T11:01:56.741Z,,,,,,,,,,,,,,,,54,,,,,,,,,,,,,,360.803000719432,,response,,,100,,,,,,Space,keypress(Space),,,,,-- --- ---- --- ------ ----- ------- ---- -- --- ------- --<br>------- ---------- ------ -- ----- -- ----- -- ---- ------<br>--- ----- --- --- ------ -------- ----- --- ------ ----- --<br>----- ----- ---------- --- --- ------ ------ ---- -- ------<br>------- --- ------ ----- --- ---- ------- -- ---- --- of<br>------- ------,116371.4000005275,116370.35500071943,115976.208,115987.7250008285,116009.552,116392.914,,53,of
screen,html.Screen,0_2_1_1_54,2021-10-22T11:01:57.077Z,,,,,,,,,,,,,,,,54,,,,,,,,,,,,,,313.4160013542132,,response,,,100,,,,,,Space,keypress(Space),,,,,-- --- ---- --- ------ ----- ------- ---- -- --- ------- --<br>------- ---------- ------ -- ----- -- ----- -- ---- ------<br>--- ----- --- --- ------ -------- ----- --- ------ ----- --<br>----- ----- ---------- --- --- ------ ------ ---- -- ------<br>------- --- ------ ----- --- ---- ------- -- ---- --- --<br>raising ------,116707.36999996006,116706.33000135422,116359.574,116371.71000055969,116392.914,116726.335,,54,raising
screen,html.Screen,0_2_1_1_55,2021-10-22T11:01:57.669Z,,,,,,,,,,,,,,,,54,,,,,,,,,,,,,,571.9600005680259,,response,,,100,,,,,,Space,keypress(Space),,,,,-- --- ---- --- ------ ----- ------- ---- -- --- ------- --<br>------- ---------- ------ -- ----- -- ----- -- ---- ------<br>--- ----- --- --- ------ -------- ----- --- ------ ----- --<br>----- ----- ---------- --- --- ------ ------ ---- -- ------<br>------- --- ------ ----- --- ---- ------- -- ---- --- --<br>------- money.,117299.33500103652,117298.29500056803,116692.995,116707.69000053406,116726.335,117326.474,,55,money.
Item 100,flow.Loop,0_2_1_1,2021-10-22T11:01:57.669Z,,,,,,,,,,,,,,,,,,,,,,,,,,,,,,18276.48800056803,,completion,,,,C,,,,,,,,,,silence,,117299.91500079632,117298.29500056803,98988.467,99002.46999971569,99021.807,117326.474,,,
Question 1,html.Screen,0_2_1_2,2021-10-22T11:02:00.947Z,,,,,,,,,,,,,,,,,,,,,,,,,,,true,TRUE,,3245.2410010168533,,response,,,100,C,,,,,TRUE,click #choice-1,,,,silence,,120573.33000004292,120571.71500101686,117293.134,117304.77000027895,117326.474,120593.932,,,
Question 2,html.Screen,0_2_1_3,2021-10-22T11:02:04.160Z,,,,,,,,,,,,,,,,,,,,,,,,,,,true,FALSE,,3190.4680011682503,,response,,,100,C,,,,,FALSE,click #choice-2,,,,silence,,123785.95000132918,123784.40000116825,120560.59,120573.65499995649,120593.932,123811.441,,,
Item 100,flow.Sequence,0_2_1,2021-10-22T11:02:04.160Z,,,,,,,,,,,,,,,,,,,,,,,,,,,,,,34781.62700116825,,completion,,,,,,,,,,,,,,,,123786.44500114024,123784.40000116825,88969.433,88971.18000127375,89002.773,123811.441,,,
End of Practice,html.Page,0_2_2,2021-10-22T11:02:07.308Z,,,,,,,,,,,,,,,,,,,,,,,,,,,,,,3121.943999632829,,form submission,,,,,,,,,,,,,,,,126933.98500047624,126933.38499963284,123778.101,123786.70500032604,123811.441,126945.462,,,
Practice,flow.Sequence,0_2,2021-10-22T11:02:07.308Z,,,,,,,,,,,,,,,,,,,,,,,,,,,,,,81508.19599963284,,completion,,,,,,,,,,,,,,,,126934.4900008291,126933.38499963284,45391.851,45399.670001119375,45425.189,126945.462,,,
Trap_instruction,html.Page,0_3_0,2021-10-22T11:02:11.210Z,,,,,,,,,,,,,,,,,,,,,,,,,,,,,,3890.6179998044972,,form submission,,,,,,,,,,,,,,,,130836.24000102282,130836.0799998045,126928.796,126934.84500050545,126945.462,130946.353,,,
trap_trial,html.Screen,0_3_1,2021-10-22T11:02:13.900Z,,,,,,,,,,,,,,,,,,,,,,,,,,,true,1,,2579.3120000810595,,response,,,,,,,,,1,click #choice-1,,,,,,133526.1899996549,133525.66500008106,130846.339,130836.31999976933,130946.353,133540.039,,,
end of trap trial,html.Page,0_3_2,2021-10-22T11:02:15.734Z,,,,,,,,,,,,,,,,,,,,,,,,,,,,,,1820.0360006735427,,form submission,,,,,,,,,,,,,,,,135360.60000024736,135360.07500067353,133523.416,133526.28000080585,133540.039,135381.007,,,
Trap 1,flow.Sequence,0_3,2021-10-22T11:02:15.735Z,,,,,,,,,,,,,,,,,,,,,,,,,,,,,,8414.613000673533,,completion,,,,,,,,,,,,,,,,135361.06999963522,135360.07500067353,126928.796,126934.74000133574,126945.462,135381.007,,,
Standby,html.Page,0_4_0,2021-10-22T11:02:23.741Z,,,,,,,,,,,,,,,,,,,,,,,,,,,,,,8001.588999999978,,timeout,,,,,,,,,,,,,,,,143367.49000102282,143365.926,135347.665,135361.41000129282,135381.007,143382.596,,,
Holding screen,html.Screen,0_4_1_0_0,2021-10-22T11:02:30.744Z,,,,,,,,,,,,,,,,,,,,,,,,,,,,,,7002.161000000022,,timeout,,,,,,,,,,,,,,,,150370.1150007546,150368.086,143365.926,143367.88500100374,143382.596,150384.757,,,
screen,html.Screen,0_4_1_0_1_0,2021-10-22T11:02:31.768Z,,,,,,,,,,,,,,,,15,,,,,,,,,,,,,,1007.9580014787789,,response,,,7,C,,,,,Space,keypress(Space),,,,instrumental,Greg --------- ---------- - --- ------- -- --- ------------<br>----- -- -------- ------- ---- ------ - -------- ---- -----<br>--- ------- ---- -- --- -------- --- - ----- ------ ---- --<br>-------- --- -------- -------- --- -------- ---- -- ----- -<br>-------- ---- --- ---------- --------- -- ------- ------ -<br>--------- ----- -----,151394.03500035405,151392.7150014788,150368.086,150370.76500058174,150384.757,151418.069,,0,Greg
screen,html.Screen,0_4_1_0_1_1,2021-10-22T11:02:32.207Z,,,,,,,,,,,,,,,,15,,,,,,,,,,,,,,414.04100077427574,,response,,,7,C,,,,,Space,keypress(Space),,,,instrumental,"---- Anderson, ---------- - --- ------- -- --- ------------<br>----- -- -------- ------- ---- ------ - -------- ---- -----<br>--- ------- ---- -- --- -------- --- - ----- ------ ---- --<br>-------- --- -------- -------- --- -------- ---- -- ----- -<br>-------- ---- --- ---------- --------- -- ------- ------ -<br>--------- ----- -----",151833.2100007683,151832.11000077426,151384.731,151394.38000135124,151418.069,151851.727,,1,"Anderson,"
screen,html.Screen,0_4_1_0_1_2,2021-10-22T11:02:32.639Z,,,,,,,,,,,,,,,,15,,,,,,,,,,,,,,412.2830009739264,,response,,,7,C,,,,,Space,keypress(Space),,,,instrumental,---- --------- considered - --- ------- -- --- ------------<br>----- -- -------- ------- ---- ------ - -------- ---- -----<br>--- ------- ---- -- --- -------- --- - ----- ------ ---- --<br>-------- --- -------- -------- --- -------- ---- -- ----- -<br>-------- ---- --- ---------- --------- -- ------- ------ -<br>--------- ----- -----,152265.6100001186,152264.01000097394,151818.385,151833.5150014609,151851.727,152285.11,,2,considered
screen,html.Screen,0_4_1_0_1_3,2021-10-22T11:02:33.095Z,,,,,,,,,,,,,,,,15,,,,,,,,,,,,,,434.9099998915335,,response,,,7,C,,,,,Space,keypress(Space),,,,instrumental,---- --------- ---------- a --- ------- -- --- ------------<br>----- -- -------- ------- ---- ------ - -------- ---- -----<br>--- ------- ---- -- --- -------- --- - ----- ------ ---- --<br>-------- --- -------- -------- --- -------- ---- -- ----- -<br>-------- ---- --- ---------- --------- -- ------- ------ -<br>--------- ----- -----,152721.12500108778,152720.01999989152,152251.77,152265.9550011158,152285.11,152735.426,,3,a
screen,html.Screen,0_4_1_0_1_4,2021-10-22T11:02:33.519Z,,,,,,,,,,,,,,,,15,,,,,,,,,,,,,,408.4589996775321,,response,,,7,C,,,,,Space,keypress(Space),,,,instrumental,---- --------- ---------- - key ------- -- --- ------------<br>----- -- -------- ------- ---- ------ - -------- ---- -----<br>--- ------- ---- -- --- -------- --- - ----- ------ ---- --<br>-------- --- -------- -------- --- -------- ---- -- ----- -<br>-------- ---- --- ---------- --------- -- ------- ------ -<br>--------- ----- -----,153145.05000039935,153143.88499967754,152718.753,152721.42000123858,152735.426,153151.918,,4,key
screen,html.Screen,0_4_1_0_1_5,2021-10-22T11:02:33.895Z,,,,,,,,,,,,,,,,15,,,,,,,,,,,,,,368.0570009924122,,response,,,7,C,,,,,Space,keypress(Space),,,,instrumental,---- --------- ---------- - --- witness -- --- ------------<br>----- -- -------- ------- ---- ------ - -------- ---- -----<br>--- ------- ---- -- --- -------- --- - ----- ------ ---- --<br>-------- --- -------- -------- --- -------- ---- -- ----- -<br>-------- ---- --- ---------- --------- -- ------- ------ -<br>--------- ----- -----,153521.05499990284,153519.97500099242,153135.25,153145.34500055015,153151.918,153535.446,,5,witness
screen,html.Screen,0_4_1_0_1_6,2021-10-22T11:02:34.279Z,,,,,,,,,,,,,,,,15,,,,,,,,,,,,,,368.3740005888976,,response,,,7,C,,,,,Space,keypress(Space),,,,instrumental,---- --------- ---------- - --- ------- by --- ------------<br>----- -- -------- ------- ---- ------ - -------- ---- -----<br>--- ------- ---- -- --- -------- --- - ----- ------ ---- --<br>-------- --- -------- -------- --- -------- ---- -- ----- -<br>-------- ---- --- ---------- --------- -- ------- ------ -<br>--------- ----- -----,153904.8600010574,153903.8200005889,153518.776,153521.35500125587,153535.446,153919.008,,6,by
screen,html.Screen,0_4_1_0_1_7,2021-10-22T11:02:34.655Z,,,,,,,,,,,,,,,,15,,,,,,,,,,,,,,360.9120005829318,,response,,,7,C,,,,,Space,keypress(Space),,,,instrumental,---- --------- ---------- - --- ------- -- the ------------<br>----- -- -------- ------- ---- ------ - -------- ---- -----<br>--- ------- ---- -- --- -------- --- - ----- ------ ---- --<br>-------- --- -------- -------- --- -------- ---- -- ----- -<br>-------- ---- --- ---------- --------- -- ------- ------ -<br>--------- ----- -----,154281.0050006956,154279.92000058293,153902.336,153905.16499988735,153919.008,154302.34,,7,the
screen,html.Screen,0_4_1_0_1_8,2021-10-22T11:02:35.031Z,,,,,,,,,,,,,,,,15,,,,,,,,,,,,,,353.5550003236567,,response,,,7,C,,,,,Space,keypress(Space),,,,instrumental,"---- --------- ---------- - --- ------- -- --- prosecution,<br>----- -- -------- ------- ---- ------ - -------- ---- -----<br>--- ------- ---- -- --- -------- --- - ----- ------ ---- --<br>-------- --- -------- -------- --- -------- ---- -- ----- -<br>-------- ---- --- ---------- --------- -- ------- ------ -<br>--------- ----- -----",154656.94000013173,154655.89500032365,154269,154281.30500018597,154302.34,154669.107,,8,"prosecution,"
screen,html.Screen,0_4_1_0_1_9,2021-10-22T11:02:35.463Z,,,,,,,,,,,,,,,,15,,,,,,,,,,,,,,418.7680011324992,,response,,,7,C,,,,,Space,keypress(Space),,,,instrumental,---- --------- ---------- - --- ------- -- --- ------------<br>vowed -- -------- ------- ---- ------ - -------- ---- -----<br>--- ------- ---- -- --- -------- --- - ----- ------ ---- --<br>-------- --- -------- -------- --- -------- ---- -- ----- -<br>-------- ---- --- ---------- --------- -- ------- ------ -<br>--------- ----- -----,155089.06500041485,155087.8750011325,154652.437,154657.24500082433,154669.107,155102.534,,9,vowed
screen,html.Screen,0_4_1_0_1_10,2021-10-22T11:02:35.799Z,,,,,,,,,,,,,,,,15,,,,,,,,,,,,,,321.1909996512986,,response,,,7,C,,,,,Space,keypress(Space),,,,instrumental,---- --------- ---------- - --- ------- -- --- ------------<br>----- he -------- ------- ---- ------ - -------- ---- -----<br>--- ------- ---- -- --- -------- --- - ----- ------ ---- --<br>-------- --- -------- -------- --- -------- ---- -- ----- -<br>-------- ---- --- ---------- --------- -- ------- ------ -<br>--------- ----- -----,155424.80999976397,155423.7249996513,155085.864,155089.37500044703,155102.534,155435.874,,10,he
screen,html.Screen,0_4_1_0_1_11,2021-10-22T11:02:36.127Z,,,,,,,,,,,,,,,,15,,,,,,,,,,,,,,315.96099976991536,,response,,,7,C,,,,,Space,keypress(Space),,,,instrumental,---- --------- ---------- - --- ------- -- --- ------------<br>----- -- wouldn't ------- ---- ------ - -------- ---- -----<br>--- ------- ---- -- --- -------- --- - ----- ------ ---- --<br>-------- --- -------- -------- --- -------- ---- -- ----- -<br>-------- ---- --- ---------- --------- -- ------- ------ -<br>--------- ----- -----,155752.97000072896,155751.83499976993,155419.205,155425.11500045657,155435.874,155769.424,,11,wouldn't
screen,html.Screen,0_4_1_0_1_12,2021-10-22T11:02:36.535Z,,,,,,,,,,,,,,,,15,,,,,,,,,,,,,,390.38600103056524,,response,,,7,C,,,,,Space,keypress(Space),,,,instrumental,---- --------- ---------- - --- ------- -- --- ------------<br>----- -- -------- testify ---- ------ - -------- ---- -----<br>--- ------- ---- -- --- -------- --- - ----- ------ ---- --<br>-------- --- -------- -------- --- -------- ---- -- ----- -<br>-------- ---- --- ---------- --------- -- ------- ------ -<br>--------- ----- -----,156160.95000132918,156159.81000103056,155752.753,155753.27000021935,155769.424,156169.364,,12,testify
screen,html.Screen,0_4_1_0_1_13,2021-10-22T11:02:36.887Z,,,,,,,,,,,,,,,,15,,,,,,,,,,,,,,342.4360004440532,,response,,,7,C,,,,,Space,keypress(Space),,,,instrumental,---- --------- ---------- - --- ------- -- --- ------------<br>----- -- -------- ------- when ------ - -------- ---- -----<br>--- ------- ---- -- --- -------- --- - ----- ------ ---- --<br>-------- --- -------- -------- --- -------- ---- -- ----- -<br>-------- ---- --- ---------- --------- -- ------- ------ -<br>--------- ----- -----,156512.88000121713,156511.80000044405,156152.696,156161.25500015914,156169.364,156519.639,,13,when
screen,html.Screen,0_4_1_0_1_14,2021-10-22T11:02:37.271Z,,,,,,,,,,,,,,,,15,,,,,,,,,,,,,,376.1260009542748,,response,,,7,C,,,,,Space,keypress(Space),,,,instrumental,---- --------- ---------- - --- ------- -- --- ------------<br>----- -- -------- ------- ---- served - -------- ---- -----<br>--- ------- ---- -- --- -------- --- - ----- ------ ---- --<br>-------- --- -------- -------- --- -------- ---- -- ----- -<br>-------- ---- --- ---------- --------- -- ------- ------ -<br>--------- ----- -----,156896.80500142276,156895.76500095427,156502.967,156513.1850000471,156519.639,156902.873,,14,served
screen,html.Screen,0_4_1_0_1_15,2021-10-22T11:02:37.679Z,,,,,,,,,,,,,,,,15,,,,,,,,,,,,,,400.70700099659734,,response,,,7,C,,,,,Space,keypress(Space),,,,instrumental,---- --------- ---------- - --- ------- -- --- ------------<br>----- -- -------- ------- ---- ------ a -------- ---- -----<br>--- ------- ---- -- --- -------- --- - ----- ------ ---- --<br>-------- --- -------- -------- --- -------- ---- -- ----- -<br>-------- ---- --- ---------- --------- -- ------- ------ -<br>--------- ----- -----,157304.6899996698,157303.5800009966,156886.205,156897.11000025272,156902.873,157319.757,,15,a
screen,html.Screen,0_4_1_0_1_16,2021-10-22T11:02:38.038Z,,,,,,,,,,,,,,,,15,,,,,,,,,,,,,,343.81800106095034,,response,,,7,C,,,,,Space,keypress(Space),,,,instrumental,---- --------- ---------- - --- ------- -- --- ------------<br>----- -- -------- ------- ---- ------ - subpoena ---- -----<br>--- ------- ---- -- --- -------- --- - ----- ------ ---- --<br>-------- --- -------- -------- --- -------- ---- -- ----- -<br>-------- ---- --- ---------- --------- -- ------- ------ -<br>--------- ----- -----,157664.6149996668,157663.57500106096,157303.086,157304.9950003624,157319.757,157686.611,,16,subpoena
screen,html.Screen,0_4_1_0_1_17,2021-10-22T11:02:38.391Z,,,,,,,,,,,,,,,,15,,,,,,,,,,,,,,329.0840000673488,,response,,,7,C,,,,,Space,keypress(Space),,,,instrumental,---- --------- ---------- - --- ------- -- --- ------------<br>----- -- -------- ------- ---- ------ - -------- last -----<br>--- ------- ---- -- --- -------- --- - ----- ------ ---- --<br>-------- --- -------- -------- --- -------- ---- -- ----- -<br>-------- ---- --- ---------- --------- -- ------- ------ -<br>--------- ----- -----,158016.75000041723,158015.69500006735,157653.267,157664.91500101984,157686.611,158036.65,,17,last
screen,html.Screen,0_4_1_0_1_18,2021-10-22T11:02:38.758Z,,,,,,,,,,,,,,,,15,,,,,,,,,,,,,,346.89000076652155,,response,,,7,C,,,,,Space,keypress(Space),,,,instrumental,---- --------- ---------- - --- ------- -- --- ------------<br>----- -- -------- ------- ---- ------ - -------- ---- week.<br>--- ------- ---- -- --- -------- --- - ----- ------ ---- --<br>-------- --- -------- -------- --- -------- ---- -- ----- -<br>-------- ---- --- ---------- --------- -- ------- ------ -<br>--------- ----- -----,158384.60000045598,158383.54000076652,158003.308,158017.04500056803,158036.65,158403.228,,18,week.
screen,html.Screen,0_4_1_0_1_19,2021-10-22T11:02:39.158Z,,,,,,,,,,,,,,,,15,,,,,,,,,,,,,,380.287000715849,,response,,,7,C,,,,,Space,keypress(Space),,,,instrumental,---- --------- ---------- - --- ------- -- --- ------------<br>----- -- -------- ------- ---- ------ - -------- ---- -----<br>His ------- ---- -- --- -------- --- - ----- ------ ---- --<br>-------- --- -------- -------- --- -------- ---- -- ----- -<br>-------- ---- --- ---------- --------- -- ------- ------ -<br>--------- ----- -----,158784.54000130296,158783.51500071585,158369.892,158384.89999994636,158403.228,158803.422,,19,His
screen,html.Screen,0_4_1_0_1_20,2021-10-22T11:02:39.503Z,,,,,,,,,,,,,,,,15,,,,,,,,,,,,,,324.19300105262664,,response,,,7,C,,,,,Space,keypress(Space),,,,instrumental,---- --------- ---------- - --- ------- -- --- ------------<br>----- -- -------- ------- ---- ------ - -------- ---- -----<br>--- lawyers ---- -- --- -------- --- - ----- ------ ---- --<br>-------- --- -------- -------- --- -------- ---- -- ----- -<br>-------- ---- --- ---------- --------- -- ------- ------ -<br>--------- ----- -----,159128.77000123262,159127.61500105262,158770.082,158784.83500145376,158803.422,159136.976,,20,lawyers
screen,html.Screen,0_4_1_0_1_21,2021-10-22T11:02:39.855Z,,,,,,,,,,,,,,,,15,,,,,,,,,,,,,,342.6489996870805,,response,,,7,C,,,,,Space,keypress(Space),,,,instrumental,---- --------- ---------- - --- ------- -- --- ------------<br>----- -- -------- ------- ---- ------ - -------- ---- -----<br>--- ------- said -- --- -------- --- - ----- ------ ---- --<br>-------- --- -------- -------- --- -------- ---- -- ----- -<br>-------- ---- --- ---------- --------- -- ------- ------ -<br>--------- ----- -----,159480.68000003695,159479.62499968708,159120.304,159129.070000723,159136.976,159486.975,,21,said
screen,html.Screen,0_4_1_0_1_22,2021-10-22T11:02:40.214Z,,,,,,,,,,,,,,,,15,,,,,,,,,,,,,,352.6149999886693,,response,,,7,C,,,,,Space,keypress(Space),,,,instrumental,---- --------- ---------- - --- ------- -- --- ------------<br>----- -- -------- ------- ---- ------ - -------- ---- -----<br>--- ------- ---- he --- -------- --- - ----- ------ ---- --<br>-------- --- -------- -------- --- -------- ---- -- ----- -<br>-------- ---- --- ---------- --------- -- ------- ------ -<br>--------- ----- -----,159840.6250011176,159839.58999998868,159470.305,159480.97500018775,159486.975,159853.719,,22,he
screen,html.Screen,0_4_1_0_1_23,2021-10-22T11:02:40.558Z,,,,,,,,,,,,,,,,15,,,,,,,,,,,,,,329.7010005978227,,response,,,7,C,,,,,Space,keypress(Space),,,,instrumental,---- --------- ---------- - --- ------- -- --- ------------<br>----- -- -------- ------- ---- ------ - -------- ---- -----<br>--- ------- ---- -- was -------- --- - ----- ------ ---- --<br>-------- --- -------- -------- --- -------- ---- -- ----- -<br>-------- ---- --- ---------- --------- -- ------- ------ -<br>--------- ----- -----,160184.56000089645,160183.42000059783,159837.049,159840.92500060797,159853.719,160203.859,,23,was
screen,html.Screen,0_4_1_0_1_24,2021-10-22T11:02:40.870Z,,,,,,,,,,,,,,,,15,,,,,,,,,,,,,,291.6810004982981,,response,,,7,C,,,,,Space,keypress(Space),,,,instrumental,---- --------- ---------- - --- ------- -- --- ------------<br>----- -- -------- ------- ---- ------ - -------- ---- -----<br>--- ------- ---- -- --- prepared --- - ----- ------ ---- --<br>-------- --- -------- -------- --- -------- ---- -- ----- -<br>-------- ---- --- ---------- --------- -- ------- ------ -<br>--------- ----- -----,160496.61500006914,160495.5400004983,160170.517,160184.85500104725,160203.859,160503.796,,24,prepared
screen,html.Screen,0_4_1_0_1_25,2021-10-22T11:02:41.222Z,,,,,,,,,,,,,,,,15,,,,,,,,,,,,,,343.7090013512352,,response,,,7,C,,,,,Space,keypress(Space),,,,instrumental,---- --------- ---------- - --- ------- -- --- ------------<br>----- -- -------- ------- ---- ------ - -------- ---- -----<br>--- ------- ---- -- --- -------- for - ----- ------ ---- --<br>-------- --- -------- -------- --- -------- ---- -- ----- -<br>-------- ---- --- ---------- --------- -- ------- ------ -<br>--------- ----- -----,160848.54499995708,160847.50500135124,160487.128,160496.92000076175,160503.796,160870.669,,25,for
screen,html.Screen,0_4_1_0_1_26,2021-10-22T11:02:41.542Z,,,,,,,,,,,,,,,,15,,,,,,,,,,,,,,296.8260011074599,,response,,,7,C,,,,,Space,keypress(Space),,,,instrumental,---- --------- ---------- - --- ------- -- --- ------------<br>----- -- -------- ------- ---- ------ - -------- ---- -----<br>--- ------- ---- -- --- -------- --- a ----- ------ ---- --<br>-------- --- -------- -------- --- -------- ---- -- ----- -<br>-------- ---- --- ---------- --------- -- ------- ------ -<br>--------- ----- -----,161168.64500008523,161167.49500110745,160837.327,160848.8500006497,160870.669,161187.437,,26,a
screen,html.Screen,0_4_1_0_1_27,2021-10-22T11:02:41.895Z,,,,,,,,,,,,,,,,15,,,,,,,,,,,,,,332.513000569219,,response,,,7,C,,,,,Space,keypress(Space),,,,instrumental,---- --------- ---------- - --- ------- -- --- ------------<br>----- -- -------- ------- ---- ------ - -------- ---- -----<br>--- ------- ---- -- --- -------- --- - third ------ ---- --<br>-------- --- -------- -------- --- -------- ---- -- ----- -<br>-------- ---- --- ---------- --------- -- ------- ------ -<br>--------- ----- -----,161521.06500044465,161519.95000056922,161154.095,161168.93500089645,161187.437,161537.473,,27,third
screen,html.Screen,0_4_1_0_1_28,2021-10-22T11:02:42.230Z,,,,,,,,,,,,,,,,15,,,,,,,,,,,,,,317.9770006139297,,response,,,7,C,,,,,Space,keypress(Space),,,,instrumental,---- --------- ---------- - --- ------- -- --- ------------<br>----- -- -------- ------- ---- ------ - -------- ---- -----<br>--- ------- ---- -- --- -------- --- - ----- prison ---- --<br>-------- --- -------- -------- --- -------- ---- -- ----- -<br>-------- ---- --- ---------- --------- -- ------- ------ -<br>--------- ----- -----,161856.495000422,161855.45000061393,161520.803,161521.39000035822,161537.473,161870.929,,28,prison
screen,html.Screen,0_4_1_0_1_29,2021-10-22T11:02:42.582Z,,,,,,,,,,,,,,,,15,,,,,,,,,,,,,,336.49600014602765,,response,,,7,C,,,,,Space,keypress(Space),,,,instrumental,---- --------- ---------- - --- ------- -- --- ------------<br>----- -- -------- ------- ---- ------ - -------- ---- -----<br>--- ------- ---- -- --- -------- --- - ----- ------ stay --<br>-------- --- -------- -------- --- -------- ---- -- ----- -<br>-------- ---- --- ---------- --------- -- ------- ------ -<br>--------- ----- -----,162208.58000032604,162207.42500014603,161854.258,161856.7900005728,161870.929,162220.989,,29,stay
screen,html.Screen,0_4_1_0_1_30,2021-10-22T11:02:42.926Z,,,,,,,,,,,,,,,,15,,,,,,,,,,,,,,330.4210007712827,,response,,,7,C,,,,,Space,keypress(Space),,,,instrumental,---- --------- ---------- - --- ------- -- --- ------------<br>----- -- -------- ------- ---- ------ - -------- ---- -----<br>--- ------- ---- -- --- -------- --- - ----- ------ ---- to<br>-------- --- -------- -------- --- -------- ---- -- ----- -<br>-------- ---- --- ---------- --------- -- ------- ------ -<br>--------- ----- -----,162552.47000046074,162551.41000077128,162204.319,162208.88500101864,162220.989,162571.067,,30,to
screen,html.Screen,0_4_1_0_1_31,2021-10-22T11:02:43.302Z,,,,,,,,,,,,,,,,15,,,,,,,,,,,,,,356.31300117241335,,response,,,7,C,,,,,Space,keypress(Space),,,,instrumental,---- --------- ---------- - --- ------- -- --- ------------<br>----- -- -------- ------- ---- ------ - -------- ---- -----<br>--- ------- ---- -- --- -------- --- - ----- ------ ---- --<br>maintain --- -------- -------- --- -------- ---- -- ----- -<br>-------- ---- --- ---------- --------- -- ------- ------ -<br>--------- ----- -----,162928.41999977827,162927.38000117242,162537.727,162552.76500061154,162571.067,162937.821,,31,maintain
screen,html.Screen,0_4_1_0_1_32,2021-10-22T11:02:43.678Z,,,,,,,,,,,,,,,,15,,,,,,,,,,,,,,365.38400023663417,,response,,,7,C,,,,,Space,keypress(Space),,,,instrumental,---- --------- ---------- - --- ------- -- --- ------------<br>----- -- -------- ------- ---- ------ - -------- ---- -----<br>--- ------- ---- -- --- -------- --- - ----- ------ ---- --<br>-------- his -------- -------- --- -------- ---- -- ----- -<br>-------- ---- --- ---------- --------- -- ------- ------ -<br>--------- ----- -----,163304.2649999261,163303.20500023663,162921.151,162928.71499992907,162937.821,163321.291,,32,his
screen,html.Screen,0_4_1_0_1_33,2021-10-22T11:02:43.966Z,,,,,,,,,,,,,,,,15,,,,,,,,,,,,,,270.04899980986374,,response,,,7,C,,,,,Space,keypress(Space),,,,instrumental,---- --------- ---------- - --- ------- -- --- ------------<br>----- -- -------- ------- ---- ------ - -------- ---- -----<br>--- ------- ---- -- --- -------- --- - ----- ------ ---- --<br>-------- --- silence. -------- --- -------- ---- -- ----- -<br>-------- ---- --- ---------- --------- -- ------- ------ -<br>--------- ----- -----,163592.48000010848,163591.33999980986,163304.62,163304.61500026286,163321.291,163604.67,,33,silence.
screen,html.Screen,0_4_1_0_1_34,2021-10-22T11:02:44.326Z,,,,,,,,,,,,,,,,15,,,,,,,,,,,,,,346.6649998742214,,response,,,7,C,,,,,Space,keypress(Space),,,,instrumental,---- --------- ---------- - --- ------- -- --- ------------<br>----- -- -------- ------- ---- ------ - -------- ---- -----<br>--- ------- ---- -- --- -------- --- - ----- ------ ---- --<br>-------- --- -------- Anderson --- -------- ---- -- ----- -<br>-------- ---- --- ---------- --------- -- ------- ------ -<br>--------- ----- -----,163952.40000076592,163951.33499987423,163588,163592.7850008011,163604.67,163971.414,,34,Anderson
screen,html.Screen,0_4_1_0_1_35,2021-10-22T11:02:44.622Z,,,,,,,,,,,,,,,,15,,,,,,,,,,,,,,275.8710009799106,,response,,,7,C,,,,,Space,keypress(Space),,,,instrumental,---- --------- ---------- - --- ------- -- --- ------------<br>----- -- -------- ------- ---- ------ - -------- ---- -----<br>--- ------- ---- -- --- -------- --- - ----- ------ ---- --<br>-------- --- -------- -------- was -------- ---- -- ----- -<br>-------- ---- --- ---------- --------- -- ------- ------ -<br>--------- ----- -----,164248.42500127852,164247.2850009799,163938.074,163952.7000002563,163971.414,164254.701,,35,was
screen,html.Screen,0_4_1_0_1_36,2021-10-22T11:02:44.934Z,,,,,,,,,,,,,,,,15,,,,,,,,,,,,,,304.5640007456532,,response,,,7,C,,,,,Space,keypress(Space),,,,instrumental,---- --------- ---------- - --- ------- -- --- ------------<br>----- -- -------- ------- ---- ------ - -------- ---- -----<br>--- ------- ---- -- --- -------- --- - ----- ------ ---- --<br>-------- --- -------- -------- --- released ---- -- ----- -<br>-------- ---- --- ---------- --------- -- ------- ------ -<br>--------- ----- -----,164560.31000055373,164559.26500074565,164238.033,164248.73000010848,164254.701,164571.649,,36,released
screen,html.Screen,0_4_1_0_1_37,2021-10-22T11:02:45.326Z,,,,,,,,,,,,,,,,15,,,,,,,,,,,,,,379.606001127715,,response,,,7,C,,,,,Space,keypress(Space),,,,instrumental,---- --------- ---------- - --- ------- -- --- ------------<br>----- -- -------- ------- ---- ------ - -------- ---- -----<br>--- ------- ---- -- --- -------- --- - ----- ------ ---- --<br>-------- --- -------- -------- --- -------- July -- ----- -<br>-------- ---- --- ---------- --------- -- ------- ------ -<br>--------- ----- -----,164952.44500041008,164951.25500112772,164554.977,164560.6100000441,164571.649,164971.531,,37,July
screen,html.Screen,0_4_1_0_1_38,2021-10-22T11:02:45.934Z,,,,,,,,,,,,,,,,15,,,,,,,,,,,,,,587.6890011015057,,response,,,7,C,,,,,Space,keypress(Space),,,,instrumental,---- --------- ---------- - --- ------- -- --- ------------<br>----- -- -------- ------- ---- ------ - -------- ---- -----<br>--- ------- ---- -- --- -------- --- - ----- ------ ---- --<br>-------- --- -------- -------- --- -------- ---- 20 ----- -<br>-------- ---- --- ---------- --------- -- ------- ------ -<br>--------- ----- -----,165560.29000133276,165559.2200011015,164938.195,164952.74499990046,164971.531,165571.822,,38,20
screen,html.Screen,0_4_1_0_1_39,2021-10-22T11:02:46.462Z,,,,,,,,,,,,,,,,15,,,,,,,,,,,,,,515.3579997985507,,response,,,7,C,,,,,Space,keypress(Space),,,,instrumental,---- --------- ---------- - --- ------- -- --- ------------<br>----- -- -------- ------- ---- ------ - -------- ---- -----<br>--- ------- ---- -- --- -------- --- - ----- ------ ---- --<br>-------- --- -------- -------- --- -------- ---- -- after -<br>-------- ---- --- ---------- --------- -- ------- ------ -<br>--------- ----- -----,166088.22000026703,166087.17999979854,165555.151,165560.59000082314,165571.822,166105.385,,39,after
screen,html.Screen,0_4_1_0_1_40,2021-10-22T11:02:46.838Z,,,,,,,,,,,,,,,,15,,,,,,,,,,,,,,357.6450011485722,,response,,,7,C,,,,,Space,keypress(Space),,,,instrumental,---- --------- ---------- - --- ------- -- --- ------------<br>----- -- -------- ------- ---- ------ - -------- ---- -----<br>--- ------- ---- -- --- -------- --- - ----- ------ ---- --<br>-------- --- -------- -------- --- -------- ---- -- ----- a<br>-------- ---- --- ---------- --------- -- ------- ------ -<br>--------- ----- -----,166464.08000029624,166463.03000114858,166088.713,166088.5199997574,166105.385,166472.029,,40,a
screen,html.Screen,0_4_1_0_1_41,2021-10-22T11:02:47.238Z,,,,,,,,,,,,,,,,15,,,,,,,,,,,,,,390.9709998956823,,response,,,7,C,,,,,Space,keypress(Space),,,,instrumental,---- --------- ---------- - --- ------- -- --- ------------<br>----- -- -------- ------- ---- ------ - -------- ---- -----<br>--- ------- ---- -- --- -------- --- - ----- ------ ---- --<br>-------- --- -------- -------- --- -------- ---- -- ----- -<br>two-week ---- --- ---------- --------- -- ------- ------ -<br>--------- ----- -----,166864.05500024557,166862.9999998957,166455.359,166464.38500098884,166472.029,166872.055,,41,two-week
screen,html.Screen,0_4_1_0_1_42,2021-10-22T11:02:47.662Z,,,,,,,,,,,,,,,,15,,,,,,,,,,,,,,415.04999964655144,,response,,,7,C,,,,,Space,keypress(Space),,,,instrumental,---- --------- ---------- - --- ------- -- --- ------------<br>----- -- -------- ------- ---- ------ - -------- ---- -----<br>--- ------- ---- -- --- -------- --- - ----- ------ ---- --<br>-------- --- -------- -------- --- -------- ---- -- ----- -<br>-------- stay --- ---------- --------- -- ------- ------ -<br>--------- ----- -----,167288.25500048697,167287.10499964654,166855.386,166864.35499973595,166872.055,167305.66,,42,stay
screen,html.Screen,0_4_1_0_1_43,2021-10-22T11:02:47.990Z,,,,,,,,,,,,,,,,15,,,,,,,,,,,,,,309.4100002908672,,response,,,7,C,,,,,Space,keypress(Space),,,,instrumental,---- --------- ---------- - --- ------- -- --- ------------<br>----- -- -------- ------- ---- ------ - -------- ---- -----<br>--- ------- ---- -- --- -------- --- - ----- ------ ---- --<br>-------- --- -------- -------- --- -------- ---- -- ----- -<br>-------- ---- for ---------- --------- -- ------- ------ -<br>--------- ----- -----,167616.12000130117,167615.07000029087,167288.988,167288.5450012982,167305.66,167622.331,,43,for
screen,html.Screen,0_4_1_0_1_44,2021-10-22T11:02:48.358Z,,,,,,,,,,,,,,,,15,,,,,,,,,,,,,,360.58400099002756,,response,,,7,C,,,,,Space,keypress(Space),,,,instrumental,---- --------- ---------- - --- ------- -- --- ------------<br>----- -- -------- ------- ---- ------ - -------- ---- -----<br>--- ------- ---- -- --- -------- --- - ----- ------ ---- --<br>-------- --- -------- -------- --- -------- ---- -- ----- -<br>-------- ---- --- previously --------- -- ------- ------ -<br>--------- ----- -----,167983.9600007981,167982.91500099003,167605.661,167616.41500145197,167622.331,168005.638,,44,previously
screen,html.Screen,0_4_1_0_1_45,2021-10-22T11:02:48.726Z,,,,,,,,,,,,,,,,15,,,,,,,,,,,,,,345.41699997734395,,response,,,7,C,,,,,Space,keypress(Space),,,,instrumental,---- --------- ---------- - --- ------- -- --- ------------<br>----- -- -------- ------- ---- ------ - -------- ---- -----<br>--- ------- ---- -- --- -------- --- - ----- ------ ---- --<br>-------- --- -------- -------- --- -------- ---- -- ----- -<br>-------- ---- --- ---------- declining -- ------- ------ -<br>--------- ----- -----,168352.1149996668,168351.05499997735,167972.302,167984.2650014907,168005.638,168372.633,,45,declining
screen,html.Screen,0_4_1_0_1_46,2021-10-22T11:02:49.062Z,,,,,,,,,,,,,,,,15,,,,,,,,,,,,,,314.3820007307513,,response,,,7,C,,,,,Space,keypress(Space),,,,instrumental,---- --------- ---------- - --- ------- -- --- ------------<br>----- -- -------- ------- ---- ------ - -------- ---- -----<br>--- ------- ---- -- --- -------- --- - ----- ------ ---- --<br>-------- --- -------- -------- --- -------- ---- -- ----- -<br>-------- ---- --- ---------- --------- to ------- ------ -<br>--------- ----- -----,168688.04999999702,168687.01500073075,168339.287,168352.4099998176,168372.633,168705.807,,46,to
screen,html.Screen,0_4_1_0_1_47,2021-10-22T11:02:49.422Z,,,,,,,,,,,,,,,,15,,,,,,,,,,,,,,341.17300103235175,,response,,,7,C,,,,,Space,keypress(Space),,,,instrumental,---- --------- ---------- - --- ------- -- --- ------------<br>----- -- -------- ------- ---- ------ - -------- ---- -----<br>--- ------- ---- -- --- -------- --- - ----- ------ ---- --<br>-------- --- -------- -------- --- -------- ---- -- ----- -<br>-------- ---- --- ---------- --------- -- testify ------ -<br>--------- ----- -----,169048.30500110984,169046.98000103235,168672.471,168688.3600000292,168705.807,169056.064,,47,testify
screen,html.Screen,0_4_1_0_1_48,2021-10-22T11:02:49.742Z,,,,,,,,,,,,,,,,15,,,,,,,,,,,,,,310.8960002467502,,response,,,7,C,,,,,Space,keypress(Space),,,,instrumental,---- --------- ---------- - --- ------- -- --- ------------<br>----- -- -------- ------- ---- ------ - -------- ---- -----<br>--- ------- ---- -- --- -------- --- - ----- ------ ---- --<br>-------- --- -------- -------- --- -------- ---- -- ----- -<br>-------- ---- --- ---------- --------- -- ------- before -<br>--------- ----- -----,169368.01999993622,169366.96000024676,169039.392,169048.7649999559,169056.064,169389.256,,48,before
screen,html.Screen,0_4_1_0_1_49,2021-10-22T11:02:50.086Z,,,,,,,,,,,,,,,,15,,,,,,,,,,,,,,321.7190006347955,,response,,,7,C,,,,,Space,keypress(Space),,,,instrumental,---- --------- ---------- - --- ------- -- --- ------------<br>----- -- -------- ------- ---- ------ - -------- ---- -----<br>--- ------- ---- -- --- -------- --- - ----- ------ ---- --<br>-------- --- -------- -------- --- -------- ---- -- ----- -<br>-------- ---- --- ---------- --------- -- ------- ------ a<br>--------- ----- -----,169712.01500110328,169710.9750006348,169355.922,169368.32000128925,169389.256,169722.962,,49,a
screen,html.Screen,0_4_1_0_1_50,2021-10-22T11:02:50.494Z,,,,,,,,,,,,,,,,15,,,,,,,,,,,,,,395.9630014722352,,response,,,7,C,,,,,Space,keypress(Space),,,,instrumental,---- --------- ---------- - --- ------- -- --- ------------<br>----- -- -------- ------- ---- ------ - -------- ---- -----<br>--- ------- ---- -- --- -------- --- - ----- ------ ---- --<br>-------- --- -------- -------- --- -------- ---- -- ----- -<br>-------- ---- --- ---------- --------- -- ------- ------ -<br>different ----- -----,170120.1050002128,170118.92500147223,169706.289,169712.31999993324,169722.962,170139.61,,50,different
