sender,sender_type,sender_id,timestamp,meta,,Blues,Classical,Country,Dance,Electronic,Folk,Gospel,Hip-Hop,Jazz,Latin,Musical/Film,New-age,Pop,Provo_ID,R&B,Rap,Reggae,Religious,Rock,Soul,Swing,Traditional,age,artist_name,correct,correctResponse,distraction,duration,education,ended_on,familiarity,gender,item,list,music_frequency,offensiveness,pleasantness,preference,response,response_action,snippet_file,song_name,song_rating,sound,text,time_commit,time_end,time_render,time_run,time_show,time_switch,url,word,word_ID
Instructions,html.Page,0_0,2021-11-26T12:02:26.784Z,"{""labjs_version"":""20.2.3"",""labjs_build"":{""flavor"":""production"",""commit"":""7ea907d66ca8aeef8054924ca5d82ffbe11e34e5""},""location"":""https://run.pavlovia.org/mvasilev/lab_music_f/"",""userAgent"":""Mozilla/5.0 (Windows NT 6.1; Win64; x64) AppleWebKit/537.36 (KHTML, like Gecko) Chrome/96.0.4664.45 Safari/537.36"",""platform"":""Win32"",""language"":""en-US"",""locale"":""en-US"",""timeZone"":""Europe/London"",""timezoneOffset"":0,""screen_width"":1920,""screen_height"":1080,""scroll_width"":1904,""scroll_height"":900,""window_innerWidth"":1904,""window_innerHeight"":948,""devicePixelRatio"":1}",,,,,,,,,,,,,,,,,,,,,,,,,,,,,19017.406000000745,,form submission,,,,,,,,,,,,,,,,27075.400000000373,27074.300000000745,8023.554,8036,8056.894,27076.483,{},,
Headphones,html.Page,0_1,2021-11-26T12:02:30.289Z,,,,,,,,,,,,,,,,,,,,,,,,,,,,,,3504.2170000011174,,form submission,,,,,,,,,,,,,,,,30581.300000000745,30580.700000001118,27059.819,27076.200000001118,27076.483,30612.736,,,
Holding screen,html.Screen,0_2_0_0,2021-11-26T12:02:40.319Z,,,,,,,,,,,,,,,,,,,,,,,,,,,,,,10002.272,,timeout,,,,,,,,,,,,,,,,40610.70000000112,40598.339,30596.065,30581.900000000373,30612.736,40615.008,,,
screen,html.Screen,0_2_0_1_0,2021-11-26T12:02:41.193Z,,,,,,,,,,,,,,,,53,,,,,,,,,,,,,,868.192000001116,,response,,,99,,,,,,Space,keypress(Space),,,,,When -- ----- -- ------ - ------- --- ----------<br>------------- ------ ------ ---- ---- ------- ----- -- ----<br>-------- ------- -- ---------- --- - --- ----- ----- ----<br>---- --- --- ----- --- ---- ---- ------- ----- ---- -------<br>--- --- -- ----- -- --- ---- -- --- ---- -- ------ ------<br>--- ----- -- ----,41484.59999999963,41483.20000000112,40598.339,40611.09999999963,40615.008,41498.788,,0,When
screen,html.Screen,0_2_0_1_1,2021-11-26T12:02:42.048Z,,,,,,,,,,,,,,,,53,,,,,,,,,,,,,,840.0120000007446,,response,,,99,,,,,,Space,keypress(Space),,,,,---- it ----- -- ------ - ------- --- ----------<br>------------- ------ ------ ---- ---- ------- ----- -- ----<br>-------- ------- -- ---------- --- - --- ----- ----- ----<br>---- --- --- ----- --- ---- ---- ------- ----- ---- -------<br>--- --- -- ----- -- --- ---- -- --- ---- -- ------ ------<br>--- ----- -- ----,42339.70000000112,42338.800000000745,41482.117,41485,41498.788,42349.047,,1,it
screen,html.Screen,0_2_0_1_2,2021-11-26T12:02:42.944Z,,,,,,,,,,,,,,,,53,,,,,,,,,,,,,,885.6530000011189,,response,,,99,,,,,,Space,keypress(Space),,,,,---- -- comes -- ------ - ------- --- ----------<br>------------- ------ ------ ---- ---- ------- ----- -- ----<br>-------- ------- -- ---------- --- - --- ----- ----- ----<br>---- --- --- ----- --- ---- ---- ------- ----- ---- -------<br>--- --- -- ----- -- --- ---- -- --- ---- -- ------ ------<br>--- ----- -- ----,43235.59999999963,43234.70000000112,42332.376,42340,42349.047,43249.271,,2,comes
screen,html.Screen,0_2_0_1_3,2021-11-26T12:02:43.824Z,,,,,,,,,,,,,,,,53,,,,,,,,,,,,,,865.3289999996268,,response,,,99,,,,,,Space,keypress(Space),,,,,---- -- ----- to ------ - ------- --- ----------<br>------------- ------ ------ ---- ---- ------- ----- -- ----<br>-------- ------- -- ---------- --- - --- ----- ----- ----<br>---- --- --- ----- --- ---- ---- ------- ----- ---- -------<br>--- --- -- ----- -- --- ---- -- --- ---- -- ------ ------<br>--- ----- -- ----,44115.59999999963,44114.59999999963,43232.6,43235.90000000037,43249.271,44132.732,,3,to
screen,html.Screen,0_2_0_1_4,2021-11-26T12:02:44.624Z,,,,,,,,,,,,,,,,53,,,,,,,,,,,,,,781.968000001114,,response,,,99,,,,,,Space,keypress(Space),,,,,---- -- ----- -- having - ------- --- ----------<br>------------- ------ ------ ---- ---- ------- ----- -- ----<br>-------- ------- -- ---------- --- - --- ----- ----- ----<br>---- --- --- ----- --- ---- ---- ------- ----- ---- -------<br>--- --- -- ----- -- --- ---- -- --- ---- -- ------ ------<br>--- ----- -- ----,44915.800000000745,44914.70000000112,44116.062,44116.20000000112,44132.732,44932.95,,4,having
screen,html.Screen,0_2_0_1_5,2021-11-26T12:02:45.600Z,,,,,,,,,,,,,,,,53,,,,,,,,,,,,,,957.5500000000029,,response,,,99,,,,,,Space,keypress(Space),,,,,---- -- ----- -- ------ a ------- --- ----------<br>------------- ------ ------ ---- ---- ------- ----- -- ----<br>-------- ------- -- ---------- --- - --- ----- ----- ----<br>---- --- --- ----- --- ---- ---- ------- ----- ---- -------<br>--- --- -- ----- -- --- ---- -- --- ---- -- ------ ------<br>--- ----- -- ----,45891.40000000037,45890.5,44916.28,44916,44932.95,45899.937,,5,a
screen,html.Screen,0_2_0_1_6,2021-11-26T12:02:46.480Z,,,,,,,,,,,,,,,,53,,,,,,,,,,,,,,870.5630000000019,,response,,,99,,,,,,Space,keypress(Space),,,,,---- -- ----- -- ------ - lasting --- ----------<br>------------- ------ ------ ---- ---- ------- ----- -- ----<br>-------- ------- -- ---------- --- - --- ----- ----- ----<br>---- --- --- ----- --- ---- ---- ------- ----- ---- -------<br>--- --- -- ----- -- --- ---- -- --- ---- -- ------ ------<br>--- ----- -- ----,46771.5,46770.5,45883.266,45891.90000000037,45899.937,46783.388,,6,lasting
screen,html.Screen,0_2_0_1_7,2021-11-26T12:02:47.328Z,,,,,,,,,,,,,,,,53,,,,,,,,,,,,,,835.112000000001,,response,,,99,,,,,,Space,keypress(Space),,,,,---- -- ----- -- ------ - ------- and ----------<br>------------- ------ ------ ---- ---- ------- ----- -- ----<br>-------- ------- -- ---------- --- - --- ----- ----- ----<br>---- --- --- ----- --- ---- ---- ------- ----- ---- -------<br>--- --- -- ----- -- --- ---- -- --- ---- -- ------ ------<br>--- ----- -- ----,47619.40000000037,47618.5,46766.718,46771.800000000745,46783.388,47633.63,,7,and
screen,html.Screen,0_2_0_1_8,2021-11-26T12:02:47.976Z,,,,,,,,,,,,,,,,53,,,,,,,,,,,,,,632.7700000003751,,response,,,99,,,,,,Space,keypress(Space),,,,,---- -- ----- -- ------ - ------- --- fulfilling<br>------------- ------ ------ ---- ---- ------- ----- -- ----<br>-------- ------- -- ---------- --- - --- ----- ----- ----<br>---- --- --- ----- --- ---- ---- ------- ----- ---- -------<br>--- --- -- ----- -- --- ---- -- --- ---- -- ------ ------<br>--- ----- -- ----,48267.5,48266.40000000037,47616.96,47619.59999999963,47633.63,48283.804,,8,fulfilling
screen,html.Screen,0_2_0_1_9,2021-11-26T12:02:49.024Z,,,,,,,,,,,,,,,,53,,,,,,,,,,,,,,1030.4960000007486,,response,,,99,,,,,,Space,keypress(Space),,,,,"---- -- ----- -- ------ - ------- --- ----------<br>relationship, ------ ------ ---- ---- ------- ----- -- ----<br>-------- ------- -- ---------- --- - --- ----- ----- ----<br>---- --- --- ----- --- ---- ---- ------- ----- ---- -------<br>--- --- -- ----- -- --- ---- -- --- ---- -- ------ ------<br>--- ----- -- ----",49315.59999999963,49314.300000000745,48267.134,48267.800000000745,48283.804,49317.358,,9,"relationship,"
screen,html.Screen,0_2_0_1_10,2021-11-26T12:02:49.679Z,,,,,,,,,,,,,,,,53,,,,,,,,,,,,,,652.9420000007449,,response,,,99,,,,,,Space,keypress(Space),,,,,---- -- ----- -- ------ - ------- --- ----------<br>------------- common ------ ---- ---- ------- ----- -- ----<br>-------- ------- -- ---------- --- - --- ----- ----- ----<br>---- --- --- ----- --- ---- ---- ------- ----- ---- -------<br>--- --- -- ----- -- --- ---- -- --- ---- -- ------ ------<br>--- ----- -- ----,49971.20000000112,49970.300000000745,49300.688,49315.800000000745,49317.358,49984.164,,10,common
screen,html.Screen,0_2_0_1_11,2021-11-26T12:02:50.647Z,,,,,,,,,,,,,,,,53,,,,,,,,,,,,,,954.0360000011206,,response,,,99,,,,,,Space,keypress(Space),,,,,---- -- ----- -- ------ - ------- --- ----------<br>------------- ------ wisdom ---- ---- ------- ----- -- ----<br>-------- ------- -- ---------- --- - --- ----- ----- ----<br>---- --- --- ----- --- ---- ---- ------- ----- ---- -------<br>--- --- -- ----- -- --- ---- -- --- ---- -- ------ ------<br>--- ----- -- ----,50939.20000000112,50938.20000000112,49967.494,49971.40000000037,49984.164,50951.176,,11,wisdom
screen,html.Screen,0_2_0_1_12,2021-11-26T12:02:51.503Z,,,,,,,,,,,,,,,,53,,,,,,,,,,,,,,843.3240000000005,,response,,,99,,,,,,Space,keypress(Space),,,,,---- -- ----- -- ------ - ------- --- ----------<br>------------- ------ ------ says ---- ------- ----- -- ----<br>-------- ------- -- ---------- --- - --- ----- ----- ----<br>---- --- --- ----- --- ---- ---- ------- ----- ---- -------<br>--- --- -- ----- -- --- ---- -- --- ---- -- ------ ------<br>--- ----- -- ----,51795.300000000745,51794.5,50934.505,50939.40000000037,50951.176,51801.329,,12,says
screen,html.Screen,0_2_0_1_13,2021-11-26T12:02:52.143Z,,,,,,,,,,,,,,,,53,,,,,,,,,,,,,,632.7709999996296,,response,,,99,,,,,,Space,keypress(Space),,,,,---- -- ----- -- ------ - ------- --- ----------<br>------------- ------ ------ ---- that ------- ----- -- ----<br>-------- ------- -- ---------- --- - --- ----- ----- ----<br>---- --- --- ----- --- ---- ---- ------- ----- ---- -------<br>--- --- -- ----- -- --- ---- -- --- ---- -- ------ ------<br>--- ----- -- ----,52434.90000000037,52434.09999999963,51784.659,51795.59999999963,51801.329,52451.504,,13,that
screen,html.Screen,0_2_0_1_14,2021-11-26T12:02:52.759Z,,,,,,,,,,,,,,,,53,,,,,,,,,,,,,,598.5959999996267,,response,,,99,,,,,,Space,keypress(Space),,,,,---- -- ----- -- ------ - ------- --- ----------<br>------------- ------ ------ ---- ---- feeling ----- -- ----<br>-------- ------- -- ---------- --- - --- ----- ----- ----<br>---- --- --- ----- --- ---- ---- ------- ----- ---- -------<br>--- --- -- ----- -- --- ---- -- --- ---- -- ------ ------<br>--- ----- -- ----,53050.90000000037,53050.09999999963,52434.834,52435.20000000112,52451.504,53068.328,,14,feeling
screen,html.Screen,0_2_0_1_15,2021-11-26T12:02:53.367Z,,,,,,,,,,,,,,,,53,,,,,,,,,,,,,,589.7719999996261,,response,,,99,,,,,,Space,keypress(Space),,,,,---- -- ----- -- ------ - ------- --- ----------<br>------------- ------ ------ ---- ---- ------- close -- ----<br>-------- ------- -- ---------- --- - --- ----- ----- ----<br>---- --- --- ----- --- ---- ---- ------- ----- ---- -------<br>--- --- -- ----- -- --- ---- -- --- ---- -- ------ ------<br>--- ----- -- ----,53658.90000000037,53658.09999999963,53051.658,53051.09999999963,53068.328,53668.477,,15,close
screen,html.Screen,0_2_0_1_16,2021-11-26T12:02:54.063Z,,,,,,,,,,,,,,,,53,,,,,,,,,,,,,,685.523000000001,,response,,,99,,,,,,Space,keypress(Space),,,,,---- -- ----- -- ------ - ------- --- ----------<br>------------- ------ ------ ---- ---- ------- ----- to ----<br>-------- ------- -- ---------- --- - --- ----- ----- ----<br>---- --- --- ----- --- ---- ---- ------- ----- ---- -------<br>--- --- -- ----- -- --- ---- -- --- ---- -- ------ ------<br>--- ----- -- ----,54354.800000000745,54354,53651.807,53659.09999999963,53668.477,54368.63,,16,to
screen,html.Screen,0_2_0_1_17,2021-11-26T12:02:54.639Z,,,,,,,,,,,,,,,,53,,,,,,,,,,,,,,561.2700000003751,,response,,,99,,,,,,Space,keypress(Space),,,,,---- -- ----- -- ------ - ------- --- ----------<br>------------- ------ ------ ---- ---- ------- ----- -- your<br>-------- ------- -- ---------- --- - --- ----- ----- ----<br>---- --- --- ----- --- ---- ---- ------- ----- ---- -------<br>--- --- -- ----- -- --- ---- -- --- ---- -- ------ ------<br>--- ----- -- ----,54930.800000000745,54929.90000000037,54351.96,54355.09999999963,54368.63,54935.328,,17,your
screen,html.Screen,0_2_0_1_18,2021-11-26T12:02:55.415Z,,,,,,,,,,,,,,,,53,,,,,,,,,,,,,,770.6719999999987,,response,,,99,,,,,,Space,keypress(Space),,,,,---- -- ----- -- ------ - ------- --- ----------<br>------------- ------ ------ ---- ---- ------- ----- -- ----<br>romantic ------- -- ---------- --- - --- ----- ----- ----<br>---- --- --- ----- --- ---- ---- ------- ----- ---- -------<br>--- --- -- ----- -- --- ---- -- --- ---- -- ------ ------<br>--- ----- -- ----,55706.70000000112,55706,54918.659,54931,54935.328,55719.064,,18,romantic
screen,html.Screen,0_2_0_1_19,2021-11-26T12:02:56.631Z,,,,,,,,,,,,,,,,53,,,,,,,,,,,,,,1202.836000000374,,response,,,99,,,,,,Space,keypress(Space),,,,,---- -- ----- -- ------ - ------- --- ----------<br>------------- ------ ------ ---- ---- ------- ----- -- ----<br>-------- partner -- ---------- --- - --- ----- ----- ----<br>---- --- --- ----- --- ---- ---- ------- ----- ---- -------<br>--- --- -- ----- -- --- ---- -- --- ---- -- ------ ------<br>--- ----- -- ----,56922.70000000112,56921.90000000037,55702.393,55707,55719.064,56935.904,,19,partner
screen,html.Screen,0_2_0_1_20,2021-11-26T12:02:57.343Z,,,,,,,,,,,,,,,,53,,,,,,,,,,,,,,697.8960000007428,,response,,,99,,,,,,Space,keypress(Space),,,,,---- -- ----- -- ------ - ------- --- ----------<br>------------- ------ ------ ---- ---- ------- ----- -- ----<br>-------- ------- is ---------- --- - --- ----- ----- ----<br>---- --- --- ----- --- ---- ---- ------- ----- ---- -------<br>--- --- -- ----- -- --- ---- -- --- ---- -- ------ ------<br>--- ----- -- ----,57634.59999999963,57633.800000000745,56919.234,56923,56935.904,57636.113,,20,is
screen,html.Screen,0_2_0_1_21,2021-11-26T12:02:58.031Z,,,,,,,,,,,,,,,,53,,,,,,,,,,,,,,685.58700000112,,response,,,99,,,,,,Space,keypress(Space),,,,,---- -- ----- -- ------ - ------- --- ----------<br>------------- ------ ------ ---- ---- ------- ----- -- ----<br>-------- ------- -- paramount. --- - --- ----- ----- ----<br>---- --- --- ----- --- ---- ---- ------- ----- ---- -------<br>--- --- -- ----- -- --- ---- -- --- ---- -- ------ ------<br>--- ----- -- ----,58322.59999999963,58321.70000000112,57619.443,57634.800000000745,57636.113,58336.293,,21,paramount.
screen,html.Screen,0_2_0_1_22,2021-11-26T12:02:58.855Z,,,,,,,,,,,,,,,,53,,,,,,,,,,,,,,809.4070000011197,,response,,,99,,,,,,Space,keypress(Space),,,,,---- -- ----- -- ------ - ------- --- ----------<br>------------- ------ ------ ---- ---- ------- ----- -- ----<br>-------- ------- -- ---------- But - --- ----- ----- ----<br>---- --- --- ----- --- ---- ---- ------- ----- ---- -------<br>--- --- -- ----- -- --- ---- -- --- ---- -- ------ ------<br>--- ----- -- ----,59146.5,59145.70000000112,58319.623,58322.90000000037,58336.293,59153.13,,22,But
screen,html.Screen,0_2_0_1_23,2021-11-26T12:02:59.543Z,,,,,,,,,,,,,,,,53,,,,,,,,,,,,,,680.5700000011202,,response,,,99,,,,,,Space,keypress(Space),,,,,---- -- ----- -- ------ - ------- --- ----------<br>------------- ------ ------ ---- ---- ------- ----- -- ----<br>-------- ------- -- ---------- --- a --- ----- ----- ----<br>---- --- --- ----- --- ---- ---- ------- ----- ---- -------<br>--- --- -- ----- -- --- ---- -- --- ---- -- ------ ------<br>--- ----- -- ----,59834.40000000037,59833.70000000112,59136.46,59146.800000000745,59153.13,59836.726,,23,a
screen,html.Screen,0_2_0_1_24,2021-11-26T12:03:00.762Z,,,,,,,,,,,,,,,,53,,,,,,,,,,,,,,1212.873999999625,,response,,,99,,,,,,Space,keypress(Space),,,,,---- -- ----- -- ------ - ------- --- ----------<br>------------- ------ ------ ---- ---- ------- ----- -- ----<br>-------- ------- -- ---------- --- - new ----- ----- ----<br>---- --- --- ----- --- ---- ---- ------- ----- ---- -------<br>--- --- -- ----- -- --- ---- -- --- ---- -- ------ ------<br>--- ----- -- ----,61050.300000000745,61049.59999999963,59820.055,59834.59999999963,59836.726,61053.589,,24,new
screen,html.Screen,0_2_0_1_25,2021-11-26T12:03:03.419Z,,,,,,,,,,,,,,,,53,,,,,,,,,,,,,,2652.411,,response,,,99,,,,,,Space,keypress(Space),,,,,---- -- ----- -- ------ - ------- --- ----------<br>------------- ------ ------ ---- ---- ------- ----- -- ----<br>-------- ------- -- ---------- --- - --- study ----- ----<br>---- --- --- ----- --- ---- ---- ------- ----- ---- -------<br>--- --- -- ----- -- --- ---- -- --- ---- -- ------ ------<br>--- ----- -- ----,63706.70000000112,63706,61036.919,61050.70000000112,61053.589,63721.052,,25,study
screen,html.Screen,0_2_0_1_26,2021-11-26T12:03:04.258Z,,,,,,,,,,,,,,,,53,,,,,,,,,,,,,,824.3480000003692,,response,,,99,,,,,,Space,keypress(Space),,,,,---- -- ----- -- ------ - ------- --- ----------<br>------------- ------ ------ ---- ---- ------- ----- -- ----<br>-------- ------- -- ---------- --- - --- ----- finds ----<br>---- --- --- ----- --- ---- ---- ------- ----- ---- -------<br>--- --- -- ----- -- --- ---- -- --- ---- -- ------ ------<br>--- ----- -- ----,64546.20000000112,64545.40000000037,63704.381,63707,63721.052,64554.489,,26,finds
screen,html.Screen,0_2_0_1_27,2021-11-26T12:03:04.938Z,,,,,,,,,,,,,,,,53,,,,,,,,,,,,,,670.8110000007437,,response,,,99,,,,,,Space,keypress(Space),,,,,---- -- ----- -- ------ - ------- --- ----------<br>------------- ------ ------ ---- ---- ------- ----- -- ----<br>-------- ------- -- ---------- --- - --- ----- ----- that<br>---- --- --- ----- --- ---- ---- ------- ----- ---- -------<br>--- --- -- ----- -- --- ---- -- --- ---- -- ------ ------<br>--- ----- -- ----,65226.300000000745,65225.300000000745,64537.819,64546.90000000037,64554.489,65237.938,,27,that
screen,html.Screen,0_2_0_1_28,2021-11-26T12:03:05.786Z,,,,,,,,,,,,,,,,53,,,,,,,,,,,,,,835.3620000007431,,response,,,99,,,,,,Space,keypress(Space),,,,,---- -- ----- -- ------ - ------- --- ----------<br>------------- ------ ------ ---- ---- ------- ----- -- ----<br>-------- ------- -- ---------- --- - --- ----- ----- ----<br>it's --- --- ----- --- ---- ---- ------- ----- ---- -------<br>--- --- -- ----- -- --- ---- -- --- ---- -- ------ ------<br>--- ----- -- ----,66074.09999999963,66073.30000000075,65221.268,65226.5,65237.938,66088.311,,28,it's
screen,html.Screen,0_2_0_1_29,2021-11-26T12:03:06.930Z,,,,,,,,,,,,,,,,53,,,,,,,,,,,,,,1128.889000001116,,response,,,99,,,,,,Space,keypress(Space),,,,,---- -- ----- -- ------ - ------- --- ----------<br>------------- ------ ------ ---- ---- ------- ----- -- ----<br>-------- ------- -- ---------- --- - --- ----- ----- ----<br>---- not --- ----- --- ---- ---- ------- ----- ---- -------<br>--- --- -- ----- -- --- ---- -- --- ---- -- ------ ------<br>--- ----- -- ----,67218,67217.20000000112,66071.64,66074.40000000037,66088.311,67221.813,,29,not
screen,html.Screen,0_2_0_1_30,2021-11-26T12:03:07.698Z,,,,,,,,,,,,,,,,53,,,,,,,,,,,,,,763.3870000011229,,response,,,99,,,,,,Space,keypress(Space),,,,,---- -- ----- -- ------ - ------- --- ----------<br>------------- ------ ------ ---- ---- ------- ----- -- ----<br>-------- ------- -- ---------- --- - --- ----- ----- ----<br>---- --- how ----- --- ---- ---- ------- ----- ---- -------<br>--- --- -- ----- -- --- ---- -- --- ---- -- ------ ------<br>--- ----- -- ----,67986,67985.20000000112,67205.143,67218.30000000075,67221.813,67988.691,,30,how
screen,html.Screen,0_2_0_1_31,2021-11-26T12:03:09.978Z,,,,,,,,,,,,,,,,53,,,,,,,,,,,,,,2276.308999999994,,response,,,99,,,,,,Space,keypress(Space),,,,,---- -- ----- -- ------ - ------- --- ----------<br>------------- ------ ------ ---- ---- ------- ----- -- ----<br>-------- ------- -- ---------- --- - --- ----- ----- ----<br>---- --- --- close --- ---- ---- ------- ----- ---- -------<br>--- --- -- ----- -- --- ---- -- --- ---- -- ------ ------<br>--- ----- -- ----,70265.70000000112,70265,67972.021,67986.20000000112,67988.691,70272.52,,31,close
screen,html.Screen,0_2_0_1_32,2021-11-26T12:03:11.602Z,,,,,,,,,,,,,,,,53,,,,,,,,,,,,,,1616.3800000003685,,response,,,99,,,,,,Space,keypress(Space),,,,,---- -- ----- -- ------ - ------- --- ----------<br>------------- ------ ------ ---- ---- ------- ----- -- ----<br>-------- ------- -- ---------- --- - --- ----- ----- ----<br>---- --- --- ----- you ---- ---- ------- ----- ---- -------<br>--- --- -- ----- -- --- ---- -- --- ---- -- ------ ------<br>--- ----- -- ----,71889.70000000112,71888.90000000037,70255.85,70266.09999999963,70272.52,71906.28,,32,you
screen,html.Screen,0_2_0_1_33,2021-11-26T12:03:12.602Z,,,,,,,,,,,,,,,,53,,,,,,,,,,,,,,982.5200000007462,,response,,,99,,,,,,Space,keypress(Space),,,,,---- -- ----- -- ------ - ------- --- ----------<br>------------- ------ ------ ---- ---- ------- ----- -- ----<br>-------- ------- -- ---------- --- - --- ----- ----- ----<br>---- --- --- ----- --- feel ---- ------- ----- ---- -------<br>--- --- -- ----- -- --- ---- -- --- ---- -- ------ ------<br>--- ----- -- ----,72889.59999999963,72888.80000000075,71889.61,71890.09999999963,71906.28,72906.488,,33,feel
screen,html.Screen,0_2_0_1_34,2021-11-26T12:03:13.377Z,,,,,,,,,,,,,,,,53,,,,,,,,,,,,,,758.21200000112,,response,,,99,,,,,,Space,keypress(Space),,,,,---- -- ----- -- ------ - ------- --- ----------<br>------------- ------ ------ ---- ---- ------- ----- -- ----<br>-------- ------- -- ---------- --- - --- ----- ----- ----<br>---- --- --- ----- --- ---- that ------- ----- ---- -------<br>--- --- -- ----- -- --- ---- -- --- ---- -- ------ ------<br>--- ----- -- ----,73665.20000000112,73664.70000000112,72889.818,72889.90000000037,72906.488,73673.386,,34,that
screen,html.Screen,0_2_0_1_35,2021-11-26T12:03:14.226Z,,,,,,,,,,,,,,,,53,,,,,,,,,,,,,,839.7139999996289,,response,,,99,,,,,,Space,keypress(Space),,,,,---- -- ----- -- ------ - ------- --- ----------<br>------------- ------ ------ ---- ---- ------- ----- -- ----<br>-------- ------- -- ---------- --- - --- ----- ----- ----<br>---- --- --- ----- --- ---- ---- matters ----- ---- -------<br>--- --- -- ----- -- --- ---- -- --- ---- -- ------ ------<br>--- ----- -- ----,74514,74513.09999999963,73656.716,73665.40000000037,73673.386,74523.738,,35,matters
screen,html.Screen,0_2_0_1_36,2021-11-26T12:03:15.066Z,,,,,,,,,,,,,,,,53,,,,,,,,,,,,,,828.8619999996299,,response,,,99,,,,,,Space,keypress(Space),,,,,"---- -- ----- -- ------ - ------- --- ----------<br>------------- ------ ------ ---- ---- ------- ----- -- ----<br>-------- ------- -- ---------- --- - --- ----- ----- ----<br>---- --- --- ----- --- ---- ---- ------- most, ---- -------<br>--- --- -- ----- -- --- ---- -- --- ---- -- ------ ------<br>--- ----- -- ----",75353.59999999963,75352.59999999963,74507.067,74514.09999999963,74523.738,75357.193,,36,"most,"
screen,html.Screen,0_2_0_1_37,2021-11-26T12:03:15.641Z,,,,,,,,,,,,,,,,53,,,,,,,,,,,,,,571.4069999996282,,response,,,99,,,,,,Space,keypress(Space),,,,,---- -- ----- -- ------ - ------- --- ----------<br>------------- ------ ------ ---- ---- ------- ----- -- ----<br>-------- ------- -- ---------- --- - --- ----- ----- ----<br>---- --- --- ----- --- ---- ---- ------- ----- it's -------<br>--- --- -- ----- -- --- ---- -- --- ---- -- ------ ------<br>--- ----- -- ----,75929.5,75928.59999999963,75340.523,75353.90000000037,75357.193,75940.512,,37,it's
screen,html.Screen,0_2_0_1_38,2021-11-26T12:03:16.329Z,,,,,,,,,,,,,,,,53,,,,,,,,,,,,,,676.087999999625,,response,,,99,,,,,,Space,keypress(Space),,,,,---- -- ----- -- ------ - ------- --- ----------<br>------------- ------ ------ ---- ---- ------- ----- -- ----<br>-------- ------- -- ---------- --- - --- ----- ----- ----<br>---- --- --- ----- --- ---- ---- ------- ----- ---- whether<br>--- --- -- ----- -- --- ---- -- --- ---- -- ------ ------<br>--- ----- -- ----,76617.30000000075,76616.59999999963,75923.843,75929.70000000112,75940.512,76624.255,,38,whether
screen,html.Screen,0_2_0_1_39,2021-11-26T12:03:17.449Z,,,,,,,,,,,,,,,,53,,,,,,,,,,,,,,1112.2449999999953,,response,,,99,,,,,,Space,keypress(Space),,,,,---- -- ----- -- ------ - ------- --- ----------<br>------------- ------ ------ ---- ---- ------- ----- -- ----<br>-------- ------- -- ---------- --- - --- ----- ----- ----<br>---- --- --- ----- --- ---- ---- ------- ----- ---- -------<br>you --- -- ----- -- --- ---- -- --- ---- -- ------ ------<br>--- ----- -- ----,77737.30000000075,77736.5,76607.584,76617.70000000112,76624.255,77741.187,,39,you
screen,html.Screen,0_2_0_1_40,2021-11-26T12:03:18.057Z,,,,,,,,,,,,,,,,53,,,,,,,,,,,,,,603.2130000003672,,response,,,99,,,,,,Space,keypress(Space),,,,,---- -- ----- -- ------ - ------- --- ----------<br>------------- ------ ------ ---- ---- ------- ----- -- ----<br>-------- ------- -- ---------- --- - --- ----- ----- ----<br>---- --- --- ----- --- ---- ---- ------- ----- ---- -------<br>--- are -- ----- -- --- ---- -- --- ---- -- ------ ------<br>--- ----- -- ----,78345.09999999963,78344.40000000037,77724.516,77737.5,77741.187,78357.949,,40,are
screen,html.Screen,0_2_0_1_41,2021-11-26T12:03:18.641Z,,,,,,,,,,,,,,,,53,,,,,,,,,,,,,,570.4510000003793,,response,,,99,,,,,,Space,keypress(Space),,,,,---- -- ----- -- ------ - ------- --- ----------<br>------------- ------ ------ ---- ---- ------- ----- -- ----<br>-------- ------- -- ---------- --- - --- ----- ----- ----<br>---- --- --- ----- --- ---- ---- ------- ----- ---- -------<br>--- --- as ----- -- --- ---- -- --- ---- -- ------ ------<br>--- ----- -- ----,78929.20000000112,78928.40000000037,78341.279,78345.5,78357.949,78941.429,,41,as
screen,html.Screen,0_2_0_1_42,2021-11-26T12:03:19.225Z,,,,,,,,,,,,,,,,53,,,,,,,,,,,,,,570.9710000003688,,response,,,99,,,,,,Space,keypress(Space),,,,,---- -- ----- -- ------ - ------- --- ----------<br>------------- ------ ------ ---- ---- ------- ----- -- ----<br>-------- ------- -- ---------- --- - --- ----- ----- ----<br>---- --- --- ----- --- ---- ---- ------- ----- ---- -------<br>--- --- -- close -- --- ---- -- --- ---- -- ------ ------<br>--- ----- -- ----,79513.30000000075,79512.40000000037,78924.759,78929.40000000037,78941.429,79524.914,,42,close
screen,html.Screen,0_2_0_1_43,2021-11-26T12:03:19.833Z,,,,,,,,,,,,,,,,53,,,,,,,,,,,,,,595.4860000003682,,response,,,99,,,,,,Space,keypress(Space),,,,,---- -- ----- -- ------ - ------- --- ----------<br>------------- ------ ------ ---- ---- ------- ----- -- ----<br>-------- ------- -- ---------- --- - --- ----- ----- ----<br>---- --- --- ----- --- ---- ---- ------- ----- ---- -------<br>--- --- -- ----- as --- ---- -- --- ---- -- ------ ------<br>--- ----- -- ----,80121.09999999963,80120.40000000037,79508.244,79513.5,79524.914,80125.041,,43,as
screen,html.Screen,0_2_0_1_44,2021-11-26T12:03:20.473Z,,,,,,,,,,,,,,,,53,,,,,,,,,,,,,,635.3590000003751,,response,,,99,,,,,,Space,keypress(Space),,,,,---- -- ----- -- ------ - ------- --- ----------<br>------------- ------ ------ ---- ---- ------- ----- -- ----<br>-------- ------- -- ---------- --- - --- ----- ----- ----<br>---- --- --- ----- --- ---- ---- ------- ----- ---- -------<br>--- --- -- ----- -- you ---- -- --- ---- -- ------ ------<br>--- ----- -- ----,80761.09999999963,80760.40000000037,80108.371,80121.30000000075,80125.041,80775.271,,44,you
screen,html.Screen,0_2_0_1_45,2021-11-26T12:03:21.129Z,,,,,,,,,,,,,,,,53,,,,,,,,,,,,,,641.0290000007517,,response,,,99,,,,,,Space,keypress(Space),,,,,---- -- ----- -- ------ - ------- --- ----------<br>------------- ------ ------ ---- ---- ------- ----- -- ----<br>-------- ------- -- ---------- --- - --- ----- ----- ----<br>---- --- --- ----- --- ---- ---- ------- ----- ---- -------<br>--- --- -- ----- -- --- want -- --- ---- -- ------ ------<br>--- ----- -- ----,81417,81416.30000000075,80758.6,80761.30000000075,80775.271,81425.385,,45,want
screen,html.Screen,0_2_0_1_46,2021-11-26T12:03:21.697Z,,,,,,,,,,,,,,,,53,,,,,,,,,,,,,,558.8150000011228,,response,,,99,,,,,,Space,keypress(Space),,,,,---- -- ----- -- ------ - ------- --- ----------<br>------------- ------ ------ ---- ---- ------- ----- -- ----<br>-------- ------- -- ---------- --- - --- ----- ----- ----<br>---- --- --- ----- --- ---- ---- ------- ----- ---- -------<br>--- --- -- ----- -- --- ---- to --- ---- -- ------ ------<br>--- ----- -- ----,81985,81984.20000000112,81408.715,81417.30000000075,81425.385,81992.053,,46,to
screen,html.Screen,0_2_0_1_47,2021-11-26T12:03:22.353Z,,,,,,,,,,,,,,,,53,,,,,,,,,,,,,,648.1470000011177,,response,,,99,,,,,,Space,keypress(Space),,,,,"---- -- ----- -- ------ - ------- --- ----------<br>------------- ------ ------ ---- ---- ------- ----- -- ----<br>-------- ------- -- ---------- --- - --- ----- ----- ----<br>---- --- --- ----- --- ---- ---- ------- ----- ---- -------<br>--- --- -- ----- -- --- ---- -- be, ---- -- ------ ------<br>--- ----- -- ----",82641,82640.20000000112,81975.384,81985.20000000112,81992.053,82642.484,,47,"be,"
screen,html.Screen,0_2_0_1_48,2021-11-26T12:03:23.377Z,,,,,,,,,,,,,,,,53,,,,,,,,,,,,,,1021.7160000011208,,response,,,99,,,,,,Space,keypress(Space),,,,,---- -- ----- -- ------ - ------- --- ----------<br>------------- ------ ------ ---- ---- ------- ----- -- ----<br>-------- ------- -- ---------- --- - --- ----- ----- ----<br>---- --- --- ----- --- ---- ---- ------- ----- ---- -------<br>--- --- -- ----- -- --- ---- -- --- even -- ------ ------<br>--- ----- -- ----,83664.90000000037,83664.20000000112,82625.812,82641.20000000112,82642.484,83675.913,,48,even
screen,html.Screen,0_2_0_1_49,2021-11-26T12:03:23.889Z,,,,,,,,,,,,,,,,53,,,,,,,,,,,,,,500.2870000011171,,response,,,99,,,,,,Space,keypress(Space),,,,,---- -- ----- -- ------ - ------- --- ----------<br>------------- ------ ------ ---- ---- ------- ----- -- ----<br>-------- ------- -- ---------- --- - --- ----- ----- ----<br>---- --- --- ----- --- ---- ---- ------- ----- ---- -------<br>--- --- -- ----- -- --- ---- -- --- ---- if ------ ------<br>--- ----- -- ----,84176.90000000037,84176.20000000112,83659.243,83665.09999999963,83675.913,84192.713,,49,if
screen,html.Screen,0_2_0_1_50,2021-11-26T12:03:24.673Z,,,,,,,,,,,,,,,,53,,,,,,,,,,,,,,767.7869999999966,,response,,,99,,,,,,Space,keypress(Space),,,,,---- -- ----- -- ------ - ------- --- ----------<br>------------- ------ ------ ---- ---- ------- ----- -- ----<br>-------- ------- -- ---------- --- - --- ----- ----- ----<br>---- --- --- ----- --- ---- ---- ------- ----- ---- -------<br>--- --- -- ----- -- --- ---- -- --- ---- -- that's ------<br>--- ----- -- ----,84961.30000000075,84960.5,84176.043,84177.20000000112,84192.713,84976.251,,50,that's
screen,html.Screen,0_2_0_1_51,2021-11-26T12:03:25.280Z,,,,,,,,,,,,,,,,53,,,,,,,,,,,,,,591.4490000011137,,response,,,99,,,,,,Space,keypress(Space),,,,,---- -- ----- -- ------ - ------- --- ----------<br>------------- ------ ------ ---- ---- ------- ----- -- ----<br>-------- ------- -- ---------- --- - --- ----- ----- ----<br>---- --- --- ----- --- ---- ---- ------- ----- ---- -------<br>--- --- -- ----- -- --- ---- -- --- ---- -- ------ really<br>--- ----- -- ----,85568.09999999963,85567.70000000112,84959.581,84961.59999999963,84976.251,85576.408,,51,really
screen,html.Screen,0_2_0_1_52,2021-11-26T12:03:25.873Z,,,,,,,,,,,,,,,,53,,,,,,,,,,,,,,583.5920000000042,,response,,,99,,,,,,Space,keypress(Space),,,,,---- -- ----- -- ------ - ------- --- ----------<br>------------- ------ ------ ---- ---- ------- ----- -- ----<br>-------- ------- -- ---------- --- - --- ----- ----- ----<br>---- --- --- ----- --- ---- ---- ------- ----- ---- -------<br>--- --- -- ----- -- --- ---- -- --- ---- -- ------ ------<br>not ----- -- ----,86160.80000000075,86160,85559.738,85568.09999999963,85576.408,86176.534,,52,not
screen,html.Screen,0_2_0_1_53,2021-11-26T12:03:26.489Z,,,,,,,,,,,,,,,,53,,,,,,,,,,,,,,599.3660000003729,,response,,,99,,,,,,Space,keypress(Space),,,,,---- -- ----- -- ------ - ------- --- ----------<br>------------- ------ ------ ---- ---- ------- ----- -- ----<br>-------- ------- -- ---------- --- - --- ----- ----- ----<br>---- --- --- ----- --- ---- ---- ------- ----- ---- -------<br>--- --- -- ----- -- --- ---- -- --- ---- -- ------ ------<br>--- close -- ----,86776.70000000112,86775.90000000037,86159.864,86161,86176.534,86793.439,,53,close
screen,html.Screen,0_2_0_1_54,2021-11-26T12:03:27.385Z,,,,,,,,,,,,,,,,53,,,,,,,,,,,,,,878.461000000374,,response,,,99,,,,,,Space,keypress(Space),,,,,---- -- ----- -- ------ - ------- --- ----------<br>------------- ------ ------ ---- ---- ------- ----- -- ----<br>-------- ------- -- ---------- --- - --- ----- ----- ----<br>---- --- --- ----- --- ---- ---- ------- ----- ---- -------<br>--- --- -- ----- -- --- ---- -- --- ---- -- ------ ------<br>--- ----- at ----,87672.70000000112,87671.90000000037,86776.768,86776.90000000037,86793.439,87676.78,,54,at
screen,html.Screen,0_2_0_1_55,2021-11-26T12:03:28.425Z,,,,,,,,,,,,,,,,53,,,,,,,,,,,,,,1035.1200000003737,,response,,,99,,,,,,Space,keypress(Space),,,,,---- -- ----- -- ------ - ------- --- ----------<br>------------- ------ ------ ---- ---- ------- ----- -- ----<br>-------- ------- -- ---------- --- - --- ----- ----- ----<br>---- --- --- ----- --- ---- ---- ------- ----- ---- -------<br>--- --- -- ----- -- --- ---- -- --- ---- -- ------ ------<br>--- ----- -- all.,88712.59999999963,88711.90000000037,87660.111,87672.90000000037,87676.78,88727.292,,55,all.
Item 99,flow.Loop,0_2_0_1,2021-11-26T12:03:28.429Z,,,,,,,,,,,,,,,,,,,,,,,,,,,,,,48096.89200000037,,completion,,,,F,,,,,,,,,,silence,,88717.09999999963,88711.90000000037,40598.339,40611,40615.008,88727.292,,,
Question 1,html.Screen,0_2_0_2,2021-11-26T12:03:49.280Z,,,,,,,,,,,,,,,,,,,,,,,,,,,false,FALSE,,20838.908000001116,,response,,,99,F,,,,,TRUE,click #choice-1,,,,silence,,109567.59999999963,109566.20000000112,88710.621,88717.40000000037,88727.292,109582.48,,,
Question 2,html.Screen,0_2_0_3,2021-11-26T12:03:54.703Z,,,,,,,,,,,,,,,,,,,,,,,,,,,true,TRUE,,5407.520000000004,,response,,,99,F,,,,,TRUE,click #choice-1,,,,silence,,114991.20000000112,114990,109565.809,109567.80000000075,109582.48,115000.181,,,
Item 99,flow.Sequence,0_2_0,2021-11-26T12:03:54.704Z,,,,,,,,,,,,,,,,,,,,,,,,,,,,,,84377.264,,completion,,,,,,,,,,,,,,,,114991.59999999963,114990,30596.065,30581.900000000373,30612.736,115000.181,,,
Holding screen,html.Screen,0_2_1_0,2021-11-26T12:04:04.702Z,,,,,,,,,,,,,,,,,,,,,,,,,,,,,,10002.515,,timeout,,,,,,,,,,,,,,,,124987.09999999963,124986.027,114983.514,114991.80000000075,115000.181,125002.696,,,
screen,html.Screen,0_2_1_1_0,2021-11-26T12:04:05.666Z,,,,,,,,,,,,,,,,54,,,,,,,,,,,,,,947.3040000000037,,response,,,100,,,,,,Space,keypress(Space),,,,,At --- ---- --- ------ ----- ------- ---- -- --- ------- --<br>------- ---------- ------ -- ----- -- ----- -- ---- ------<br>--- ----- --- --- ------ -------- ----- --- ------ ----- --<br>----- ----- ---------- --- --- ------ ------ ---- -- ------<br>------- --- ------ ----- --- ---- ------- -- ---- --- --<br>------- ------,125950.80000000075,125950,124986.027,124987.40000000037,125002.696,125953.157,,0,At
screen,html.Screen,0_2_1_1_1,2021-11-26T12:04:06.321Z,,,,,,,,,,,,,,,,54,,,,,,,,,,,,,,652.3429999999935,,response,,,100,,,,,,Space,keypress(Space),,,,,-- the ---- --- ------ ----- ------- ---- -- --- ------- --<br>------- ---------- ------ -- ----- -- ----- -- ---- ------<br>--- ----- --- --- ------ -------- ----- --- ------ ----- --<br>----- ----- ---------- --- --- ------ ------ ---- -- ------<br>------- --- ------ ----- --- ---- ------- -- ---- --- --<br>------- ------,126606.20000000112,126605.5,125936.486,125951,125953.157,126619.928,,1,the
screen,html.Screen,0_2_1_1_2,2021-11-26T12:04:07.025Z,,,,,,,,,,,,,,,,54,,,,,,,,,,,,,,689.4720000003726,,response,,,100,,,,,,Space,keypress(Space),,,,,-- --- time --- ------ ----- ------- ---- -- --- ------- --<br>------- ---------- ------ -- ----- -- ----- -- ---- ------<br>--- ----- --- --- ------ -------- ----- --- ------ ----- --<br>----- ----- ---------- --- --- ------ ------ ---- -- ------<br>------- --- ------ ----- --- ---- ------- -- ---- --- --<br>------- ------,127310.20000000112,127309.40000000037,126603.258,126606.5,126619.928,127320.122,,2,time
screen,html.Screen,0_2_1_1_3,2021-11-26T12:04:07.873Z,,,,,,,,,,,,,,,,54,,,,,,,,,,,,,,837.178000000742,,response,,,100,,,,,,Space,keypress(Space),,,,,-- --- ---- the ------ ----- ------- ---- -- --- ------- --<br>------- ---------- ------ -- ----- -- ----- -- ---- ------<br>--- ----- --- --- ------ -------- ----- --- ------ ----- --<br>----- ----- ---------- --- --- ------ ------ ---- -- ------<br>------- --- ------ ----- --- ---- ------- -- ---- --- --<br>------- ------,128158,128157.30000000075,127303.452,127310.5,127320.122,128170.327,,3,the
screen,html.Screen,0_2_1_1_4,2021-11-26T12:04:08.713Z,,,,,,,,,,,,,,,,54,,,,,,,,,,,,,,826.9730000007403,,response,,,100,,,,,,Space,keypress(Space),,,,,-- --- ---- --- French ----- ------- ---- -- --- ------- --<br>------- ---------- ------ -- ----- -- ----- -- ---- ------<br>--- ----- --- --- ------ -------- ----- --- ------ ----- --<br>----- ----- ---------- --- --- ------ ------ ---- -- ------<br>------- --- ------ ----- --- ---- ------- -- ---- --- --<br>------- ------,128998,128997.30000000075,128153.657,128158.40000000037,128170.327,129003.866,,4,French
screen,html.Screen,0_2_1_1_5,2021-11-26T12:04:09.417Z,,,,,,,,,,,,,,,,54,,,,,,,,,,,,,,697.4340000007505,,response,,,100,,,,,,Space,keypress(Space),,,,,-- --- ---- --- ------ crown ------- ---- -- --- ------- --<br>------- ---------- ------ -- ----- -- ----- -- ---- ------<br>--- ----- --- --- ------ -------- ----- --- ------ ----- --<br>----- ----- ---------- --- --- ------ ------ ---- -- ------<br>------- --- ------ ----- --- ---- ------- -- ---- --- --<br>------- ------,129702,129701.30000000075,128987.196,128999.80000000075,129003.866,129704.123,,5,crown
screen,html.Screen,0_2_1_1_6,2021-11-26T12:04:10.265Z,,,,,,,,,,,,,,,,54,,,,,,,,,,,,,,845.0770000011107,,response,,,100,,,,,,Space,keypress(Space),,,,,-- --- ---- --- ------ ----- secured ---- -- --- ------- --<br>------- ---------- ------ -- ----- -- ----- -- ---- ------<br>--- ----- --- --- ------ -------- ----- --- ------ ----- --<br>----- ----- ---------- --- --- ------ ------ ---- -- ------<br>------- --- ------ ----- --- ---- ------- -- ---- --- --<br>------- ------,130550,130549.20000000112,129687.452,129702.30000000075,129704.123,130554.221,,6,secured
screen,html.Screen,0_2_1_1_7,2021-11-26T12:04:11.657Z,,,,,,,,,,,,,,,,54,,,,,,,,,,,,,,1386.8789999996225,,response,,,100,,,,,,Space,keypress(Space),,,,,-- --- ---- --- ------ ----- ------- much -- --- ------- --<br>------- ---------- ------ -- ----- -- ----- -- ---- ------<br>--- ----- --- --- ------ -------- ----- --- ------ ----- --<br>----- ----- ---------- --- --- ------ ------ ---- -- ------<br>------- --- ------ ----- --- ---- ------- -- ---- --- --<br>------- ------,131942,131941.09999999963,130537.551,130550.20000000112,130554.221,131954.673,,7,much
screen,html.Screen,0_2_1_1_8,2021-11-26T12:04:12.353Z,,,,,,,,,,,,,,,,54,,,,,,,,,,,,,,682.4269999996177,,response,,,100,,,,,,Space,keypress(Space),,,,,-- --- ---- --- ------ ----- ------- ---- of --- ------- --<br>------- ---------- ------ -- ----- -- ----- -- ---- ------<br>--- ----- --- --- ------ -------- ----- --- ------ ----- --<br>----- ----- ---------- --- --- ------ ------ ---- -- ------<br>------- --- ------ ----- --- ---- ------- -- ---- --- --<br>------- ------,132637.90000000037,132637.09999999963,131938.002,131942.20000000112,131954.673,132654.782,,8,of
screen,html.Screen,0_2_1_1_9,2021-11-26T12:04:13.153Z,,,,,,,,,,,,,,,,54,,,,,,,,,,,,,,782.2179999999935,,response,,,100,,,,,,Space,keypress(Space),,,,,-- --- ---- --- ------ ----- ------- ---- -- its ------- --<br>------- ---------- ------ -- ----- -- ----- -- ---- ------<br>--- ----- --- --- ------ -------- ----- --- ------ ----- --<br>----- ----- ---------- --- --- ------ ------ ---- -- ------<br>------- --- ------ ----- --- ---- ------- -- ---- --- --<br>------- ------,133437.80000000075,133437,132638.112,132638.20000000112,132654.782,133454.912,,9,its
screen,html.Screen,0_2_1_1_10,2021-11-26T12:04:14.417Z,,,,,,,,,,,,,,,,54,,,,,,,,,,,,,,1245.9880000003614,,response,,,100,,,,,,Space,keypress(Space),,,,,-- --- ---- --- ------ ----- ------- ---- -- --- revenue --<br>------- ---------- ------ -- ----- -- ----- -- ---- ------<br>--- ----- --- --- ------ -------- ----- --- ------ ----- --<br>----- ----- ---------- --- --- ------ ------ ---- -- ------<br>------- --- ------ ----- --- ---- ------- -- ---- --- --<br>------- ------,134701.80000000075,134700.90000000037,133438.242,133438,133454.912,134705.403,,10,revenue
screen,html.Screen,0_2_1_1_11,2021-11-26T12:04:14.969Z,,,,,,,,,,,,,,,,54,,,,,,,,,,,,,,547.4970000003814,,response,,,100,,,,,,Space,keypress(Space),,,,,-- --- ---- --- ------ ----- ------- ---- -- --- ------- by<br>------- ---------- ------ -- ----- -- ----- -- ---- ------<br>--- ----- --- --- ------ -------- ----- --- ------ ----- --<br>----- ----- ---------- --- --- ------ ------ ---- -- ------<br>------- --- ------ ----- --- ---- ------- -- ---- --- --<br>------- ------,135253.80000000075,135252.90000000037,134688.732,134702,134705.403,135255.439,,11,by
screen,html.Screen,0_2_1_1_12,2021-11-26T12:04:15.745Z,,,,,,,,,,,,,,,,54,,,,,,,,,,,,,,773.861000000732,,response,,,100,,,,,,Space,keypress(Space),,,,,-- --- ---- --- ------ ----- ------- ---- -- --- ------- --<br>issuing ---------- ------ -- ----- -- ----- -- ---- ------<br>--- ----- --- --- ------ -------- ----- --- ------ ----- --<br>----- ----- ---------- --- --- ------ ------ ---- -- ------<br>------- --- ------ ----- --- ---- ------- -- ---- --- --<br>------- ------,136030.09999999963,136029.30000000075,135238.769,135254,135255.439,136038.956,,12,issuing
screen,html.Screen,0_2_1_1_13,2021-11-26T12:04:18.392Z,,,,,,,,,,,,,,,,54,,,,,,,,,,,,,,2637.643999999622,,response,,,100,,,,,,Space,keypress(Space),,,,,-- --- ---- --- ------ ----- ------- ---- -- --- ------- --<br>------- government ------ -- ----- -- ----- -- ---- ------<br>--- ----- --- --- ------ -------- ----- --- ------ ----- --<br>----- ----- ---------- --- --- ------ ------ ---- -- ------<br>------- --- ------ ----- --- ---- ------- -- ---- --- --<br>------- ------,138677.40000000037,138676.59999999963,136022.286,136030.20000000112,136038.956,138689.7,,13,government
screen,html.Screen,0_2_1_1_14,2021-11-26T12:04:19.400Z,,,,,,,,,,,,,,,,54,,,,,,,,,,,,,,994.7999999999884,,response,,,100,,,,,,Space,keypress(Space),,,,,-- --- ---- --- ------ ----- ------- ---- -- --- ------- --<br>------- ---------- bonds. -- ----- -- ----- -- ---- ------<br>--- ----- --- --- ------ -------- ----- --- ------ ----- --<br>----- ----- ---------- --- --- ------ ------ ---- -- ------<br>------- --- ------ ----- --- ---- ------- -- ---- --- --<br>------- ------,139685.5,139684.5,138673.029,138677.70000000112,138689.7,139689.841,,14,bonds.
screen,html.Screen,0_2_1_1_15,2021-11-26T12:04:20.240Z,,,,,,,,,,,,,,,,54,,,,,,,,,,,,,,834.6590000000142,,response,,,100,,,,,,Space,keypress(Space),,,,,-- --- ---- --- ------ ----- ------- ---- -- --- ------- --<br>------- ---------- ------ In ----- -- ----- -- ---- ------<br>--- ----- --- --- ------ -------- ----- --- ------ ----- --<br>----- ----- ---------- --- --- ------ ------ ---- -- ------<br>------- --- ------ ----- --- ---- ------- -- ---- --- --<br>------- ------,140525.40000000037,140524.5,139673.171,139685.59999999963,139689.841,140540.074,,15,In
screen,html.Screen,0_2_1_1_16,2021-11-26T12:04:21.592Z,,,,,,,,,,,,,,,,54,,,,,,,,,,,,,,1336.3260000003793,,response,,,100,,,,,,Space,keypress(Space),,,,,"-- --- ---- --- ------ ----- ------- ---- -- --- ------- --<br>------- ---------- ------ -- 1727, -- ----- -- ---- ------<br>--- ----- --- --- ------ -------- ----- --- ------ ----- --<br>----- ----- ---------- --- --- ------ ------ ---- -- ------<br>------- --- ------ ----- --- ---- ------- -- ---- --- --<br>------- ------",141877.30000000075,141876.40000000037,140523.404,140525.59999999963,140540.074,141890.389,,16,"1727,"
screen,html.Screen,0_2_1_1_17,2021-11-26T12:04:22.648Z,,,,,,,,,,,,,,,,54,,,,,,,,,,,,,,1042.011000000377,,response,,,100,,,,,,Space,keypress(Space),,,,,-- --- ---- --- ------ ----- ------- ---- -- --- ------- --<br>------- ---------- ------ -- ----- in ----- -- ---- ------<br>--- ----- --- --- ------ -------- ----- --- ------ ----- --<br>----- ----- ---------- --- --- ------ ------ ---- -- ------<br>------- --- ------ ----- --- ---- ------- -- ---- --- --<br>------- ------,142933.20000000112,142932.40000000037,141873.719,141877.5,141890.389,142940.63,,17,in
screen,html.Screen,0_2_1_1_18,2021-11-26T12:04:23.440Z,,,,,,,,,,,,,,,,54,,,,,,,,,,,,,,783.6700000007404,,response,,,100,,,,,,Space,keypress(Space),,,,,-- --- ---- --- ------ ----- ------- ---- -- --- ------- --<br>------- ---------- ------ -- ----- -- order -- ---- ------<br>--- ----- --- --- ------ -------- ----- --- ------ ----- --<br>----- ----- ---------- --- --- ------ ------ ---- -- ------<br>------- --- ------ ----- --- ---- ------- -- ---- --- --<br>------- ------,143725.20000000112,143724.30000000075,142923.96,142933.5,142940.63,143740.836,,18,order
screen,html.Screen,0_2_1_1_19,2021-11-26T12:04:24.296Z,,,,,,,,,,,,,,,,54,,,,,,,,,,,,,,839.3640000011073,,response,,,100,,,,,,Space,keypress(Space),,,,,-- --- ---- --- ------ ----- ------- ---- -- --- ------- --<br>------- ---------- ------ -- ----- -- ----- to ---- ------<br>--- ----- --- --- ------ -------- ----- --- ------ ----- --<br>----- ----- ---------- --- --- ------ ------ ---- -- ------<br>------- --- ------ ----- --- ---- ------- -- ---- --- --<br>------- ------,144581,144580.20000000112,143724.166,143725.5,143740.836,144591.009,,19,to
screen,html.Screen,0_2_1_1_20,2021-11-26T12:04:24.952Z,,,,,,,,,,,,,,,,54,,,,,,,,,,,,,,645.1910000011267,,response,,,100,,,,,,Space,keypress(Space),,,,,-- --- ---- --- ------ ----- ------- ---- -- --- ------- --<br>------- ---------- ------ -- ----- -- ----- -- save ------<br>--- ----- --- --- ------ -------- ----- --- ------ ----- --<br>----- ----- ---------- --- --- ------ ------ ---- -- ------<br>------- --- ------ ----- --- ---- ------- -- ---- --- --<br>------- ------,145237.09999999963,145236.20000000112,144574.339,144581.30000000075,144591.009,145241.333,,20,save
screen,html.Screen,0_2_1_1_21,2021-11-26T12:04:25.688Z,,,,,,,,,,,,,,,,54,,,,,,,,,,,,,,730.7669999996142,,response,,,100,,,,,,Space,keypress(Space),,,,,"-- --- ---- --- ------ ----- ------- ---- -- --- ------- --<br>------- ---------- ------ -- ----- -- ----- -- ---- money,<br>--- ----- --- --- ------ -------- ----- --- ------ ----- --<br>----- ----- ---------- --- --- ------ ------ ---- -- ------<br>------- --- ------ ----- --- ---- ------- -- ---- --- --<br>------- ------",145972.90000000037,145972.09999999963,145224.662,145237.30000000075,145241.333,145974.766,,21,"money,"
screen,html.Screen,0_2_1_1_22,2021-11-26T12:04:26.728Z,,,,,,,,,,,,,,,,54,,,,,,,,,,,,,,1037.7339999999967,,response,,,100,,,,,,Space,keypress(Space),,,,,-- --- ---- --- ------ ----- ------- ---- -- --- ------- --<br>------- ---------- ------ -- ----- -- ----- -- ---- ------<br>the ----- --- --- ------ -------- ----- --- ------ ----- --<br>----- ----- ---------- --- --- ------ ------ ---- -- ------<br>------- --- ------ ----- --- ---- ------- -- ---- --- --<br>------- ------,147013.40000000037,147012.5,145958.096,145973.09999999963,145974.766,147025.008,,22,the
screen,html.Screen,0_2_1_1_23,2021-11-26T12:04:27.512Z,,,,,,,,,,,,,,,,54,,,,,,,,,,,,,,771.0919999996258,,response,,,100,,,,,,Space,keypress(Space),,,,,-- --- ---- --- ------ ----- ------- ---- -- --- ------- --<br>------- ---------- ------ -- ----- -- ----- -- ---- ------<br>--- state --- --- ------ -------- ----- --- ------ ----- --<br>----- ----- ---------- --- --- ------ ------ ---- -- ------<br>------- --- ------ ----- --- ---- ------- -- ---- --- --<br>------- ------,147796.80000000075,147796.09999999963,147008.338,147013.59999999963,147025.008,147808.545,,23,state
screen,html.Screen,0_2_1_1_24,2021-11-26T12:04:28.488Z,,,,,,,,,,,,,,,,54,,,,,,,,,,,,,,963.4549999999872,,response,,,100,,,,,,Space,keypress(Space),,,,,-- --- ---- --- ------ ----- ------- ---- -- --- ------- --<br>------- ---------- ------ -- ----- -- ----- -- ---- ------<br>--- ----- cut --- ------ -------- ----- --- ------ ----- --<br>----- ----- ---------- --- --- ------ ------ ---- -- ------<br>------- --- ------ ----- --- ---- ------- -- ---- --- --<br>------- ------,148772.80000000075,148772,147791.875,147797.09999999963,147808.545,148775.45,,24,cut
screen,html.Screen,0_2_1_1_25,2021-11-26T12:04:29.208Z,,,,,,,,,,,,,,,,54,,,,,,,,,,,,,,716.5499999999884,,response,,,100,,,,,,Space,keypress(Space),,,,,-- --- ---- --- ------ ----- ------- ---- -- --- ------- --<br>------- ---------- ------ -- ----- -- ----- -- ---- ------<br>--- ----- --- the ------ -------- ----- --- ------ ----- --<br>----- ----- ---------- --- --- ------ ------ ---- -- ------<br>------- --- ------ ----- --- ---- ------- -- ---- --- --<br>------- ------,149492.80000000075,149492,148758.78,148773.09999999963,148775.45,149508.977,,25,the
screen,html.Screen,0_2_1_1_26,2021-11-26T12:04:30.008Z,,,,,,,,,,,,,,,,54,,,,,,,,,,,,,,782.923000000359,,response,,,100,,,,,,Space,keypress(Space),,,,,-- --- ---- --- ------ ----- ------- ---- -- --- ------- --<br>------- ---------- ------ -- ----- -- ----- -- ---- ------<br>--- ----- --- --- bonds' -------- ----- --- ------ ----- --<br>----- ----- ---------- --- --- ------ ------ ---- -- ------<br>------- --- ------ ----- --- ---- ------- -- ---- --- --<br>------- ------,150292.70000000112,150291.90000000037,149492.307,149493,149508.977,150309.175,,26,bonds'
screen,html.Screen,0_2_1_1_27,2021-11-26T12:04:30.800Z,,,,,,,,,,,,,,,,54,,,,,,,,,,,,,,774.6250000007567,,response,,,100,,,,,,Space,keypress(Space),,,,,-- --- ---- --- ------ ----- ------- ---- -- --- ------- --<br>------- ---------- ------ -- ----- -- ----- -- ---- ------<br>--- ----- --- --- ------ interest ----- --- ------ ----- --<br>----- ----- ---------- --- --- ------ ------ ---- -- ------<br>------- --- ------ ----- --- ---- ------- -- ---- --- --<br>------- ------,151084.59999999963,151083.80000000075,150292.505,150292.90000000037,150309.175,151092.704,,27,interest
screen,html.Screen,0_2_1_1_28,2021-11-26T12:04:31.488Z,,,,,,,,,,,,,,,,54,,,,,,,,,,,,,,679.1960000003746,,response,,,100,,,,,,Space,keypress(Space),,,,,-- --- ---- --- ------ ----- ------- ---- -- --- ------- --<br>------- ---------- ------ -- ----- -- ----- -- ---- ------<br>--- ----- --- --- ------ -------- rate. --- ------ ----- --<br>----- ----- ---------- --- --- ------ ------ ---- -- ------<br>------- --- ------ ----- --- ---- ------- -- ---- --- --<br>------- ------,151772.59999999963,151771.90000000037,151076.034,151084.80000000075,151092.704,151776.219,,28,rate.
screen,html.Screen,0_2_1_1_29,2021-11-26T12:04:32.328Z,,,,,,,,,,,,,,,,54,,,,,,,,,,,,,,835.5810000007332,,response,,,100,,,,,,Space,keypress(Space),,,,,-- --- ---- --- ------ ----- ------- ---- -- --- ------- --<br>------- ---------- ------ -- ----- -- ----- -- ---- ------<br>--- ----- --- --- ------ -------- ----- The ------ ----- --<br>----- ----- ---------- --- --- ------ ------ ---- -- ------<br>------- --- ------ ----- --- ---- ------- -- ---- --- --<br>------- ------,152612.59999999963,152611.80000000075,151759.549,151772.90000000037,151776.219,152626.398,,29,The
screen,html.Screen,0_2_1_1_30,2021-11-26T12:04:33.432Z,,,,,,,,,,,,,,,,54,,,,,,,,,,,,,,1089.302000001131,,response,,,100,,,,,,Space,keypress(Space),,,,,-- --- ---- --- ------ ----- ------- ---- -- --- ------- --<br>------- ---------- ------ -- ----- -- ----- -- ---- ------<br>--- ----- --- --- ------ -------- ----- --- market ----- --<br>----- ----- ---------- --- --- ------ ------ ---- -- ------<br>------- --- ------ ----- --- ---- ------- -- ---- --- --<br>------- ------,153716.5,153715.70000000112,152609.728,152612.80000000075,152626.398,153726.765,,30,market
screen,html.Screen,0_2_1_1_31,2021-11-26T12:04:34.375Z,,,,,,,,,,,,,,,,54,,,,,,,,,,,,,,932.9350000011036,,response,,,100,,,,,,Space,keypress(Space),,,,,-- --- ---- --- ------ ----- ------- ---- -- --- ------- --<br>------- ---------- ------ -- ----- -- ----- -- ---- ------<br>--- ----- --- --- ------ -------- ----- --- ------ value --<br>----- ----- ---------- --- --- ------ ------ ---- -- ------<br>------- --- ------ ----- --- ---- ------- -- ---- --- --<br>------- ------,154660.40000000037,154659.70000000112,153710.094,153716.70000000112,153726.765,154676.893,,31,value
screen,html.Screen,0_2_1_1_32,2021-11-26T12:04:35.319Z,,,,,,,,,,,,,,,,54,,,,,,,,,,,,,,926.6069999999891,,response,,,100,,,,,,Space,keypress(Space),,,,,-- --- ---- --- ------ ----- ------- ---- -- --- ------- --<br>------- ---------- ------ -- ----- -- ----- -- ---- ------<br>--- ----- --- --- ------ -------- ----- --- ------ ----- of<br>----- ----- ---------- --- --- ------ ------ ---- -- ------<br>------- --- ------ ----- --- ---- ------- -- ---- --- --<br>------- ------,155604.30000000075,155603.5,154660.223,154660.70000000112,154676.893,155610.491,,32,of
screen,html.Screen,0_2_1_1_33,2021-11-26T12:04:36.095Z,,,,,,,,,,,,,,,,54,,,,,,,,,,,,,,769.0089999999909,,response,,,100,,,,,,Space,keypress(Space),,,,,-- --- ---- --- ------ ----- ------- ---- -- --- ------- --<br>------- ---------- ------ -- ----- -- ----- -- ---- ------<br>--- ----- --- --- ------ -------- ----- --- ------ ----- --<br>these ----- ---------- --- --- ------ ------ ---- -- ------<br>------- --- ------ ----- --- ---- ------- -- ---- --- --<br>------- ------,156380.30000000075,156379.5,155593.821,155604.5,155610.491,156394.004,,33,these
screen,html.Screen,0_2_1_1_34,2021-11-26T12:04:36.800Z,,,,,,,,,,,,,,,,54,,,,,,,,,,,,,,689.8960000003863,,response,,,100,,,,,,Space,keypress(Space),,,,,-- --- ---- --- ------ ----- ------- ---- -- --- ------- --<br>------- ---------- ------ -- ----- -- ----- -- ---- ------<br>--- ----- --- --- ------ -------- ----- --- ------ ----- --<br>----- bonds ---------- --- --- ------ ------ ---- -- ------<br>------- --- ------ ----- --- ---- ------- -- ---- --- --<br>------- ------,157084.70000000112,157083.90000000037,156377.334,156380.5,156394.004,157094.204,,34,bonds
screen,html.Screen,0_2_1_1_35,2021-11-26T12:04:38.343Z,,,,,,,,,,,,,,,,54,,,,,,,,,,,,,,1533.1960000003746,,response,,,100,,,,,,Space,keypress(Space),,,,,"-- --- ---- --- ------ ----- ------- ---- -- --- ------- --<br>------- ---------- ------ -- ----- -- ----- -- ---- ------<br>--- ----- --- --- ------ -------- ----- --- ------ ----- --<br>----- ----- plummeted, --- --- ------ ------ ---- -- ------<br>------- --- ------ ----- --- ---- ------- -- ---- --- --<br>------- ------",158628.20000000112,158627.40000000037,157077.534,157084.90000000037,157094.204,158644.545,,35,"plummeted,"
screen,html.Screen,0_2_1_1_36,2021-11-26T12:04:39.351Z,,,,,,,,,,,,,,,,54,,,,,,,,,,,,,,990.8550000003597,,response,,,100,,,,,,Space,keypress(Space),,,,,-- --- ---- --- ------ ----- ------- ---- -- --- ------- --<br>------- ---------- ------ -- ----- -- ----- -- ---- ------<br>--- ----- --- --- ------ -------- ----- --- ------ ----- --<br>----- ----- ---------- and --- ------ ------ ---- -- ------<br>------- --- ------ ----- --- ---- ------- -- ---- --- --<br>------- ------,159636.20000000112,159635.40000000037,158627.875,158628.40000000037,158644.545,159644.779,,36,and
screen,html.Screen,0_2_1_1_37,2021-11-26T12:04:40.087Z,,,,,,,,,,,,,,,,54,,,,,,,,,,,,,,726.421000001108,,response,,,100,,,,,,Space,keypress(Space),,,,,-- --- ---- --- ------ ----- ------- ---- -- --- ------- --<br>------- ---------- ------ -- ----- -- ----- -- ---- ------<br>--- ----- --- --- ------ -------- ----- --- ------ ----- --<br>----- ----- ---------- --- the ------ ------ ---- -- ------<br>------- --- ------ ----- --- ---- ------- -- ---- --- --<br>------- ------,160372.09999999963,160371.20000000112,159628.109,159636.40000000037,159644.779,160378.346,,37,the
screen,html.Screen,0_2_1_1_38,2021-11-26T12:04:40.815Z,,,,,,,,,,,,,,,,54,,,,,,,,,,,,,,720.8540000011271,,response,,,100,,,,,,Space,keypress(Space),,,,,-- --- ---- --- ------ ----- ------- ---- -- --- ------- --<br>------- ---------- ------ -- ----- -- ----- -- ---- ------<br>--- ----- --- --- ------ -------- ----- --- ------ ----- --<br>----- ----- ---------- --- --- market ------ ---- -- ------<br>------- --- ------ ----- --- ---- ------- -- ---- --- --<br>------- ------,161100,161099.20000000112,160361.676,160372.30000000075,160378.346,161111.872,,38,market
screen,html.Screen,0_2_1_1_39,2021-11-26T12:04:41.559Z,,,,,,,,,,,,,,,,54,,,,,,,,,,,,,,731.3280000011146,,response,,,100,,,,,,Space,keypress(Space),,,,,-- --- ---- --- ------ ----- ------- ---- -- --- ------- --<br>------- ---------- ------ -- ----- -- ----- -- ---- ------<br>--- ----- --- --- ------ -------- ----- --- ------ ----- --<br>----- ----- ---------- --- --- ------ became ---- -- ------<br>------- --- ------ ----- --- ---- ------- -- ---- --- --<br>------- ------,161844,161843.20000000112,161095.202,161100.20000000112,161111.872,161845.389,,39,became
screen,html.Screen,0_2_1_1_40,2021-11-26T12:04:42.239Z,,,,,,,,,,,,,,,,54,,,,,,,,,,,,,,677.7109999996319,,response,,,100,,,,,,Space,keypress(Space),,,,,-- --- ---- --- ------ ----- ------- ---- -- --- ------- --<br>------- ---------- ------ -- ----- -- ----- -- ---- ------<br>--- ----- --- --- ------ -------- ----- --- ------ ----- --<br>----- ----- ---------- --- --- ------ ------ wary -- ------<br>------- --- ------ ----- --- ---- ------- -- ---- --- --<br>------- ------,162523.90000000037,162523.09999999963,161828.719,161844.20000000112,161845.389,162528.877,,40,wary
screen,html.Screen,0_2_1_1_41,2021-11-26T12:04:42.807Z,,,,,,,,,,,,,,,,54,,,,,,,,,,,,,,562.2229999996198,,response,,,100,,,,,,Space,keypress(Space),,,,,-- --- ---- --- ------ ----- ------- ---- -- --- ------- --<br>------- ---------- ------ -- ----- -- ----- -- ---- ------<br>--- ----- --- --- ------ -------- ----- --- ------ ----- --<br>----- ----- ---------- --- --- ------ ------ ---- of ------<br>------- --- ------ ----- --- ---- ------- -- ---- --- --<br>------- ------,163091.90000000037,163091.09999999963,162512.207,162524.20000000112,162528.877,163095.707,,41,of
screen,html.Screen,0_2_1_1_42,2021-11-26T12:04:43.633Z,,,,,,,,,,,,,,,,54,,,,,,,,,,,,,,819.3929999996326,,response,,,100,,,,,,Space,keypress(Space),,,,,-- --- ---- --- ------ ----- ------- ---- -- --- ------- --<br>------- ---------- ------ -- ----- -- ----- -- ---- ------<br>--- ----- --- --- ------ -------- ----- --- ------ ----- --<br>----- ----- ---------- --- --- ------ ------ ---- -- French<br>------- --- ------ ----- --- ---- ------- -- ---- --- --<br>------- ------,163917.59999999963,163915.09999999963,163079.037,163092.09999999963,163095.707,163929.236,,42,French
screen,html.Screen,0_2_1_1_43,2021-11-26T12:04:44.415Z,,,,,,,,,,,,,,,,54,,,,,,,,,,,,,,769.7639999999956,,response,,,100,,,,,,Space,keypress(Space),,,,,-- --- ---- --- ------ ----- ------- ---- -- --- ------- --<br>------- ---------- ------ -- ----- -- ----- -- ---- ------<br>--- ----- --- --- ------ -------- ----- --- ------ ----- --<br>----- ----- ---------- --- --- ------ ------ ---- -- ------<br>credit. --- ------ ----- --- ---- ------- -- ---- --- --<br>------- ------,164699.70000000112,164699,163912.566,163917.80000000075,163929.236,164712.761,,43,credit.
screen,html.Screen,0_2_1_1_44,2021-11-26T12:04:44.967Z,,,,,,,,,,,,,,,,54,,,,,,,,,,,,,,538.1390000003739,,response,,,100,,,,,,Space,keypress(Space),,,,,-- --- ---- --- ------ ----- ------- ---- -- --- ------- --<br>------- ---------- ------ -- ----- -- ----- -- ---- ------<br>--- ----- --- --- ------ -------- ----- --- ------ ----- --<br>----- ----- ---------- --- --- ------ ------ ---- -- ------<br>------- The ------ ----- --- ---- ------- -- ---- --- --<br>------- ------,165251.80000000075,165250.90000000037,164696.091,164700,164712.761,165262.862,,44,The
screen,html.Screen,0_2_1_1_45,2021-11-26T12:04:45.567Z,,,,,,,,,,,,,,,,54,,,,,,,,,,,,,,588.1380000000063,,response,,,100,,,,,,Space,keypress(Space),,,,,-- --- ---- --- ------ ----- ------- ---- -- --- ------- --<br>------- ---------- ------ -- ----- -- ----- -- ---- ------<br>--- ----- --- --- ------ -------- ----- --- ------ ----- --<br>----- ----- ---------- --- --- ------ ------ ---- -- ------<br>------- --- French ----- --- ---- ------- -- ---- --- --<br>------- ------,165851.70000000112,165851,165246.192,165252,165262.862,165862.991,,45,French
screen,html.Screen,0_2_1_1_46,2021-11-26T12:04:46.095Z,,,,,,,,,,,,,,,,54,,,,,,,,,,,,,,515.9090000003634,,response,,,100,,,,,,Space,keypress(Space),,,,,-- --- ---- --- ------ ----- ------- ---- -- --- ------- --<br>------- ---------- ------ -- ----- -- ----- -- ---- ------<br>--- ----- --- --- ------ -------- ----- --- ------ ----- --<br>----- ----- ---------- --- --- ------ ------ ---- -- ------<br>------- --- ------ state --- ---- ------- -- ---- --- --<br>------- ------,166379.59999999963,166378.90000000037,165846.321,165851.90000000037,165862.991,166396.594,,46,state
screen,html.Screen,0_2_1_1_47,2021-11-26T12:04:46.999Z,,,,,,,,,,,,,,,,54,,,,,,,,,,,,,,886.6060000011057,,response,,,100,,,,,,Space,keypress(Space),,,,,-- --- ---- --- ------ ----- ------- ---- -- --- ------- --<br>------- ---------- ------ -- ----- -- ----- -- ---- ------<br>--- ----- --- --- ------ -------- ----- --- ------ ----- --<br>----- ----- ---------- --- --- ------ ------ ---- -- ------<br>------- --- ------ ----- was ---- ------- -- ---- --- --<br>------- ------,167283.90000000037,167283.20000000112,166379.923,166380,166396.594,167296.8,,47,was
screen,html.Screen,0_2_1_1_48,2021-11-26T12:04:47.687Z,,,,,,,,,,,,,,,,54,,,,,,,,,,,,,,674.0000000007567,,response,,,100,,,,,,Space,keypress(Space),,,,,-- --- ---- --- ------ ----- ------- ---- -- --- ------- --<br>------- ---------- ------ -- ----- -- ----- -- ---- ------<br>--- ----- --- --- ------ -------- ----- --- ------ ----- --<br>----- ----- ---------- --- --- ------ ------ ---- -- ------<br>------- --- ------ ----- --- left ------- -- ---- --- --<br>------- ------,167971.59999999963,167970.80000000075,167280.129,167284.20000000112,167296.8,167980.229,,48,left
screen,html.Screen,0_2_1_1_49,2021-11-26T12:04:48.430Z,,,,,,,,,,,,,,,,54,,,,,,,,,,,,,,734.4710000011255,,response,,,100,,,,,,Space,keypress(Space),,,,,-- --- ---- --- ------ ----- ------- ---- -- --- ------- --<br>------- ---------- ------ -- ----- -- ----- -- ---- ------<br>--- ----- --- --- ------ -------- ----- --- ------ ----- --<br>----- ----- ---------- --- --- ------ ------ ---- -- ------<br>------- --- ------ ----- --- ---- without -- ---- --- --<br>------- ------,168715.5,168714.70000000112,167963.559,167971.70000000112,167980.229,168730.41,,49,without
screen,html.Screen,0_2_1_1_50,2021-11-26T12:04:49.646Z,,,,,,,,,,,,,,,,54,,,,,,,,,,,,,,1200.290000001114,,response,,,100,,,,,,Space,keypress(Space),,,,,-- --- ---- --- ------ ----- ------- ---- -- --- ------- --<br>------- ---------- ------ -- ----- -- ----- -- ---- ------<br>--- ----- --- --- ------ -------- ----- --- ------ ----- --<br>----- ----- ---------- --- --- ------ ------ ---- -- ------<br>------- --- ------ ----- --- ---- ------- an ---- --- --<br>------- ------,169931.5,169930.70000000112,168713.74,168715.70000000112,168730.41,169947.346,,50,an
screen,html.Screen,0_2_1_1_51,2021-11-26T12:04:50.598Z,,,,,,,,,,,,,,,,54,,,,,,,,,,,,,,935.253999999637,,response,,,100,,,,,,Space,keypress(Space),,,,,-- --- ---- --- ------ ----- ------- ---- -- --- ------- --<br>------- ---------- ------ -- ----- -- ----- -- ---- ------<br>--- ----- --- --- ------ -------- ----- --- ------ ----- --<br>----- ----- ---------- --- --- ------ ------ ---- -- ------<br>------- --- ------ ----- --- ---- ------- -- easy --- --<br>------- ------,170883.30000000075,170882.59999999963,169930.676,169931.70000000112,169947.346,170897.614,,51,easy
screen,html.Screen,0_2_1_1_52,2021-11-26T12:04:51.262Z,,,,,,,,,,,,,,,,54,,,,,,,,,,,,,,648.8859999999986,,response,,,100,,,,,,Space,keypress(Space),,,,,-- --- ---- --- ------ ----- ------- ---- -- --- ------- --<br>------- ---------- ------ -- ----- -- ----- -- ---- ------<br>--- ----- --- --- ------ -------- ----- --- ------ ----- --<br>----- ----- ---------- --- --- ------ ------ ---- -- ------<br>------- --- ------ ----- --- ---- ------- -- ---- way --<br>------- ------,171547.30000000075,171546.5,170880.944,170883.59999999963,170897.614,171564.461,,52,way
screen,html.Screen,0_2_1_1_53,2021-11-26T12:04:52.054Z,,,,,,,,,,,,,,,,54,,,,,,,,,,,,,,774.0389999999898,,response,,,100,,,,,,Space,keypress(Space),,,,,-- --- ---- --- ------ ----- ------- ---- -- --- ------- --<br>------- ---------- ------ -- ----- -- ----- -- ---- ------<br>--- ----- --- --- ------ -------- ----- --- ------ ----- --<br>----- ----- ---------- --- --- ------ ------ ---- -- ------<br>------- --- ------ ----- --- ---- ------- -- ---- --- of<br>------- ------,172339.30000000075,172338.5,171547.791,171547.59999999963,171564.461,172347.986,,53,of
screen,html.Screen,0_2_1_1_54,2021-11-26T12:04:53.830Z,,,,,,,,,,,,,,,,54,,,,,,,,,,,,,,1766.414000000368,,response,,,100,,,,,,Space,keypress(Space),,,,,-- --- ---- --- ------ ----- ------- ---- -- --- ------- --<br>------- ---------- ------ -- ----- -- ----- -- ---- ------<br>--- ----- --- --- ------ -------- ----- --- ------ ----- --<br>----- ----- ---------- --- --- ------ ------ ---- -- ------<br>------- --- ------ ----- --- ---- ------- -- ---- --- --<br>raising ------,174115.09999999963,174114.40000000037,172331.316,172339.59999999963,172347.986,174131.715,,54,raising
screen,html.Screen,0_2_1_1_55,2021-11-26T12:04:54.326Z,,,,,,,,,,,,,,,,54,,,,,,,,,,,,,,478.58500000074855,,response,,,100,,,,,,Space,keypress(Space),,,,,-- --- ---- --- ------ ----- ------- ---- -- --- ------- --<br>------- ---------- ------ -- ----- -- ----- -- ---- ------<br>--- ----- --- --- ------ -------- ----- --- ------ ----- --<br>----- ----- ---------- --- --- ------ ------ ---- -- ------<br>------- --- ------ ----- --- ---- ------- -- ---- --- --<br>------- money.,174611.09999999963,174610.30000000075,174115.045,174115.40000000037,174131.715,174615.3,,55,money.
Item 100,flow.Loop,0_2_1_1,2021-11-26T12:04:54.327Z,,,,,,,,,,,,,,,,,,,,,,,,,,,,,,49607.60400000075,,completion,,,,F,,,,,,,,,,silence,,174611.59999999963,174610.30000000075,124986.027,124987.30000000075,125002.696,174615.3,,,
Question 1,html.Screen,0_2_1_2,2021-11-26T12:04:57.398Z,,,,,,,,,,,,,,,,,,,,,,,,,,,true,TRUE,,3066.7000000000116,,response,,,100,F,,,,,TRUE,click #choice-1,,,,silence,,177683.09999999963,177682,174598.629,174611.80000000075,174615.3,177699.457,,,
Question 2,html.Screen,0_2_1_3,2021-11-26T12:04:59.494Z,,,,,,,,,,,,,,,,,,,,,,,,,,,true,FALSE,,2078.4430000003777,,response,,,100,F,,,,,FALSE,click #choice-2,,,,silence,,179778.90000000037,179777.90000000037,177682.784,177683.40000000037,177699.457,179783.224,,,
Item 100,flow.Sequence,0_2_1,2021-11-26T12:04:59.494Z,,,,,,,,,,,,,,,,,,,,,,,,,,,,,,64777.719000000376,,completion,,,,,,,,,,,,,,,,179779.30000000075,179777.90000000037,114983.514,114991.80000000075,115000.181,179783.224,,,
End of Practice,html.Page,0_2_2,2021-11-26T12:05:03.140Z,,,,,,,,,,,,,,,,,,,,,,,,,,,,,,3635.97600000113,,form submission,,,,,,,,,,,,,,,,183419.90000000037,183419.20000000112,179766.553,179779.5,179783.224,183434.025,,,
Practice,flow.Sequence,0_2,2021-11-26T12:05:03.140Z,,,,,,,,,,,,,,,,,,,,,,,,,,,,,,152806.4640000011,,completion,,,,,,,,,,,,,,,,183420.40000000037,183419.20000000112,30596.065,30581.800000000745,30612.736,183434.025,,,
Trap_instruction,html.Page,0_3_0,2021-11-26T12:05:06.771Z,,,,,,,,,,,,,,,,,,,,,,,,,,,,,,3616.775000000751,,form submission,,,,,,,,,,,,,,,,187051.30000000075,187050.80000000075,183417.355,183420.70000000112,183434.025,187084.789,,,
trap_trial,html.Screen,0_3_1,2021-11-26T12:05:09.594Z,,,,,,,,,,,,,,,,,,,,,,,,,,,true,1,,2788.411000001128,,response,,,,,,,,,1,click #choice-1,,,,,,189874.40000000037,189873.20000000112,187034.779,187051.5,187084.789,189885.565,,,
end of trap trial,html.Page,0_3_2,2021-11-26T12:05:11.410Z,,,,,,,,,,,,,,,,,,,,,,,,,,,,,,1804.8350000003702,,form submission,,,,,,,,,,,,,,,,191690.90000000037,191690.40000000037,189868.895,189874.80000000075,189885.565,191702.818,,,
Trap 1,flow.Sequence,0_3,2021-11-26T12:05:11.411Z,,,,,,,,,,,,,,,,,,,,,,,,,,,,,,8256.375000000378,,completion,,,,,,,,,,,,,,,,191691.30000000075,191690.40000000037,183417.355,183420.59999999963,183434.025,191702.818,,,
Standby,html.Page,0_4_0,2021-11-26T12:05:19.409Z,,,,,,,,,,,,,,,,,,,,,,,,,,,,,,8001.567999999999,,timeout,,,,,,,,,,,,,,,,199689.09999999963,199687.716,191686.147,191691.80000000075,191702.818,199704.386,,,
Holding screen,html.Screen,0_4_1_0_0,2021-11-26T12:05:26.411Z,,,,,,,,,,,,,,,,,,,,,,,,,,,,,,7002.097000000009,,timeout,,,,,,,,,,,,,,,,206691.70000000112,206689.813,199687.716,199689.5,199704.386,206706.483,,,
screen,html.Screen,0_4_1_0_1_0,2021-11-26T12:05:27.313Z,,,,,,,,,,,,,,,,15,,,,,,,,,,,,,,886.3170000007376,,response,,,7,F,,,,,Space,keypress(Space),,,,instrumental,Greg --------- ---------- - --- ------- -- --- ------------<br>----- -- -------- ------- ---- ------ - -------- ---- -----<br>--- ------- ---- -- --- -------- --- - ----- ------ ---- --<br>-------- --- -------- -------- --- -------- ---- -- ----- -<br>-------- ---- --- ---------- --------- -- ------- ------ -<br>--------- ----- -----,207593.70000000112,207592.80000000075,206689.813,206692.09999999963,206706.483,207606.312,,0,Greg
screen,html.Screen,0_4_1_0_1_1,2021-11-26T12:05:28.505Z,,,,,,,,,,,,,,,,15,,,,,,,,,,,,,,1177.8880000011122,,response,,,7,F,,,,,Space,keypress(Space),,,,instrumental,"---- Anderson, ---------- - --- ------- -- --- ------------<br>----- -- -------- ------- ---- ------ - -------- ---- -----<br>--- ------- ---- -- --- -------- --- - ----- ------ ---- --<br>-------- --- -------- -------- --- -------- ---- -- ----- -<br>-------- ---- --- ---------- --------- -- ------- ------ -<br>--------- ----- -----",208784.90000000037,208784.20000000112,207589.65,207594,207606.312,208794.974,,1,"Anderson,"
screen,html.Screen,0_4_1_0_1_2,2021-11-26T12:05:29.417Z,,,,,,,,,,,,,,,,15,,,,,,,,,,,,,,901.2260000011302,,response,,,7,F,,,,,Space,keypress(Space),,,,instrumental,---- --------- considered - --- ------- -- --- ------------<br>----- -- -------- ------- ---- ------ - -------- ---- -----<br>--- ------- ---- -- --- -------- --- - ----- ------ ---- --<br>-------- --- -------- -------- --- -------- ---- -- ----- -<br>-------- ---- --- ---------- --------- -- ------- ------ -<br>--------- ----- -----,209696.90000000037,209696.20000000112,208778.24,208785.09999999963,208794.974,209707.071,,2,considered
screen,html.Screen,0_4_1_0_1_3,2021-11-26T12:05:30.120Z,,,,,,,,,,,,,,,,15,,,,,,,,,,,,,,693.0289999996312,,response,,,7,F,,,,,Space,keypress(Space),,,,instrumental,---- --------- ---------- a --- ------- -- --- ------------<br>----- -- -------- ------- ---- ------ - -------- ---- -----<br>--- ------- ---- -- --- -------- --- - ----- ------ ---- --<br>-------- --- -------- -------- --- -------- ---- -- ----- -<br>-------- ---- --- ---------- --------- -- ------- ------ -<br>--------- ----- -----,210400.90000000037,210400.09999999963,209690.402,209697.20000000112,209707.071,210407.417,,3,a
screen,html.Screen,0_4_1_0_1_4,2021-11-26T12:05:33.912Z,,,,,,,,,,,,,,,,15,,,,,,,,,,,,,,3784.483000000386,,response,,,7,F,,,,,Space,keypress(Space),,,,instrumental,---- --------- ---------- - key ------- -- --- ------------<br>----- -- -------- ------- ---- ------ - -------- ---- -----<br>--- ------- ---- -- --- -------- --- - ----- ------ ---- --<br>-------- --- -------- -------- --- -------- ---- -- ----- -<br>-------- ---- --- ---------- --------- -- ------- ------ -<br>--------- ----- -----,214192.80000000075,214191.90000000037,210390.747,210401.09999999963,210407.417,214208.214,,4,key
screen,html.Screen,0_4_1_0_1_5,2021-11-26T12:05:35.704Z,,,,,,,,,,,,,,,,15,,,,,,,,,,,,,,1775.5860000007378,,response,,,7,F,,,,,Space,keypress(Space),,,,instrumental,---- --------- ---------- - --- witness -- --- ------------<br>----- -- -------- ------- ---- ------ - -------- ---- -----<br>--- ------- ---- -- --- -------- --- - ----- ------ ---- --<br>-------- --- -------- -------- --- -------- ---- -- ----- -<br>-------- ---- --- ---------- --------- -- ------- ------ -<br>--------- ----- -----,215984.59999999963,215983.80000000075,214191.544,214193,214208.214,215992.22,,5,witness
screen,html.Screen,0_4_1_0_1_6,2021-11-26T12:05:36.304Z,,,,,,,,,,,,,,,,15,,,,,,,,,,,,,,591.4800000011164,,response,,,7,F,,,,,Space,keypress(Space),,,,instrumental,---- --------- ---------- - --- ------- by --- ------------<br>----- -- -------- ------- ---- ------ - -------- ---- -----<br>--- ------- ---- -- --- -------- --- - ----- ------ ---- --<br>-------- --- -------- -------- --- -------- ---- -- ----- -<br>-------- ---- --- ---------- --------- -- ------- ------ -<br>--------- ----- -----,216584.5,216583.70000000112,215975.549,215984.80000000075,215992.22,216592.237,,6,by
screen,html.Screen,0_4_1_0_1_7,2021-11-26T12:05:37.144Z,,,,,,,,,,,,,,,,15,,,,,,,,,,,,,,831.3629999996338,,response,,,7,F,,,,,Space,keypress(Space),,,,instrumental,---- --------- ---------- - --- ------- -- the ------------<br>----- -- -------- ------- ---- ------ - -------- ---- -----<br>--- ------- ---- -- --- -------- --- - ----- ------ ---- --<br>-------- --- -------- -------- --- -------- ---- -- ----- -<br>-------- ---- --- ---------- --------- -- ------- ------ -<br>--------- ----- -----,217424.30000000075,217423.59999999963,216575.567,216584.70000000112,216592.237,217425.942,,7,the
screen,html.Screen,0_4_1_0_1_8,2021-11-26T12:05:38.456Z,,,,,,,,,,,,,,,,15,,,,,,,,,,,,,,1310.05799999999,,response,,,7,F,,,,,Space,keypress(Space),,,,instrumental,"---- --------- ---------- - --- ------- -- --- prosecution,<br>----- -- -------- ------- ---- ------ - -------- ---- -----<br>--- ------- ---- -- --- -------- --- - ----- ------ ---- --<br>-------- --- -------- -------- --- -------- ---- -- ----- -<br>-------- ---- --- ---------- --------- -- ------- ------ -<br>--------- ----- -----",218736.80000000075,218736,217409.271,217424.59999999963,217425.942,218742.844,,8,"prosecution,"
screen,html.Screen,0_4_1_0_1_9,2021-11-26T12:05:39.712Z,,,,,,,,,,,,,,,,15,,,,,,,,,,,,,,1248.5560000003607,,response,,,7,F,,,,,Space,keypress(Space),,,,instrumental,---- --------- ---------- - --- ------- -- --- ------------<br>vowed -- -------- ------- ---- ------ - -------- ---- -----<br>--- ------- ---- -- --- -------- --- - ----- ------ ---- --<br>-------- --- -------- -------- --- -------- ---- -- ----- -<br>-------- ---- --- ---------- --------- -- ------- ------ -<br>--------- ----- -----,219992.20000000112,219991.40000000037,218726.174,218737.09999999963,218742.844,220009.644,,9,vowed
screen,html.Screen,0_4_1_0_1_10,2021-11-26T12:05:40.808Z,,,,,,,,,,,,,,,,15,,,,,,,,,,,,,,1077.7560000003723,,response,,,7,F,,,,,Space,keypress(Space),,,,instrumental,---- --------- ---------- - --- ------- -- --- ------------<br>----- he -------- ------- ---- ------ - -------- ---- -----<br>--- ------- ---- -- --- -------- --- - ----- ------ ---- --<br>-------- --- -------- -------- --- -------- ---- -- ----- -<br>-------- ---- --- ---------- --------- -- ------- ------ -<br>--------- ----- -----,221088.20000000112,221087.40000000037,219992.975,219992.40000000037,220009.644,221093.513,,10,he
screen,html.Screen,0_4_1_0_1_11,2021-11-26T12:05:41.720Z,,,,,,,,,,,,,,,,15,,,,,,,,,,,,,,905.8870000003662,,response,,,7,F,,,,,Space,keypress(Space),,,,instrumental,---- --------- ---------- - --- ------- -- --- ------------<br>----- -- wouldn't ------- ---- ------ - -------- ---- -----<br>--- ------- ---- -- --- -------- --- - ----- ------ ---- --<br>-------- --- -------- -------- --- -------- ---- -- ----- -<br>-------- ---- --- ---------- --------- -- ------- ------ -<br>--------- ----- -----,222000.20000000112,221999.40000000037,221076.842,221088.40000000037,221093.513,222010.257,,11,wouldn't
screen,html.Screen,0_4_1_0_1_12,2021-11-26T12:05:43.080Z,,,,,,,,,,,,,,,,15,,,,,,,,,,,,,,1348.9430000011052,,response,,,7,F,,,,,Space,keypress(Space),,,,instrumental,---- --------- ---------- - --- ------- -- --- ------------<br>----- -- -------- testify ---- ------ - -------- ---- -----<br>--- ------- ---- -- --- -------- --- - ----- ------ ---- --<br>-------- --- -------- -------- --- -------- ---- -- ----- -<br>-------- ---- --- ---------- --------- -- ------- ------ -<br>--------- ----- -----,223360.09999999963,223359.20000000112,221993.587,222000.40000000037,222010.257,223377.461,,12,testify
screen,html.Screen,0_4_1_0_1_13,2021-11-26T12:05:44.264Z,,,,,,,,,,,,,,,,15,,,,,,,,,,,,,,1165.6389999996172,,response,,,7,F,,,,,Space,keypress(Space),,,,instrumental,---- --------- ---------- - --- ------- -- --- ------------<br>----- -- -------- ------- when ------ - -------- ---- -----<br>--- ------- ---- -- --- -------- --- - ----- ------ ---- --<br>-------- --- -------- -------- --- -------- ---- -- ----- -<br>-------- ---- --- ---------- --------- -- ------- ------ -<br>--------- ----- -----,224543.90000000037,224543.09999999963,223360.79,223360.30000000075,223377.461,224560.929,,13,when
screen,html.Screen,0_4_1_0_1_14,2021-11-26T12:05:45.031Z,,,,,,,,,,,,,,,,15,,,,,,,,,,,,,,750.1709999996237,,response,,,7,F,,,,,Space,keypress(Space),,,,instrumental,---- --------- ---------- - --- ------- -- --- ------------<br>----- -- -------- ------- ---- served - -------- ---- -----<br>--- ------- ---- -- --- -------- --- - ----- ------ ---- --<br>-------- --- -------- -------- --- -------- ---- -- ----- -<br>-------- ---- --- ---------- --------- -- ------- ------ -<br>--------- ----- -----,225311.90000000037,225311.09999999963,224544.259,224544.20000000112,224560.929,225327.834,,14,served
screen,html.Screen,0_4_1_0_1_15,2021-11-26T12:05:45.616Z,,,,,,,,,,,,,,,,15,,,,,,,,,,,,,,567.366000001115,,response,,,7,F,,,,,Space,keypress(Space),,,,instrumental,---- --------- ---------- - --- ------- -- --- ------------<br>----- -- -------- ------- ---- ------ a -------- ---- -----<br>--- ------- ---- -- --- -------- --- - ----- ------ ---- --<br>-------- --- -------- -------- --- -------- ---- -- ----- -<br>-------- ---- --- ---------- --------- -- ------- ------ -<br>--------- ----- -----,225895.90000000037,225895.20000000112,225311.164,225312.09999999963,225327.834,225911.331,,15,a
screen,html.Screen,0_4_1_0_1_16,2021-11-26T12:05:46.599Z,,,,,,,,,,,,,,,,15,,,,,,,,,,,,,,967.6689999999944,,response,,,7,F,,,,,Space,keypress(Space),,,,instrumental,---- --------- ---------- - --- ------- -- --- ------------<br>----- -- -------- ------- ---- ------ - subpoena ---- -----<br>--- ------- ---- -- --- -------- --- - ----- ------ ---- --<br>-------- --- -------- -------- --- -------- ---- -- ----- -<br>-------- ---- --- ---------- --------- -- ------- ------ -<br>--------- ----- -----,226879.80000000075,226879,225894.661,225896.09999999963,225911.331,226894.891,,16,subpoena
screen,html.Screen,0_4_1_0_1_17,2021-11-26T12:05:47.335Z,,,,,,,,,,,,,,,,15,,,,,,,,,,,,,,720.1089999999967,,response,,,7,F,,,,,Space,keypress(Space),,,,instrumental,---- --------- ---------- - --- ------- -- --- ------------<br>----- -- -------- ------- ---- ------ - -------- last -----<br>--- ------- ---- -- --- -------- --- - ----- ------ ---- --<br>-------- --- -------- -------- --- -------- ---- -- ----- -<br>-------- ---- --- ---------- --------- -- ------- ------ -<br>--------- ----- -----,227615.80000000075,227615,226878.221,226880,226894.891,227628.393,,17,last
screen,html.Screen,0_4_1_0_1_18,2021-11-26T12:05:47.951Z,,,,,,,,,,,,,,,,15,,,,,,,,,,,,,,602.5070000003616,,response,,,7,F,,,,,Space,keypress(Space),,,,instrumental,---- --------- ---------- - --- ------- -- --- ------------<br>----- -- -------- ------- ---- ------ - -------- ---- week.<br>--- ------- ---- -- --- -------- --- - ----- ------ ---- --<br>-------- --- -------- -------- --- -------- ---- -- ----- -<br>-------- ---- --- ---------- --------- -- ------- ------ -<br>--------- ----- -----,228231.70000000112,228230.90000000037,227611.723,227616,227628.393,228245.12,,18,week.
screen,html.Screen,0_4_1_0_1_19,2021-11-26T12:05:48.536Z,,,,,,,,,,,,,,,,15,,,,,,,,,,,,,,570.2800000003772,,response,,,7,F,,,,,Space,keypress(Space),,,,instrumental,---- --------- ---------- - --- ------- -- --- ------------<br>----- -- -------- ------- ---- ------ - -------- ---- -----<br>His ------- ---- -- --- -------- --- - ----- ------ ---- --<br>-------- --- -------- -------- --- -------- ---- -- ----- -<br>-------- ---- --- ---------- --------- -- ------- ------ -<br>--------- ----- -----,228816.20000000112,228815.40000000037,228228.451,228231.90000000037,228245.12,228828.786,,19,His
screen,html.Screen,0_4_1_0_1_20,2021-11-26T12:05:49.287Z,,,,,,,,,,,,,,,,15,,,,,,,,,,,,,,738.1140000003797,,response,,,7,F,,,,,Space,keypress(Space),,,,instrumental,---- --------- ---------- - --- ------- -- --- ------------<br>----- -- -------- ------- ---- ------ - -------- ---- -----<br>--- lawyers ---- -- --- -------- --- - ----- ------ ---- --<br>-------- --- -------- -------- --- -------- ---- -- ----- -<br>-------- ---- --- ---------- --------- -- ------- ------ -<br>--------- ----- -----,229567.80000000075,229566.90000000037,228812.115,228816.40000000037,228828.786,229578.769,,20,lawyers
screen,html.Screen,0_4_1_0_1_21,2021-11-26T12:05:49.807Z,,,,,,,,,,,,,,,,15,,,,,,,,,,,,,,508.1310000003723,,response,,,7,F,,,,,Space,keypress(Space),,,,instrumental,---- --------- ---------- - --- ------- -- --- ------------<br>----- -- -------- ------- ---- ------ - -------- ---- -----<br>--- ------- said -- --- -------- --- - ----- ------ ---- --<br>-------- --- -------- -------- --- -------- ---- -- ----- -<br>-------- ---- --- ---------- --------- -- ------- ------ -<br>--------- ----- -----,230087.59999999963,230086.90000000037,229562.1,229568,229578.769,230095.838,,21,said
screen,html.Screen,0_4_1_0_1_22,2021-11-26T12:05:50.511Z,,,,,,,,,,,,,,,,15,,,,,,,,,,,,,,695.0620000003837,,response,,,7,F,,,,,Space,keypress(Space),,,,instrumental,---- --------- ---------- - --- ------- -- --- ------------<br>----- -- -------- ------- ---- ------ - -------- ---- -----<br>--- ------- ---- he --- -------- --- - ----- ------ ---- --<br>-------- --- -------- -------- --- -------- ---- -- ----- -<br>-------- ---- --- ---------- --------- -- ------- ------ -<br>--------- ----- -----,230791.5,230790.90000000037,230079.166,230087.80000000075,230095.838,230795.86,,22,he
screen,html.Screen,0_4_1_0_1_23,2021-11-26T12:05:51.191Z,,,,,,,,,,,,,,,,15,,,,,,,,,,,,,,674.8400000011316,,response,,,7,F,,,,,Space,keypress(Space),,,,instrumental,---- --------- ---------- - --- ------- -- --- ------------<br>----- -- -------- ------- ---- ------ - -------- ---- -----<br>--- ------- ---- -- was -------- --- - ----- ------ ---- --<br>-------- --- -------- -------- --- -------- ---- -- ----- -<br>-------- ---- --- ---------- --------- -- ------- ------ -<br>--------- ----- -----,231471.40000000037,231470.70000000112,230779.19,230791.80000000075,230795.86,231479.432,,23,was
screen,html.Screen,0_4_1_0_1_24,2021-11-26T12:05:51.759Z,,,,,,,,,,,,,,,,15,,,,,,,,,,,,,,559.2680000011169,,response,,,7,F,,,,,Space,keypress(Space),,,,instrumental,---- --------- ---------- - --- ------- -- --- ------------<br>----- -- -------- ------- ---- ------ - -------- ---- -----<br>--- ------- ---- -- --- prepared --- - ----- ------ ---- --<br>-------- --- -------- -------- --- -------- ---- -- ----- -<br>-------- ---- --- ---------- --------- -- ------- ------ -<br>--------- ----- -----,232039.5,232038.70000000112,231462.761,231471.59999999963,231479.432,232046.19,,24,prepared
screen,html.Screen,0_4_1_0_1_25,2021-11-26T12:05:52.351Z,,,,,,,,,,,,,,,,15,,,,,,,,,,,,,,584.4099999996251,,response,,,7,F,,,,,Space,keypress(Space),,,,instrumental,---- --------- ---------- - --- ------- -- --- ------------<br>----- -- -------- ------- ---- ------ - -------- ---- -----<br>--- ------- ---- -- --- -------- for - ----- ------ ---- --<br>-------- --- -------- -------- --- -------- ---- -- ----- -<br>-------- ---- --- ---------- --------- -- ------- ------ -<br>--------- ----- -----,232631.40000000037,232630.59999999963,232029.52,232039.70000000112,232046.19,232646.342,,25,for
screen,html.Screen,0_4_1_0_1_26,2021-11-26T12:05:52.815Z,,,,,,,,,,,,,,,,15,,,,,,,,,,,,,,448.2579999996233,,response,,,7,F,,,,,Space,keypress(Space),,,,instrumental,---- --------- ---------- - --- ------- -- --- ------------<br>----- -- -------- ------- ---- ------ - -------- ---- -----<br>--- ------- ---- -- --- -------- --- a ----- ------ ---- --<br>-------- --- -------- -------- --- -------- ---- -- ----- -<br>-------- ---- --- ---------- --------- -- ------- ------ -<br>--------- ----- -----,233095.5,233094.59999999963,232629.672,232631.59999999963,232646.342,233096.443,,26,a
screen,html.Screen,0_4_1_0_1_27,2021-11-26T12:05:53.375Z,,,,,,,,,,,,,,,,15,,,,,,,,,,,,,,558.1569999996282,,response,,,7,F,,,,,Space,keypress(Space),,,,instrumental,---- --------- ---------- - --- ------- -- --- ------------<br>----- -- -------- ------- ---- ------ - -------- ---- -----<br>--- ------- ---- -- --- -------- --- - third ------ ---- --<br>-------- --- -------- -------- --- -------- ---- -- ----- -<br>-------- ---- --- ---------- --------- -- ------- ------ -<br>--------- ----- -----,233655.40000000037,233654.59999999963,233079.773,233095.59999999963,233096.443,233663.256,,27,third
screen,html.Screen,0_4_1_0_1_28,2021-11-26T12:05:54.143Z,,,,,,,,,,,,,,,,15,,,,,,,,,,,,,,759.244000000006,,response,,,7,F,,,,,Space,keypress(Space),,,,instrumental,---- --------- ---------- - --- ------- -- --- ------------<br>----- -- -------- ------- ---- ------ - -------- ---- -----<br>--- ------- ---- -- --- -------- --- - ----- prison ---- --<br>-------- --- -------- -------- --- -------- ---- -- ----- -<br>-------- ---- --- ---------- --------- -- ------- ------ -<br>--------- ----- -----,234423.30000000075,234422.5,233646.586,233655.59999999963,233663.256,234430.17,,28,prison
screen,html.Screen,0_4_1_0_1_29,2021-11-26T12:05:54.831Z,,,,,,,,,,,,,,,,15,,,,,,,,,,,,,,680.4299999996147,,response,,,7,F,,,,,Space,keypress(Space),,,,instrumental,---- --------- ---------- - --- ------- -- --- ------------<br>----- -- -------- ------- ---- ------ - -------- ---- -----<br>--- ------- ---- -- --- -------- --- - ----- ------ stay --<br>-------- --- -------- -------- --- -------- ---- -- ----- -<br>-------- ---- --- ---------- --------- -- ------- ------ -<br>--------- ----- -----,235111.30000000075,235110.59999999963,234413.499,234423.5,234430.17,235113.597,,29,stay
screen,html.Screen,0_4_1_0_1_30,2021-11-26T12:05:55.335Z,,,,,,,,,,,,,,,,15,,,,,,,,,,,,,,500.8030000003637,,response,,,7,F,,,,,Space,keypress(Space),,,,instrumental,---- --------- ---------- - --- ------- -- --- ------------<br>----- -- -------- ------- ---- ------ - -------- ---- -----<br>--- ------- ---- -- --- -------- --- - ----- ------ ---- to<br>-------- --- -------- -------- --- -------- ---- -- ----- -<br>-------- ---- --- ---------- --------- -- ------- ------ -<br>--------- ----- -----,235615.20000000112,235614.40000000037,235096.927,235111.59999999963,235113.597,235630.415,,30,to
screen,html.Screen,0_4_1_0_1_31,2021-11-26T12:05:55.951Z,,,,,,,,,,,,,,,,15,,,,,,,,,,,,,,599.9850000003644,,response,,,7,F,,,,,Space,keypress(Space),,,,instrumental,---- --------- ---------- - --- ------- -- --- ------------<br>----- -- -------- ------- ---- ------ - -------- ---- -----<br>--- ------- ---- -- --- -------- --- - ----- ------ ---- --<br>maintain --- -------- -------- --- -------- ---- -- ----- -<br>-------- ---- --- ---------- --------- -- ------- ------ -<br>--------- ----- -----,236231.30000000075,236230.40000000037,235613.745,235615.5,235630.415,236247.234,,31,maintain
screen,html.Screen,0_4_1_0_1_32,2021-11-26T12:05:56.600Z,,,,,,,,,,,,,,,,15,,,,,,,,,,,,,,631.1660000003758,,response,,,7,F,,,,,Space,keypress(Space),,,,instrumental,---- --------- ---------- - --- ------- -- --- ------------<br>----- -- -------- ------- ---- ------ - -------- ---- -----<br>--- ------- ---- -- --- -------- --- - ----- ------ ---- --<br>-------- his -------- -------- --- -------- ---- -- ----- -<br>-------- ---- --- ---------- --------- -- ------- ------ -<br>--------- ----- -----,236880.09999999963,236878.40000000037,236230.564,236231.5,236247.234,236897.298,,32,his
screen,html.Screen,0_4_1_0_1_33,2021-11-26T12:05:57.591Z,,,,,,,,,,,,,,,,15,,,,,,,,,,,,,,972.9020000011078,,response,,,7,F,,,,,Space,keypress(Space),,,,instrumental,---- --------- ---------- - --- ------- -- --- ------------<br>----- -- -------- ------- ---- ------ - -------- ---- -----<br>--- ------- ---- -- --- -------- --- - ----- ------ ---- --<br>-------- --- silence. -------- --- -------- ---- -- ----- -<br>-------- ---- --- ---------- --------- -- ------- ------ -<br>--------- ----- -----,237871.09999999963,237870.20000000112,236880.629,236880.40000000037,236897.298,237881.033,,33,silence.
screen,html.Screen,0_4_1_0_1_34,2021-11-26T12:05:58.815Z,,,,,,,,,,,,,,,,15,,,,,,,,,,,,,,1213.6670000011218,,response,,,7,F,,,,,Space,keypress(Space),,,,instrumental,---- --------- ---------- - --- ------- -- --- ------------<br>----- -- -------- ------- ---- ------ - -------- ---- -----<br>--- ------- ---- -- --- -------- --- - ----- ------ ---- --<br>-------- --- -------- Anderson --- -------- ---- -- ----- -<br>-------- ---- --- ---------- --------- -- ------- ------ -<br>--------- ----- -----,239095.5,239094.70000000112,237864.362,237871.30000000075,237881.033,239097.881,,34,Anderson
screen,html.Screen,0_4_1_0_1_35,2021-11-26T12:05:59.983Z,,,,,,,,,,,,,,,,15,,,,,,,,,,,,,,1164.3190000011236,,response,,,7,F,,,,,Space,keypress(Space),,,,instrumental,---- --------- ---------- - --- ------- -- --- ------------<br>----- -- -------- ------- ---- ------ - -------- ---- -----<br>--- ------- ---- -- --- -------- --- - ----- ------ ---- --<br>-------- --- -------- -------- was -------- ---- -- ----- -<br>-------- ---- --- ---------- --------- -- ------- ------ -<br>--------- ----- -----,240263,240262.20000000112,239081.211,239095.70000000112,239097.881,240264.961,,35,was
screen,html.Screen,0_4_1_0_1_36,2021-11-26T12:06:00.767Z,,,,,,,,,,,,,,,,15,,,,,,,,,,,,,,781.2390000011073,,response,,,7,F,,,,,Space,keypress(Space),,,,instrumental,---- --------- ---------- - --- ------- -- --- ------------<br>----- -- -------- ------- ---- ------ - -------- ---- -----<br>--- ------- ---- -- --- -------- --- - ----- ------ ---- --<br>-------- --- -------- -------- --- released ---- -- ----- -<br>-------- ---- --- ---------- --------- -- ------- ------ -<br>--------- ----- -----,241046.90000000037,241046.20000000112,240248.29,240263.20000000112,240264.961,241048.376,,36,released
screen,html.Screen,0_4_1_0_1_37,2021-11-26T12:06:01.526Z,,,,,,,,,,,,,,,,15,,,,,,,,,,,,,,757.7239999996382,,response,,,7,F,,,,,Space,keypress(Space),,,,instrumental,---- --------- ---------- - --- ------- -- --- ------------<br>----- -- -------- ------- ---- ------ - -------- ---- -----<br>--- ------- ---- -- --- -------- --- - ----- ------ ---- --<br>-------- --- -------- -------- --- -------- July -- ----- -<br>-------- ---- --- ---------- --------- -- ------- ------ -<br>--------- ----- -----,241806.90000000037,241806.09999999963,241031.706,241047.20000000112,241048.376,241815.339,,37,July
screen,html.Screen,0_4_1_0_1_38,2021-11-26T12:06:02.541Z,,,,,,,,,,,,,,,,15,,,,,,,,,,,,,,1006.5610000003653,,response,,,7,F,,,,,Space,keypress(Space),,,,instrumental,---- --------- ---------- - --- ------- -- --- ------------<br>----- -- -------- ------- ---- ------ - -------- ---- -----<br>--- ------- ---- -- --- -------- --- - ----- ------ ---- --<br>-------- --- -------- -------- --- -------- ---- 20 ----- -<br>-------- ---- --- ---------- --------- -- ------- ------ -<br>--------- ----- -----,242822.70000000112,242821.90000000037,241798.668,241807.09999999963,241815.339,242832.025,,38,20
screen,html.Screen,0_4_1_0_1_39,2021-11-26T12:06:03.365Z,,,,,,,,,,,,,,,,15,,,,,,,,,,,,,,813.9750000000058,,response,,,7,F,,,,,Space,keypress(Space),,,,instrumental,---- --------- ---------- - --- ------- -- --- ------------<br>----- -- -------- ------- ---- ------ - -------- ---- -----<br>--- ------- ---- -- --- -------- --- - ----- ------ ---- --<br>-------- --- -------- -------- --- -------- ---- -- after -<br>-------- ---- --- ---------- --------- -- ------- ------ -<br>--------- ----- -----,243646.80000000075,243646,242815.356,242822.90000000037,242832.025,243649.163,,39,after
screen,html.Screen,0_4_1_0_1_40,2021-11-26T12:06:03.997Z,,,,,,,,,,,,,,,,15,,,,,,,,,,,,,,628.8369999999995,,response,,,7,F,,,,,Space,keypress(Space),,,,instrumental,---- --------- ---------- - --- ------- -- --- ------------<br>----- -- -------- ------- ---- ------ - -------- ---- -----<br>--- ------- ---- -- --- -------- --- - ----- ------ ---- --<br>-------- --- -------- -------- --- -------- ---- -- ----- a<br>-------- ---- --- ---------- --------- -- ------- ------ -<br>--------- ----- -----,244278.90000000037,244278,243632.492,243647.09999999963,243649.163,244282.569,,40,a
screen,html.Screen,0_4_1_0_1_41,2021-11-26T12:06:04.701Z,,,,,,,,,,,,,,,,15,,,,,,,,,,,,,,699.2310000007565,,response,,,7,F,,,,,Space,keypress(Space),,,,instrumental,---- --------- ---------- - --- ------- -- --- ------------<br>----- -- -------- ------- ---- ------ - -------- ---- -----<br>--- ------- ---- -- --- -------- --- - ----- ------ ---- --<br>-------- --- -------- -------- --- -------- ---- -- ----- -<br>two-week ---- --- ---------- --------- -- ------- ------ -<br>--------- ----- -----,244982.59999999963,244981.80000000075,244265.899,244279.09999999963,244282.569,244999.389,,41,two-week
screen,html.Screen,0_4_1_0_1_42,2021-11-26T12:06:05.941Z,,,,,,,,,,,,,,,,15,,,,,,,,,,,,,,1222.4110000007495,,response,,,7,F,,,,,Space,keypress(Space),,,,instrumental,---- --------- ---------- - --- ------- -- --- ------------<br>----- -- -------- ------- ---- ------ - -------- ---- -----<br>--- ------- ---- -- --- -------- --- - ----- ------ ---- --<br>-------- --- -------- -------- --- -------- ---- -- ----- -<br>-------- stay --- ---------- --------- -- ------- ------ -<br>--------- ----- -----,246222.5,246221.80000000075,244982.719,244982.90000000037,244999.389,246233.017,,42,stay
screen,html.Screen,0_4_1_0_1_43,2021-11-26T12:06:07.029Z,,,,,,,,,,,,,,,,15,,,,,,,,,,,,,,1076.7830000007525,,response,,,7,F,,,,,Space,keypress(Space),,,,instrumental,---- --------- ---------- - --- ------- -- --- ------------<br>----- -- -------- ------- ---- ------ - -------- ---- -----<br>--- ------- ---- -- --- -------- --- - ----- ------ ---- --<br>-------- --- -------- -------- --- -------- ---- -- ----- -<br>-------- ---- for ---------- --------- -- ------- ------ -<br>--------- ----- -----,247310.59999999963,247309.80000000075,246216.347,246222.70000000112,246233.017,247316.621,,43,for
screen,html.Screen,0_4_1_0_1_44,2021-11-26T12:06:08.453Z,,,,,,,,,,,,,,,,15,,,,,,,,,,,,,,1417.0790000011039,,response,,,7,F,,,,,Space,keypress(Space),,,,instrumental,---- --------- ---------- - --- ------- -- --- ------------<br>----- -- -------- ------- ---- ------ - -------- ---- -----<br>--- ------- ---- -- --- -------- --- - ----- ------ ---- --<br>-------- --- -------- -------- --- -------- ---- -- ----- -<br>-------- ---- --- previously --------- -- ------- ------ -<br>--------- ----- -----,248734.5,248733.70000000112,247299.951,247310.70000000112,247316.621,248750.217,,44,previously
screen,html.Screen,0_4_1_0_1_45,2021-11-26T12:06:09.196Z,,,,,,,,,,,,,,,,15,,,,,,,,,,,,,,727.1830000003683,,response,,,7,F,,,,,Space,keypress(Space),,,,instrumental,---- --------- ---------- - --- ------- -- --- ------------<br>----- -- -------- ------- ---- ------ - -------- ---- -----<br>--- ------- ---- -- --- -------- --- - ----- ------ ---- --<br>-------- --- -------- -------- --- -------- ---- -- ----- -<br>-------- ---- --- ---------- declining -- ------- ------ -<br>--------- ----- -----,249477.70000000112,249477.40000000037,248733.547,248734.80000000075,248750.217,249483.805,,45,declining
screen,html.Screen,0_4_1_0_1_46,2021-11-26T12:06:10.165Z,,,,,,,,,,,,,,,,15,,,,,,,,,,,,,,961.695000000007,,response,,,7,F,,,,,Space,keypress(Space),,,,instrumental,---- --------- ---------- - --- ------- -- --- ------------<br>----- -- -------- ------- ---- ------ - -------- ---- -----<br>--- ------- ---- -- --- -------- --- - ----- ------ ---- --<br>-------- --- -------- -------- --- -------- ---- -- ----- -<br>-------- ---- --- ---------- --------- to ------- ------ -<br>--------- ----- -----,250446.30000000075,250445.5,249467.135,249477.90000000037,249483.805,250450.694,,46,to
screen,html.Screen,0_4_1_0_1_47,2021-11-26T12:06:10.861Z,,,,,,,,,,,,,,,,15,,,,,,,,,,,,,,690.8060000000114,,response,,,7,F,,,,,Space,keypress(Space),,,,instrumental,---- --------- ---------- - --- ------- -- --- ------------<br>----- -- -------- ------- ---- ------ - -------- ---- -----<br>--- ------- ---- -- --- -------- --- - ----- ------ ---- --<br>-------- --- -------- -------- --- -------- ---- -- ----- -<br>-------- ---- --- ---------- --------- -- testify ------ -<br>--------- ----- -----,251142.30000000075,251141.5,250434.024,250446.70000000112,250450.694,251150.856,,47,testify
screen,html.Screen,0_4_1_0_1_48,2021-11-26T12:06:11.525Z,,,,,,,,,,,,,,,,15,,,,,,,,,,,,,,654.6440000000002,,response,,,7,F,,,,,Space,keypress(Space),,,,instrumental,---- --------- ---------- - --- ------- -- --- ------------<br>----- -- -------- ------- ---- ------ - -------- ---- -----<br>--- ------- ---- -- --- -------- --- - ----- ------ ---- --<br>-------- --- -------- -------- --- -------- ---- -- ----- -<br>-------- ---- --- ---------- --------- -- ------- before -<br>--------- ----- -----,251806.30000000075,251805.5,251134.186,251142.59999999963,251150.856,251817.846,,48,before
screen,html.Screen,0_4_1_0_1_49,2021-11-26T12:06:12.205Z,,,,,,,,,,,,,,,,15,,,,,,,,,,,,,,667.5540000003821,,response,,,7,F,,,,,Space,keypress(Space),,,,instrumental,---- --------- ---------- - --- ------- -- --- ------------<br>----- -- -------- ------- ---- ------ - -------- ---- -----<br>--- ------- ---- -- --- -------- --- - ----- ------ ---- --<br>-------- --- -------- -------- --- -------- ---- -- ----- -<br>-------- ---- --- ---------- --------- -- ------- ------ a<br>--------- ----- -----,252486.09999999963,252485.40000000037,251801.175,251806.59999999963,251817.846,252501.275,,49,a
screen,html.Screen,0_4_1_0_1_50,2021-11-26T12:06:12.869Z,,,,,,,,,,,,,,,,15,,,,,,,,,,,,,,648.0250000007509,,response,,,7,F,,,,,Space,keypress(Space),,,,instrumental,---- --------- ---------- - --- ------- -- --- ------------<br>----- -- -------- ------- ---- ------ - -------- ---- -----<br>--- ------- ---- -- --- -------- --- - ----- ------ ---- --<br>-------- --- -------- -------- --- -------- ---- -- ----- -<br>-------- ---- --- ---------- --------- -- ------- ------ -<br>different ----- -----,253150.09999999963,253149.30000000075,252484.605,252486.40000000037,252501.275,253151.422,,50,different
screen,html.Screen,0_4_1_0_1_51,2021-11-26T12:06:13.437Z,,,,,,,,,,,,,,,,15,,,,,,,,,,,,,,565.9780000003811,,response,,,7,F,,,,,Space,keypress(Space),,,,instrumental,---- --------- ---------- - --- ------- -- --- ------------<br>----- -- -------- ------- ---- ------ - -------- ---- -----<br>--- ------- ---- -- --- -------- --- - ----- ------ ---- --<br>-------- --- -------- -------- --- -------- ---- -- ----- -<br>-------- ---- --- ---------- --------- -- ------- ------ -<br>--------- grand -----,253718.09999999963,253717.40000000037,253134.752,253150.30000000075,253151.422,253734.978,,51,grand
screen,html.Screen,0_4_1_0_1_52,2021-11-26T12:06:14.013Z,,,,,,,,,,,,,,,,15,,,,,,,,,,,,,,558.3220000007423,,response,,,7,F,,,,,Space,keypress(Space),,,,instrumental,---- --------- ---------- - --- ------- -- --- ------------<br>----- -- -------- ------- ---- ------ - -------- ---- -----<br>--- ------- ---- -- --- -------- --- - ----- ------ ---- --<br>-------- --- -------- -------- --- -------- ---- -- ----- -<br>-------- ---- --- ---------- --------- -- ------- ------ -<br>--------- ----- jury.,254294,254293.30000000075,253718.307,253718.40000000037,253734.978,254301.703,,52,jury.
