sender,sender_type,sender_id,timestamp,meta,,Blues,Classical,Country,Dance,Electronic,Folk,Gospel,Hip-Hop,Jazz,Latin,Musical/Film,New-age,Pop,Provo_ID,R&B,Rap,Reggae,Religious,Rock,Soul,Swing,Traditional,age,artist_name,correct,correctResponse,distraction,duration,education,ended_on,familiarity,gender,item,list,music_frequency,offensiveness,pleasantness,preference,response,response_action,snippet_file,song_name,song_rating,sound,text,time_commit,time_end,time_render,time_run,time_show,time_switch,url,word,word_ID
Instructions,html.Page,0_0,2021-11-19T12:39:39.124Z,"{""labjs_version"":""20.2.3"",""labjs_build"":{""flavor"":""production"",""commit"":""7ea907d66ca8aeef8054924ca5d82ffbe11e34e5""},""location"":""https://run.pavlovia.org/mvasilev/lab_music_d/"",""userAgent"":""Mozilla/5.0 (Windows NT 6.1; Win64; x64) AppleWebKit/537.36 (KHTML, like Gecko) Chrome/96.0.4664.45 Safari/537.36"",""platform"":""Win32"",""language"":""en-US"",""locale"":""en-US"",""timeZone"":""Europe/London"",""timezoneOffset"":0,""screen_width"":1920,""screen_height"":1080,""scroll_width"":1920,""scroll_height"":959,""window_innerWidth"":1920,""window_innerHeight"":1007,""devicePixelRatio"":1}",,,,,,,,,,,,,,,,,,,,,,,,,,,,,25115.317999928477,,form submission,,,,,,,,,,,,,,,,33381.39999997616,33380.199999928474,8231.542,8250.399999976158,8264.882,33388.31,{},,
Headphones,html.Page,0_1,2021-11-19T12:39:42.057Z,,,,,,,,,,,,,,,,,,,,,,,,,,,,,,2924.8899999284768,,form submission,,,,,,,,,,,,,,,,36313.799999952316,36313.199999928474,33371.637,33382.10000002384,33388.31,36322.117,,,
Holding screen,html.Screen,0_2_0_0,2021-11-19T12:39:52.056Z,,,,,,,,,,,,,,,,,,,,,,,,,,,,,,10002.560000000005,,timeout,,,,,,,,,,,,,,,,46313,46308.008,36305.448,36314.299999952316,36322.117,46324.677,,,
screen,html.Screen,0_2_0_1_0,2021-11-19T12:39:53.293Z,,,,,,,,,,,,,,,,53,,,,,,,,,,,,,,1224.3229999999967,,response,,,99,,,,,,Space,keypress(Space),,,,,When -- ----- -- ------ - ------- --- ----------<br>------------- ------ ------ ---- ---- ------- ----- -- ----<br>-------- ------- -- ---------- --- - --- ----- ----- ----<br>---- --- --- ----- --- ---- ---- ------- ----- ---- -------<br>--- --- -- ----- -- --- ---- -- --- ---- -- ------ ------<br>--- ----- -- ----,47550.60000002384,47549,46308.008,46313.39999997616,46324.677,47558.718,,0,When
screen,html.Screen,0_2_0_1_1,2021-11-19T12:39:53.676Z,,,,,,,,,,,,,,,,53,,,,,,,,,,,,,,373.78199999999924,,response,,,99,,,,,,Space,keypress(Space),,,,,---- it ----- -- ------ - ------- --- ----------<br>------------- ------ ------ ---- ---- ------- ----- -- ----<br>-------- ------- -- ---------- --- - --- ----- ----- ----<br>---- --- --- ----- --- ---- ---- ------- ----- ---- -------<br>--- --- -- ----- -- --- ---- -- --- ---- -- ------ ------<br>--- ----- -- ----,47933.39999997616,47932.5,47542.046,47550.89999997616,47558.718,47941.911,,1,it
screen,html.Screen,0_2_0_1_2,2021-11-19T12:39:54.060Z,,,,,,,,,,,,,,,,53,,,,,,,,,,,,,,374.3889999523162,,response,,,99,,,,,,Space,keypress(Space),,,,,---- -- comes -- ------ - ------- --- ----------<br>------------- ------ ------ ---- ---- ------- ----- -- ----<br>-------- ------- -- ---------- --- - --- ----- ----- ----<br>---- --- --- ----- --- ---- ---- ------- ----- ---- -------<br>--- --- -- ----- -- --- ---- -- --- ---- -- ------ ------<br>--- ----- -- ----,48317.199999928474,48316.299999952316,47925.241,47933.699999928474,47941.911,48325.452,,2,comes
screen,html.Screen,0_2_0_1_3,2021-11-19T12:39:54.428Z,,,,,,,,,,,,,,,,53,,,,,,,,,,,,,,359.0480000000025,,response,,,99,,,,,,Space,keypress(Space),,,,,---- -- ----- to ------ - ------- --- ----------<br>------------- ------ ------ ---- ---- ------- ----- -- ----<br>-------- ------- -- ---------- --- - --- ----- ----- ----<br>---- --- --- ----- --- ---- ---- ------- ----- ---- -------<br>--- --- -- ----- -- --- ---- -- --- ---- -- ------ ------<br>--- ----- -- ----,48685.39999997616,48684.5,48308.781,48317.5,48325.452,48692.181,,3,to
screen,html.Screen,0_2_0_1_4,2021-11-19T12:39:54.780Z,,,,,,,,,,,,,,,,53,,,,,,,,,,,,,,344.2189999761613,,response,,,99,,,,,,Space,keypress(Space),,,,,---- -- ----- -- having - ------- --- ----------<br>------------- ------ ------ ---- ---- ------- ----- -- ----<br>-------- ------- -- ---------- --- - --- ----- ----- ----<br>---- --- --- ----- --- ---- ---- ------- ----- ---- -------<br>--- --- -- ----- -- --- ---- -- --- ---- -- ------ ------<br>--- ----- -- ----,49037.5,49036.39999997616,48675.511,48685.89999997616,48692.181,49042.263,,4,having
screen,html.Screen,0_2_0_1_5,2021-11-19T12:39:55.132Z,,,,,,,,,,,,,,,,53,,,,,,,,,,,,,,346.13699997615913,,response,,,99,,,,,,Space,keypress(Space),,,,,---- -- ----- -- ------ a ------- --- ----------<br>------------- ------ ------ ---- ---- ------- ----- -- ----<br>-------- ------- -- ---------- --- - --- ----- ----- ----<br>---- --- --- ----- --- ---- ---- ------- ----- ---- -------<br>--- --- -- ----- -- --- ---- -- --- ---- -- ------ ------<br>--- ----- -- ----,49389.299999952316,49388.39999997616,49025.593,49037.799999952316,49042.263,49392.338,,5,a
screen,html.Screen,0_2_0_1_6,2021-11-19T12:39:55.508Z,,,,,,,,,,,,,,,,53,,,,,,,,,,,,,,371.9619999523129,,response,,,99,,,,,,Space,keypress(Space),,,,,---- -- ----- -- ------ - lasting --- ----------<br>------------- ------ ------ ---- ---- ------- ----- -- ----<br>-------- ------- -- ---------- --- - --- ----- ----- ----<br>---- --- --- ----- --- ---- ---- ------- ----- ---- -------<br>--- --- -- ----- -- --- ---- -- --- ---- -- ------ ------<br>--- ----- -- ----,49765.199999928474,49764.299999952316,49375.668,49389.89999997616,49392.338,49775.7,,6,lasting
screen,html.Screen,0_2_0_1_7,2021-11-19T12:39:55.972Z,,,,,,,,,,,,,,,,53,,,,,,,,,,,,,,452.5999999523192,,response,,,99,,,,,,Space,keypress(Space),,,,,---- -- ----- -- ------ - ------- and ----------<br>------------- ------ ------ ---- ---- ------- ----- -- ----<br>-------- ------- -- ---------- --- - --- ----- ----- ----<br>---- --- --- ----- --- ---- ---- ------- ----- ---- -------<br>--- --- -- ----- -- --- ---- -- --- ---- -- ------ ------<br>--- ----- -- ----,50229.199999928474,50228.299999952316,49759.031,49765.60000002384,49775.7,50242.531,,7,and
screen,html.Screen,0_2_0_1_8,2021-11-19T12:39:56.444Z,,,,,,,,,,,,,,,,53,,,,,,,,,,,,,,457.7689999523136,,response,,,99,,,,,,Space,keypress(Space),,,,,---- -- ----- -- ------ - ------- --- fulfilling<br>------------- ------ ------ ---- ---- ------- ----- -- ----<br>-------- ------- -- ---------- --- - --- ----- ----- ----<br>---- --- --- ----- --- ---- ---- ------- ----- ---- -------<br>--- --- -- ----- -- --- ---- -- --- ---- -- ------ ------<br>--- ----- -- ----,50701.39999997616,50700.299999952316,50225.861,50229.60000002384,50242.531,50709.497,,8,fulfilling
screen,html.Screen,0_2_0_1_9,2021-11-19T12:39:56.908Z,,,,,,,,,,,,,,,,53,,,,,,,,,,,,,,454.7029999284714,,response,,,99,,,,,,Space,keypress(Space),,,,,"---- -- ----- -- ------ - ------- --- ----------<br>relationship, ------ ------ ---- ---- ------- ----- -- ----<br>-------- ------- -- ---------- --- - --- ----- ----- ----<br>---- --- --- ----- --- ---- ---- ------- ----- ---- -------<br>--- --- -- ----- -- --- ---- -- --- ---- -- ------ ------<br>--- ----- -- ----",51165.10000002384,51164.199999928474,50692.824,50701.699999928474,50709.497,51176.129,,9,"relationship,"
screen,html.Screen,0_2_0_1_10,2021-11-19T12:39:57.260Z,,,,,,,,,,,,,,,,53,,,,,,,,,,,,,,340.0709999284736,,response,,,99,,,,,,Space,keypress(Space),,,,,---- -- ----- -- ------ - ------- --- ----------<br>------------- common ------ ---- ---- ------- ----- -- ----<br>-------- ------- -- ---------- --- - --- ----- ----- ----<br>---- --- --- ----- --- ---- ---- ------- ----- ---- -------<br>--- --- -- ----- -- --- ---- -- --- ---- -- ------ ------<br>--- ----- -- ----,51517.199999928474,51516.199999928474,51159.459,51165.39999997616,51176.129,51526.239,,10,common
screen,html.Screen,0_2_0_1_11,2021-11-19T12:39:57.844Z,,,,,,,,,,,,,,,,53,,,,,,,,,,,,,,573.960999928473,,response,,,99,,,,,,Space,keypress(Space),,,,,---- -- ----- -- ------ - ------- --- ----------<br>------------- ------ wisdom ---- ---- ------- ----- -- ----<br>-------- ------- -- ---------- --- - --- ----- ----- ----<br>---- --- --- ----- --- ---- ---- ------- ----- ---- -------<br>--- --- -- ----- -- --- ---- -- --- ---- -- ------ ------<br>--- ----- -- ----,52101.10000002384,52100.199999928474,51509.569,51517.39999997616,51526.239,52109.712,,11,wisdom
screen,html.Screen,0_2_0_1_12,2021-11-19T12:39:58.276Z,,,,,,,,,,,,,,,,53,,,,,,,,,,,,,,422.4879999284749,,response,,,99,,,,,,Space,keypress(Space),,,,,---- -- ----- -- ------ - ------- --- ----------<br>------------- ------ ------ says ---- ------- ----- -- ----<br>-------- ------- -- ---------- --- - --- ----- ----- ----<br>---- --- --- ----- --- ---- ---- ------- ----- ---- -------<br>--- --- -- ----- -- --- ---- -- --- ---- -- ------ ------<br>--- ----- -- ----,52533.10000002384,52532.199999928474,52093.042,52101.299999952316,52109.712,52543.089,,12,says
screen,html.Screen,0_2_0_1_13,2021-11-19T12:39:58.636Z,,,,,,,,,,,,,,,,53,,,,,,,,,,,,,,349.1109999284745,,response,,,99,,,,,,Space,keypress(Space),,,,,---- -- ----- -- ------ - ------- --- ----------<br>------------- ------ ------ ---- that ------- ----- -- ----<br>-------- ------- -- ---------- --- - --- ----- ----- ----<br>---- --- --- ----- --- ---- ---- ------- ----- ---- -------<br>--- --- -- ----- -- --- ---- -- --- ---- -- ------ ------<br>--- ----- -- ----,52893.10000002384,52892.199999928474,52526.42,52533.299999952316,52543.089,52909.97,,13,that
screen,html.Screen,0_2_0_1_14,2021-11-19T12:39:58.940Z,,,,,,,,,,,,,,,,53,,,,,,,,,,,,,,286.1300000238407,,response,,,99,,,,,,Space,keypress(Space),,,,,---- -- ----- -- ------ - ------- --- ----------<br>------------- ------ ------ ---- ---- feeling ----- -- ----<br>-------- ------- -- ---------- --- - --- ----- ----- ----<br>---- --- --- ----- --- ---- ---- ------- ----- ---- -------<br>--- --- -- ----- -- --- ---- -- --- ---- -- ------ ------<br>--- ----- -- ----,53197,53196.10000002384,52893.299,52893.39999997616,52909.97,53210.045,,14,feeling
screen,html.Screen,0_2_0_1_15,2021-11-19T12:39:59.332Z,,,,,,,,,,,,,,,,53,,,,,,,,,,,,,,378.0550000238436,,response,,,99,,,,,,Space,keypress(Space),,,,,---- -- ----- -- ------ - ------- --- ----------<br>------------- ------ ------ ---- ---- ------- close -- ----<br>-------- ------- -- ---------- --- - --- ----- ----- ----<br>---- --- --- ----- --- ---- ---- ------- ----- ---- -------<br>--- --- -- ----- -- --- ---- -- --- ---- -- ------ ------<br>--- ----- -- ----,53589.10000002384,53588.10000002384,53193.374,53197.299999952316,53210.045,53593.355,,15,close
screen,html.Screen,0_2_0_1_16,2021-11-19T12:39:59.708Z,,,,,,,,,,,,,,,,53,,,,,,,,,,,,,,370.8449999284712,,response,,,99,,,,,,Space,keypress(Space),,,,,---- -- ----- -- ------ - ------- --- ----------<br>------------- ------ ------ ---- ---- ------- ----- to ----<br>-------- ------- -- ---------- --- - --- ----- ----- ----<br>---- --- --- ----- --- ---- ---- ------- ----- ---- -------<br>--- --- -- ----- -- --- ---- -- --- ---- -- ------ ------<br>--- ----- -- ----,53965,53964.199999928474,53576.686,53589.299999952316,53593.355,53976.947,,16,to
screen,html.Screen,0_2_0_1_17,2021-11-19T12:40:00.268Z,,,,,,,,,,,,,,,,53,,,,,,,,,,,,,,547.1530000238417,,response,,,99,,,,,,Space,keypress(Space),,,,,---- -- ----- -- ------ - ------- --- ----------<br>------------- ------ ------ ---- ---- ------- ----- -- your<br>-------- ------- -- ---------- --- - --- ----- ----- ----<br>---- --- --- ----- --- ---- ---- ------- ----- ---- -------<br>--- --- -- ----- -- --- ---- -- --- ---- -- ------ ------<br>--- ----- -- ----,54525,54524.10000002384,53960.275,53965.299999952316,53976.947,54527.005,,17,your
screen,html.Screen,0_2_0_1_18,2021-11-19T12:40:00.684Z,,,,,,,,,,,,,,,,53,,,,,,,,,,,,,,413.0950000238445,,response,,,99,,,,,,Space,keypress(Space),,,,,---- -- ----- -- ------ - ------- --- ----------<br>------------- ------ ------ ---- ---- ------- ----- -- ----<br>romantic ------- -- ---------- --- - --- ----- ----- ----<br>---- --- --- ----- --- ---- ---- ------- ----- ---- -------<br>--- --- -- ----- -- --- ---- -- --- ---- -- ------ ------<br>--- ----- -- ----,54940.89999997616,54940.10000002384,54510.335,54525.199999928474,54527.005,54943.628,,18,romantic
screen,html.Screen,0_2_0_1_19,2021-11-19T12:40:01.052Z,,,,,,,,,,,,,,,,53,,,,,,,,,,,,,,364.4720000238449,,response,,,99,,,,,,Space,keypress(Space),,,,,---- -- ----- -- ------ - ------- --- ----------<br>------------- ------ ------ ---- ---- ------- ----- -- ----<br>-------- partner -- ---------- --- - --- ----- ----- ----<br>---- --- --- ----- --- ---- ---- ------- ----- ---- -------<br>--- --- -- ----- -- --- ---- -- --- ---- -- ------ ------<br>--- ----- -- ----,55308.89999997616,55308.10000002384,54926.96,54941.199999928474,54943.628,55310.639,,19,partner
screen,html.Screen,0_2_0_1_20,2021-11-19T12:40:01.436Z,,,,,,,,,,,,,,,,53,,,,,,,,,,,,,,381.36099999999715,,response,,,99,,,,,,Space,keypress(Space),,,,,---- -- ----- -- ------ - ------- --- ----------<br>------------- ------ ------ ---- ---- ------- ----- -- ----<br>-------- ------- is ---------- --- - --- ----- ----- ----<br>---- --- --- ----- --- ---- ---- ------- ----- ---- -------<br>--- --- -- ----- -- --- ---- -- --- ---- -- ------ ------<br>--- ----- -- ----,55692.89999997616,55692,55293.967,55309.199999928474,55310.639,55693.991,,20,is
screen,html.Screen,0_2_0_1_21,2021-11-19T12:40:01.804Z,,,,,,,,,,,,,,,,53,,,,,,,,,,,,,,366.10900002384005,,response,,,99,,,,,,Space,keypress(Space),,,,,---- -- ----- -- ------ - ------- --- ----------<br>------------- ------ ------ ---- ---- ------- ----- -- ----<br>-------- ------- -- paramount. --- - --- ----- ----- ----<br>---- --- --- ----- --- ---- ---- ------- ----- ---- -------<br>--- --- -- ----- -- --- ---- -- --- ---- -- ------ ------<br>--- ----- -- ----,56060.799999952316,56060.10000002384,55677.321,55693.10000002384,55693.991,56077.41,,21,paramount.
screen,html.Screen,0_2_0_1_22,2021-11-19T12:40:02.276Z,,,,,,,,,,,,,,,,53,,,,,,,,,,,,,,454.48999997615465,,response,,,99,,,,,,Space,keypress(Space),,,,,---- -- ----- -- ------ - ------- --- ----------<br>------------- ------ ------ ---- ---- ------- ----- -- ----<br>-------- ------- -- ---------- But - --- ----- ----- ----<br>---- --- --- ----- --- ---- ---- ------- ----- ---- -------<br>--- --- -- ----- -- --- ---- -- --- ---- -- ------ ------<br>--- ----- -- ----,56532.89999997616,56531.89999997616,56060.74,56061.39999997616,56077.41,56544.196,,22,But
screen,html.Screen,0_2_0_1_23,2021-11-19T12:40:02.652Z,,,,,,,,,,,,,,,,53,,,,,,,,,,,,,,363.7039999761546,,response,,,99,,,,,,Space,keypress(Space),,,,,---- -- ----- -- ------ - ------- --- ----------<br>------------- ------ ------ ---- ---- ------- ----- -- ----<br>-------- ------- -- ---------- --- a --- ----- ----- ----<br>---- --- --- ----- --- ---- ---- ------- ----- ---- -------<br>--- --- -- ----- -- --- ---- -- --- ---- -- ------ ------<br>--- ----- -- ----,56908.799999952316,56907.89999997616,56527.526,56533.299999952316,56544.196,56910.96,,23,a
screen,html.Screen,0_2_0_1_24,2021-11-19T12:40:03.004Z,,,,,,,,,,,,,,,,53,,,,,,,,,,,,,,348.939999976159,,response,,,99,,,,,,Space,keypress(Space),,,,,---- -- ----- -- ------ - ------- --- ----------<br>------------- ------ ------ ---- ---- ------- ----- -- ----<br>-------- ------- -- ---------- --- - new ----- ----- ----<br>---- --- --- ----- --- ---- ---- ------- ----- ---- -------<br>--- --- -- ----- -- --- ---- -- --- ---- -- ------ ------<br>--- ----- -- ----,57260.799999952316,57259.89999997616,56894.29,56909,56910.96,57277.616,,24,new
screen,html.Screen,0_2_0_1_25,2021-11-19T12:40:03.276Z,,,,,,,,,,,,,,,,53,,,,,,,,,,,,,,254.28399997615634,,response,,,99,,,,,,Space,keypress(Space),,,,,---- -- ----- -- ------ - ------- --- ----------<br>------------- ------ ------ ---- ---- ------- ----- -- ----<br>-------- ------- -- ---------- --- - --- study ----- ----<br>---- --- --- ----- --- ---- ---- ------- ----- ---- -------<br>--- --- -- ----- -- --- ---- -- --- ---- -- ------ ------<br>--- ----- -- ----,57532.799999952316,57531.89999997616,57260.947,57261,57277.616,57544.524,,25,study
screen,html.Screen,0_2_0_1_26,2021-11-19T12:40:03.628Z,,,,,,,,,,,,,,,,53,,,,,,,,,,,,,,339.87599997616053,,response,,,99,,,,,,Space,keypress(Space),,,,,---- -- ----- -- ------ - ------- --- ----------<br>------------- ------ ------ ---- ---- ------- ----- -- ----<br>-------- ------- -- ---------- --- - --- ----- finds ----<br>---- --- --- ----- --- ---- ---- ------- ----- ---- -------<br>--- --- -- ----- -- --- ---- -- --- ---- -- ------ ------<br>--- ----- -- ----,57885.299999952316,57884.39999997616,57527.852,57533.10000002384,57544.524,57894.583,,26,finds
screen,html.Screen,0_2_0_1_27,2021-11-19T12:40:03.956Z,,,,,,,,,,,,,,,,53,,,,,,,,,,,,,,317.3169999761594,,response,,,99,,,,,,Space,keypress(Space),,,,,---- -- ----- -- ------ - ------- --- ----------<br>------------- ------ ------ ---- ---- ------- ----- -- ----<br>-------- ------- -- ---------- --- - --- ----- ----- that<br>---- --- --- ----- --- ---- ---- ------- ----- ---- -------<br>--- --- -- ----- -- --- ---- -- --- ---- -- ------ ------<br>--- ----- -- ----,58212.799999952316,58211.89999997616,57877.912,57885.5,57894.583,58228.004,,27,that
screen,html.Screen,0_2_0_1_28,2021-11-19T12:40:04.388Z,,,,,,,,,,,,,,,,53,,,,,,,,,,,,,,415.8959999761573,,response,,,99,,,,,,Space,keypress(Space),,,,,---- -- ----- -- ------ - ------- --- ----------<br>------------- ------ ------ ---- ---- ------- ----- -- ----<br>-------- ------- -- ---------- --- - --- ----- ----- ----<br>it's --- --- ----- --- ---- ---- ------- ----- ---- -------<br>--- --- -- ----- -- --- ---- -- --- ---- -- ------ ------<br>--- ----- -- ----,58644.699999928474,58643.89999997616,58211.333,58213,58228.004,58661.406,,28,it's
screen,html.Screen,0_2_0_1_29,2021-11-19T12:40:04.748Z,,,,,,,,,,,,,,,,53,,,,,,,,,,,,,,342.3939999523136,,response,,,99,,,,,,Space,keypress(Space),,,,,---- -- ----- -- ------ - ------- --- ----------<br>------------- ------ ------ ---- ---- ------- ----- -- ----<br>-------- ------- -- ---------- --- - --- ----- ----- ----<br>---- not --- ----- --- ---- ---- ------- ----- ---- -------<br>--- --- -- ----- -- --- ---- -- --- ---- -- ------ ------<br>--- ----- -- ----,59004.699999928474,59003.799999952316,58644.736,58645,58661.406,59011.448,,29,not
screen,html.Screen,0_2_0_1_30,2021-11-19T12:40:05.044Z,,,,,,,,,,,,,,,,53,,,,,,,,,,,,,,288.45199997616146,,response,,,99,,,,,,Space,keypress(Space),,,,,---- -- ----- -- ------ - ------- --- ----------<br>------------- ------ ------ ---- ---- ------- ----- -- ----<br>-------- ------- -- ---------- --- - --- ----- ----- ----<br>---- --- how ----- --- ---- ---- ------- ----- ---- -------<br>--- --- -- ----- -- --- ---- -- --- ---- -- ------ ------<br>--- ----- -- ----,59300.60000002384,59299.89999997616,58994.779,59004.89999997616,59011.448,59311.628,,30,how
screen,html.Screen,0_2_0_1_31,2021-11-19T12:40:05.428Z,,,,,,,,,,,,,,,,53,,,,,,,,,,,,,,372.1719999523193,,response,,,99,,,,,,Space,keypress(Space),,,,,---- -- ----- -- ------ - ------- --- ----------<br>------------- ------ ------ ---- ---- ------- ----- -- ----<br>-------- ------- -- ---------- --- - --- ----- ----- ----<br>---- --- --- close --- ---- ---- ------- ----- ---- -------<br>--- --- -- ----- -- --- ---- -- --- ---- -- ------ ------<br>--- ----- -- ----,59684.699999928474,59683.799999952316,59294.957,59300.89999997616,59311.628,59695.012,,31,close
screen,html.Screen,0_2_0_1_32,2021-11-19T12:40:05.839Z,,,,,,,,,,,,,,,,53,,,,,,,,,,,,,,396.78799995231384,,response,,,99,,,,,,Space,keypress(Space),,,,,---- -- ----- -- ------ - ------- --- ----------<br>------------- ------ ------ ---- ---- ------- ----- -- ----<br>-------- ------- -- ---------- --- - --- ----- ----- ----<br>---- --- --- ----- you ---- ---- ------- ----- ---- -------<br>--- --- -- ----- -- --- ---- -- --- ---- -- ------ ------<br>--- ----- -- ----,60092.799999952316,60091.799999952316,59678.342,59684.89999997616,59695.012,60095.12,,32,you
screen,html.Screen,0_2_0_1_33,2021-11-19T12:40:06.191Z,,,,,,,,,,,,,,,,53,,,,,,,,,,,,,,348.5799999284718,,response,,,99,,,,,,Space,keypress(Space),,,,,---- -- ----- -- ------ - ------- --- ----------<br>------------- ------ ------ ---- ---- ------- ----- -- ----<br>-------- ------- -- ---------- --- - --- ----- ----- ----<br>---- --- --- ----- --- feel ---- ------- ----- ---- -------<br>--- --- -- ----- -- --- ---- -- --- ---- -- ------ ------<br>--- ----- -- ----,60444.5,60443.699999928474,60078.45,60093.10000002384,60095.12,60461.72,,33,feel
screen,html.Screen,0_2_0_1_34,2021-11-19T12:40:06.543Z,,,,,,,,,,,,,,,,53,,,,,,,,,,,,,,334.0799999523151,,response,,,99,,,,,,Space,keypress(Space),,,,,---- -- ----- -- ------ - ------- --- ----------<br>------------- ------ ------ ---- ---- ------- ----- -- ----<br>-------- ------- -- ---------- --- - --- ----- ----- ----<br>---- --- --- ----- --- ---- that ------- ----- ---- -------<br>--- --- -- ----- -- --- ---- -- --- ---- -- ------ ------<br>--- ----- -- ----,60796.60000002384,60795.799999952316,60445.052,60444.799999952316,60461.72,60812.074,,34,that
screen,html.Screen,0_2_0_1_35,2021-11-19T12:40:06.951Z,,,,,,,,,,,,,,,,53,,,,,,,,,,,,,,391.6259999284739,,response,,,99,,,,,,Space,keypress(Space),,,,,---- -- ----- -- ------ - ------- --- ----------<br>------------- ------ ------ ---- ---- ------- ----- -- ----<br>-------- ------- -- ---------- --- - --- ----- ----- ----<br>---- --- --- ----- --- ---- ---- matters ----- ---- -------<br>--- --- -- ----- -- --- ---- -- --- ---- -- ------ ------<br>--- ----- -- ----,61204.5,61203.699999928474,60795.401,60796.89999997616,60812.074,61211.946,,35,matters
screen,html.Screen,0_2_0_1_36,2021-11-19T12:40:07.311Z,,,,,,,,,,,,,,,,53,,,,,,,,,,,,,,351.7539999284709,,response,,,99,,,,,,Space,keypress(Space),,,,,"---- -- ----- -- ------ - ------- --- ----------<br>------------- ------ ------ ---- ---- ------- ----- -- ----<br>-------- ------- -- ---------- --- - --- ----- ----- ----<br>---- --- --- ----- --- ---- ---- ------- most, ---- -------<br>--- --- -- ----- -- --- ---- -- --- ---- -- ------ ------<br>--- ----- -- ----",61564.799999952316,61563.699999928474,61195.278,61204.799999952316,61211.946,61578.773,,36,"most,"
screen,html.Screen,0_2_0_1_37,2021-11-19T12:40:07.743Z,,,,,,,,,,,,,,,,53,,,,,,,,,,,,,,416.9269999284734,,response,,,99,,,,,,Space,keypress(Space),,,,,---- -- ----- -- ------ - ------- --- ----------<br>------------- ------ ------ ---- ---- ------- ----- -- ----<br>-------- ------- -- ---------- --- - --- ----- ----- ----<br>---- --- --- ----- --- ---- ---- ------- ----- it's -------<br>--- --- -- ----- -- --- ---- -- --- ---- -- ------ ------<br>--- ----- -- ----,61996.5,61995.699999928474,61562.103,61565,61578.773,62012.347,,37,it's
screen,html.Screen,0_2_0_1_38,2021-11-19T12:40:08.119Z,,,,,,,,,,,,,,,,53,,,,,,,,,,,,,,359.35299992847285,,response,,,99,,,,,,Space,keypress(Space),,,,,---- -- ----- -- ------ - ------- --- ----------<br>------------- ------ ------ ---- ---- ------- ----- -- ----<br>-------- ------- -- ---------- --- - --- ----- ----- ----<br>---- --- --- ----- --- ---- ---- ------- ----- ---- whether<br>--- --- -- ----- -- --- ---- -- --- ---- -- ------ ------<br>--- ----- -- ----,62372.5,62371.699999928474,61995.675,61996.699999928474,62012.347,62379.069,,38,whether
screen,html.Screen,0_2_0_1_39,2021-11-19T12:40:08.487Z,,,,,,,,,,,,,,,,53,,,,,,,,,,,,,,360.6309999284713,,response,,,99,,,,,,Space,keypress(Space),,,,,---- -- ----- -- ------ - ------- --- ----------<br>------------- ------ ------ ---- ---- ------- ----- -- ----<br>-------- ------- -- ---------- --- - --- ----- ----- ----<br>---- --- --- ----- --- ---- ---- ------- ----- ---- -------<br>you --- -- ----- -- --- ---- -- --- ---- -- ------ ------<br>--- ----- -- ----,62740.39999997616,62739.699999928474,62362.398,62372.699999928474,62379.069,62745.791,,39,you
screen,html.Screen,0_2_0_1_40,2021-11-19T12:40:08.839Z,,,,,,,,,,,,,,,,53,,,,,,,,,,,,,,345.908999928477,,response,,,99,,,,,,Space,keypress(Space),,,,,---- -- ----- -- ------ - ------- --- ----------<br>------------- ------ ------ ---- ---- ------- ----- -- ----<br>-------- ------- -- ---------- --- - --- ----- ----- ----<br>---- --- --- ----- --- ---- ---- ------- ----- ---- -------<br>--- are -- ----- -- --- ---- -- --- ---- -- ------ ------<br>--- ----- -- ----,63092.5,63091.699999928474,62729.121,62740.699999928474,62745.791,63095.925,,40,are
screen,html.Screen,0_2_0_1_41,2021-11-19T12:40:09.103Z,,,,,,,,,,,,,,,,53,,,,,,,,,,,,,,259.67500002383895,,response,,,99,,,,,,Space,keypress(Space),,,,,---- -- ----- -- ------ - ------- --- ----------<br>------------- ------ ------ ---- ---- ------- ----- -- ----<br>-------- ------- -- ---------- --- - --- ----- ----- ----<br>---- --- --- ----- --- ---- ---- ------- ----- ---- -------<br>--- --- as ----- -- --- ---- -- --- ---- -- ------ ------<br>--- ----- -- ----,63356.39999997616,63355.60000002384,63079.254,63092.699999928474,63095.925,63362.63,,41,as
screen,html.Screen,0_2_0_1_42,2021-11-19T12:40:09.487Z,,,,,,,,,,,,,,,,53,,,,,,,,,,,,,,376.9700000238445,,response,,,99,,,,,,Space,keypress(Space),,,,,---- -- ----- -- ------ - ------- --- ----------<br>------------- ------ ------ ---- ---- ------- ----- -- ----<br>-------- ------- -- ---------- --- - --- ----- ----- ----<br>---- --- --- ----- --- ---- ---- ------- ----- ---- -------<br>--- --- -- close -- --- ---- -- --- ---- -- ------ ------<br>--- ----- -- ----,63740.39999997616,63739.60000002384,63345.96,63356.60000002384,63362.63,63746.061,,42,close
screen,html.Screen,0_2_0_1_43,2021-11-19T12:40:09.823Z,,,,,,,,,,,,,,,,53,,,,,,,,,,,,,,329.53900002384034,,response,,,99,,,,,,Space,keypress(Space),,,,,---- -- ----- -- ------ - ------- --- ----------<br>------------- ------ ------ ---- ---- ------- ----- -- ----<br>-------- ------- -- ---------- --- - --- ----- ----- ----<br>---- --- --- ----- --- ---- ---- ------- ----- ---- -------<br>--- --- -- ----- as --- ---- -- --- ---- -- ------ ------<br>--- ----- -- ----,64076.39999997616,64075.60000002384,63729.391,63740.699999928474,63746.061,64079.481,,43,as
screen,html.Screen,0_2_0_1_44,2021-11-19T12:40:10.143Z,,,,,,,,,,,,,,,,53,,,,,,,,,,,,,,316.1190000238421,,response,,,99,,,,,,Space,keypress(Space),,,,,---- -- ----- -- ------ - ------- --- ----------<br>------------- ------ ------ ---- ---- ------- ----- -- ----<br>-------- ------- -- ---------- --- - --- ----- ----- ----<br>---- --- --- ----- --- ---- ---- ------- ----- ---- -------<br>--- --- -- ----- -- you ---- -- --- ---- -- ------ ------<br>--- ----- -- ----,64396.39999997616,64395.60000002384,64062.811,64076.60000002384,64079.481,64412.891,,44,you
screen,html.Screen,0_2_0_1_45,2021-11-19T12:40:10.447Z,,,,,,,,,,,,,,,,53,,,,,,,,,,,,,,286.60899999999674,,response,,,99,,,,,,Space,keypress(Space),,,,,---- -- ----- -- ------ - ------- --- ----------<br>------------- ------ ------ ---- ---- ------- ----- -- ----<br>-------- ------- -- ---------- --- - --- ----- ----- ----<br>---- --- --- ----- --- ---- ---- ------- ----- ---- -------<br>--- --- -- ----- -- --- want -- --- ---- -- ------ ------<br>--- ----- -- ----,64700.39999997616,64699.5,64396.221,64396.699999928474,64412.891,64712.966,,45,want
screen,html.Screen,0_2_0_1_46,2021-11-19T12:40:10.863Z,,,,,,,,,,,,,,,,53,,,,,,,,,,,,,,402.53399999999965,,response,,,99,,,,,,Space,keypress(Space),,,,,---- -- ----- -- ------ - ------- --- ----------<br>------------- ------ ------ ---- ---- ------- ----- -- ----<br>-------- ------- -- ---------- --- - --- ----- ----- ----<br>---- --- --- ----- --- ---- ---- ------- ----- ---- -------<br>--- --- -- ----- -- --- ---- to --- ---- -- ------ ------<br>--- ----- -- ----,65116.299999952316,65115.5,64696.296,64700.60000002384,64712.966,65129.654,,46,to
screen,html.Screen,0_2_0_1_47,2021-11-19T12:40:11.175Z,,,,,,,,,,,,,,,,53,,,,,,,,,,,,,,297.84599999999773,,response,,,99,,,,,,Space,keypress(Space),,,,,"---- -- ----- -- ------ - ------- --- ----------<br>------------- ------ ------ ---- ---- ------- ----- -- ----<br>-------- ------- -- ---------- --- - --- ----- ----- ----<br>---- --- --- ----- --- ---- ---- ------- ----- ---- -------<br>--- --- -- ----- -- --- ---- -- be, ---- -- ------ ------<br>--- ----- -- ----",65428.299999952316,65427.5,65112.985,65116.60000002384,65129.654,65429.877,,47,"be,"
screen,html.Screen,0_2_0_1_48,2021-11-19T12:40:11.543Z,,,,,,,,,,,,,,,,53,,,,,,,,,,,,,,365.52299997615773,,response,,,99,,,,,,Space,keypress(Space),,,,,---- -- ----- -- ------ - ------- --- ----------<br>------------- ------ ------ ---- ---- ------- ----- -- ----<br>-------- ------- -- ---------- --- - --- ----- ----- ----<br>---- --- --- ----- --- ---- ---- ------- ----- ---- -------<br>--- --- -- ----- -- --- ---- -- --- even -- ------ ------<br>--- ----- -- ----,65796.19999992847,65795.39999997616,65413.205,65428.60000002384,65429.877,65813.288,,48,even
screen,html.Screen,0_2_0_1_49,2021-11-19T12:40:11.838Z,,,,,,,,,,,,,,,,53,,,,,,,,,,,,,,277.91199992847396,,response,,,99,,,,,,Space,keypress(Space),,,,,---- -- ----- -- ------ - ------- --- ----------<br>------------- ------ ------ ---- ---- ------- ----- -- ----<br>-------- ------- -- ---------- --- - --- ----- ----- ----<br>---- --- --- ----- --- ---- ---- ------- ----- ---- -------<br>--- --- -- ----- -- --- ---- -- --- ---- if ------ ------<br>--- ----- -- ----,66091.69999992847,66091.19999992847,65796.617,65796.5,65813.288,66096.539,,49,if
screen,html.Screen,0_2_0_1_50,2021-11-19T12:40:12.103Z,,,,,,,,,,,,,,,,53,,,,,,,,,,,,,,258.9609999999957,,response,,,99,,,,,,Space,keypress(Space),,,,,---- -- ----- -- ------ - ------- --- ----------<br>------------- ------ ------ ---- ---- ------- ----- -- ----<br>-------- ------- -- ---------- --- - --- ----- ----- ----<br>---- --- --- ----- --- ---- ---- ------- ----- ---- -------<br>--- --- -- ----- -- --- ---- -- --- ---- -- that's ------<br>--- ----- -- ----,66356.29999995232,66355.5,66079.871,66091.79999995232,66096.539,66363.474,,50,that's
screen,html.Screen,0_2_0_1_51,2021-11-19T12:40:12.543Z,,,,,,,,,,,,,,,,53,,,,,,,,,,,,,,432.025999999998,,response,,,99,,,,,,Space,keypress(Space),,,,,---- -- ----- -- ------ - ------- --- ----------<br>------------- ------ ------ ---- ---- ------- ----- -- ----<br>-------- ------- -- ---------- --- - --- ----- ----- ----<br>---- --- --- ----- --- ---- ---- ------- ----- ---- -------<br>--- --- -- ----- -- --- ---- -- --- ---- -- ------ really<br>--- ----- -- ----,66796.29999995232,66795.5,66346.802,66356.5,66363.474,66813.507,,51,really
screen,html.Screen,0_2_0_1_52,2021-11-19T12:40:12.991Z,,,,,,,,,,,,,,,,53,,,,,,,,,,,,,,429.89299997616035,,response,,,99,,,,,,Space,keypress(Space),,,,,---- -- ----- -- ------ - ------- --- ----------<br>------------- ------ ------ ---- ---- ------- ----- -- ----<br>-------- ------- -- ---------- --- - --- ----- ----- ----<br>---- --- --- ----- --- ---- ---- ------- ----- ---- -------<br>--- --- -- ----- -- --- ---- -- --- ---- -- ------ ------<br>not ----- -- ----,67244.39999997616,67243.39999997616,66796.837,66796.5,66813.507,67246.991,,52,not
screen,html.Screen,0_2_0_1_53,2021-11-19T12:40:13.287Z,,,,,,,,,,,,,,,,53,,,,,,,,,,,,,,292.4089999761636,,response,,,99,,,,,,Space,keypress(Space),,,,,---- -- ----- -- ------ - ------- --- ----------<br>------------- ------ ------ ---- ---- ------- ----- -- ----<br>-------- ------- -- ---------- --- - --- ----- ----- ----<br>---- --- --- ----- --- ---- ---- ------- ----- ---- -------<br>--- --- -- ----- -- --- ---- -- --- ---- -- ------ ------<br>--- close -- ----,67540.19999992847,67539.39999997616,67230.32,67244.60000002384,67246.991,67546.939,,53,close
screen,html.Screen,0_2_0_1_54,2021-11-19T12:40:13.615Z,,,,,,,,,,,,,,,,53,,,,,,,,,,,,,,320.46099997615966,,response,,,99,,,,,,Space,keypress(Space),,,,,---- -- ----- -- ------ - ------- --- ----------<br>------------- ------ ------ ---- ---- ------- ----- -- ----<br>-------- ------- -- ---------- --- - --- ----- ----- ----<br>---- --- --- ----- --- ---- ---- ------- ----- ---- -------<br>--- --- -- ----- -- --- ---- -- --- ---- -- ------ ------<br>--- ----- at ----,67868.19999992847,67867.39999997616,67530.27,67540.5,67546.939,67880.482,,54,at
screen,html.Screen,0_2_0_1_55,2021-11-19T12:40:13.871Z,,,,,,,,,,,,,,,,53,,,,,,,,,,,,,,243.31799995231268,,response,,,99,,,,,,Space,keypress(Space),,,,,---- -- ----- -- ------ - ------- --- ----------<br>------------- ------ ------ ---- ---- ------- ----- -- ----<br>-------- ------- -- ---------- --- - --- ----- ----- ----<br>---- --- --- ----- --- ---- ---- ------- ----- ---- -------<br>--- --- -- ----- -- --- ---- -- --- ---- -- ------ ------<br>--- ----- -- all.,68124.60000002384,68123.79999995232,67863.811,67868.39999997616,67880.482,68130.554,,55,all.
Item 99,flow.Loop,0_2_0_1,2021-11-19T12:40:13.876Z,,,,,,,,,,,,,,,,,,,,,,,,,,,,,,21799.122999952313,,completion,,,,D,,,,,,,,,,silence,,68129.19999992847,68123.79999995232,46308.008,46313.39999997616,46324.677,68130.554,,,
Question 1,html.Screen,0_2_0_2,2021-11-19T12:40:18.475Z,,,,,,,,,,,,,,,,,,,,,,,,,,,true,FALSE,,4596.245999952313,,response,,,99,D,,,,,FALSE,click #choice-2,,,,silence,,72728.19999992847,72726.79999995232,68113.883,68129.39999997616,68130.554,72731.69,,,
Question 2,html.Screen,0_2_0_3,2021-11-19T12:40:23.338Z,,,,,,,,,,,,,,,,,,,,,,,,,,,true,TRUE,,4858.209999976156,,response,,,99,D,,,,,TRUE,click #choice-1,,,,silence,,77591.10000002384,77589.89999997616,72715.02,72728.60000002384,72731.69,77599.624,,,
Item 99,flow.Sequence,0_2_0,2021-11-19T12:40:23.338Z,,,,,,,,,,,,,,,,,,,,,,,,,,,,,,41267.78299997616,,completion,,,,,,,,,,,,,,,,77591.5,77589.89999997616,36305.448,36314.199999928474,36322.117,77599.624,,,
Holding screen,html.Screen,0_2_1_0,2021-11-19T12:40:33.334Z,,,,,,,,,,,,,,,,,,,,,,,,,,,,,,10002.684999999998,,timeout,,,,,,,,,,,,,,,,87587.10000002384,87585.637,77582.954,77591.79999995232,77599.624,87602.309,,,
screen,html.Screen,0_2_1_1_0,2021-11-19T12:40:34.006Z,,,,,,,,,,,,,,,,54,,,,,,,,,,,,,,656.4909999523225,,response,,,100,,,,,,Space,keypress(Space),,,,,At --- ---- --- ------ ----- ------- ---- -- --- ------- --<br>------- ---------- ------ -- ----- -- ----- -- ---- ------<br>--- ----- --- --- ------ -------- ----- --- ------ ----- --<br>----- ----- ---------- --- --- ------ ------ ---- -- ------<br>------- --- ------ ----- --- ---- ------- -- ---- --- --<br>------- ------,88259.79999995232,88258.79999995232,87585.637,87587.60000002384,87602.309,88268.878,,0,At
screen,html.Screen,0_2_1_1_1,2021-11-19T12:40:34.382Z,,,,,,,,,,,,,,,,54,,,,,,,,,,,,,,365.4219999523193,,response,,,100,,,,,,Space,keypress(Space),,,,,-- the ---- --- ------ ----- ------- ---- -- --- ------- --<br>------- ---------- ------ -- ----- -- ----- -- ---- ------<br>--- ----- --- --- ------ -------- ----- --- ------ ----- --<br>----- ----- ---------- --- --- ------ ------ ---- -- ------<br>------- --- ------ ----- --- ---- ------- -- ---- --- --<br>------- ------,88635,88634.29999995232,88252.209,88260,88268.878,88652.422,,1,the
screen,html.Screen,0_2_1_1_2,2021-11-19T12:40:34.806Z,,,,,,,,,,,,,,,,54,,,,,,,,,,,,,,405.7779999284685,,response,,,100,,,,,,Space,keypress(Space),,,,,-- --- time --- ------ ----- ------- ---- -- --- ------- --<br>------- ---------- ------ -- ----- -- ----- -- ---- ------<br>--- ----- --- --- ------ -------- ----- --- ------ ----- --<br>----- ----- ---------- --- --- ------ ------ ---- -- ------<br>------- --- ------ ----- --- ---- ------- -- ---- --- --<br>------- ------,89058.89999997616,89058.19999992847,88635.752,88635.19999992847,88652.422,89069.185,,2,time
screen,html.Screen,0_2_1_1_3,2021-11-19T12:40:35.151Z,,,,,,,,,,,,,,,,54,,,,,,,,,,,,,,333.01499992847675,,response,,,100,,,,,,Space,keypress(Space),,,,,-- --- ---- the ------ ----- ------- ---- -- --- ------- --<br>------- ---------- ------ -- ----- -- ----- -- ---- ------<br>--- ----- --- --- ------ -------- ----- --- ------ ----- --<br>----- ----- ---------- --- --- ------ ------ ---- -- ------<br>------- --- ------ ----- --- ---- ------- -- ---- --- --<br>------- ------,89404.29999995232,89402.19999992847,89052.515,89059.19999992847,89069.185,89419.45,,3,the
screen,html.Screen,0_2_1_1_4,2021-11-19T12:40:35.894Z,,,,,,,,,,,,,,,,54,,,,,,,,,,,,,,726.6500000238448,,response,,,100,,,,,,Space,keypress(Space),,,,,-- --- ---- --- French ----- ------- ---- -- --- ------- --<br>------- ---------- ------ -- ----- -- ----- -- ---- ------<br>--- ----- --- --- ------ -------- ----- --- ------ ----- --<br>----- ----- ---------- --- --- ------ ------ ---- -- ------<br>------- --- ------ ----- --- ---- ------- -- ---- --- --<br>------- ------,90146.89999997616,90146.10000002384,89402.777,89404.79999995232,89419.45,90152.819,,4,French
screen,html.Screen,0_2_1_1_5,2021-11-19T12:40:36.238Z,,,,,,,,,,,,,,,,54,,,,,,,,,,,,,,337.2810000238387,,response,,,100,,,,,,Space,keypress(Space),,,,,-- --- ---- --- ------ crown ------- ---- -- --- ------- --<br>------- ---------- ------ -- ----- -- ----- -- ---- ------<br>--- ----- --- --- ------ -------- ----- --- ------ ----- --<br>----- ----- ---------- --- --- ------ ------ ---- -- ------<br>------- --- ------ ----- --- ---- ------- -- ---- --- --<br>------- ------,90491,90490.10000002384,90136.149,90147.19999992847,90152.819,90502.98,,5,crown
screen,html.Screen,0_2_1_1_6,2021-11-19T12:40:36.693Z,,,,,,,,,,,,,,,,54,,,,,,,,,,,,,,443.0200000000041,,response,,,100,,,,,,Space,keypress(Space),,,,,-- --- ---- --- ------ ----- secured ---- -- --- ------- --<br>------- ---------- ------ -- ----- -- ----- -- ---- ------<br>--- ----- --- --- ------ -------- ----- --- ------ ----- --<br>----- ----- ---------- --- --- ------ ------ ---- -- ------<br>------- --- ------ ----- --- ---- ------- -- ---- --- --<br>------- ------,90946.89999997616,90946,90486.309,90491.29999995232,90502.98,90952.958,,6,secured
screen,html.Screen,0_2_1_1_7,2021-11-19T12:40:37.166Z,,,,,,,,,,,,,,,,54,,,,,,,,,,,,,,465.0420000000013,,response,,,100,,,,,,Space,keypress(Space),,,,,-- --- ---- --- ------ ----- ------- much -- --- ------- --<br>------- ---------- ------ -- ----- -- ----- -- ---- ------<br>--- ----- --- --- ------ -------- ----- --- ------ ----- --<br>----- ----- ---------- --- --- ------ ------ ---- -- ------<br>------- --- ------ ----- --- ---- ------- -- ---- --- --<br>------- ------,91418.89999997616,91418,90936.289,90947,90952.958,91436.616,,7,much
screen,html.Screen,0_2_1_1_8,2021-11-19T12:40:37.557Z,,,,,,,,,,,,,,,,54,,,,,,,,,,,,,,373.48400002384733,,response,,,100,,,,,,Space,keypress(Space),,,,,-- --- ---- --- ------ ----- ------- ---- of --- ------- --<br>------- ---------- ------ -- ----- -- ----- -- ---- ------<br>--- ----- --- --- ------ -------- ----- --- ------ ----- --<br>----- ----- ---------- --- --- ------ ------ ---- -- ------<br>------- --- ------ ----- --- ---- ------- -- ---- --- --<br>------- ------,91810.89999997616,91810.10000002384,91419.944,91419.10000002384,91436.616,91819.94,,8,of
screen,html.Screen,0_2_1_1_9,2021-11-19T12:40:37.869Z,,,,,,,,,,,,,,,,54,,,,,,,,,,,,,,302.16000002383953,,response,,,100,,,,,,Space,keypress(Space),,,,,-- --- ---- --- ------ ----- ------- ---- -- its ------- --<br>------- ---------- ------ -- ----- -- ----- -- ---- ------<br>--- ----- --- --- ------ -------- ----- --- ------ ----- --<br>----- ----- ---------- --- --- ------ ------ ---- -- ------<br>------- --- ------ ----- --- ---- ------- -- ---- --- --<br>------- ------,92122.79999995232,92122.10000002384,91803.27,91811.10000002384,91819.94,92136.618,,9,its
screen,html.Screen,0_2_1_1_10,2021-11-19T12:40:38.189Z,,,,,,,,,,,,,,,,54,,,,,,,,,,,,,,305.3819999999978,,response,,,100,,,,,,Space,keypress(Space),,,,,-- --- ---- --- ------ ----- ------- ---- -- --- revenue --<br>------- ---------- ------ -- ----- -- ----- -- ---- ------<br>--- ----- --- --- ------ -------- ----- --- ------ ----- --<br>----- ----- ---------- --- --- ------ ------ ---- -- ------<br>------- --- ------ ----- --- ---- ------- -- ---- --- --<br>------- ------,92442.79999995232,92442,92119.949,92123,92136.618,92453.514,,10,revenue
screen,html.Screen,0_2_1_1_11,2021-11-19T12:40:38.749Z,,,,,,,,,,,,,,,,54,,,,,,,,,,,,,,548.3859999761626,,response,,,100,,,,,,Space,keypress(Space),,,,,-- --- ---- --- ------ ----- ------- ---- -- --- ------- by<br>------- ---------- ------ -- ----- -- ----- -- ---- ------<br>--- ----- --- --- ------ -------- ----- --- ------ ----- --<br>----- ----- ---------- --- --- ------ ------ ---- -- ------<br>------- --- ------ ----- --- ---- ------- -- ---- --- --<br>------- ------,93002.69999992847,93001.89999997616,92436.842,92443.10000002384,92453.514,93020.227,,11,by
screen,html.Screen,0_2_1_1_12,2021-11-19T12:40:39.325Z,,,,,,,,,,,,,,,,54,,,,,,,,,,,,,,557.6729999761592,,response,,,100,,,,,,Space,keypress(Space),,,,,-- --- ---- --- ------ ----- ------- ---- -- --- ------- --<br>issuing ---------- ------ -- ----- -- ----- -- ---- ------<br>--- ----- --- --- ------ -------- ----- --- ------ ----- --<br>----- ----- ---------- --- --- ------ ------ ---- -- ------<br>------- --- ------ ----- --- ---- ------- -- ---- --- --<br>------- ------,93578.79999995232,93577.89999997616,93003.557,93003,93020.227,93587.129,,12,issuing
screen,html.Screen,0_2_1_1_13,2021-11-19T12:40:39.909Z,,,,,,,,,,,,,,,,54,,,,,,,,,,,,,,574.6709999523155,,response,,,100,,,,,,Space,keypress(Space),,,,,-- --- ---- --- ------ ----- ------- ---- -- --- ------- --<br>------- government ------ -- ----- -- ----- -- ---- ------<br>--- ----- --- --- ------ -------- ----- --- ------ ----- --<br>----- ----- ---------- --- --- ------ ------ ---- -- ------<br>------- --- ------ ----- --- ---- ------- -- ---- --- --<br>------- ------,94162.60000002384,94161.79999995232,93570.458,93578.89999997616,93587.129,94170.548,,13,government
screen,html.Screen,0_2_1_1_14,2021-11-19T12:40:40.677Z,,,,,,,,,,,,,,,,54,,,,,,,,,,,,,,759.2519999523211,,response,,,100,,,,,,Space,keypress(Space),,,,,-- --- ---- --- ------ ----- ------- ---- -- --- ------- --<br>------- ---------- bonds. -- ----- -- ----- -- ---- ------<br>--- ----- --- --- ------ -------- ----- --- ------ ----- --<br>----- ----- ---------- --- --- ------ ------ ---- -- ------<br>------- --- ------ ----- --- ---- ------- -- ---- --- --<br>------- ------,94930.60000002384,94929.79999995232,94153.878,94162.79999995232,94170.548,94937.379,,14,bonds.
screen,html.Screen,0_2_1_1_15,2021-11-19T12:40:41.125Z,,,,,,,,,,,,,,,,54,,,,,,,,,,,,,,440.42099995231547,,response,,,100,,,,,,Space,keypress(Space),,,,,-- --- ---- --- ------ ----- ------- ---- -- --- ------- --<br>------- ---------- ------ In ----- -- ----- -- ---- ------<br>--- ----- --- --- ------ -------- ----- --- ------ ----- --<br>----- ----- ---------- --- --- ------ ------ ---- -- ------<br>------- --- ------ ----- --- ---- ------- -- ---- --- --<br>------- ------,95378.60000002384,95377.79999995232,94920.709,94930.89999997616,94937.379,95387.526,,15,In
screen,html.Screen,0_2_1_1_16,2021-11-19T12:40:41.853Z,,,,,,,,,,,,,,,,54,,,,,,,,,,,,,,718.0740000238438,,response,,,100,,,,,,Space,keypress(Space),,,,,"-- --- ---- --- ------ ----- ------- ---- -- --- ------- --<br>------- ---------- ------ -- 1727, -- ----- -- ---- ------<br>--- ----- --- --- ------ -------- ----- --- ------ ----- --<br>----- ----- ---------- --- --- ------ ------ ---- -- ------<br>------- --- ------ ----- --- ---- ------- -- ---- --- --<br>------- ------",96106.10000002384,96105.60000002384,95370.856,95378.79999995232,95387.526,96121.034,,16,"1727,"
screen,html.Screen,0_2_1_1_17,2021-11-19T12:40:42.221Z,,,,,,,,,,,,,,,,54,,,,,,,,,,,,,,352.76599995231663,,response,,,100,,,,,,Space,keypress(Space),,,,,-- --- ---- --- ------ ----- ------- ---- -- --- ------- --<br>------- ---------- ------ -- ----- in ----- -- ---- ------<br>--- ----- --- --- ------ -------- ----- --- ------ ----- --<br>----- ----- ---------- --- --- ------ ------ ---- -- ------<br>------- --- ------ ----- --- ---- ------- -- ---- --- --<br>------- ------,96474.60000002384,96473.79999995232,96104.364,96106.29999995232,96121.034,96487.815,,17,in
screen,html.Screen,0_2_1_1_18,2021-11-19T12:40:42.765Z,,,,,,,,,,,,,,,,54,,,,,,,,,,,,,,529.984999952314,,response,,,100,,,,,,Space,keypress(Space),,,,,-- --- ---- --- ------ ----- ------- ---- -- --- ------- --<br>------- ---------- ------ -- ----- -- order -- ---- ------<br>--- ----- --- --- ------ -------- ----- --- ------ ----- --<br>----- ----- ---------- --- --- ------ ------ ---- -- ------<br>------- --- ------ ----- --- ---- ------- -- ---- --- --<br>------- ------,97018.69999992847,97017.79999995232,96471.145,96474.89999997616,96487.815,97021.267,,18,order
screen,html.Screen,0_2_1_1_19,2021-11-19T12:40:43.173Z,,,,,,,,,,,,,,,,54,,,,,,,,,,,,,,404.4329999284673,,response,,,100,,,,,,Space,keypress(Space),,,,,-- --- ---- --- ------ ----- ------- ---- -- --- ------- --<br>------- ---------- ------ -- ----- -- ----- to ---- ------<br>--- ----- --- --- ------ -------- ----- --- ------ ----- --<br>----- ----- ---------- --- --- ------ ------ ---- -- ------<br>------- --- ------ ----- --- ---- ------- -- ---- --- --<br>------- ------,97426.5,97425.69999992847,97004.597,97018.89999997616,97021.267,97438.051,,19,to
screen,html.Screen,0_2_1_1_20,2021-11-19T12:40:43.597Z,,,,,,,,,,,,,,,,54,,,,,,,,,,,,,,411.6489999284677,,response,,,100,,,,,,Space,keypress(Space),,,,,-- --- ---- --- ------ ----- ------- ---- -- --- ------- --<br>------- ---------- ------ -- ----- -- ----- -- save ------<br>--- ----- --- --- ------ -------- ----- --- ------ ----- --<br>----- ----- ---------- --- --- ------ ------ ---- -- ------<br>------- --- ------ ----- --- ---- ------- -- ---- --- --<br>------- ------,97850.5,97849.69999992847,97421.381,97426.69999992847,97438.051,97854.826,,20,save
screen,html.Screen,0_2_1_1_21,2021-11-19T12:40:44.174Z,,,,,,,,,,,,,,,,54,,,,,,,,,,,,,,571.3739999284735,,response,,,100,,,,,,Space,keypress(Space),,,,,"-- --- ---- --- ------ ----- ------- ---- -- --- ------- --<br>------- ---------- ------ -- ----- -- ----- -- ---- money,<br>--- ----- --- --- ------ -------- ----- --- ------ ----- --<br>----- ----- ---------- --- --- ------ ------ ---- -- ------<br>------- --- ------ ----- --- ---- ------- -- ---- --- --<br>------- ------",98426.89999997616,98426.19999992847,97838.156,97850.69999992847,97854.826,98438.305,,21,"money,"
screen,html.Screen,0_2_1_1_22,2021-11-19T12:40:44.685Z,,,,,,,,,,,,,,,,54,,,,,,,,,,,,,,499.29500002384884,,response,,,100,,,,,,Space,keypress(Space),,,,,-- --- ---- --- ------ ----- ------- ---- -- --- ------- --<br>------- ---------- ------ -- ----- -- ----- -- ---- ------<br>the ----- --- --- ------ -------- ----- --- ------ ----- --<br>----- ----- ---------- --- --- ------ ------ ---- -- ------<br>------- --- ------ ----- --- ---- ------- -- ---- --- --<br>------- ------,98938.60000002384,98937.60000002384,98421.635,98427.19999992847,98438.305,98955.026,,22,the
screen,html.Screen,0_2_1_1_23,2021-11-19T12:40:45.173Z,,,,,,,,,,,,,,,,54,,,,,,,,,,,,,,470.57400002384384,,response,,,100,,,,,,Space,keypress(Space),,,,,-- --- ---- --- ------ ----- ------- ---- -- --- ------- --<br>------- ---------- ------ -- ----- -- ----- -- ---- ------<br>--- state --- --- ------ -------- ----- --- ------ ----- --<br>----- ----- ---------- --- --- ------ ------ ---- -- ------<br>------- --- ------ ----- --- ---- ------- -- ---- --- --<br>------- ------,99426.5,99425.60000002384,98938.357,98938.79999995232,98955.026,99438.592,,23,state
screen,html.Screen,0_2_1_1_24,2021-11-19T12:40:45.813Z,,,,,,,,,,,,,,,,54,,,,,,,,,,,,,,627.0080000238377,,response,,,100,,,,,,Space,keypress(Space),,,,,-- --- ---- --- ------ ----- ------- ---- -- --- ------- --<br>------- ---------- ------ -- ----- -- ----- -- ---- ------<br>--- ----- cut --- ------ -------- ----- --- ------ ----- --<br>----- ----- ---------- --- --- ------ ------ ---- -- ------<br>------- --- ------ ----- --- ---- ------- -- ---- --- --<br>------- ------,100066.5,100065.60000002384,99421.921,99426.69999992847,99438.592,100072.1,,24,cut
screen,html.Screen,0_2_1_1_25,2021-11-19T12:40:46.197Z,,,,,,,,,,,,,,,,54,,,,,,,,,,,,,,377.50000002383604,,response,,,100,,,,,,Space,keypress(Space),,,,,-- --- ---- --- ------ ----- ------- ---- -- --- ------- --<br>------- ---------- ------ -- ----- -- ----- -- ---- ------<br>--- ----- --- the ------ -------- ----- --- ------ ----- --<br>----- ----- ---------- --- --- ------ ------ ---- -- ------<br>------- --- ------ ----- --- ---- ------- -- ---- --- --<br>------- ------,100450.39999997616,100449.60000002384,100055.429,100066.69999992847,100072.1,100455.378,,25,the
screen,html.Screen,0_2_1_1_26,2021-11-19T12:40:46.501Z,,,,,,,,,,,,,,,,54,,,,,,,,,,,,,,298.122000000003,,response,,,100,,,,,,Space,keypress(Space),,,,,-- --- ---- --- ------ ----- ------- ---- -- --- ------- --<br>------- ---------- ------ -- ----- -- ----- -- ---- ------<br>--- ----- --- --- bonds' -------- ----- --- ------ ----- --<br>----- ----- ---------- --- --- ------ ------ ---- -- ------<br>------- --- ------ ----- --- ---- ------- -- ---- --- --<br>------- ------,100754.29999995232,100753.5,100438.709,100450.60000002384,100455.378,100755.54,,26,bonds'
screen,html.Screen,0_2_1_1_27,2021-11-19T12:40:46.965Z,,,,,,,,,,,,,,,,54,,,,,,,,,,,,,,461.9600000000064,,response,,,100,,,,,,Space,keypress(Space),,,,,-- --- ---- --- ------ ----- ------- ---- -- --- ------- --<br>------- ---------- ------ -- ----- -- ----- -- ---- ------<br>--- ----- --- --- ------ interest ----- --- ------ ----- --<br>----- ----- ---------- --- --- ------ ------ ---- -- ------<br>------- --- ------ ----- --- ---- ------- -- ---- --- --<br>------- ------,101218.39999997616,101217.5,100738.87,100754.60000002384,100755.54,101222.454,,27,interest
screen,html.Screen,0_2_1_1_28,2021-11-19T12:40:47.381Z,,,,,,,,,,,,,,,,54,,,,,,,,,,,,,,411.5460000000021,,response,,,100,,,,,,Space,keypress(Space),,,,,-- --- ---- --- ------ ----- ------- ---- -- --- ------- --<br>------- ---------- ------ -- ----- -- ----- -- ---- ------<br>--- ----- --- --- ------ -------- rate. --- ------ ----- --<br>----- ----- ---------- --- --- ------ ------ ---- -- ------<br>------- --- ------ ----- --- ---- ------- -- ---- --- --<br>------- ------,101634.69999992847,101634,101205.782,101218.60000002384,101222.454,101639.13,,28,rate.
screen,html.Screen,0_2_1_1_29,2021-11-19T12:40:47.757Z,,,,,,,,,,,,,,,,54,,,,,,,,,,,,,,370.36999999999534,,response,,,100,,,,,,Space,keypress(Space),,,,,-- --- ---- --- ------ ----- ------- ---- -- --- ------- --<br>------- ---------- ------ -- ----- -- ----- -- ---- ------<br>--- ----- --- --- ------ -------- ----- The ------ ----- --<br>----- ----- ---------- --- --- ------ ------ ---- -- ------<br>------- --- ------ ----- --- ---- ------- -- ---- --- --<br>------- ------,102010.19999992847,102009.5,101622.46,101634.89999997616,101639.13,102022.462,,29,The
screen,html.Screen,0_2_1_1_30,2021-11-19T12:40:48.085Z,,,,,,,,,,,,,,,,54,,,,,,,,,,,,,,314.9379999761586,,response,,,100,,,,,,Space,keypress(Space),,,,,-- --- ---- --- ------ ----- ------- ---- -- --- ------- --<br>------- ---------- ------ -- ----- -- ----- -- ---- ------<br>--- ----- --- --- ------ -------- ----- --- market ----- --<br>----- ----- ---------- --- --- ------ ------ ---- -- ------<br>------- --- ------ ----- --- ---- ------- -- ---- --- --<br>------- ------,102338.29999995232,102337.39999997616,102005.793,102010.5,102022.462,102339.4,,30,market
screen,html.Screen,0_2_1_1_31,2021-11-19T12:40:48.589Z,,,,,,,,,,,,,,,,54,,,,,,,,,,,,,,502.1000000000058,,response,,,100,,,,,,Space,keypress(Space),,,,,-- --- ---- --- ------ ----- ------- ---- -- --- ------- --<br>------- ---------- ------ -- ----- -- ----- -- ---- ------<br>--- ----- --- --- ------ -------- ----- --- ------ value --<br>----- ----- ---------- --- --- ------ ------ ---- -- ------<br>------- --- ------ ----- --- ---- ------- -- ---- --- --<br>------- ------,102842.19999992847,102841.5,102322.728,102338.60000002384,102339.4,102856.047,,31,value
screen,html.Screen,0_2_1_1_32,2021-11-19T12:40:49.245Z,,,,,,,,,,,,,,,,54,,,,,,,,,,,,,,641.3529999761522,,response,,,100,,,,,,Space,keypress(Space),,,,,-- --- ---- --- ------ ----- ------- ---- -- --- ------- --<br>------- ---------- ------ -- ----- -- ----- -- ---- ------<br>--- ----- --- --- ------ -------- ----- --- ------ ----- of<br>----- ----- ---------- --- --- ------ ------ ---- -- ------<br>------- --- ------ ----- --- ---- ------- -- ---- --- --<br>------- ------,103498.19999992847,103497.39999997616,102839.378,102842.5,102856.047,103506.335,,32,of
screen,html.Screen,0_2_1_1_33,2021-11-19T12:40:49.813Z,,,,,,,,,,,,,,,,54,,,,,,,,,,,,,,558.9649999523099,,response,,,100,,,,,,Space,keypress(Space),,,,,-- --- ---- --- ------ ----- ------- ---- -- --- ------- --<br>------- ---------- ------ -- ----- -- ----- -- ---- ------<br>--- ----- --- --- ------ -------- ----- --- ------ ----- --<br>these ----- ---------- --- --- ------ ------ ---- -- ------<br>------- --- ------ ----- --- ---- ------- -- ---- --- --<br>------- ------,104066.10000002384,104065.29999995232,103489.664,103498.5,103506.335,104073.07,,33,these
screen,html.Screen,0_2_1_1_34,2021-11-19T12:40:50.437Z,,,,,,,,,,,,,,,,54,,,,,,,,,,,,,,616.3299999761512,,response,,,100,,,,,,Space,keypress(Space),,,,,-- --- ---- --- ------ ----- ------- ---- -- --- ------- --<br>------- ---------- ------ -- ----- -- ----- -- ---- ------<br>--- ----- --- --- ------ -------- ----- --- ------ ----- --<br>----- bonds ---------- --- --- ------ ------ ---- -- ------<br>------- --- ------ ----- --- ---- ------- -- ---- --- --<br>------- ------,104690.10000002384,104689.39999997616,104056.4,104066.39999997616,104073.07,104706.629,,34,bonds
screen,html.Screen,0_2_1_1_35,2021-11-19T12:40:51.157Z,,,,,,,,,,,,,,,,54,,,,,,,,,,,,,,702.6709999523155,,response,,,100,,,,,,Space,keypress(Space),,,,,"-- --- ---- --- ------ ----- ------- ---- -- --- ------- --<br>------- ---------- ------ -- ----- -- ----- -- ---- ------<br>--- ----- --- --- ------ -------- ----- --- ------ ----- --<br>----- ----- plummeted, --- --- ------ ------ ---- -- ------<br>------- --- ------ ----- --- ---- ------- -- ---- --- --<br>------- ------",105410.10000002384,105409.29999995232,104689.958,104690.39999997616,104706.629,105423.43,,35,"plummeted,"
screen,html.Screen,0_2_1_1_36,2021-11-19T12:40:51.501Z,,,,,,,,,,,,,,,,54,,,,,,,,,,,,,,329.86999995232327,,response,,,100,,,,,,Space,keypress(Space),,,,,-- --- ---- --- ------ ----- ------- ---- -- --- ------- --<br>------- ---------- ------ -- ----- -- ----- -- ---- ------<br>--- ----- --- --- ------ -------- ----- --- ------ ----- --<br>----- ----- ---------- and --- ------ ------ ---- -- ------<br>------- --- ------ ----- --- ---- ------- -- ---- --- --<br>------- ------,105754.19999992847,105753.29999995232,105406.76,105410.39999997616,105423.43,105756.74,,36,and
screen,html.Screen,0_2_1_1_37,2021-11-19T12:40:51.757Z,,,,,,,,,,,,,,,,54,,,,,,,,,,,,,,252.55999995231105,,response,,,100,,,,,,Space,keypress(Space),,,,,-- --- ---- --- ------ ----- ------- ---- -- --- ------- --<br>------- ---------- ------ -- ----- -- ----- -- ---- ------<br>--- ----- --- --- ------ -------- ----- --- ------ ----- --<br>----- ----- ---------- --- the ------ ------ ---- -- ------<br>------- --- ------ ----- --- ---- ------- -- ---- --- --<br>------- ------,106010,106009.29999995232,105740.071,105754.39999997616,105756.74,106023.682,,37,the
screen,html.Screen,0_2_1_1_38,2021-11-19T12:40:52.149Z,,,,,,,,,,,,,,,,54,,,,,,,,,,,,,,377.6179999523156,,response,,,100,,,,,,Space,keypress(Space),,,,,-- --- ---- --- ------ ----- ------- ---- -- --- ------- --<br>------- ---------- ------ -- ----- -- ----- -- ---- ------<br>--- ----- --- --- ------ -------- ----- --- ------ ----- --<br>----- ----- ---------- --- --- market ------ ---- -- ------<br>------- --- ------ ----- --- ---- ------- -- ---- --- --<br>------- ------,106402.10000002384,106401.29999995232,106007.01,106010.29999995232,106023.682,106406.923,,38,market
screen,html.Screen,0_2_1_1_39,2021-11-19T12:40:52.501Z,,,,,,,,,,,,,,,,54,,,,,,,,,,,,,,346.37699995232106,,response,,,100,,,,,,Space,keypress(Space),,,,,-- --- ---- --- ------ ----- ------- ---- -- --- ------- --<br>------- ---------- ------ -- ----- -- ----- -- ---- ------<br>--- ----- --- --- ------ -------- ----- --- ------ ----- --<br>----- ----- ---------- --- --- ------ became ---- -- ------<br>------- --- ------ ----- --- ---- ------- -- ---- --- --<br>------- ------,106754,106753.29999995232,106390.255,106402.29999995232,106406.923,106757.138,,39,became
screen,html.Screen,0_2_1_1_40,2021-11-19T12:40:53.013Z,,,,,,,,,,,,,,,,54,,,,,,,,,,,,,,508.06199992846814,,response,,,100,,,,,,Space,keypress(Space),,,,,-- --- ---- --- ------ ----- ------- ---- -- --- ------- --<br>------- ---------- ------ -- ----- -- ----- -- ---- ------<br>--- ----- --- --- ------ -------- ----- --- ------ ----- --<br>----- ----- ---------- --- --- ------ ------ wary -- ------<br>------- --- ------ ----- --- ---- ------- -- ---- --- --<br>------- ------,107266,107265.19999992847,106740.467,106754.19999992847,106757.138,107273.824,,40,wary
screen,html.Screen,0_2_1_1_41,2021-11-19T12:40:53.397Z,,,,,,,,,,,,,,,,54,,,,,,,,,,,,,,375.2760000238486,,response,,,100,,,,,,Space,keypress(Space),,,,,-- --- ---- --- ------ ----- ------- ---- -- --- ------- --<br>------- ---------- ------ -- ----- -- ----- -- ---- ------<br>--- ----- --- --- ------ -------- ----- --- ------ ----- --<br>----- ----- ---------- --- --- ------ ------ ---- of ------<br>------- --- ------ ----- --- ---- ------- -- ---- --- --<br>------- ------,107650,107649.10000002384,107257.155,107266.19999992847,107273.824,107657.459,,41,of
screen,html.Screen,0_2_1_1_42,2021-11-19T12:40:53.877Z,,,,,,,,,,,,,,,,54,,,,,,,,,,,,,,471.6410000238393,,response,,,100,,,,,,Space,keypress(Space),,,,,-- --- ---- --- ------ ----- ------- ---- -- --- ------- --<br>------- ---------- ------ -- ----- -- ----- -- ---- ------<br>--- ----- --- --- ------ -------- ----- --- ------ ----- --<br>----- ----- ---------- --- --- ------ ------ ---- -- French<br>------- --- ------ ----- --- ---- ------- -- ---- --- --<br>------- ------,108130,108129.10000002384,107640.787,107650.19999992847,107657.459,108140.716,,42,French
screen,html.Screen,0_2_1_1_43,2021-11-19T12:40:55.461Z,,,,,,,,,,,,,,,,54,,,,,,,,,,,,,,1572.6839999761578,,response,,,100,,,,,,Space,keypress(Space),,,,,-- --- ---- --- ------ ----- ------- ---- -- --- ------- --<br>------- ---------- ------ -- ----- -- ----- -- ---- ------<br>--- ----- --- --- ------ -------- ----- --- ------ ----- --<br>----- ----- ---------- --- --- ------ ------ ---- -- ------<br>credit. --- ------ ----- --- ---- ------- -- ---- --- --<br>------- ------,109714.29999995232,109713.39999997616,108124.047,108130.29999995232,108140.716,109724.725,,43,credit.
screen,html.Screen,0_2_1_1_44,2021-11-19T12:40:55.868Z,,,,,,,,,,,,,,,,54,,,,,,,,,,,,,,396.2749999999942,,response,,,100,,,,,,Space,keypress(Space),,,,,-- --- ---- --- ------ ----- ------- ---- -- --- ------- --<br>------- ---------- ------ -- ----- -- ----- -- ---- ------<br>--- ----- --- --- ------ -------- ----- --- ------ ----- --<br>----- ----- ---------- --- --- ------ ------ ---- -- ------<br>------- The ------ ----- --- ---- ------- -- ---- --- --<br>------- ------,110121.79999995232,110121,109708.053,109714.60000002384,109724.725,110124.65,,44,The
screen,html.Screen,0_2_1_1_45,2021-11-19T12:40:56.508Z,,,,,,,,,,,,,,,,54,,,,,,,,,,,,,,636.249999976164,,response,,,100,,,,,,Space,keypress(Space),,,,,-- --- ---- --- ------ ----- ------- ---- -- --- ------- --<br>------- ---------- ------ -- ----- -- ----- -- ---- ------<br>--- ----- --- --- ------ -------- ----- --- ------ ----- --<br>----- ----- ---------- --- --- ------ ------ ---- -- ------<br>------- --- French ----- --- ---- ------- -- ---- --- --<br>------- ------,110761.79999995232,110760.89999997616,110107.98,110122,110124.65,110774.757,,45,French
screen,html.Screen,0_2_1_1_46,2021-11-19T12:40:56.956Z,,,,,,,,,,,,,,,,54,,,,,,,,,,,,,,434.2430000000022,,response,,,100,,,,,,Space,keypress(Space),,,,,-- --- ---- --- ------ ----- ------- ---- -- --- ------- --<br>------- ---------- ------ -- ----- -- ----- -- ---- ------<br>--- ----- --- --- ------ -------- ----- --- ------ ----- --<br>----- ----- ---------- --- --- ------ ------ ---- -- ------<br>------- --- ------ state --- ---- ------- -- ---- --- --<br>------- ------,111209.69999992847,111209,110758.087,110762,110774.757,111225.06,,46,state
screen,html.Screen,0_2_1_1_47,2021-11-19T12:40:57.244Z,,,,,,,,,,,,,,,,54,,,,,,,,,,,,,,271.83999997616047,,response,,,100,,,,,,Space,keypress(Space),,,,,-- --- ---- --- ------ ----- ------- ---- -- --- ------- --<br>------- ---------- ------ -- ----- -- ----- -- ---- ------<br>--- ----- --- --- ------ -------- ----- --- ------ ----- --<br>----- ----- ---------- --- --- ------ ------ ---- -- ------<br>------- --- ------ ----- was ---- ------- -- ---- --- --<br>------- ------,111497.79999995232,111496.89999997616,111208.388,111210,111225.06,111508.337,,47,was
screen,html.Screen,0_2_1_1_48,2021-11-19T12:40:57.588Z,,,,,,,,,,,,,,,,54,,,,,,,,,,,,,,332.46299995231675,,response,,,100,,,,,,Space,keypress(Space),,,,,-- --- ---- --- ------ ----- ------- ---- -- --- ------- --<br>------- ---------- ------ -- ----- -- ----- -- ---- ------<br>--- ----- --- --- ------ -------- ----- --- ------ ----- --<br>----- ----- ---------- --- --- ------ ------ ---- -- ------<br>------- --- ------ ----- --- left ------- -- ---- --- --<br>------- ------,111841.69999992847,111840.79999995232,111491.667,111498,111508.337,111858.434,,48,left
screen,html.Screen,0_2_1_1_49,2021-11-19T12:40:57.948Z,,,,,,,,,,,,,,,,54,,,,,,,,,,,,,,342.4659999761643,,response,,,100,,,,,,Space,keypress(Space),,,,,-- --- ---- --- ------ ----- ------- ---- -- --- ------- --<br>------- ---------- ------ -- ----- -- ----- -- ---- ------<br>--- ----- --- --- ------ -------- ----- --- ------ ----- --<br>----- ----- ---------- --- --- ------ ------ ---- -- ------<br>------- --- ------ ----- --- ---- without -- ---- --- --<br>------- ------,112201.60000002384,112200.89999997616,111841.764,111842,111858.434,112208.523,,49,without
screen,html.Screen,0_2_1_1_50,2021-11-19T12:40:58.348Z,,,,,,,,,,,,,,,,54,,,,,,,,,,,,,,392.3769999761571,,response,,,100,,,,,,Space,keypress(Space),,,,,-- --- ---- --- ------ ----- ------- ---- -- --- ------- --<br>------- ---------- ------ -- ----- -- ----- -- ---- ------<br>--- ----- --- --- ------ -------- ----- --- ------ ----- --<br>----- ----- ---------- --- --- ------ ------ ---- -- ------<br>------- --- ------ ----- --- ---- ------- an ---- --- --<br>------- ------,112601.60000002384,112600.89999997616,112191.853,112201.89999997616,112208.523,112608.673,,50,an
screen,html.Screen,0_2_1_1_51,2021-11-19T12:40:58.836Z,,,,,,,,,,,,,,,,54,,,,,,,,,,,,,,480.12699995232106,,response,,,100,,,,,,Space,keypress(Space),,,,,-- --- ---- --- ------ ----- ------- ---- -- --- ------- --<br>------- ---------- ------ -- ----- -- ----- -- ---- ------<br>--- ----- --- --- ------ -------- ----- --- ------ ----- --<br>----- ----- ---------- --- --- ------ ------ ---- -- ------<br>------- --- ------ ----- --- ---- ------- -- easy --- --<br>------- ------,113089.69999992847,113088.79999995232,112592.002,112601.89999997616,112608.673,113092.076,,51,easy
screen,html.Screen,0_2_1_1_52,2021-11-19T12:40:59.404Z,,,,,,,,,,,,,,,,54,,,,,,,,,,,,,,564.8239999761572,,response,,,100,,,,,,Space,keypress(Space),,,,,-- --- ---- --- ------ ----- ------- ---- -- --- ------- --<br>------- ---------- ------ -- ----- -- ----- -- ---- ------<br>--- ----- --- --- ------ -------- ----- --- ------ ----- --<br>----- ----- ---------- --- --- ------ ------ ---- -- ------<br>------- --- ------ ----- --- ---- ------- -- ---- way --<br>------- ------,113657.69999992847,113656.89999997616,113075.406,113089.89999997616,113092.076,113658.89,,52,way
screen,html.Screen,0_2_1_1_53,2021-11-19T12:40:59.828Z,,,,,,,,,,,,,,,,54,,,,,,,,,,,,,,422.0099999761587,,response,,,100,,,,,,Space,keypress(Space),,,,,-- --- ---- --- ------ ----- ------- ---- -- --- ------- --<br>------- ---------- ------ -- ----- -- ----- -- ---- ------<br>--- ----- --- --- ------ -------- ----- --- ------ ----- --<br>----- ----- ---------- --- --- ------ ------ ---- -- ------<br>------- --- ------ ----- --- ---- ------- -- ---- --- of<br>------- ------,114081.60000002384,114080.89999997616,113642.22,113658,113658.89,114092.226,,53,of
screen,html.Screen,0_2_1_1_54,2021-11-19T12:41:00.236Z,,,,,,,,,,,,,,,,54,,,,,,,,,,,,,,396.5739999523212,,response,,,100,,,,,,Space,keypress(Space),,,,,-- --- ---- --- ------ ----- ------- ---- -- --- ------- --<br>------- ---------- ------ -- ----- -- ----- -- ---- ------<br>--- ----- --- --- ------ -------- ----- --- ------ ----- --<br>----- ----- ---------- --- --- ------ ------ ---- -- ------<br>------- --- ------ ----- --- ---- ------- -- ---- --- --<br>raising ------,114489.60000002384,114488.79999995232,114075.557,114081.89999997616,114092.226,114492.441,,54,raising
screen,html.Screen,0_2_1_1_55,2021-11-19T12:41:00.732Z,,,,,,,,,,,,,,,,54,,,,,,,,,,,,,,492.25899992846826,,response,,,100,,,,,,Space,keypress(Space),,,,,-- --- ---- --- ------ ----- ------- ---- -- --- ------- --<br>------- ---------- ------ -- ----- -- ----- -- ---- ------<br>--- ----- --- --- ------ -------- ----- --- ------ ----- --<br>----- ----- ---------- --- --- ------ ------ ---- -- ------<br>------- --- ------ ----- --- ---- ------- -- ---- --- --<br>------- money.,114985.5,114984.69999992847,114475.77,114489.79999995232,114492.441,114992.662,,55,money.
Item 100,flow.Loop,0_2_1_1,2021-11-19T12:41:00.733Z,,,,,,,,,,,,,,,,,,,,,,,,,,,,,,27382.39099992848,,completion,,,,D,,,,,,,,,,silence,,114986,114984.69999992847,87585.637,87587.39999997616,87602.309,114992.662,,,
Question 1,html.Screen,0_2_1_2,2021-11-19T12:41:04.300Z,,,,,,,,,,,,,,,,,,,,,,,,,,,true,TRUE,,3559.2379999761615,,response,,,100,D,,,,,TRUE,click #choice-1,,,,silence,,118553,118551.89999997616,114975.99,114986.10000002384,114992.662,118560.15,,,
Question 2,html.Screen,0_2_1_3,2021-11-19T12:41:08.197Z,,,,,,,,,,,,,,,,,,,,,,,,,,,true,FALSE,,3886.350000000006,,response,,,100,D,,,,,FALSE,click #choice-2,,,,silence,,122447.60000002384,122446.5,118543.48,118553.29999995232,118560.15,122461.1,,,
Item 100,flow.Sequence,0_2_1,2021-11-19T12:41:08.198Z,,,,,,,,,,,,,,,,,,,,,,,,,,,,,,44846.876000000004,,completion,,,,,,,,,,,,,,,,122448,122446.5,77582.954,77591.69999992847,77599.624,122461.1,,,
End of Practice,html.Page,0_2_2,2021-11-19T12:41:12.679Z,,,,,,,,,,,,,,,,,,,,,,,,,,,,,,4467.899999999994,,form submission,,,,,,,,,,,,,,,,126929.69999992847,126929,122444.43,122448.19999992847,122461.1,126928.95,,,
Practice,flow.Sequence,0_2,2021-11-19T12:41:12.680Z,,,,,,,,,,,,,,,,,,,,,,,,,,,,,,90606.883,,completion,,,,,,,,,,,,,,,,126930.19999992847,126929,36305.448,36314.199999928474,36322.117,126928.95,,,
Trap_instruction,html.Page,0_3_0,2021-11-19T12:41:15.938Z,,,,,,,,,,,,,,,,,,,,,,,,,,,,,,3259.1500000238448,,form submission,,,,,,,,,,,,,,,,130188.60000002384,130188.10000002384,126912.28,126930.60000002384,126928.95,130212.927,,,
trap_trial,html.Screen,0_3_1,2021-11-19T12:41:20.155Z,,,,,,,,,,,,,,,,,,,,,,,,,,,true,1,,4191.573000000004,,response,,,,,,,,,1,click #choice-1,,,,,,134405.79999995232,134404.5,130179.587,130188.89999997616,130212.927,134413.967,,,
end of trap trial,html.Page,0_3_2,2021-11-19T12:41:22.162Z,,,,,,,,,,,,,,,,,,,,,,,,,,,,,,1997.5329999999958,,form submission,,,,,,,,,,,,,,,,136412.19999992847,136411.5,134397.297,134406.10000002384,134413.967,136414.683,,,
Trap 1,flow.Sequence,0_3,2021-11-19T12:41:22.162Z,,,,,,,,,,,,,,,,,,,,,,,,,,,,,,9482.550000000003,,completion,,,,,,,,,,,,,,,,136412.60000002384,136411.5,126912.28,126930.39999997616,126928.95,136414.683,,,
Standby,html.Page,0_4_0,2021-11-19T12:41:30.151Z,,,,,,,,,,,,,,,,,,,,,,,,,,,,,,8002.133000000002,,timeout,,,,,,,,,,,,,,,,144401.19999992847,144400.145,136398.013,136412.89999997616,136414.683,144416.816,,,
Holding screen,html.Screen,0_4_1_0_0,2021-11-19T12:41:37.153Z,,,,,,,,,,,,,,,,,,,,,,,,,,,,,,7001.738000000012,,timeout,,,,,,,,,,,,,,,,151403.10000002384,151401.884,144400.145,144401.60000002384,144416.816,151418.554,,,
screen,html.Screen,0_4_1_0_1_0,2021-11-19T12:41:38.966Z,,,,,,,,,,,,,,,,2,,,,,,,,,,,,,,1796.6459999284707,,response,,,1,D,,,,,Space,keypress(Space),,,,silence,Two ---- ------ --- ------- ---------- ------- ----------<br>--- --------- --- ----------- ------- ----- ------- ---<br>--------- ---- -- --- ---- -- --------- -- ---- -------<br>-- --------- ------ --- ----- ------ ---- --- --------- --<br>------ - ---- -- --- ----------- ------- ---- ----- -----<br>--- -------- - ------ ---- -- ----- ---- --- --- -----------<br>-- -------,153216.19999992847,153215.19999992847,151401.884,151403.5,151418.554,153218.979,,0,Two
screen,html.Screen,0_4_1_0_1_1,2021-11-19T12:41:39.533Z,,,,,,,,,,,,,,,,2,,,,,,,,,,,,,,563.6210000238498,,response,,,1,D,,,,,Space,keypress(Space),,,,silence,--- days ------ --- ------- ---------- ------- ----------<br>--- --------- --- ----------- ------- ----- ------- ---<br>--------- ---- -- --- ---- -- --------- -- ---- -------<br>-- --------- ------ --- ----- ------ ---- --- --------- --<br>------ - ---- -- --- ----------- ------- ---- ----- -----<br>--- -------- - ------ ---- -- ----- ---- --- --- -----------<br>-- -------,153783.60000002384,153782.60000002384,153202.309,153216.5,153218.979,153785.831,,1,days
screen,html.Screen,0_4_1_0_1_2,2021-11-19T12:41:40.133Z,,,,,,,,,,,,,,,,2,,,,,,,,,,,,,,596.7690000238363,,response,,,1,D,,,,,Space,keypress(Space),,,,silence,"--- ---- later, --- ------- ---------- ------- ----------<br>--- --------- --- ----------- ------- ----- ------- ---<br>--------- ---- -- --- ---- -- --------- -- ---- -------<br>-- --------- ------ --- ----- ------ ---- --- --------- --<br>------ - ---- -- --- ----------- ------- ---- ----- -----<br>--- -------- - ------ ---- -- ----- ---- --- --- -----------<br>-- -------",154383.39999997616,154382.60000002384,153769.161,153783.89999997616,153785.831,154385.957,,2,"later,"
screen,html.Screen,0_4_1_0_1_3,2021-11-19T12:41:40.757Z,,,,,,,,,,,,,,,,2,,,,,,,,,,,,,,620.643000023847,,response,,,1,D,,,,,Space,keypress(Space),,,,silence,--- ---- ------ the ------- ---------- ------- ----------<br>--- --------- --- ----------- ------- ----- ------- ---<br>--------- ---- -- --- ---- -- --------- -- ---- -------<br>-- --------- ------ --- ----- ------ ---- --- --------- --<br>------ - ---- -- --- ----------- ------- ---- ----- -----<br>--- -------- - ------ ---- -- ----- ---- --- --- -----------<br>-- -------,155007.39999997616,155006.60000002384,154369.287,154383.69999992847,154385.957,155019.664,,3,the
screen,html.Screen,0_4_1_0_1_4,2021-11-19T12:41:41.141Z,,,,,,,,,,,,,,,,2,,,,,,,,,,,,,,370.9360000238521,,response,,,1,D,,,,,Space,keypress(Space),,,,silence,--- ---- ------ --- British ---------- ------- ----------<br>--- --------- --- ----------- ------- ----- ------- ---<br>--------- ---- -- --- ---- -- --------- -- ---- -------<br>-- --------- ------ --- ----- ------ ---- --- --------- --<br>------ - ---- -- --- ----------- ------- ---- ----- -----<br>--- -------- - ------ ---- -- ----- ---- --- --- -----------<br>-- -------,155391.29999995232,155390.60000002384,155002.992,155007.60000002384,155019.664,155402.851,,4,British
screen,html.Screen,0_4_1_0_1_5,2021-11-19T12:41:42.501Z,,,,,,,,,,,,,,,,2,,,,,,,,,,,,,,1347.649000000005,,response,,,1,D,,,,,Space,keypress(Space),,,,silence,--- ---- ------ --- ------- astronomer ------- ----------<br>--- --------- --- ----------- ------- ----- ------- ---<br>--------- ---- -- --- ---- -- --------- -- ---- -------<br>-- --------- ------ --- ----- ------ ---- --- --------- --<br>------ - ---- -- --- ----------- ------- ---- ----- -----<br>--- -------- - ------ ---- -- ----- ---- --- --- -----------<br>-- -------,156751.39999997616,156750.5,155386.182,155391.69999992847,155402.851,156753.474,,5,astronomer
screen,html.Screen,0_4_1_0_1_6,2021-11-19T12:41:43.149Z,,,,,,,,,,,,,,,,2,,,,,,,,,,,,,,645.0260000000126,,response,,,1,D,,,,,Space,keypress(Space),,,,silence,--- ---- ------ --- ------- ---------- Richard ----------<br>--- --------- --- ----------- ------- ----- ------- ---<br>--------- ---- -- --- ---- -- --------- -- ---- -------<br>-- --------- ------ --- ----- ------ ---- --- --------- --<br>------ - ---- -- --- ----------- ------- ---- ----- -----<br>--- -------- - ------ ---- -- ----- ---- --- --- -----------<br>-- -------,157399.5,157398.5,156736.802,156751.60000002384,156753.474,157403.424,,6,Richard
screen,html.Screen,0_4_1_0_1_7,2021-11-19T12:41:43.501Z,,,,,,,,,,,,,,,,2,,,,,,,,,,,,,,347.07600000000093,,response,,,1,D,,,,,Space,keypress(Space),,,,silence,--- ---- ------ --- ------- ---------- ------- Carrington<br>--- --------- --- ----------- ------- ----- ------- ---<br>--------- ---- -- --- ---- -- --------- -- ---- -------<br>-- --------- ------ --- ----- ------ ---- --- --------- --<br>------ - ---- -- --- ----------- ------- ---- ----- -----<br>--- -------- - ------ ---- -- ----- ---- --- --- -----------<br>-- -------,157751.19999992847,157750.5,157386.754,157399.79999995232,157403.424,157753.47,,7,Carrington
screen,html.Screen,0_4_1_0_1_8,2021-11-19T12:41:44.157Z,,,,,,,,,,,,,,,,2,,,,,,,,,,,,,,652.8299999523151,,response,,,1,D,,,,,Space,keypress(Space),,,,silence,--- ---- ------ --- ------- ---------- ------- ----------<br>was --------- --- ----------- ------- ----- ------- ---<br>--------- ---- -- --- ---- -- --------- -- ---- -------<br>-- --------- ------ --- ----- ------ ---- --- --------- --<br>------ - ---- -- --- ----------- ------- ---- ----- -----<br>--- -------- - ------ ---- -- ----- ---- --- --- -----------<br>-- -------,158407.19999992847,158406.29999995232,157736.801,157751.39999997616,157753.47,158420.514,,8,was
screen,html.Screen,0_4_1_0_1_9,2021-11-19T12:41:44.885Z,,,,,,,,,,,,,,,,2,,,,,,,,,,,,,,713.8859999761626,,response,,,1,D,,,,,Space,keypress(Space),,,,silence,--- ---- ------ --- ------- ---------- ------- ----------<br>--- observing --- ----------- ------- ----- ------- ---<br>--------- ---- -- --- ---- -- --------- -- ---- -------<br>-- --------- ------ --- ----- ------ ---- --- --------- --<br>------ - ---- -- --- ----------- ------- ---- ----- -----<br>--- -------- - ------ ---- -- ----- ---- --- --- -----------<br>-- -------,159135.10000002384,159134.39999997616,158403.842,158407.5,158420.514,159137.246,,9,observing
screen,html.Screen,0_4_1_0_1_10,2021-11-19T12:41:45.285Z,,,,,,,,,,,,,,,,2,,,,,,,,,,,,,,397.05399995230255,,response,,,1,D,,,,,Space,keypress(Space),,,,silence,--- ---- ------ --- ------- ---------- ------- ----------<br>--- --------- the ----------- ------- ----- ------- ---<br>--------- ---- -- --- ---- -- --------- -- ---- -------<br>-- --------- ------ --- ----- ------ ---- --- --------- --<br>------ - ---- -- --- ----------- ------- ---- ----- -----<br>--- -------- - ------ ---- -- ----- ---- --- --- -----------<br>-- -------,159535.10000002384,159534.29999995232,159120.576,159135.39999997616,159137.246,159537.374,,10,the
screen,html.Screen,0_4_1_0_1_11,2021-11-19T12:41:46.397Z,,,,,,,,,,,,,,,,2,,,,,,,,,,,,,,1108.8259999284637,,response,,,1,D,,,,,Space,keypress(Space),,,,silence,--- ---- ------ --- ------- ---------- ------- ----------<br>--- --------- --- interesting ------- ----- ------- ---<br>--------- ---- -- --- ---- -- --------- -- ---- -------<br>-- --------- ------ --- ----- ------ ---- --- --------- --<br>------ - ---- -- --- ----------- ------- ---- ----- -----<br>--- -------- - ------ ---- -- ----- ---- --- --- -----------<br>-- -------,160647,160646.19999992847,159520.704,159535.29999995232,159537.374,160654.274,,11,interesting
screen,html.Screen,0_4_1_0_1_12,2021-11-19T12:41:47.292Z,,,,,,,,,,,,,,,,2,,,,,,,,,,,,,,887.7259999999951,,response,,,1,D,,,,,Space,keypress(Space),,,,silence,--- ---- ------ --- ------- ---------- ------- ----------<br>--- --------- --- ----------- sunspot ----- ------- ---<br>--------- ---- -- --- ---- -- --------- -- ---- -------<br>-- --------- ------ --- ----- ------ ---- --- --------- --<br>------ - ---- -- --- ----------- ------- ---- ----- -----<br>--- -------- - ------ ---- -- ----- ---- --- --- -----------<br>-- -------,161542.79999995232,161542,160637.604,160647.29999995232,160654.274,161554.601,,12,sunspot
screen,html.Screen,0_4_1_0_1_13,2021-11-19T12:41:47.796Z,,,,,,,,,,,,,,,,2,,,,,,,,,,,,,,491.49900002384675,,response,,,1,D,,,,,Space,keypress(Space),,,,silence,--- ---- ------ --- ------- ---------- ------- ----------<br>--- --------- --- ----------- ------- group ------- ---<br>--------- ---- -- --- ---- -- --------- -- ---- -------<br>-- --------- ------ --- ----- ------ ---- --- --------- --<br>------ - ---- -- --- ----------- ------- ---- ----- -----<br>--- -------- - ------ ---- -- ----- ---- --- --- -----------<br>-- -------,162046.89999997616,162046.10000002384,161537.93,161543,161554.601,162054.657,,13,group
screen,html.Screen,0_4_1_0_1_14,2021-11-19T12:41:48.516Z,,,,,,,,,,,,,,,,2,,,,,,,,,,,,,,711.4430000238353,,response,,,1,D,,,,,Space,keypress(Space),,,,silence,--- ---- ------ --- ------- ---------- ------- ----------<br>--- --------- --- ----------- ------- ----- through ---<br>--------- ---- -- --- ---- -- --------- -- ---- -------<br>-- --------- ------ --- ----- ------ ---- --- --------- --<br>------ - ---- -- --- ----------- ------- ---- ----- -----<br>--- -------- - ------ ---- -- ----- ---- --- --- -----------<br>-- -------,162766.89999997616,162766.10000002384,162037.987,162047.10000002384,162054.657,162771.582,,14,through
screen,html.Screen,0_4_1_0_1_15,2021-11-19T12:41:49.005Z,,,,,,,,,,,,,,,,2,,,,,,,,,,,,,,482.9180000000051,,response,,,1,D,,,,,Space,keypress(Space),,,,silence,--- ---- ------ --- ------- ---------- ------- ----------<br>--- --------- --- ----------- ------- ----- ------- his<br>--------- ---- -- --- ---- -- --------- -- ---- -------<br>-- --------- ------ --- ----- ------ ---- --- --------- --<br>------ - ---- -- --- ----------- ------- ---- ----- -----<br>--- -------- - ------ ---- -- ----- ---- --- --- -----------<br>-- -------,163255.29999995232,163254.5,162754.911,162767.10000002384,162771.582,163271.628,,15,his
screen,html.Screen,0_4_1_0_1_16,2021-11-19T12:41:49.668Z,,,,,,,,,,,,,,,,2,,,,,,,,,,,,,,646.372000000003,,response,,,1,D,,,,,Space,keypress(Space),,,,silence,--- ---- ------ --- ------- ---------- ------- ----------<br>--- --------- --- ----------- ------- ----- ------- ---<br>telescope ---- -- --- ---- -- --------- -- ---- -------<br>-- --------- ------ --- ----- ------ ---- --- --------- --<br>------ - ---- -- --- ----------- ------- ---- ----- -----<br>--- -------- - ------ ---- -- ----- ---- --- --- -----------<br>-- -------,163918.79999995232,163918,163254.958,163255.60000002384,163271.628,163921.868,,16,telescope
screen,html.Screen,0_4_1_0_1_17,2021-11-19T12:41:50.332Z,,,,,,,,,,,,,,,,2,,,,,,,,,,,,,,660.1320000000123,,response,,,1,D,,,,,Space,keypress(Space),,,,silence,--- ---- ------ --- ------- ---------- ------- ----------<br>--- --------- --- ----------- ------- ----- ------- ---<br>--------- when -- --- ---- -- --------- -- ---- -------<br>-- --------- ------ --- ----- ------ ---- --- --------- --<br>------ - ---- -- --- ----------- ------- ---- ----- -----<br>--- -------- - ------ ---- -- ----- ---- --- --- -----------<br>-- -------,164582.79999995232,164582,163905.197,163919.10000002384,163921.868,164588.5,,17,when
screen,html.Screen,0_4_1_0_1_18,2021-11-19T12:41:50.788Z,,,,,,,,,,,,,,,,2,,,,,,,,,,,,,,449.39999997615814,,response,,,1,D,,,,,Space,keypress(Space),,,,silence,--- ---- ------ --- ------- ---------- ------- ----------<br>--- --------- --- ----------- ------- ----- ------- ---<br>--------- ---- he --- ---- -- --------- -- ---- -------<br>-- --------- ------ --- ----- ------ ---- --- --------- --<br>------ - ---- -- --- ----------- ------- ---- ----- -----<br>--- -------- - ------ ---- -- ----- ---- --- --- -----------<br>-- -------,165038.69999992847,165037.89999997616,164571.831,164583,164588.5,165055.542,,18,he
screen,html.Screen,0_4_1_0_1_19,2021-11-19T12:41:51.844Z,,,,,,,,,,,,,,,,2,,,,,,,,,,,,,,1038.3579999761714,,response,,,1,D,,,,,Space,keypress(Space),,,,silence,--- ---- ------ --- ------- ---------- ------- ----------<br>--- --------- --- ----------- ------- ----- ------- ---<br>--------- ---- -- saw ---- -- --------- -- ---- -------<br>-- --------- ------ --- ----- ------ ---- --- --------- --<br>------ - ---- -- --- ----------- ------- ---- ----- -----<br>--- -------- - ------ ---- -- ----- ---- --- --- -----------<br>-- -------,166094.69999992847,166093.89999997616,165038.87,165039,165055.542,166105.685,,19,saw
screen,html.Screen,0_4_1_0_1_20,2021-11-19T12:41:52.580Z,,,,,,,,,,,,,,,,2,,,,,,,,,,,,,,724.2149999761605,,response,,,1,D,,,,,Space,keypress(Space),,,,silence,--- ---- ------ --- ------- ---------- ------- ----------<br>--- --------- --- ----------- ------- ----- ------- ---<br>--------- ---- -- --- what -- --------- -- ---- -------<br>-- --------- ------ --- ----- ------ ---- --- --------- --<br>------ - ---- -- --- ----------- ------- ---- ----- -----<br>--- -------- - ------ ---- -- ----- ---- --- --- -----------<br>-- -------,166830.69999992847,166829.89999997616,166089.015,166095,166105.685,166839.202,,20,what
screen,html.Screen,0_4_1_0_1_21,2021-11-19T12:41:52.932Z,,,,,,,,,,,,,,,,2,,,,,,,,,,,,,,342.59799995232606,,response,,,1,D,,,,,Space,keypress(Space),,,,silence,--- ---- ------ --- ------- ---------- ------- ----------<br>--- --------- --- ----------- ------- ----- ------- ---<br>--------- ---- -- --- ---- he --------- -- ---- -------<br>-- --------- ------ --- ----- ------ ---- --- --------- --<br>------ - ---- -- --- ----------- ------- ---- ----- -----<br>--- -------- - ------ ---- -- ----- ---- --- --- -----------<br>-- -------,167182.69999992847,167181.79999995232,166822.532,166831,166839.202,167189.309,,21,he
screen,html.Screen,0_4_1_0_1_22,2021-11-19T12:41:53.340Z,,,,,,,,,,,,,,,,2,,,,,,,,,,,,,,400.59099997614976,,response,,,1,D,,,,,Space,keypress(Space),,,,silence,--- ---- ------ --- ------- ---------- ------- ----------<br>--- --------- --- ----------- ------- ----- ------- ---<br>--------- ---- -- --- ---- -- described -- ---- -------<br>-- --------- ------ --- ----- ------ ---- --- --------- --<br>------ - ---- -- --- ----------- ------- ---- ----- -----<br>--- -------- - ------ ---- -- ----- ---- --- --- -----------<br>-- -------,167590.79999995232,167589.89999997616,167172.639,167182.89999997616,167189.309,167606.146,,22,described
screen,html.Screen,0_4_1_0_1_23,2021-11-19T12:41:53.804Z,,,,,,,,,,,,,,,,2,,,,,,,,,,,,,,447.65399995230837,,response,,,1,D,,,,,Space,keypress(Space),,,,silence,--- ---- ------ --- ------- ---------- ------- ----------<br>--- --------- --- ----------- ------- ----- ------- ---<br>--------- ---- -- --- ---- -- --------- as ---- -------<br>-- --------- ------ --- ----- ------ ---- --- --------- --<br>------ - ---- -- --- ----------- ------- ---- ----- -----<br>--- -------- - ------ ---- -- ----- ---- --- --- -----------<br>-- -------,168054.60000002384,168053.79999995232,167589.475,167590.89999997616,167606.146,168056.228,,23,as
screen,html.Screen,0_4_1_0_1_24,2021-11-19T12:41:54.340Z,,,,,,,,,,,,,,,,2,,,,,,,,,,,,,,533.6719999761553,,response,,,1,D,,,,,Space,keypress(Space),,,,silence,"--- ---- ------ --- ------- ---------- ------- ----------<br>--- --------- --- ----------- ------- ----- ------- ---<br>--------- ---- -- --- ---- -- --------- -- ""two -------<br>-- --------- ------ --- ----- ------ ---- --- --------- --<br>------ - ---- -- --- ----------- ------- ---- ----- -----<br>--- -------- - ------ ---- -- ----- ---- --- --- -----------<br>-- -------",168590.69999992847,168589.89999997616,168039.558,168054.89999997616,168056.228,168606.348,,24,"""two"
screen,html.Screen,0_4_1_0_1_25,2021-11-19T12:41:54.940Z,,,,,,,,,,,,,,,,2,,,,,,,,,,,,,,583.4519999523181,,response,,,1,D,,,,,Space,keypress(Space),,,,silence,--- ---- ------ --- ------- ---------- ------- ----------<br>--- --------- --- ----------- ------- ----- ------- ---<br>--------- ---- -- --- ---- -- --------- -- ---- patches<br>-- --------- ------ --- ----- ------ ---- --- --------- --<br>------ - ---- -- --- ----------- ------- ---- ----- -----<br>--- -------- - ------ ---- -- ----- ---- --- --- -----------<br>-- -------,169190.60000002384,169189.79999995232,168589.678,168590.89999997616,168606.348,169206.56,,25,patches
screen,html.Screen,0_4_1_0_1_26,2021-11-19T12:41:55.348Z,,,,,,,,,,,,,,,,2,,,,,,,,,,,,,,391.2399999523186,,response,,,1,D,,,,,Space,keypress(Space),,,,silence,--- ---- ------ --- ------- ---------- ------- ----------<br>--- --------- --- ----------- ------- ----- ------- ---<br>--------- ---- -- --- ---- -- --------- -- ---- -------<br>of --------- ------ --- ----- ------ ---- --- --------- --<br>------ - ---- -- --- ----------- ------- ---- ----- -----<br>--- -------- - ------ ---- -- ----- ---- --- --- -----------<br>-- -------,169598.60000002384,169597.79999995232,169189.889,169190.79999995232,169206.56,169606.634,,26,of
screen,html.Screen,0_4_1_0_1_27,2021-11-19T12:41:55.948Z,,,,,,,,,,,,,,,,2,,,,,,,,,,,,,,591.0659999284835,,response,,,1,D,,,,,Space,keypress(Space),,,,silence,--- ---- ------ --- ------- ---------- ------- ----------<br>--- --------- --- ----------- ------- ----- ------- ---<br>--------- ---- -- --- ---- -- --------- -- ---- -------<br>-- intensely ------ --- ----- ------ ---- --- --------- --<br>------ - ---- -- --- ----------- ------- ---- ----- -----<br>--- -------- - ------ ---- -- ----- ---- --- --- -----------<br>-- -------,170198.60000002384,170197.69999992847,169589.964,169598.79999995232,169606.634,170206.765,,27,intensely
screen,html.Screen,0_4_1_0_1_28,2021-11-19T12:41:56.548Z,,,,,,,,,,,,,,,,2,,,,,,,,,,,,,,590.9349999284605,,response,,,1,D,,,,,Space,keypress(Space),,,,silence,--- ---- ------ --- ------- ---------- ------- ----------<br>--- --------- --- ----------- ------- ----- ------- ---<br>--------- ---- -- --- ---- -- --------- -- ---- -------<br>-- --------- bright --- ----- ------ ---- --- --------- --<br>------ - ---- -- --- ----------- ------- ---- ----- -----<br>--- -------- - ------ ---- -- ----- ---- --- --- -----------<br>-- -------,170798.5,170797.69999992847,170190.095,170198.69999992847,170206.765,170806.91,,28,bright
screen,html.Screen,0_4_1_0_1_29,2021-11-19T12:41:56.988Z,,,,,,,,,,,,,,,,2,,,,,,,,,,,,,,430.78999992847093,,response,,,1,D,,,,,Space,keypress(Space),,,,silence,--- ---- ------ --- ------- ---------- ------- ----------<br>--- --------- --- ----------- ------- ----- ------- ---<br>--------- ---- -- --- ---- -- --------- -- ---- -------<br>-- --------- ------ and ----- ------ ---- --- --------- --<br>------ - ---- -- --- ----------- ------- ---- ----- -----<br>--- -------- - ------ ---- -- ----- ---- --- --- -----------<br>-- -------,171238.39999997616,171237.69999992847,170790.24,170798.69999992847,170806.91,171240.376,,29,and
screen,html.Screen,0_4_1_0_1_30,2021-11-19T12:41:57.396Z,,,,,,,,,,,,,,,,2,,,,,,,,,,,,,,405.32399992848514,,response,,,1,D,,,,,Space,keypress(Space),,,,silence,--- ---- ------ --- ------- ---------- ------- ----------<br>--- --------- --- ----------- ------- ----- ------- ---<br>--------- ---- -- --- ---- -- --------- -- ---- -------<br>-- --------- ------ --- white ------ ---- --- --------- --<br>------ - ---- -- --- ----------- ------- ---- ----- -----<br>--- -------- - ------ ---- -- ----- ---- --- --- -----------<br>-- -------,171646.39999997616,171645.69999992847,171223.706,171238.60000002384,171240.376,171657.123,,30,white
screen,html.Screen,0_4_1_0_1_31,2021-11-19T12:41:57.780Z,,,,,,,,,,,,,,,,2,,,,,,,,,,,,,,372.47700002384954,,response,,,1,D,,,,,Space,keypress(Space),,,,silence,"--- ---- ------ --- ------- ---------- ------- ----------<br>--- --------- --- ----------- ------- ----- ------- ---<br>--------- ---- -- --- ---- -- --------- -- ---- -------<br>-- --------- ------ --- ----- light"" ---- --- --------- --<br>------ - ---- -- --- ----------- ------- ---- ----- -----<br>--- -------- - ------ ---- -- ----- ---- --- --- -----------<br>-- -------",172030.60000002384,172029.60000002384,171640.453,171646.69999992847,171657.123,172040.622,,31,"light"""
screen,html.Screen,0_4_1_0_1_32,2021-11-19T12:41:58.372Z,,,,,,,,,,,,,,,,2,,,,,,,,,,,,,,580.9780000238388,,response,,,1,D,,,,,Space,keypress(Space),,,,silence,--- ---- ------ --- ------- ---------- ------- ----------<br>--- --------- --- ----------- ------- ----- ------- ---<br>--------- ---- -- --- ---- -- --------- -- ---- -------<br>-- --------- ------ --- ----- ------ over --- --------- --<br>------ - ---- -- --- ----------- ------- ---- ----- -----<br>--- -------- - ------ ---- -- ----- ---- --- --- -----------<br>-- -------,172622.39999997616,172621.60000002384,172023.951,172030.79999995232,172040.622,172624.107,,32,over
screen,html.Screen,0_4_1_0_1_33,2021-11-19T12:41:58.724Z,,,,,,,,,,,,,,,,2,,,,,,,,,,,,,,349.39300000001094,,response,,,1,D,,,,,Space,keypress(Space),,,,silence,--- ---- ------ --- ------- ---------- ------- ----------<br>--- --------- --- ----------- ------- ----- ------- ---<br>--------- ---- -- --- ---- -- --------- -- ---- -------<br>-- --------- ------ --- ----- ------ ---- the --------- --<br>------ - ---- -- --- ----------- ------- ---- ----- -----<br>--- -------- - ------ ---- -- ----- ---- --- --- -----------<br>-- -------,172974.39999997616,172973.5,172607.436,172622.60000002384,172624.107,172990.825,,33,the
screen,html.Screen,0_4_1_0_1_34,2021-11-19T12:41:59.612Z,,,,,,,,,,,,,,,,2,,,,,,,,,,,,,,871.1749999999884,,response,,,1,D,,,,,Space,keypress(Space),,,,silence,--- ---- ------ --- ------- ---------- ------- ----------<br>--- --------- --- ----------- ------- ----- ------- ---<br>--------- ---- -- --- ---- -- --------- -- ---- -------<br>-- --------- ------ --- ----- ------ ---- --- sunspots. --<br>------ - ---- -- --- ----------- ------- ---- ----- -----<br>--- -------- - ------ ---- -- ----- ---- --- --- -----------<br>-- -------,173862.79999995232,173862,172974.155,172974.60000002384,172990.825,173874.349,,34,sunspots.
screen,html.Screen,0_4_1_0_1_35,2021-11-19T12:42:00.148Z,,,,,,,,,,,,,,,,2,,,,,,,,,,,,,,523.1510000000126,,response,,,1,D,,,,,Space,keypress(Space),,,,silence,--- ---- ------ --- ------- ---------- ------- ----------<br>--- --------- --- ----------- ------- ----- ------- ---<br>--------- ---- -- --- ---- -- --------- -- ---- -------<br>-- --------- ------ --- ----- ------ ---- --- --------- He<br>------ - ---- -- --- ----------- ------- ---- ----- -----<br>--- -------- - ------ ---- -- ----- ---- --- --- -----------<br>-- -------,174398.19999992847,174397.5,173857.679,173863,173874.349,174407.846,,35,He
screen,html.Screen,0_4_1_0_1_36,2021-11-19T12:42:01.148Z,,,,,,,,,,,,,,,,2,,,,,,,,,,,,,,989.5539999761677,,response,,,1,D,,,,,Space,keypress(Space),,,,silence,--- ---- ------ --- ------- ---------- ------- ----------<br>--- --------- --- ----------- ------- ----- ------- ---<br>--------- ---- -- --- ---- -- --------- -- ---- -------<br>-- --------- ------ --- ----- ------ ---- --- --------- --<br>jotted - ---- -- --- ----------- ------- ---- ----- -----<br>--- -------- - ------ ---- -- ----- ---- --- --- -----------<br>-- -------,175398.29999995232,175397.39999997616,174391.176,174398.60000002384,174407.846,175408.16,,36,jotted
screen,html.Screen,0_4_1_0_1_37,2021-11-19T12:42:01.500Z,,,,,,,,,,,,,,,,2,,,,,,,,,,,,,,341.23999997615465,,response,,,1,D,,,,,Space,keypress(Space),,,,silence,--- ---- ------ --- ------- ---------- ------- ----------<br>--- --------- --- ----------- ------- ----- ------- ---<br>--------- ---- -- --- ---- -- --------- -- ---- -------<br>-- --------- ------ --- ----- ------ ---- --- --------- --<br>------ a ---- -- --- ----------- ------- ---- ----- -----<br>--- -------- - ------ ---- -- ----- ---- --- --- -----------<br>-- -------,175750.19999992847,175749.39999997616,175391.489,175398.5,175408.16,175758.216,,37,a
screen,html.Screen,0_4_1_0_1_38,2021-11-19T12:42:02.532Z,,,,,,,,,,,,,,,,2,,,,,,,,,,,,,,1023.0839999523305,,response,,,1,D,,,,,Space,keypress(Space),,,,silence,--- ---- ------ --- ------- ---------- ------- ----------<br>--- --------- --- ----------- ------- ----- ------- ---<br>--------- ---- -- --- ---- -- --------- -- ---- -------<br>-- --------- ------ --- ----- ------ ---- --- --------- --<br>------ - note -- --- ----------- ------- ---- ----- -----<br>--- -------- - ------ ---- -- ----- ---- --- --- -----------<br>-- -------,176782.19999992847,176781.29999995232,175741.546,175750.5,175758.216,176791.776,,38,note
screen,html.Screen,0_4_1_0_1_39,2021-11-19T12:42:02.948Z,,,,,,,,,,,,,,,,2,,,,,,,,,,,,,,405.5239999523037,,response,,,1,D,,,,,Space,keypress(Space),,,,silence,--- ---- ------ --- ------- ---------- ------- ----------<br>--- --------- --- ----------- ------- ----- ------- ---<br>--------- ---- -- --- ---- -- --------- -- ---- -------<br>-- --------- ------ --- ----- ------ ---- --- --------- --<br>------ - ---- in --- ----------- ------- ---- ----- -----<br>--- -------- - ------ ---- -- ----- ---- --- --- -----------<br>-- -------,177198.10000002384,177197.29999995232,176775.106,176782.39999997616,176791.776,177208.583,,39,in
screen,html.Screen,0_4_1_0_1_40,2021-11-19T12:42:04.012Z,,,,,,,,,,,,,,,,2,,,,,,,,,,,,,,1052.6169999284612,,response,,,1,D,,,,,Space,keypress(Space),,,,silence,--- ---- ------ --- ------- ---------- ------- ----------<br>--- --------- --- ----------- ------- ----- ------- ---<br>--------- ---- -- --- ---- -- --------- -- ---- -------<br>-- --------- ------ --- ----- ------ ---- --- --------- --<br>------ - ---- -- his ----------- ------- ---- ----- -----<br>--- -------- - ------ ---- -- ----- ---- --- --- -----------<br>-- -------,178262,178261.19999992847,177191.913,177198.39999997616,177208.583,178275.474,,40,his
screen,html.Screen,0_4_1_0_1_41,2021-11-19T12:42:04.876Z,,,,,,,,,,,,,,,,2,,,,,,,,,,,,,,849.8259999523289,,response,,,1,D,,,,,Space,keypress(Space),,,,silence,--- ---- ------ --- ------- ---------- ------- ----------<br>--- --------- --- ----------- ------- ----- ------- ---<br>--------- ---- -- --- ---- -- --------- -- ---- -------<br>-- --------- ------ --- ----- ------ ---- --- --------- --<br>------ - ---- -- --- painstaking ------- ---- ----- -----<br>--- -------- - ------ ---- -- ----- ---- --- --- -----------<br>-- -------,179126.10000002384,179125.29999995232,178258.804,178262.19999992847,178275.474,179142.326,,41,painstaking
screen,html.Screen,0_4_1_0_1_42,2021-11-19T12:42:05.596Z,,,,,,,,,,,,,,,,2,,,,,,,,,,,,,,702.8739999284735,,response,,,1,D,,,,,Space,keypress(Space),,,,silence,--- ---- ------ --- ------- ---------- ------- ----------<br>--- --------- --- ----------- ------- ----- ------- ---<br>--------- ---- -- --- ---- -- --------- -- ---- -------<br>-- --------- ------ --- ----- ------ ---- --- --------- --<br>------ - ---- -- --- ----------- record. ---- ----- -----<br>--- -------- - ------ ---- -- ----- ---- --- --- -----------<br>-- -------,179846,179845.19999992847,179125.656,179126.39999997616,179142.326,179859.333,,42,record.
screen,html.Screen,0_4_1_0_1_43,2021-11-19T12:42:06.128Z,,,,,,,,,,,,,,,,2,,,,,,,,,,,,,,513.8669999284612,,response,,,1,D,,,,,Space,keypress(Space),,,,silence,--- ---- ------ --- ------- ---------- ------- ----------<br>--- --------- --- ----------- ------- ----- ------- ---<br>--------- ---- -- --- ---- -- --------- -- ---- -------<br>-- --------- ------ --- ----- ------ ---- --- --------- --<br>------ - ---- -- --- ----------- ------- That ----- -----<br>--- -------- - ------ ---- -- ----- ---- --- --- -----------<br>-- -------,180373.89999997616,180373.19999992847,179842.662,179846.39999997616,179859.333,180376.026,,43,That
screen,html.Screen,0_4_1_0_1_44,2021-11-19T12:42:06.688Z,,,,,,,,,,,,,,,,2,,,,,,,,,,,,,,557.1739999284619,,response,,,1,D,,,,,Space,keypress(Space),,,,silence,--- ---- ------ --- ------- ---------- ------- ----------<br>--- --------- --- ----------- ------- ----- ------- ---<br>--------- ---- -- --- ---- -- --------- -- ---- -------<br>-- --------- ------ --- ----- ------ ---- --- --------- --<br>------ - ---- -- --- ----------- ------- ---- night -----<br>--- -------- - ------ ---- -- ----- ---- --- --- -----------<br>-- -------,180933.89999997616,180933.19999992847,180359.356,180374.19999992847,180376.026,180942.762,,44,night
screen,html.Screen,0_4_1_0_1_45,2021-11-19T12:42:07.215Z,,,,,,,,,,,,,,,,2,,,,,,,,,,,,,,518.338000023854,,response,,,1,D,,,,,Space,keypress(Space),,,,silence,--- ---- ------ --- ------- ---------- ------- ----------<br>--- --------- --- ----------- ------- ----- ------- ---<br>--------- ---- -- --- ---- -- --------- -- ---- -------<br>-- --------- ------ --- ----- ------ ---- --- --------- --<br>------ - ---- -- --- ----------- ------- ---- ----- there<br>--- -------- - ------ ---- -- ----- ---- --- --- -----------<br>-- -------,181461.89999997616,181461.10000002384,180926.093,180934.19999992847,180942.762,181476.438,,45,there
screen,html.Screen,0_4_1_0_1_46,2021-11-19T12:42:07.647Z,,,,,,,,,,,,,,,,2,,,,,,,,,,,,,,416.56200000000536,,response,,,1,D,,,,,Space,keypress(Space),,,,silence,--- ---- ------ --- ------- ---------- ------- ----------<br>--- --------- --- ----------- ------- ----- ------- ---<br>--------- ---- -- --- ---- -- --------- -- ---- -------<br>-- --------- ------ --- ----- ------ ---- --- --------- --<br>------ - ---- -- --- ----------- ------- ---- ----- -----<br>was -------- - ------ ---- -- ----- ---- --- --- -----------<br>-- -------,181893.89999997616,181893,181459.766,181462.10000002384,181476.438,181909.786,,46,was
screen,html.Screen,0_4_1_0_1_47,2021-11-19T12:42:08.407Z,,,,,,,,,,,,,,,,2,,,,,,,,,,,,,,743.3140000238491,,response,,,1,D,,,,,Space,keypress(Space),,,,silence,--- ---- ------ --- ------- ---------- ------- ----------<br>--- --------- --- ----------- ------- ----- ------- ---<br>--------- ---- -- --- ---- -- --------- -- ---- -------<br>-- --------- ------ --- ----- ------ ---- --- --------- --<br>------ - ---- -- --- ----------- ------- ---- ----- -----<br>--- scarcely - ------ ---- -- ----- ---- --- --- -----------<br>-- -------,182653.79999995232,182653.10000002384,181893.116,181894.10000002384,181909.786,182659.941,,47,scarcely
screen,html.Screen,0_4_1_0_1_48,2021-11-19T12:42:08.871Z,,,,,,,,,,,,,,,,2,,,,,,,,,,,,,,457.0590000000084,,response,,,1,D,,,,,Space,keypress(Space),,,,silence,--- ---- ------ --- ------- ---------- ------- ----------<br>--- --------- --- ----------- ------- ----- ------- ---<br>--------- ---- -- --- ---- -- --------- -- ---- -------<br>-- --------- ------ --- ----- ------ ---- --- --------- --<br>------ - ---- -- --- ----------- ------- ---- ----- -----<br>--- -------- a ------ ---- -- ----- ---- --- --- -----------<br>-- -------,183117.79999995232,183117,182643.271,182654.10000002384,182659.941,183126.837,,48,a
screen,html.Screen,0_4_1_0_1_49,2021-11-19T12:42:09.351Z,,,,,,,,,,,,,,,,2,,,,,,,,,,,,,,470.0629999761586,,response,,,1,D,,,,,Space,keypress(Space),,,,silence,--- ---- ------ --- ------- ---------- ------- ----------<br>--- --------- --- ----------- ------- ----- ------- ---<br>--------- ---- -- --- ---- -- --------- -- ---- -------<br>-- --------- ------ --- ----- ------ ---- --- --------- --<br>------ - ---- -- --- ----------- ------- ---- ----- -----<br>--- -------- - square ---- -- ----- ---- --- --- -----------<br>-- -------,183597.79999995232,183596.89999997616,183110.166,183118.10000002384,183126.837,183610.227,,49,square
