sender,sender_type,sender_id,timestamp,meta,,Blues,Classical,Country,Dance,Electronic,Folk,Gospel,Hip-Hop,Jazz,Latin,Musical/Film,New-age,Pop,Provo_ID,R&B,Rap,Reggae,Religious,Rock,Soul,Swing,Traditional,age,artist_name,correct,correctResponse,distraction,duration,education,ended_on,familiarity,gender,item,list,music_frequency,offensiveness,pleasantness,preference,response,response_action,snippet_file,song_name,song_rating,sound,text,time_commit,time_end,time_render,time_run,time_show,time_switch,url,word,word_ID
Instructions,html.Page,0_0,2021-12-02T12:03:38.769Z,"{""labjs_version"":""20.2.3"",""labjs_build"":{""flavor"":""production"",""commit"":""7ea907d66ca8aeef8054924ca5d82ffbe11e34e5""},""location"":""https://run.pavlovia.org/mvasilev/lab_music_d/"",""userAgent"":""Mozilla/5.0 (Windows NT 6.1; Win64; x64) AppleWebKit/537.36 (KHTML, like Gecko) Chrome/96.0.4664.45 Safari/537.36"",""platform"":""Win32"",""language"":""en-US"",""locale"":""en-US"",""timeZone"":""Europe/London"",""timezoneOffset"":0,""screen_width"":1920,""screen_height"":1080,""scroll_width"":1920,""scroll_height"":959,""window_innerWidth"":1920,""window_innerHeight"":1007,""devicePixelRatio"":1}",,,,,,,,,,,,,,,,,,,,,,,,,,,,,27560.043000000373,,form submission,,,,,,,,,,,,,,,,36264.20000000112,36262.90000000037,8669.517,8676.60000000149,8702.857,36269.706,{},,
Headphones,html.Page,0_1,2021-12-02T12:03:41.927Z,,,,,,,,,,,,,,,,,,,,,,,,,,,,,,3151.894000001492,,form submission,,,,,,,,,,,,,,,,39422.10000000149,39421.60000000149,36253.017,36265,36269.706,39427.75,,,
Holding screen,html.Screen,0_2_0_0,2021-12-02T12:03:51.925Z,,,,,,,,,,,,,,,,,,,,,,,,,,,,,,10002.254,,timeout,,,,,,,,,,,,,,,,49419.800000000745,49413.335,39411.079,39422.70000000112,39427.75,49430.004,,,
screen,html.Screen,0_2_0_1_0,2021-12-02T12:03:52.904Z,,,,,,,,,,,,,,,,53,,,,,,,,,,,,,,967.7960000007442,,response,,,99,,,,,,Space,keypress(Space),,,,,When -- ----- -- ------ - ------- --- ----------<br>------------- ------ ------ ---- ---- ------- ----- -- ----<br>-------- ------- -- ---------- --- - --- ----- ----- ----<br>---- --- --- ----- --- ---- ---- ------- ----- ---- -------<br>--- --- -- ----- -- --- ---- -- --- ---- -- ------ ------<br>--- ----- -- ----,50399.10000000149,50397.800000000745,49413.335,49420.300000000745,49430.004,50413.944,,0,When
screen,html.Screen,0_2_0_1_1,2021-12-02T12:03:53.455Z,,,,,,,,,,,,,,,,53,,,,,,,,,,,,,,535.4560000003694,,response,,,99,,,,,,Space,keypress(Space),,,,,---- it ----- -- ------ - ------- --- ----------<br>------------- ------ ------ ---- ---- ------- ----- -- ----<br>-------- ------- -- ---------- --- - --- ----- ----- ----<br>---- --- --- ----- --- ---- ---- ------- ----- ---- -------<br>--- --- -- ----- -- --- ---- -- --- ---- -- ------ ------<br>--- ----- -- ----,50950.300000000745,50949.40000000037,50397.272,50399.60000000149,50413.944,50963.894,,1,it
screen,html.Screen,0_2_0_1_2,2021-12-02T12:03:53.983Z,,,,,,,,,,,,,,,,53,,,,,,,,,,,,,,513.4060000007448,,response,,,99,,,,,,Space,keypress(Space),,,,,---- -- comes -- ------ - ------- --- ----------<br>------------- ------ ------ ---- ---- ------- ----- -- ----<br>-------- ------- -- ---------- --- - --- ----- ----- ----<br>---- --- --- ----- --- ---- ---- ------- ----- ---- -------<br>--- --- -- ----- -- --- ---- -- --- ---- -- ------ ------<br>--- ----- -- ----,51478.20000000112,51477.300000000745,50947.224,50950.60000000149,50963.894,51480.74,,2,comes
screen,html.Screen,0_2_0_1_3,2021-12-02T12:03:54.455Z,,,,,,,,,,,,,,,,53,,,,,,,,,,,,,,468.5600000007471,,response,,,99,,,,,,Space,keypress(Space),,,,,---- -- ----- to ------ - ------- --- ----------<br>------------- ------ ------ ---- ---- ------- ----- -- ----<br>-------- ------- -- ---------- --- - --- ----- ----- ----<br>---- --- --- ----- --- ---- ---- ------- ----- ---- -------<br>--- --- -- ----- -- --- ---- -- --- ---- -- ------ ------<br>--- ----- -- ----,51950.300000000745,51949.300000000745,51464.07,51478.5,51480.74,51964.245,,3,to
screen,html.Screen,0_2_0_1_4,2021-12-02T12:03:54.999Z,,,,,,,,,,,,,,,,53,,,,,,,,,,,,,,529.0550000007424,,response,,,99,,,,,,Space,keypress(Space),,,,,---- -- ----- -- having - ------- --- ----------<br>------------- ------ ------ ---- ---- ------- ----- -- ----<br>-------- ------- -- ---------- --- - --- ----- ----- ----<br>---- --- --- ----- --- ---- ---- ------- ----- ---- -------<br>--- --- -- ----- -- --- ---- -- --- ---- -- ------ ------<br>--- ----- -- ----,52494.40000000037,52493.300000000745,51947.574,51950.90000000037,51964.245,52497.68,,4,having
screen,html.Screen,0_2_0_1_5,2021-12-02T12:03:55.487Z,,,,,,,,,,,,,,,,53,,,,,,,,,,,,,,483.62000000074477,,response,,,99,,,,,,Space,keypress(Space),,,,,---- -- ----- -- ------ a ------- --- ----------<br>------------- ------ ------ ---- ---- ------- ----- -- ----<br>-------- ------- -- ---------- --- - --- ----- ----- ----<br>---- --- --- ----- --- ---- ---- ------- ----- ---- -------<br>--- --- -- ----- -- --- ---- -- --- ---- -- ------ ------<br>--- ----- -- ----,52982.20000000112,52981.300000000745,52481.01,52494.70000000112,52497.68,52997.813,,5,a
screen,html.Screen,0_2_0_1_6,2021-12-02T12:03:55.911Z,,,,,,,,,,,,,,,,53,,,,,,,,,,,,,,407.38700000111567,,response,,,99,,,,,,Space,keypress(Space),,,,,---- -- ----- -- ------ - lasting --- ----------<br>------------- ------ ------ ---- ---- ------- ----- -- ----<br>-------- ------- -- ---------- --- - --- ----- ----- ----<br>---- --- --- ----- --- ---- ---- ------- ----- ---- -------<br>--- --- -- ----- -- --- ---- -- --- ---- -- ------ ------<br>--- ----- -- ----,53406.20000000112,53405.20000000112,52981.143,52982.70000000112,52997.813,53414.592,,6,lasting
screen,html.Screen,0_2_0_1_7,2021-12-02T12:03:56.447Z,,,,,,,,,,,,,,,,53,,,,,,,,,,,,,,526.6080000011207,,response,,,99,,,,,,Space,keypress(Space),,,,,---- -- ----- -- ------ - ------- and ----------<br>------------- ------ ------ ---- ---- ------- ----- -- ----<br>-------- ------- -- ---------- --- - --- ----- ----- ----<br>---- --- --- ----- --- ---- ---- ------- ----- ---- -------<br>--- --- -- ----- -- --- ---- -- --- ---- -- ------ ------<br>--- ----- -- ----,53942.20000000112,53941.20000000112,53397.922,53406.5,53414.592,53948.044,,7,and
screen,html.Screen,0_2_0_1_8,2021-12-02T12:03:57.007Z,,,,,,,,,,,,,,,,53,,,,,,,,,,,,,,553.0560000014884,,response,,,99,,,,,,Space,keypress(Space),,,,,---- -- ----- -- ------ - ------- --- fulfilling<br>------------- ------ ------ ---- ---- ------- ----- -- ----<br>-------- ------- -- ---------- --- - --- ----- ----- ----<br>---- --- --- ----- --- ---- ---- ------- ----- ---- -------<br>--- --- -- ----- -- --- ---- -- --- ---- -- ------ ------<br>--- ----- -- ----,54502.300000000745,54501.10000000149,53931.374,53942.5,53948.044,54514.866,,8,fulfilling
screen,html.Screen,0_2_0_1_9,2021-12-02T12:03:57.647Z,,,,,,,,,,,,,,,,53,,,,,,,,,,,,,,626.3340000011158,,response,,,99,,,,,,Space,keypress(Space),,,,,"---- -- ----- -- ------ - ------- --- ----------<br>relationship, ------ ------ ---- ---- ------- ----- -- ----<br>-------- ------- -- ---------- --- - --- ----- ----- ----<br>---- --- --- ----- --- ---- ---- ------- ----- ---- -------<br>--- --- -- ----- -- --- ---- -- --- ---- -- ------ ------<br>--- ----- -- ----",55142.10000000149,55141.20000000112,54498.196,54502.60000000149,54514.866,55148.416,,9,"relationship,"
screen,html.Screen,0_2_0_1_10,2021-12-02T12:03:58.263Z,,,,,,,,,,,,,,,,53,,,,,,,,,,,,,,608.7840000011201,,response,,,99,,,,,,Space,keypress(Space),,,,,---- -- ----- -- ------ - ------- --- ----------<br>------------- common ------ ---- ---- ------- ----- -- ----<br>-------- ------- -- ---------- --- - --- ----- ----- ----<br>---- --- --- ----- --- ---- ---- ------- ----- ---- -------<br>--- --- -- ----- -- --- ---- -- --- ---- -- ------ ------<br>--- ----- -- ----,55758.10000000149,55757.20000000112,55131.745,55142.40000000037,55148.416,55765.153,,10,common
screen,html.Screen,0_2_0_1_11,2021-12-02T12:03:58.751Z,,,,,,,,,,,,,,,,53,,,,,,,,,,,,,,480.04700000111916,,response,,,99,,,,,,Space,keypress(Space),,,,,---- -- ----- -- ------ - ------- --- ----------<br>------------- ------ wisdom ---- ---- ------- ----- -- ----<br>-------- ------- -- ---------- --- - --- ----- ----- ----<br>---- --- --- ----- --- ---- ---- ------- ----- ---- -------<br>--- --- -- ----- -- --- ---- -- --- ---- -- ------ ------<br>--- ----- -- ----,56246,56245.20000000112,55748.483,55758.300000000745,55765.153,56248.597,,11,wisdom
screen,html.Screen,0_2_0_1_12,2021-12-02T12:03:59.279Z,,,,,,,,,,,,,,,,53,,,,,,,,,,,,,,524.4029999999984,,response,,,99,,,,,,Space,keypress(Space),,,,,---- -- ----- -- ------ - ------- --- ----------<br>------------- ------ ------ says ---- ------- ----- -- ----<br>-------- ------- -- ---------- --- - --- ----- ----- ----<br>---- --- --- ----- --- ---- ---- ------- ----- ---- -------<br>--- --- -- ----- -- --- ---- -- --- ---- -- ------ ------<br>--- ----- -- ----,56773.90000000037,56773,56231.927,56246.300000000745,56248.597,56782.133,,12,says
screen,html.Screen,0_2_0_1_13,2021-12-02T12:03:59.767Z,,,,,,,,,,,,,,,,53,,,,,,,,,,,,,,478.9670000014885,,response,,,99,,,,,,Space,keypress(Space),,,,,---- -- ----- -- ------ - ------- --- ----------<br>------------- ------ ------ ---- that ------- ----- -- ----<br>-------- ------- -- ---------- --- - --- ----- ----- ----<br>---- --- --- ----- --- ---- ---- ------- ----- ---- -------<br>--- --- -- ----- -- --- ---- -- --- ---- -- ------ ------<br>--- ----- -- ----,57261.90000000037,57261.10000000149,56765.462,56774.10000000149,56782.133,57265.622,,13,that
screen,html.Screen,0_2_0_1_14,2021-12-02T12:04:00.279Z,,,,,,,,,,,,,,,,53,,,,,,,,,,,,,,507.377999999997,,response,,,99,,,,,,Space,keypress(Space),,,,,---- -- ----- -- ------ - ------- --- ----------<br>------------- ------ ------ ---- ---- feeling ----- -- ----<br>-------- ------- -- ---------- --- - --- ----- ----- ----<br>---- --- --- ----- --- ---- ---- ------- ----- ---- -------<br>--- --- -- ----- -- --- ---- -- --- ---- -- ------ ------<br>--- ----- -- ----,57773.90000000037,57773,57248.951,57262.20000000112,57265.622,57782.427,,14,feeling
screen,html.Screen,0_2_0_1_15,2021-12-02T12:04:00.687Z,,,,,,,,,,,,,,,,53,,,,,,,,,,,,,,398.4730000003692,,response,,,99,,,,,,Space,keypress(Space),,,,,---- -- ----- -- ------ - ------- --- ----------<br>------------- ------ ------ ---- ---- ------- close -- ----<br>-------- ------- -- ---------- --- - --- ----- ----- ----<br>---- --- --- ----- --- ---- ---- ------- ----- ---- -------<br>--- --- -- ----- -- --- ---- -- --- ---- -- ------ ------<br>--- ----- -- ----,58182,58180.90000000037,57765.756,57774.10000000149,57782.427,58199.137,,15,close
screen,html.Screen,0_2_0_1_16,2021-12-02T12:04:01.119Z,,,,,,,,,,,,,,,,53,,,,,,,,,,,,,,413.86299999999756,,response,,,99,,,,,,Space,keypress(Space),,,,,---- -- ----- -- ------ - ------- --- ----------<br>------------- ------ ------ ---- ---- ------- ----- to ----<br>-------- ------- -- ---------- --- - --- ----- ----- ----<br>---- --- --- ----- --- ---- ---- ------- ----- ---- -------<br>--- --- -- ----- -- --- ---- -- --- ---- -- ------ ------<br>--- ----- -- ----,58613.800000000745,58613,58182.467,58182.40000000037,58199.137,58615.933,,16,to
screen,html.Screen,0_2_0_1_17,2021-12-02T12:04:01.511Z,,,,,,,,,,,,,,,,53,,,,,,,,,,,,,,389.06700000000274,,response,,,99,,,,,,Space,keypress(Space),,,,,---- -- ----- -- ------ - ------- --- ----------<br>------------- ------ ------ ---- ---- ------- ----- -- your<br>-------- ------- -- ---------- --- - --- ----- ----- ----<br>---- --- --- ----- --- ---- ---- ------- ----- ---- -------<br>--- --- -- ----- -- --- ---- -- --- ---- -- ------ ------<br>--- ----- -- ----,59005.800000000745,59005,58599.263,58614.10000000149,58615.933,59016.038,,17,your
screen,html.Screen,0_2_0_1_18,2021-12-02T12:04:02.127Z,,,,,,,,,,,,,,,,53,,,,,,,,,,,,,,604.8620000003721,,response,,,99,,,,,,Space,keypress(Space),,,,,---- -- ----- -- ------ - ------- --- ----------<br>------------- ------ ------ ---- ---- ------- ----- -- ----<br>romantic ------- -- ---------- --- - --- ----- ----- ----<br>---- --- --- ----- --- ---- ---- ------- ----- ---- -------<br>--- --- -- ----- -- --- ---- -- --- ---- -- ------ ------<br>--- ----- -- ----,59621.70000000112,59620.90000000037,58999.368,59006,59016.038,59632.899,,18,romantic
screen,html.Screen,0_2_0_1_19,2021-12-02T12:04:02.562Z,,,,,,,,,,,,,,,,53,,,,,,,,,,,,,,420.0010000003749,,response,,,99,,,,,,Space,keypress(Space),,,,,---- -- ----- -- ------ - ------- --- ----------<br>------------- ------ ------ ---- ---- ------- ----- -- ----<br>-------- partner -- ---------- --- - --- ----- ----- ----<br>---- --- --- ----- --- ---- ---- ------- ----- ---- -------<br>--- --- -- ----- -- --- ---- -- --- ---- -- ------ ------<br>--- ----- -- ----,60053.800000000745,60052.90000000037,59616.228,59621.90000000037,59632.899,60066.277,,19,partner
screen,html.Screen,0_2_0_1_20,2021-12-02T12:04:03.019Z,,,,,,,,,,,,,,,,53,,,,,,,,,,,,,,443.0230000007432,,response,,,99,,,,,,Space,keypress(Space),,,,,---- -- ----- -- ------ - ------- --- ----------<br>------------- ------ ------ ---- ---- ------- ----- -- ----<br>-------- ------- is ---------- --- - --- ----- ----- ----<br>---- --- --- ----- --- ---- ---- ------- ----- ---- -------<br>--- --- -- ----- -- --- ---- -- --- ---- -- ------ ------<br>--- ----- -- ----,60510.300000000745,60509.300000000745,60049.607,60054,60066.277,60533.005,,20,is
screen,html.Screen,0_2_0_1_21,2021-12-02T12:04:03.562Z,,,,,,,,,,,,,,,,53,,,,,,,,,,,,,,519.8950000003751,,response,,,99,,,,,,Space,keypress(Space),,,,,---- -- ----- -- ------ - ------- --- ----------<br>------------- ------ ------ ---- ---- ------- ----- -- ----<br>-------- ------- -- paramount. --- - --- ----- ----- ----<br>---- --- --- ----- --- ---- ---- ------- ----- ---- -------<br>--- --- -- ----- -- --- ---- -- --- ---- -- ------ ------<br>--- ----- -- ----,61053.60000000149,61052.90000000037,60516.336,60510.5,60533.005,61066.65,,21,paramount.
screen,html.Screen,0_2_0_1_22,2021-12-02T12:04:04.570Z,,,,,,,,,,,,,,,,53,,,,,,,,,,,,,,994.1500000007436,,response,,,99,,,,,,Space,keypress(Space),,,,,---- -- ----- -- ------ - ------- --- ----------<br>------------- ------ ------ ---- ---- ------- ----- -- ----<br>-------- ------- -- ---------- But - --- ----- ----- ----<br>---- --- --- ----- --- ---- ---- ------- ----- ---- -------<br>--- --- -- ----- -- --- ---- -- --- ---- -- ------ ------<br>--- ----- -- ----,62061.5,62060.800000000745,61049.978,61054.20000000112,61066.65,62066.784,,22,But
screen,html.Screen,0_2_0_1_23,2021-12-02T12:04:05.250Z,,,,,,,,,,,,,,,,53,,,,,,,,,,,,,,673.9160000011179,,response,,,99,,,,,,Space,keypress(Space),,,,,---- -- ----- -- ------ - ------- --- ----------<br>------------- ------ ------ ---- ---- ------- ----- -- ----<br>-------- ------- -- ---------- --- a --- ----- ----- ----<br>---- --- --- ----- --- ---- ---- ------- ----- ---- -------<br>--- --- -- ----- -- --- ---- -- --- ---- -- ------ ------<br>--- ----- -- ----,62741.5,62740.70000000112,62050.114,62061.800000000745,62066.784,62750.309,,23,a
screen,html.Screen,0_2_0_1_24,2021-12-02T12:04:06.082Z,,,,,,,,,,,,,,,,53,,,,,,,,,,,,,,822.491000000744,,response,,,99,,,,,,Space,keypress(Space),,,,,---- -- ----- -- ------ - ------- --- ----------<br>------------- ------ ------ ---- ---- ------- ----- -- ----<br>-------- ------- -- ---------- --- - new ----- ----- ----<br>---- --- --- ----- --- ---- ---- ------- ----- ---- -------<br>--- --- -- ----- -- --- ---- -- --- ---- -- ------ ------<br>--- ----- -- ----,63573.5,63572.800000000745,62733.639,62741.800000000745,62750.309,63583.853,,24,new
screen,html.Screen,0_2_0_1_25,2021-12-02T12:04:06.658Z,,,,,,,,,,,,,,,,53,,,,,,,,,,,,,,564.8470000011148,,response,,,99,,,,,,Space,keypress(Space),,,,,---- -- ----- -- ------ - ------- --- ----------<br>------------- ------ ------ ---- ---- ------- ----- -- ----<br>-------- ------- -- ---------- --- - --- study ----- ----<br>---- --- --- ----- --- ---- ---- ------- ----- ---- -------<br>--- --- -- ----- -- --- ---- -- --- ---- -- ------ ------<br>--- ----- -- ----,64149.5,64148.70000000112,63567.183,63573.800000000745,63583.853,64150.658,,25,study
screen,html.Screen,0_2_0_1_26,2021-12-02T12:04:07.002Z,,,,,,,,,,,,,,,,53,,,,,,,,,,,,,,341.94200000148703,,response,,,99,,,,,,Space,keypress(Space),,,,,---- -- ----- -- ------ - ------- --- ----------<br>------------- ------ ------ ---- ---- ------- ----- -- ----<br>-------- ------- -- ---------- --- - --- ----- finds ----<br>---- --- --- ----- --- ---- ---- ------- ----- ---- -------<br>--- --- -- ----- -- --- ---- -- --- ---- -- ------ ------<br>--- ----- -- ----,64493.70000000112,64492.60000000149,64133.988,64149.800000000745,64150.658,64500.756,,26,finds
screen,html.Screen,0_2_0_1_27,2021-12-02T12:04:07.186Z,,,,,,,,,,,,,,,,53,,,,,,,,,,,,,,175.8440000014889,,response,,,99,,,,,,Space,keypress(Space),,,,,---- -- ----- -- ------ - ------- --- ----------<br>------------- ------ ------ ---- ---- ------- ----- -- ----<br>-------- ------- -- ---------- --- - --- ----- ----- that<br>---- --- --- ----- --- ---- ---- ------- ----- ---- -------<br>--- --- -- ----- -- --- ---- -- --- ---- -- ------ ------<br>--- ----- -- ----,64677.40000000037,64676.60000000149,64484.086,64494,64500.756,64684.129,,27,that
screen,html.Screen,0_2_0_1_28,2021-12-02T12:04:07.970Z,,,,,,,,,,,,,,,,53,,,,,,,,,,,,,,776.5710000011168,,response,,,99,,,,,,Space,keypress(Space),,,,,---- -- ----- -- ------ - ------- --- ----------<br>------------- ------ ------ ---- ---- ------- ----- -- ----<br>-------- ------- -- ---------- --- - --- ----- ----- ----<br>it's --- --- ----- --- ---- ---- ------- ----- ---- -------<br>--- --- -- ----- -- --- ---- -- --- ---- -- ------ ------<br>--- ----- -- ----,65461.40000000037,65460.70000000112,64667.459,64677.60000000149,64684.129,65467.782,,28,it's
screen,html.Screen,0_2_0_1_29,2021-12-02T12:04:08.498Z,,,,,,,,,,,,,,,,53,,,,,,,,,,,,,,520.8180000014909,,response,,,99,,,,,,Space,keypress(Space),,,,,---- -- ----- -- ------ - ------- --- ----------<br>------------- ------ ------ ---- ---- ------- ----- -- ----<br>-------- ------- -- ---------- --- - --- ----- ----- ----<br>---- not --- ----- --- ---- ---- ------- ----- ---- -------<br>--- --- -- ----- -- --- ---- -- --- ---- -- ------ ------<br>--- ----- -- ----,65989.30000000075,65988.60000000149,65451.11,65461.70000000112,65467.782,66001.043,,29,not
screen,html.Screen,0_2_0_1_30,2021-12-02T12:04:09.106Z,,,,,,,,,,,,,,,,53,,,,,,,,,,,,,,595.557000001485,,response,,,99,,,,,,Space,keypress(Space),,,,,---- -- ----- -- ------ - ------- --- ----------<br>------------- ------ ------ ---- ---- ------- ----- -- ----<br>-------- ------- -- ---------- --- - --- ----- ----- ----<br>---- --- how ----- --- ---- ---- ------- ----- ---- -------<br>--- --- -- ----- -- --- ---- -- --- ---- -- ------ ------<br>--- ----- -- ----,66597.30000000075,66596.60000000149,65984.374,65989.60000000149,66001.043,66601.358,,30,how
screen,html.Screen,0_2_0_1_31,2021-12-02T12:04:09.562Z,,,,,,,,,,,,,,,,53,,,,,,,,,,,,,,451.1420000000071,,response,,,99,,,,,,Space,keypress(Space),,,,,---- -- ----- -- ------ - ------- --- ----------<br>------------- ------ ------ ---- ---- ------- ----- -- ----<br>-------- ------- -- ---------- --- - --- ----- ----- ----<br>---- --- --- close --- ---- ---- ------- ----- ---- -------<br>--- --- -- ----- -- --- ---- -- --- ---- -- ------ ------<br>--- ----- -- ----,67053.30000000075,67052.5,66584.687,66597.60000000149,66601.358,67068.107,,31,close
screen,html.Screen,0_2_0_1_32,2021-12-02T12:04:10.114Z,,,,,,,,,,,,,,,,53,,,,,,,,,,,,,,536.2930000003689,,response,,,99,,,,,,Space,keypress(Space),,,,,---- -- ----- -- ------ - ------- --- ----------<br>------------- ------ ------ ---- ---- ------- ----- -- ----<br>-------- ------- -- ---------- --- - --- ----- ----- ----<br>---- --- --- ----- you ---- ---- ------- ----- ---- -------<br>--- --- -- ----- -- --- ---- -- --- ---- -- ------ ------<br>--- ----- -- ----,67605.20000000112,67604.40000000037,67051.437,67053.60000000149,67068.107,67618.228,,32,you
screen,html.Screen,0_2_0_1_33,2021-12-02T12:04:10.506Z,,,,,,,,,,,,,,,,53,,,,,,,,,,,,,,378.2719999999972,,response,,,99,,,,,,Space,keypress(Space),,,,,---- -- ----- -- ------ - ------- --- ----------<br>------------- ------ ------ ---- ---- ------- ----- -- ----<br>-------- ------- -- ---------- --- - --- ----- ----- ----<br>---- --- --- ----- --- feel ---- ------- ----- ---- -------<br>--- --- -- ----- -- --- ---- -- --- ---- -- ------ ------<br>--- ----- -- ----,67997.20000000112,67996.5,67601.558,67605.40000000037,67618.228,68001.677,,33,feel
screen,html.Screen,0_2_0_1_34,2021-12-02T12:04:10.858Z,,,,,,,,,,,,,,,,53,,,,,,,,,,,,,,346.623000000749,,response,,,99,,,,,,Space,keypress(Space),,,,,---- -- ----- -- ------ - ------- --- ----------<br>------------- ------ ------ ---- ---- ------- ----- -- ----<br>-------- ------- -- ---------- --- - --- ----- ----- ----<br>---- --- --- ----- --- ---- that ------- ----- ---- -------<br>--- --- -- ----- -- --- ---- -- --- ---- -- ------ ------<br>--- ----- -- ----,68349.10000000149,68348.30000000075,67985.007,67997.5,68001.677,68351.758,,34,that
screen,html.Screen,0_2_0_1_35,2021-12-02T12:04:11.274Z,,,,,,,,,,,,,,,,53,,,,,,,,,,,,,,412.6420000003709,,response,,,99,,,,,,Space,keypress(Space),,,,,---- -- ----- -- ------ - ------- --- ----------<br>------------- ------ ------ ---- ---- ------- ----- -- ----<br>-------- ------- -- ---------- --- - --- ----- ----- ----<br>---- --- --- ----- --- ---- ---- matters ----- ---- -------<br>--- --- -- ----- -- --- ---- -- --- ---- -- ------ ------<br>--- ----- -- ----,68765.20000000112,68764.40000000037,68335.088,68349.40000000037,68351.758,68768.573,,35,matters
screen,html.Screen,0_2_0_1_36,2021-12-02T12:04:11.738Z,,,,,,,,,,,,,,,,53,,,,,,,,,,,,,,459.82700000036857,,response,,,99,,,,,,Space,keypress(Space),,,,,"---- -- ----- -- ------ - ------- --- ----------<br>------------- ------ ------ ---- ---- ------- ----- -- ----<br>-------- ------- -- ---------- --- - --- ----- ----- ----<br>---- --- --- ----- --- ---- ---- ------- most, ---- -------<br>--- --- -- ----- -- --- ---- -- --- ---- -- ------ ------<br>--- ----- -- ----",69229.40000000037,69228.40000000037,68751.902,68765.5,68768.573,69235.369,,36,"most,"
screen,html.Screen,0_2_0_1_37,2021-12-02T12:04:12.082Z,,,,,,,,,,,,,,,,53,,,,,,,,,,,,,,336.931000000739,,response,,,99,,,,,,Space,keypress(Space),,,,,---- -- ----- -- ------ - ------- --- ----------<br>------------- ------ ------ ---- ---- ------- ----- -- ----<br>-------- ------- -- ---------- --- - --- ----- ----- ----<br>---- --- --- ----- --- ---- ---- ------- ----- it's -------<br>--- --- -- ----- -- --- ---- -- --- ---- -- ------ ------<br>--- ----- -- ----,69573,69572.30000000075,69218.698,69229.70000000112,69235.369,69585.414,,37,it's
screen,html.Screen,0_2_0_1_38,2021-12-02T12:04:12.506Z,,,,,,,,,,,,,,,,53,,,,,,,,,,,,,,410.88600000074075,,response,,,99,,,,,,Space,keypress(Space),,,,,---- -- ----- -- ------ - ------- --- ----------<br>------------- ------ ------ ---- ---- ------- ----- -- ----<br>-------- ------- -- ---------- --- - --- ----- ----- ----<br>---- --- --- ----- --- ---- ---- ------- ----- ---- whether<br>--- --- -- ----- -- --- ---- -- --- ---- -- ------ ------<br>--- ----- -- ----,69997.20000000112,69996.30000000075,69568.744,69573.30000000075,69585.414,70002.184,,38,whether
screen,html.Screen,0_2_0_1_39,2021-12-02T12:04:12.898Z,,,,,,,,,,,,,,,,53,,,,,,,,,,,,,,386.1160000007512,,response,,,99,,,,,,Space,keypress(Space),,,,,---- -- ----- -- ------ - ------- --- ----------<br>------------- ------ ------ ---- ---- ------- ----- -- ----<br>-------- ------- -- ---------- --- - --- ----- ----- ----<br>---- --- --- ----- --- ---- ---- ------- ----- ---- -------<br>you --- -- ----- -- --- ---- -- --- ---- -- ------ ------<br>--- ----- -- ----,70389.10000000149,70388.30000000075,69985.514,69997.40000000037,70002.184,70402.343,,39,you
screen,html.Screen,0_2_0_1_40,2021-12-02T12:04:13.258Z,,,,,,,,,,,,,,,,53,,,,,,,,,,,,,,346.3570000011241,,response,,,99,,,,,,Space,keypress(Space),,,,,---- -- ----- -- ------ - ------- --- ----------<br>------------- ------ ------ ---- ---- ------- ----- -- ----<br>-------- ------- -- ---------- --- - --- ----- ----- ----<br>---- --- --- ----- --- ---- ---- ------- ----- ---- -------<br>--- are -- ----- -- --- ---- -- --- ---- -- ------ ------<br>--- ----- -- ----,70749.5,70748.70000000112,70385.672,70389.30000000075,70402.343,70752.308,,40,are
screen,html.Screen,0_2_0_1_41,2021-12-02T12:04:13.642Z,,,,,,,,,,,,,,,,53,,,,,,,,,,,,,,379.89200000111305,,response,,,99,,,,,,Space,keypress(Space),,,,,---- -- ----- -- ------ - ------- --- ----------<br>------------- ------ ------ ---- ---- ------- ----- -- ----<br>-------- ------- -- ---------- --- - --- ----- ----- ----<br>---- --- --- ----- --- ---- ---- ------- ----- ---- -------<br>--- --- as ----- -- --- ---- -- --- ---- -- ------ ------<br>--- ----- -- ----,71133,71132.20000000112,70735.639,70749.70000000112,70752.308,71135.911,,41,as
screen,html.Screen,0_2_0_1_42,2021-12-02T12:04:14.122Z,,,,,,,,,,,,,,,,53,,,,,,,,,,,,,,476.2890000011248,,response,,,99,,,,,,Space,keypress(Space),,,,,---- -- ----- -- ------ - ------- --- ----------<br>------------- ------ ------ ---- ---- ------- ----- -- ----<br>-------- ------- -- ---------- --- - --- ----- ----- ----<br>---- --- --- ----- --- ---- ---- ------- ----- ---- -------<br>--- --- -- close -- --- ---- -- --- ---- -- ------ ------<br>--- ----- -- ----,71613.10000000149,71612.20000000112,71119.239,71133.30000000075,71135.911,71619.258,,42,close
screen,html.Screen,0_2_0_1_43,2021-12-02T12:04:14.538Z,,,,,,,,,,,,,,,,53,,,,,,,,,,,,,,408.94200000111596,,response,,,99,,,,,,Space,keypress(Space),,,,,---- -- ----- -- ------ - ------- --- ----------<br>------------- ------ ------ ---- ---- ------- ----- -- ----<br>-------- ------- -- ---------- --- - --- ----- ----- ----<br>---- --- --- ----- --- ---- ---- ------- ----- ---- -------<br>--- --- -- ----- as --- ---- -- --- ---- -- ------ ------<br>--- ----- -- ----,72029,72028.20000000112,71602.588,71613.40000000037,71619.258,72036.052,,43,as
screen,html.Screen,0_2_0_1_44,2021-12-02T12:04:14.914Z,,,,,,,,,,,,,,,,53,,,,,,,,,,,,,,368.0480000014941,,response,,,99,,,,,,Space,keypress(Space),,,,,---- -- ----- -- ------ - ------- --- ----------<br>------------- ------ ------ ---- ---- ------- ----- -- ----<br>-------- ------- -- ---------- --- - --- ----- ----- ----<br>---- --- --- ----- --- ---- ---- ------- ----- ---- -------<br>--- --- -- ----- -- you ---- -- --- ---- -- ------ ------<br>--- ----- -- ----,72405,72404.10000000149,72019.382,72029.20000000112,72036.052,72419.457,,44,you
screen,html.Screen,0_2_0_1_45,2021-12-02T12:04:15.266Z,,,,,,,,,,,,,,,,53,,,,,,,,,,,,,,336.7430000011227,,response,,,99,,,,,,Space,keypress(Space),,,,,---- -- ----- -- ------ - ------- --- ----------<br>------------- ------ ------ ---- ---- ------- ----- -- ----<br>-------- ------- -- ---------- --- - --- ----- ----- ----<br>---- --- --- ----- --- ---- ---- ------- ----- ---- -------<br>--- --- -- ----- -- --- want -- --- ---- -- ------ ------<br>--- ----- -- ----,72756.90000000037,72756.20000000112,72402.787,72405.20000000112,72419.457,72769.621,,45,want
screen,html.Screen,0_2_0_1_46,2021-12-02T12:04:15.634Z,,,,,,,,,,,,,,,,53,,,,,,,,,,,,,,354.47900000149093,,response,,,99,,,,,,Space,keypress(Space),,,,,---- -- ----- -- ------ - ------- --- ----------<br>------------- ------ ------ ---- ---- ------- ----- -- ----<br>-------- ------- -- ---------- --- - --- ----- ----- ----<br>---- --- --- ----- --- ---- ---- ------- ----- ---- -------<br>--- --- -- ----- -- --- ---- to --- ---- -- ------ ------<br>--- ----- -- ----,73125,73124.10000000149,72752.95,72757.20000000112,72769.621,73136.333,,46,to
screen,html.Screen,0_2_0_1_47,2021-12-02T12:04:15.986Z,,,,,,,,,,,,,,,,53,,,,,,,,,,,,,,339.86700000111887,,response,,,99,,,,,,Space,keypress(Space),,,,,"---- -- ----- -- ------ - ------- --- ----------<br>------------- ------ ------ ---- ---- ------- ----- -- ----<br>-------- ------- -- ---------- --- - --- ----- ----- ----<br>---- --- --- ----- --- ---- ---- ------- ----- ---- -------<br>--- --- -- ----- -- --- ---- -- be, ---- -- ------ ------<br>--- ----- -- ----",73477,73476.20000000112,73119.663,73125.10000000149,73136.333,73486.419,,47,"be,"
screen,html.Screen,0_2_0_1_48,2021-12-02T12:04:16.330Z,,,,,,,,,,,,,,,,53,,,,,,,,,,,,,,333.7810000011232,,response,,,99,,,,,,Space,keypress(Space),,,,,---- -- ----- -- ------ - ------- --- ----------<br>------------- ------ ------ ---- ---- ------- ----- -- ----<br>-------- ------- -- ---------- --- - --- ----- ----- ----<br>---- --- --- ----- --- ---- ---- ------- ----- ---- -------<br>--- --- -- ----- -- --- ---- -- --- even -- ------ ------<br>--- ----- -- ----,73821,73820.20000000112,73469.749,73477.20000000112,73486.419,73836.552,,48,even
screen,html.Screen,0_2_0_1_49,2021-12-02T12:04:16.714Z,,,,,,,,,,,,,,,,53,,,,,,,,,,,,,,367.5480000014941,,response,,,99,,,,,,Space,keypress(Space),,,,,---- -- ----- -- ------ - ------- --- ----------<br>------------- ------ ------ ---- ---- ------- ----- -- ----<br>-------- ------- -- ---------- --- - --- ----- ----- ----<br>---- --- --- ----- --- ---- ---- ------- ----- ---- -------<br>--- --- -- ----- -- --- ---- -- --- ---- if ------ ------<br>--- ----- -- ----,74204.80000000075,74204.10000000149,73819.881,73821.30000000075,73836.552,74219.954,,49,if
screen,html.Screen,0_2_0_1_50,2021-12-02T12:04:17.066Z,,,,,,,,,,,,,,,,53,,,,,,,,,,,,,,336.1460000014922,,response,,,99,,,,,,Space,keypress(Space),,,,,---- -- ----- -- ------ - ------- --- ----------<br>------------- ------ ------ ---- ---- ------- ----- -- ----<br>-------- ------- -- ---------- --- - --- ----- ----- ----<br>---- --- --- ----- --- ---- ---- ------- ----- ---- -------<br>--- --- -- ----- -- --- ---- -- --- ---- -- that's ------<br>--- ----- -- ----,74556.80000000075,74556.10000000149,74203.284,74205.10000000149,74219.954,74570.048,,50,that's
screen,html.Screen,0_2_0_1_51,2021-12-02T12:04:17.402Z,,,,,,,,,,,,,,,,53,,,,,,,,,,,,,,322.0520000014949,,response,,,99,,,,,,Space,keypress(Space),,,,,---- -- ----- -- ------ - ------- --- ----------<br>------------- ------ ------ ---- ---- ------- ----- -- ----<br>-------- ------- -- ---------- --- - --- ----- ----- ----<br>---- --- --- ----- --- ---- ---- ------- ----- ---- -------<br>--- --- -- ----- -- --- ---- -- --- ---- -- ------ really<br>--- ----- -- ----,74892.80000000075,74892.10000000149,74553.378,74557.10000000149,74570.048,74903.329,,51,really
screen,html.Screen,0_2_0_1_52,2021-12-02T12:04:17.770Z,,,,,,,,,,,,,,,,53,,,,,,,,,,,,,,356.7710000014922,,response,,,99,,,,,,Space,keypress(Space),,,,,---- -- ----- -- ------ - ------- --- ----------<br>------------- ------ ------ ---- ---- ------- ----- -- ----<br>-------- ------- -- ---------- --- - --- ----- ----- ----<br>---- --- --- ----- --- ---- ---- ------- ----- ---- -------<br>--- --- -- ----- -- --- ---- -- --- ---- -- ------ ------<br>not ----- -- ----,75260.90000000037,75260.10000000149,74886.661,74893.10000000149,74903.329,75270.223,,52,not
screen,html.Screen,0_2_0_1_53,2021-12-02T12:04:18.130Z,,,,,,,,,,,,,,,,53,,,,,,,,,,,,,,349.77700000000186,,response,,,99,,,,,,Space,keypress(Space),,,,,---- -- ----- -- ------ - ------- --- ----------<br>------------- ------ ------ ---- ---- ------- ----- -- ----<br>-------- ------- -- ---------- --- - --- ----- ----- ----<br>---- --- --- ----- --- ---- ---- ------- ----- ---- -------<br>--- --- -- ----- -- --- ---- -- --- ---- -- ------ ------<br>--- close -- ----,75620.90000000037,75620,75253.552,75261.10000000149,75270.223,75637.067,,53,close
screen,html.Screen,0_2_0_1_54,2021-12-02T12:04:18.497Z,,,,,,,,,,,,,,,,53,,,,,,,,,,,,,,350.93300000000454,,response,,,99,,,,,,Space,keypress(Space),,,,,---- -- ----- -- ------ - ------- --- ----------<br>------------- ------ ------ ---- ---- ------- ----- -- ----<br>-------- ------- -- ---------- --- - --- ----- ----- ----<br>---- --- --- ----- --- ---- ---- ------- ----- ---- -------<br>--- --- -- ----- -- --- ---- -- --- ---- -- ------ ------<br>--- ----- at ----,75988.80000000075,75988,75620.395,75621.10000000149,75637.067,76003.725,,54,at
screen,html.Screen,0_2_0_1_55,2021-12-02T12:04:19.273Z,,,,,,,,,,,,,,,,53,,,,,,,,,,,,,,760.2749999999942,,response,,,99,,,,,,Space,keypress(Space),,,,,---- -- ----- -- ------ - ------- --- ----------<br>------------- ------ ------ ---- ---- ------- ----- -- ----<br>-------- ------- -- ---------- --- - --- ----- ----- ----<br>---- --- --- ----- --- ---- ---- ------- ----- ---- -------<br>--- --- -- ----- -- --- ---- -- --- ---- -- ------ ------<br>--- ----- -- all.,76764.70000000112,76764,75987.055,75989,76003.725,76787.126,,55,all.
Item 99,flow.Loop,0_2_0_1,2021-12-02T12:04:19.278Z,,,,,,,,,,,,,,,,,,,,,,,,,,,,,,27333.996,,completion,,,,D,,,,,,,,,,silence,,76769.40000000037,76764,49413.335,49420.20000000112,49430.004,76787.126,,,
Question 1,html.Screen,0_2_0_2,2021-12-02T12:04:25.840Z,,,,,,,,,,,,,,,,,,,,,,,,,,,true,FALSE,,6542.574000001114,,response,,,99,D,,,,,FALSE,click #choice-2,,,,silence,,83331.10000000149,83329.70000000112,76770.457,76769.60000000149,76787.126,83338.802,,,
Question 2,html.Screen,0_2_0_3,2021-12-02T12:04:32.773Z,,,,,,,,,,,,,,,,,,,,,,,,,,,true,TRUE,,6924.798000001494,,response,,,99,D,,,,,TRUE,click #choice-1,,,,silence,,90264.80000000075,90263.60000000149,83322.134,83331.40000000037,83338.802,90274.105,,,
Item 99,flow.Sequence,0_2_0,2021-12-02T12:04:32.774Z,,,,,,,,,,,,,,,,,,,,,,,,,,,,,,50835.85000000149,,completion,,,,,,,,,,,,,,,,90265.20000000112,90263.60000000149,39411.079,39422.60000000149,39427.75,90274.105,,,
Holding screen,html.Screen,0_2_1_0,2021-12-02T12:04:42.770Z,,,,,,,,,,,,,,,,,,,,,,,,,,,,,,10002.42700000001,,timeout,,,,,,,,,,,,,,,,100261.40000000037,100259.862,90257.434,90265.5,90274.105,100276.532,,,
screen,html.Screen,0_2_1_1_0,2021-12-02T12:04:44.081Z,,,,,,,,,,,,,,,,54,,,,,,,,,,,,,,1294.5680000014836,,response,,,100,,,,,,Space,keypress(Space),,,,,At --- ---- --- ------ ----- ------- ---- -- --- ------- --<br>------- ---------- ------ -- ----- -- ----- -- ---- ------<br>--- ----- --- --- ------ -------- ----- --- ------ ----- --<br>----- ----- ---------- --- --- ------ ------ ---- -- ------<br>------- --- ------ ----- --- ---- ------- -- ---- --- --<br>------- ------,101572.10000000149,101571.10000000149,100259.862,100261.90000000037,100276.532,101576.99,,0,At
screen,html.Screen,0_2_1_1_1,2021-12-02T12:04:44.624Z,,,,,,,,,,,,,,,,54,,,,,,,,,,,,,,537.6100000014849,,response,,,100,,,,,,Space,keypress(Space),,,,,-- the ---- --- ------ ----- ------- ---- -- --- ------- --<br>------- ---------- ------ -- ----- -- ----- -- ---- ------<br>--- ----- --- --- ------ -------- ----- --- ------ ----- --<br>----- ----- ---------- --- --- ------ ------ ---- -- ------<br>------- --- ------ ----- --- ---- ------- -- ---- --- --<br>------- ------,102115.30000000075,102114.60000000149,101560.319,101572.40000000037,101576.99,102127.046,,1,the
screen,html.Screen,0_2_1_1_2,2021-12-02T12:04:45.336Z,,,,,,,,,,,,,,,,54,,,,,,,,,,,,,,699.554000001488,,response,,,100,,,,,,Space,keypress(Space),,,,,-- --- time --- ------ ----- ------- ---- -- --- ------- --<br>------- ---------- ------ -- ----- -- ----- -- ---- ------<br>--- ----- --- --- ------ -------- ----- --- ------ ----- --<br>----- ----- ---------- --- --- ------ ------ ---- -- ------<br>------- --- ------ ----- --- ---- ------- -- ---- --- --<br>------- ------,102827.40000000037,102826.60000000149,102110.376,102115.60000000149,102127.046,102844.024,,2,time
screen,html.Screen,0_2_1_1_3,2021-12-02T12:04:46.048Z,,,,,,,,,,,,,,,,54,,,,,,,,,,,,,,694.4759999999951,,response,,,100,,,,,,Space,keypress(Space),,,,,-- --- ---- the ------ ----- ------- ---- -- --- ------- --<br>------- ---------- ------ -- ----- -- ----- -- ---- ------<br>--- ----- --- --- ------ -------- ----- --- ------ ----- --<br>----- ----- ---------- --- --- ------ ------ ---- -- ------<br>------- --- ------ ----- --- ---- ------- -- ---- --- --<br>------- ------,103539.20000000112,103538.5,102827.353,102827.70000000112,102844.024,103544.126,,3,the
screen,html.Screen,0_2_1_1_4,2021-12-02T12:04:46.664Z,,,,,,,,,,,,,,,,54,,,,,,,,,,,,,,610.2740000003687,,response,,,100,,,,,,Space,keypress(Space),,,,,-- --- ---- --- French ----- ------- ---- -- --- ------- --<br>------- ---------- ------ -- ----- -- ----- -- ---- ------<br>--- ----- --- --- ------ -------- ----- --- ------ ----- --<br>----- ----- ---------- --- --- ------ ------ ---- -- ------<br>------- --- ------ ----- --- ---- ------- -- ---- --- --<br>------- ------,104155.30000000075,104154.40000000037,103527.456,103539.5,103544.126,104160.943,,4,French
screen,html.Screen,0_2_1_1_5,2021-12-02T12:04:47.224Z,,,,,,,,,,,,,,,,54,,,,,,,,,,,,,,553.5570000000007,,response,,,100,,,,,,Space,keypress(Space),,,,,-- --- ---- --- ------ crown ------- ---- -- --- ------- --<br>------- ---------- ------ -- ----- -- ----- -- ---- ------<br>--- ----- --- --- ------ -------- ----- --- ------ ----- --<br>----- ----- ---------- --- --- ------ ------ ---- -- ------<br>------- --- ------ ----- --- ---- ------- -- ---- --- --<br>------- ------,104715.30000000075,104714.5,104144.273,104157.20000000112,104160.943,104727.853,,5,crown
screen,html.Screen,0_2_1_1_6,2021-12-02T12:04:47.840Z,,,,,,,,,,,,,,,,54,,,,,,,,,,,,,,602.5470000003697,,response,,,100,,,,,,Space,keypress(Space),,,,,-- --- ---- --- ------ ----- secured ---- -- --- ------- --<br>------- ---------- ------ -- ----- -- ----- -- ---- ------<br>--- ----- --- --- ------ -------- ----- --- ------ ----- --<br>----- ----- ---------- --- --- ------ ------ ---- -- ------<br>------- --- ------ ----- --- ---- ------- -- ---- --- --<br>------- ------,105331.20000000112,105330.40000000037,104711.182,104715.5,104727.853,105344.605,,6,secured
screen,html.Screen,0_2_1_1_7,2021-12-02T12:04:48.432Z,,,,,,,,,,,,,,,,54,,,,,,,,,,,,,,577.6950000007491,,response,,,100,,,,,,Space,keypress(Space),,,,,-- --- ---- --- ------ ----- ------- much -- --- ------- --<br>------- ---------- ------ -- ----- -- ----- -- ---- ------<br>--- ----- --- --- ------ -------- ----- --- ------ ----- --<br>----- ----- ---------- --- --- ------ ------ ---- -- ------<br>------- --- ------ ----- --- ---- ------- -- ---- --- --<br>------- ------,105923.10000000149,105922.30000000075,105327.935,105331.5,105344.605,105928.153,,7,much
screen,html.Screen,0_2_1_1_8,2021-12-02T12:04:48.928Z,,,,,,,,,,,,,,,,54,,,,,,,,,,,,,,490.14700000073935,,response,,,100,,,,,,Space,keypress(Space),,,,,-- --- ---- --- ------ ----- ------- ---- of --- ------- --<br>------- ---------- ------ -- ----- -- ----- -- ---- ------<br>--- ----- --- --- ------ -------- ----- --- ------ ----- --<br>----- ----- ---------- --- --- ------ ------ ---- -- ------<br>------- --- ------ ----- --- ---- ------- -- ---- --- --<br>------- ------,106419.10000000149,106418.30000000075,105911.482,105923.40000000037,105928.153,106428.223,,8,of
screen,html.Screen,0_2_1_1_9,2021-12-02T12:04:49.368Z,,,,,,,,,,,,,,,,54,,,,,,,,,,,,,,429.97700000111945,,response,,,100,,,,,,Space,keypress(Space),,,,,-- --- ---- --- ------ ----- ------- ---- -- its ------- --<br>------- ---------- ------ -- ----- -- ----- -- ---- ------<br>--- ----- --- --- ------ -------- ----- --- ------ ----- --<br>----- ----- ---------- --- --- ------ ------ ---- -- ------<br>------- --- ------ ----- --- ---- ------- -- ---- --- --<br>------- ------,106859.10000000149,106858.20000000112,106411.553,106419.40000000037,106428.223,106861.668,,9,its
screen,html.Screen,0_2_1_1_10,2021-12-02T12:04:50.016Z,,,,,,,,,,,,,,,,54,,,,,,,,,,,,,,644.5320000011125,,response,,,100,,,,,,Space,keypress(Space),,,,,-- --- ---- --- ------ ----- ------- ---- -- --- revenue --<br>------- ---------- ------ -- ----- -- ----- -- ---- ------<br>--- ----- --- --- ------ -------- ----- --- ------ ----- --<br>----- ----- ---------- --- --- ------ ------ ---- -- ------<br>------- --- ------ ----- --- ---- ------- -- ---- --- --<br>------- ------,107507,107506.20000000112,106844.998,106859.30000000075,106861.668,107511.834,,10,revenue
screen,html.Screen,0_2_1_1_11,2021-12-02T12:04:50.600Z,,,,,,,,,,,,,,,,54,,,,,,,,,,,,,,578.366000001115,,response,,,100,,,,,,Space,keypress(Space),,,,,-- --- ---- --- ------ ----- ------- ---- -- --- ------- by<br>------- ---------- ------ -- ----- -- ----- -- ---- ------<br>--- ----- --- --- ------ -------- ----- --- ------ ----- --<br>----- ----- ---------- --- --- ------ ------ ---- -- ------<br>------- --- ------ ----- --- ---- ------- -- ---- --- --<br>------- ------,108091,108090.20000000112,107495.164,107507.20000000112,107511.834,108095.324,,11,by
screen,html.Screen,0_2_1_1_12,2021-12-02T12:04:51.248Z,,,,,,,,,,,,,,,,54,,,,,,,,,,,,,,642.9760000007518,,response,,,100,,,,,,Space,keypress(Space),,,,,-- --- ---- --- ------ ----- ------- ---- -- --- ------- --<br>issuing ---------- ------ -- ----- -- ----- -- ---- ------<br>--- ----- --- --- ------ -------- ----- --- ------ ----- --<br>----- ----- ---------- --- --- ------ ------ ---- -- ------<br>------- --- ------ ----- --- ---- ------- -- ---- --- --<br>------- ------,108739,108738.30000000075,108078.654,108091.20000000112,108095.324,108745.486,,12,issuing
screen,html.Screen,0_2_1_1_13,2021-12-02T12:04:51.976Z,,,,,,,,,,,,,,,,54,,,,,,,,,,,,,,720.7140000011132,,response,,,100,,,,,,Space,keypress(Space),,,,,-- --- ---- --- ------ ----- ------- ---- -- --- ------- --<br>------- government ------ -- ----- -- ----- -- ---- ------<br>--- ----- --- --- ------ -------- ----- --- ------ ----- --<br>----- ----- ---------- --- --- ------ ------ ---- -- ------<br>------- --- ------ ----- --- ---- ------- -- ---- --- --<br>------- ------,109467,109466.20000000112,108728.816,108739.20000000112,108745.486,109478.963,,13,government
screen,html.Screen,0_2_1_1_14,2021-12-02T12:04:52.560Z,,,,,,,,,,,,,,,,54,,,,,,,,,,,,,,571.1370000014867,,response,,,100,,,,,,Space,keypress(Space),,,,,-- --- ---- --- ------ ----- ------- ---- -- --- ------- --<br>------- ---------- bonds. -- ----- -- ----- -- ---- ------<br>--- ----- --- --- ------ -------- ----- --- ------ ----- --<br>----- ----- ---------- --- --- ------ ------ ---- -- ------<br>------- --- ------ ----- --- ---- ------- -- ---- --- --<br>------- ------,110050.90000000037,110050.10000000149,109462.293,109467.20000000112,109478.963,110062.537,,14,bonds.
screen,html.Screen,0_2_1_1_15,2021-12-02T12:04:53.216Z,,,,,,,,,,,,,,,,54,,,,,,,,,,,,,,643.5630000014935,,response,,,100,,,,,,Space,keypress(Space),,,,,-- --- ---- --- ------ ----- ------- ---- -- --- ------- --<br>------- ---------- ------ In ----- -- ----- -- ---- ------<br>--- ----- --- --- ------ -------- ----- --- ------ ----- --<br>----- ----- ---------- --- --- ------ ------ ---- -- ------<br>------- --- ------ ----- --- ---- ------- -- ---- --- --<br>------- ------,110706.90000000037,110706.10000000149,110045.866,110051.20000000112,110062.537,110712.636,,15,In
screen,html.Screen,0_2_1_1_16,2021-12-02T12:04:54.744Z,,,,,,,,,,,,,,,,54,,,,,,,,,,,,,,1521.8640000000014,,response,,,100,,,,,,Space,keypress(Space),,,,,"-- --- ---- --- ------ ----- ------- ---- -- --- ------- --<br>------- ---------- ------ -- 1727, -- ----- -- ---- ------<br>--- ----- --- --- ------ -------- ----- --- ------ ----- --<br>----- ----- ---------- --- --- ------ ------ ---- -- ------<br>------- --- ------ ----- --- ---- ------- -- ---- --- --<br>------- ------",112235.30000000075,112234.5,110695.966,110707.20000000112,110712.636,112246.164,,16,"1727,"
screen,html.Screen,0_2_1_1_17,2021-12-02T12:04:55.423Z,,,,,,,,,,,,,,,,54,,,,,,,,,,,,,,667.8359999999957,,response,,,100,,,,,,Space,keypress(Space),,,,,-- --- ---- --- ------ ----- ------- ---- -- --- ------- --<br>------- ---------- ------ -- ----- in ----- -- ---- ------<br>--- ----- --- --- ------ -------- ----- --- ------ ----- --<br>----- ----- ---------- --- --- ------ ------ ---- -- ------<br>------- --- ------ ----- --- ---- ------- -- ---- --- --<br>------- ------,112914.70000000112,112914,112229.495,112235.5,112246.164,112930.037,,17,in
screen,html.Screen,0_2_1_1_18,2021-12-02T12:04:56.015Z,,,,,,,,,,,,,,,,54,,,,,,,,,,,,,,575.9630000000034,,response,,,100,,,,,,Space,keypress(Space),,,,,-- --- ---- --- ------ ----- ------- ---- -- --- ------- --<br>------- ---------- ------ -- ----- -- order -- ---- ------<br>--- ----- --- --- ------ -------- ----- --- ------ ----- --<br>----- ----- ---------- --- --- ------ ------ ---- -- ------<br>------- --- ------ ----- --- ---- ------- -- ---- --- --<br>------- ------,113506.70000000112,113506,112913.365,112915,112930.037,113513.379,,18,order
screen,html.Screen,0_2_1_1_19,2021-12-02T12:04:56.519Z,,,,,,,,,,,,,,,,54,,,,,,,,,,,,,,496.5210000003717,,response,,,100,,,,,,Space,keypress(Space),,,,,-- --- ---- --- ------ ----- ------- ---- -- --- ------- --<br>------- ---------- ------ -- ----- -- ----- to ---- ------<br>--- ----- --- --- ------ -------- ----- --- ------ ----- --<br>----- ----- ---------- --- --- ------ ------ ---- -- ------<br>------- --- ------ ----- --- ---- ------- -- ---- --- --<br>------- ------,114010.70000000112,114009.90000000037,113496.709,113507,113513.379,114013.487,,19,to
screen,html.Screen,0_2_1_1_20,2021-12-02T12:04:56.943Z,,,,,,,,,,,,,,,,54,,,,,,,,,,,,,,420.4130000003788,,response,,,100,,,,,,Space,keypress(Space),,,,,-- --- ---- --- ------ ----- ------- ---- -- --- ------- --<br>------- ---------- ------ -- ----- -- ----- -- save ------<br>--- ----- --- --- ------ -------- ----- --- ------ ----- --<br>----- ----- ---------- --- --- ------ ------ ---- -- ------<br>------- --- ------ ----- --- ---- ------- -- ---- --- --<br>------- ------,114434.70000000112,114433.90000000037,113996.817,114010.90000000037,114013.487,114446.909,,20,save
screen,html.Screen,0_2_1_1_21,2021-12-02T12:04:57.431Z,,,,,,,,,,,,,,,,54,,,,,,,,,,,,,,474.9910000003729,,response,,,100,,,,,,Space,keypress(Space),,,,,"-- --- ---- --- ------ ----- ------- ---- -- --- ------- --<br>------- ---------- ------ -- ----- -- ----- -- ---- money,<br>--- ----- --- --- ------ -------- ----- --- ------ ----- --<br>----- ----- ---------- --- --- ------ ------ ---- -- ------<br>------- --- ------ ----- --- ---- ------- -- ---- --- --<br>------- ------",114922.60000000149,114921.90000000037,114430.239,114435,114446.909,114930.447,,21,"money,"
screen,html.Screen,0_2_1_1_22,2021-12-02T12:04:57.967Z,,,,,,,,,,,,,,,,54,,,,,,,,,,,,,,527.4530000003724,,response,,,100,,,,,,Space,keypress(Space),,,,,-- --- ---- --- ------ ----- ------- ---- -- --- ------- --<br>------- ---------- ------ -- ----- -- ----- -- ---- ------<br>the ----- --- --- ------ -------- ----- --- ------ ----- --<br>----- ----- ---------- --- --- ------ ------ ---- -- ------<br>------- --- ------ ----- --- ---- ------- -- ---- --- --<br>------- ------,115458.60000000149,115457.90000000037,114913.776,114923,114930.447,115463.776,,22,the
screen,html.Screen,0_2_1_1_23,2021-12-02T12:04:58.511Z,,,,,,,,,,,,,,,,54,,,,,,,,,,,,,,538.1240000003745,,response,,,100,,,,,,Space,keypress(Space),,,,,-- --- ---- --- ------ ----- ------- ---- -- --- ------- --<br>------- ---------- ------ -- ----- -- ----- -- ---- ------<br>--- state --- --- ------ -------- ----- --- ------ ----- --<br>----- ----- ---------- --- --- ------ ------ ---- -- ------<br>------- --- ------ ----- --- ---- ------- -- ---- --- --<br>------- ------,116002.60000000149,116001.90000000037,115447.107,115458.90000000037,115463.776,116014.12,,23,state
screen,html.Screen,0_2_1_1_24,2021-12-02T12:04:59.023Z,,,,,,,,,,,,,,,,54,,,,,,,,,,,,,,499.6800000007497,,response,,,100,,,,,,Space,keypress(Space),,,,,-- --- ---- --- ------ ----- ------- ---- -- --- ------- --<br>------- ---------- ------ -- ----- -- ----- -- ---- ------<br>--- ----- cut --- ------ -------- ----- --- ------ ----- --<br>----- ----- ---------- --- --- ------ ------ ---- -- ------<br>------- --- ------ ----- --- ---- ------- -- ---- --- --<br>------- ------,116514.70000000112,116513.80000000075,115997.448,116002.80000000075,116014.12,116530.825,,24,cut
screen,html.Screen,0_2_1_1_25,2021-12-02T12:04:59.407Z,,,,,,,,,,,,,,,,54,,,,,,,,,,,,,,366.97500000074797,,response,,,100,,,,,,Space,keypress(Space),,,,,-- --- ---- --- ------ ----- ------- ---- -- --- ------- --<br>------- ---------- ------ -- ----- -- ----- -- ---- ------<br>--- ----- --- the ------ -------- ----- --- ------ ----- --<br>----- ----- ---------- --- --- ------ ------ ---- -- ------<br>------- --- ------ ----- --- ---- ------- -- ---- --- --<br>------- ------,116898.60000000149,116897.80000000075,116514.155,116515,116530.825,116914.232,,25,the
screen,html.Screen,0_2_1_1_26,2021-12-02T12:04:59.927Z,,,,,,,,,,,,,,,,54,,,,,,,,,,,,,,503.468000001114,,response,,,100,,,,,,Space,keypress(Space),,,,,-- --- ---- --- ------ ----- ------- ---- -- --- ------- --<br>------- ---------- ------ -- ----- -- ----- -- ---- ------<br>--- ----- --- --- bonds' -------- ----- --- ------ ----- --<br>----- ----- ---------- --- --- ------ ------ ---- -- ------<br>------- --- ------ ----- --- ---- ------- -- ---- --- --<br>------- ------,117418.60000000149,117417.70000000112,116897.562,116898.80000000075,116914.232,117431.118,,26,bonds'
screen,html.Screen,0_2_1_1_27,2021-12-02T12:05:00.375Z,,,,,,,,,,,,,,,,54,,,,,,,,,,,,,,434.5820000011154,,response,,,100,,,,,,Space,keypress(Space),,,,,-- --- ---- --- ------ ----- ------- ---- -- --- ------- --<br>------- ---------- ------ -- ----- -- ----- -- ---- ------<br>--- ----- --- --- ------ interest ----- --- ------ ----- --<br>----- ----- ---------- --- --- ------ ------ ---- -- ------<br>------- --- ------ ----- --- ---- ------- -- ---- --- --<br>------- ------,117866.5,117865.70000000112,117414.447,117418.80000000075,117431.118,117881.185,,27,interest
screen,html.Screen,0_2_1_1_28,2021-12-02T12:05:00.783Z,,,,,,,,,,,,,,,,54,,,,,,,,,,,,,,392.5150000011199,,response,,,100,,,,,,Space,keypress(Space),,,,,-- --- ---- --- ------ ----- ------- ---- -- --- ------- --<br>------- ---------- ------ -- ----- -- ----- -- ---- ------<br>--- ----- --- --- ------ -------- rate. --- ------ ----- --<br>----- ----- ---------- --- --- ------ ------ ---- -- ------<br>------- --- ------ ----- --- ---- ------- -- ---- --- --<br>------- ------,118274.5,118273.70000000112,117864.515,117866.80000000075,117881.185,118281.263,,28,rate.
screen,html.Screen,0_2_1_1_29,2021-12-02T12:05:01.279Z,,,,,,,,,,,,,,,,54,,,,,,,,,,,,,,488.4370000011113,,response,,,100,,,,,,Space,keypress(Space),,,,,-- --- ---- --- ------ ----- ------- ---- -- --- ------- --<br>------- ---------- ------ -- ----- -- ----- -- ---- ------<br>--- ----- --- --- ------ -------- ----- The ------ ----- --<br>----- ----- ---------- --- --- ------ ------ ---- -- ------<br>------- --- ------ ----- --- ---- ------- -- ---- --- --<br>------- ------,118770.40000000037,118769.70000000112,118264.593,118274.70000000112,118281.263,118781.451,,29,The
screen,html.Screen,0_2_1_1_30,2021-12-02T12:05:01.751Z,,,,,,,,,,,,,,,,54,,,,,,,,,,,,,,460.24900000111666,,response,,,100,,,,,,Space,keypress(Space),,,,,-- --- ---- --- ------ ----- ------- ---- -- --- ------- --<br>------- ---------- ------ -- ----- -- ----- -- ---- ------<br>--- ----- --- --- ------ -------- ----- --- market ----- --<br>----- ----- ---------- --- --- ------ ------ ---- -- ------<br>------- --- ------ ----- --- ---- ------- -- ---- --- --<br>------- ------,119242.40000000037,119241.70000000112,118764.78,118770.70000000112,118781.451,119248.086,,30,market
screen,html.Screen,0_2_1_1_31,2021-12-02T12:05:02.167Z,,,,,,,,,,,,,,,,54,,,,,,,,,,,,,,409.4140000000043,,response,,,100,,,,,,Space,keypress(Space),,,,,-- --- ---- --- ------ ----- ------- ---- -- --- ------- --<br>------- ---------- ------ -- ----- -- ----- -- ---- ------<br>--- ----- --- --- ------ -------- ----- --- ------ value --<br>----- ----- ---------- --- --- ------ ------ ---- -- ------<br>------- --- ------ ----- --- ---- ------- -- ---- --- --<br>------- ------,119658.40000000037,119657.5,119231.417,119242.60000000149,119248.086,119665.053,,31,value
screen,html.Screen,0_2_1_1_32,2021-12-02T12:05:02.551Z,,,,,,,,,,,,,,,,54,,,,,,,,,,,,,,376.54700000149023,,response,,,100,,,,,,Space,keypress(Space),,,,,-- --- ---- --- ------ ----- ------- ---- -- --- ------- --<br>------- ---------- ------ -- ----- -- ----- -- ---- ------<br>--- ----- --- --- ------ -------- ----- --- ------ ----- of<br>----- ----- ---------- --- --- ------ ------ ---- -- ------<br>------- --- ------ ----- --- ---- ------- -- ---- --- --<br>------- ------,120042.40000000037,120041.60000000149,119648.381,119658.60000000149,119665.053,120048.449,,32,of
screen,html.Screen,0_2_1_1_33,2021-12-02T12:05:02.930Z,,,,,,,,,,,,,,,,54,,,,,,,,,,,,,,369.05100000000675,,response,,,100,,,,,,Space,keypress(Space),,,,,-- --- ---- --- ------ ----- ------- ---- -- --- ------- --<br>------- ---------- ------ -- ----- -- ----- -- ---- ------<br>--- ----- --- --- ------ -------- ----- --- ------ ----- --<br>these ----- ---------- --- --- ------ ------ ---- -- ------<br>------- --- ------ ----- --- ---- ------- -- ---- --- --<br>------- ------,120418.20000000112,120417.5,120031.778,120042.60000000149,120048.449,120431.7,,33,these
screen,html.Screen,0_2_1_1_34,2021-12-02T12:05:03.322Z,,,,,,,,,,,,,,,,54,,,,,,,,,,,,,,377.8000000000029,,response,,,100,,,,,,Space,keypress(Space),,,,,-- --- ---- --- ------ ----- ------- ---- -- --- ------- --<br>------- ---------- ------ -- ----- -- ----- -- ---- ------<br>--- ----- --- --- ------ -------- ----- --- ------ ----- --<br>----- bonds ---------- --- --- ------ ------ ---- -- ------<br>------- --- ------ ----- --- ---- ------- -- ---- --- --<br>------- ------,120810.30000000075,120809.5,120415.032,120418.5,120431.7,120815.348,,34,bonds
screen,html.Screen,0_2_1_1_35,2021-12-02T12:05:03.850Z,,,,,,,,,,,,,,,,54,,,,,,,,,,,,,,522.0520000003744,,response,,,100,,,,,,Space,keypress(Space),,,,,"-- --- ---- --- ------ ----- ------- ---- -- --- ------- --<br>------- ---------- ------ -- ----- -- ----- -- ---- ------<br>--- ----- --- --- ------ -------- ----- --- ------ ----- --<br>----- ----- plummeted, --- --- ------ ------ ---- -- ------<br>------- --- ------ ----- --- ---- ------- -- ---- --- --<br>------- ------",121338.20000000112,121337.40000000037,120798.676,120810.5,120815.348,121348.776,,35,"plummeted,"
screen,html.Screen,0_2_1_1_36,2021-12-02T12:05:04.290Z,,,,,,,,,,,,,,,,54,,,,,,,,,,,,,,428.6240000003745,,response,,,100,,,,,,Space,keypress(Space),,,,,-- --- ---- --- ------ ----- ------- ---- -- --- ------- --<br>------- ---------- ------ -- ----- -- ----- -- ---- ------<br>--- ----- --- --- ------ -------- ----- --- ------ ----- --<br>----- ----- ---------- and --- ------ ------ ---- -- ------<br>------- --- ------ ----- --- ---- ------- -- ---- --- --<br>------- ------,121778.20000000112,121777.40000000037,121332.105,121338.5,121348.776,121782.081,,36,and
screen,html.Screen,0_2_1_1_37,2021-12-02T12:05:04.690Z,,,,,,,,,,,,,,,,54,,,,,,,,,,,,,,395.31900000036694,,response,,,100,,,,,,Space,keypress(Space),,,,,-- --- ---- --- ------ ----- ------- ---- -- --- ------- --<br>------- ---------- ------ -- ----- -- ----- -- ---- ------<br>--- ----- --- --- ------ -------- ----- --- ------ ----- --<br>----- ----- ---------- --- the ------ ------ ---- -- ------<br>------- --- ------ ----- --- ---- ------- -- ---- --- --<br>------- ------,122178.20000000112,122177.40000000037,121765.412,121778.5,121782.081,122182.372,,37,the
screen,html.Screen,0_2_1_1_38,2021-12-02T12:05:05.106Z,,,,,,,,,,,,,,,,54,,,,,,,,,,,,,,411.42800000074203,,response,,,100,,,,,,Space,keypress(Space),,,,,-- --- ---- --- ------ ----- ------- ---- -- --- ------- --<br>------- ---------- ------ -- ----- -- ----- -- ---- ------<br>--- ----- --- --- ------ -------- ----- --- ------ ----- --<br>----- ----- ---------- --- --- market ------ ---- -- ------<br>------- --- ------ ----- --- ---- ------- -- ---- --- --<br>------- ------,122594.70000000112,122593.80000000075,122165.7,122178.40000000037,122182.372,122599.071,,38,market
screen,html.Screen,0_2_1_1_39,2021-12-02T12:05:05.586Z,,,,,,,,,,,,,,,,54,,,,,,,,,,,,,,474.32900000037625,,response,,,100,,,,,,Space,keypress(Space),,,,,-- --- ---- --- ------ ----- ------- ---- -- --- ------- --<br>------- ---------- ------ -- ----- -- ----- -- ---- ------<br>--- ----- --- --- ------ -------- ----- --- ------ ----- --<br>----- ----- ---------- --- --- ------ became ---- -- ------<br>------- --- ------ ----- --- ---- ------- -- ---- --- --<br>------- ------,123074.20000000112,123073.40000000037,122582.401,122594.90000000037,122599.071,123082.415,,39,became
screen,html.Screen,0_2_1_1_40,2021-12-02T12:05:06.010Z,,,,,,,,,,,,,,,,54,,,,,,,,,,,,,,414.98500000037893,,response,,,100,,,,,,Space,keypress(Space),,,,,-- --- ---- --- ------ ----- ------- ---- -- --- ------- --<br>------- ---------- ------ -- ----- -- ----- -- ---- ------<br>--- ----- --- --- ------ -------- ----- --- ------ ----- --<br>----- ----- ---------- --- --- ------ ------ wary -- ------<br>------- --- ------ ----- --- ---- ------- -- ---- --- --<br>------- ------,123498.10000000149,123497.40000000037,123065.746,123074.40000000037,123082.415,123499.388,,40,wary
screen,html.Screen,0_2_1_1_41,2021-12-02T12:05:06.426Z,,,,,,,,,,,,,,,,54,,,,,,,,,,,,,,414.01200000036624,,response,,,100,,,,,,Space,keypress(Space),,,,,-- --- ---- --- ------ ----- ------- ---- -- --- ------- --<br>------- ---------- ------ -- ----- -- ----- -- ---- ------<br>--- ----- --- --- ------ -------- ----- --- ------ ----- --<br>----- ----- ---------- --- --- ------ ------ ---- of ------<br>------- --- ------ ----- --- ---- ------- -- ---- --- --<br>------- ------,123914.20000000112,123913.40000000037,123482.716,123498.30000000075,123499.388,123916.058,,41,of
screen,html.Screen,0_2_1_1_42,2021-12-02T12:05:06.842Z,,,,,,,,,,,,,,,,54,,,,,,,,,,,,,,413.2420000007405,,response,,,100,,,,,,Space,keypress(Space),,,,,-- --- ---- --- ------ ----- ------- ---- -- --- ------- --<br>------- ---------- ------ -- ----- -- ----- -- ---- ------<br>--- ----- --- --- ------ -------- ----- --- ------ ----- --<br>----- ----- ---------- --- --- ------ ------ ---- -- French<br>------- --- ------ ----- --- ---- ------- -- ---- --- --<br>------- ------,124330.10000000149,124329.30000000075,123899.388,123914.40000000037,123916.058,124332.731,,42,French
screen,html.Screen,0_2_1_1_43,2021-12-02T12:05:07.234Z,,,,,,,,,,,,,,,,54,,,,,,,,,,,,,,388.5690000007453,,response,,,100,,,,,,Space,keypress(Space),,,,,-- --- ---- --- ------ ----- ------- ---- -- --- ------- --<br>------- ---------- ------ -- ----- -- ----- -- ---- ------<br>--- ----- --- --- ------ -------- ----- --- ------ ----- --<br>----- ----- ---------- --- --- ------ ------ ---- -- ------<br>credit. --- ------ ----- --- ---- ------- -- ---- --- --<br>------- ------,124722,124721.30000000075,124316.062,124330.30000000075,124332.731,124733.051,,43,credit.
screen,html.Screen,0_2_1_1_44,2021-12-02T12:05:07.626Z,,,,,,,,,,,,,,,,54,,,,,,,,,,,,,,380.2490000007383,,response,,,100,,,,,,Space,keypress(Space),,,,,-- --- ---- --- ------ ----- ------- ---- -- --- ------- --<br>------- ---------- ------ -- ----- -- ----- -- ---- ------<br>--- ----- --- --- ------ -------- ----- --- ------ ----- --<br>----- ----- ---------- --- --- ------ ------ ---- -- ------<br>------- The ------ ----- --- ---- ------- -- ---- --- --<br>------- ------,125114.10000000149,125113.30000000075,124716.379,124722.30000000075,124733.051,125116.374,,44,The
screen,html.Screen,0_2_1_1_45,2021-12-02T12:05:08.074Z,,,,,,,,,,,,,,,,54,,,,,,,,,,,,,,444.82600000112143,,response,,,100,,,,,,Space,keypress(Space),,,,,-- --- ---- --- ------ ----- ------- ---- -- --- ------- --<br>------- ---------- ------ -- ----- -- ----- -- ---- ------<br>--- ----- --- --- ------ -------- ----- --- ------ ----- --<br>----- ----- ---------- --- --- ------ ------ ---- -- ------<br>------- --- French ----- --- ---- ------- -- ---- --- --<br>------- ------,125562.10000000149,125561.20000000112,125099.704,125114.30000000075,125116.374,125566.399,,45,French
screen,html.Screen,0_2_1_1_46,2021-12-02T12:05:08.506Z,,,,,,,,,,,,,,,,54,,,,,,,,,,,,,,426.90100000074017,,response,,,100,,,,,,Space,keypress(Space),,,,,-- --- ---- --- ------ ----- ------- ---- -- --- ------- --<br>------- ---------- ------ -- ----- -- ----- -- ---- ------<br>--- ----- --- --- ------ -------- ----- --- ------ ----- --<br>----- ----- ---------- --- --- ------ ------ ---- -- ------<br>------- --- ------ state --- ---- ------- -- ---- --- --<br>------- ------,125994,125993.30000000075,125549.73,125562.20000000112,125566.399,125999.975,,46,state
screen,html.Screen,0_2_1_1_47,2021-12-02T12:05:08.930Z,,,,,,,,,,,,,,,,54,,,,,,,,,,,,,,417.22500000111177,,response,,,100,,,,,,Space,keypress(Space),,,,,-- --- ---- --- ------ ----- ------- ---- -- --- ------- --<br>------- ---------- ------ -- ----- -- ----- -- ---- ------<br>--- ----- --- --- ------ -------- ----- --- ------ ----- --<br>----- ----- ---------- --- --- ------ ------ ---- -- ------<br>------- --- ------ ----- was ---- ------- -- ---- --- --<br>------- ------,126418,126417.20000000112,125983.304,125994.30000000075,125999.975,126433.41,,47,was
screen,html.Screen,0_2_1_1_48,2021-12-02T12:05:09.362Z,,,,,,,,,,,,,,,,54,,,,,,,,,,,,,,415.7900000011141,,response,,,100,,,,,,Space,keypress(Space),,,,,-- --- ---- --- ------ ----- ------- ---- -- --- ------- --<br>------- ---------- ------ -- ----- -- ----- -- ---- ------<br>--- ----- --- --- ------ -------- ----- --- ------ ----- --<br>----- ----- ---------- --- --- ------ ------ ---- -- ------<br>------- --- ------ ----- --- left ------- -- ---- --- --<br>------- ------,126850,126849.20000000112,126416.739,126418.30000000075,126433.41,126866.823,,48,left
screen,html.Screen,0_2_1_1_49,2021-12-02T12:05:09.842Z,,,,,,,,,,,,,,,,54,,,,,,,,,,,,,,462.37700000111363,,response,,,100,,,,,,Space,keypress(Space),,,,,-- --- ---- --- ------ ----- ------- ---- -- --- ------- --<br>------- ---------- ------ -- ----- -- ----- -- ---- ------<br>--- ----- --- --- ------ -------- ----- --- ------ ----- --<br>----- ----- ---------- --- --- ------ ------ ---- -- ------<br>------- --- ------ ----- --- ---- without -- ---- --- --<br>------- ------,127330,127329.20000000112,126850.153,126850.30000000075,126866.823,127333.61,,49,without
screen,html.Screen,0_2_1_1_50,2021-12-02T12:05:10.194Z,,,,,,,,,,,,,,,,54,,,,,,,,,,,,,,347.590000001117,,response,,,100,,,,,,Space,keypress(Space),,,,,-- --- ---- --- ------ ----- ------- ---- -- --- ------- --<br>------- ---------- ------ -- ----- -- ----- -- ---- ------<br>--- ----- --- --- ------ -------- ----- --- ------ ----- --<br>----- ----- ---------- --- --- ------ ------ ---- -- ------<br>------- --- ------ ----- --- ---- ------- an ---- --- --<br>------- ------,127682,127681.20000000112,127316.94,127330.20000000112,127333.61,127683.748,,50,an
screen,html.Screen,0_2_1_1_51,2021-12-02T12:05:10.674Z,,,,,,,,,,,,,,,,54,,,,,,,,,,,,,,477.35200000148325,,response,,,100,,,,,,Space,keypress(Space),,,,,-- --- ---- --- ------ ----- ------- ---- -- --- ------- --<br>------- ---------- ------ -- ----- -- ----- -- ---- ------<br>--- ----- --- --- ------ -------- ----- --- ------ ----- --<br>----- ----- ---------- --- --- ------ ------ ---- -- ------<br>------- --- ------ ----- --- ---- ------- -- easy --- --<br>------- ------,128161.90000000037,128161.10000000149,127667.077,127682.20000000112,127683.748,128167.142,,51,easy
screen,html.Screen,0_2_1_1_52,2021-12-02T12:05:11.090Z,,,,,,,,,,,,,,,,54,,,,,,,,,,,,,,409.958000001483,,response,,,100,,,,,,Space,keypress(Space),,,,,-- --- ---- --- ------ ----- ------- ---- -- --- ------- --<br>------- ---------- ------ -- ----- -- ----- -- ---- ------<br>--- ----- --- --- ------ -------- ----- --- ------ ----- --<br>----- ----- ---------- --- --- ------ ------ ---- -- ------<br>------- --- ------ ----- --- ---- ------- -- ---- way --<br>------- ------,128577.80000000075,128577.10000000149,128150.472,128162.20000000112,128167.142,128583.931,,52,way
screen,html.Screen,0_2_1_1_53,2021-12-02T12:05:11.378Z,,,,,,,,,,,,,,,,54,,,,,,,,,,,,,,281.16900000149326,,response,,,100,,,,,,Space,keypress(Space),,,,,-- --- ---- --- ------ ----- ------- ---- -- --- ------- --<br>------- ---------- ------ -- ----- -- ----- -- ---- ------<br>--- ----- --- --- ------ -------- ----- --- ------ ----- --<br>----- ----- ---------- --- --- ------ ------ ---- -- ------<br>------- --- ------ ----- --- ---- ------- -- ---- --- of<br>------- ------,128865.80000000075,128865.10000000149,128567.261,128578.20000000112,128583.931,128867.382,,53,of
screen,html.Screen,0_2_1_1_54,2021-12-02T12:05:11.905Z,,,,,,,,,,,,,,,,54,,,,,,,,,,,,,,525.7180000014923,,response,,,100,,,,,,Space,keypress(Space),,,,,-- --- ---- --- ------ ----- ------- ---- -- --- ------- --<br>------- ---------- ------ -- ----- -- ----- -- ---- ------<br>--- ----- --- --- ------ -------- ----- --- ------ ----- --<br>----- ----- ---------- --- --- ------ ------ ---- -- ------<br>------- --- ------ ----- --- ---- ------- -- ---- --- --<br>raising ------,129393.80000000075,129393.10000000149,128850.711,128866.20000000112,128867.382,129400.793,,54,raising
screen,html.Screen,0_2_1_1_55,2021-12-02T12:05:12.633Z,,,,,,,,,,,,,,,,54,,,,,,,,,,,,,,720.2069999999949,,response,,,100,,,,,,Space,keypress(Space),,,,,-- --- ---- --- ------ ----- ------- ---- -- --- ------- --<br>------- ---------- ------ -- ----- -- ----- -- ---- ------<br>--- ----- --- --- ------ -------- ----- --- ------ ----- --<br>----- ----- ---------- --- --- ------ ------ ---- -- ------<br>------- --- ------ ----- --- ---- ------- -- ---- --- --<br>------- money.,130121.90000000037,130121,129384.123,129394.10000000149,129400.793,130134.229,,55,money.
Item 100,flow.Loop,0_2_1_1,2021-12-02T12:05:12.634Z,,,,,,,,,,,,,,,,,,,,,,,,,,,,,,29844.467999999993,,completion,,,,D,,,,,,,,,,silence,,130122.30000000075,130121,100259.862,100261.70000000112,100276.532,130134.229,,,
Question 1,html.Screen,0_2_1_2,2021-12-02T12:05:15.698Z,,,,,,,,,,,,,,,,,,,,,,,,,,,true,TRUE,,3050.7709999999934,,response,,,100,D,,,,,TRUE,click #choice-1,,,,silence,,133186.40000000037,133185,130117.56,130122.5,130134.229,133201.803,,,
Question 2,html.Screen,0_2_1_3,2021-12-02T12:05:17.706Z,,,,,,,,,,,,,,,,,,,,,,,,,,,true,FALSE,,1991.3970000011032,,response,,,100,D,,,,,FALSE,click #choice-2,,,,silence,,135194.5,135193.20000000112,133185.133,133186.6000000015,133201.803,135218.948,,,
Item 100,flow.Sequence,0_2_1,2021-12-02T12:05:17.707Z,,,,,,,,,,,,,,,,,,,,,,,,,,,,,,44919.09500000112,,completion,,,,,,,,,,,,,,,,135194.80000000075,135193.20000000112,90257.434,90265.40000000037,90274.105,135218.948,,,
End of Practice,html.Page,0_2_2,2021-12-02T12:05:20.239Z,,,,,,,,,,,,,,,,,,,,,,,,,,,,,,2508.2520000011136,,form submission,,,,,,,,,,,,,,,,137727.80000000075,137727.20000000112,135202.278,135195.1000000015,135218.948,137733.494,,,
Practice,flow.Sequence,0_2,2021-12-02T12:05:20.240Z,,,,,,,,,,,,,,,,,,,,,,,,,,,,,,98299.45000000112,,completion,,,,,,,,,,,,,,,,137728.30000000075,137727.20000000112,39411.079,39422.40000000037,39427.75,137733.494,,,
Trap_instruction,html.Page,0_3_0,2021-12-02T12:05:22.994Z,,,,,,,,,,,,,,,,,,,,,,,,,,,,,,2747.9060000003665,,form submission,,,,,,,,,,,,,,,,140482,140481.40000000037,137716.842,137728.5,137733.494,140503.531,,,
trap_trial,html.Screen,0_3_1,2021-12-02T12:05:26.941Z,,,,,,,,,,,,,,,,,,,,,,,,,,,true,1,,3924.3690000003844,,response,,,,,,,,,1,click #choice-1,,,,,,144429.30000000075,144427.90000000037,140470.191,140482.20000000112,140503.531,144437.761,,,
end of trap trial,html.Page,0_3_2,2021-12-02T12:05:28.383Z,,,,,,,,,,,,,,,,,,,,,,,,,,,,,,1433.439000001119,,form submission,,,,,,,,,,,,,,,,145871.6000000015,145871.20000000112,144421.091,144429.6000000015,144437.761,145871.65,,,
Trap 1,flow.Sequence,0_3,2021-12-02T12:05:28.384Z,,,,,,,,,,,,,,,,,,,,,,,,,,,,,,8137.7060000011115,,completion,,,,,,,,,,,,,,,,145872,145871.20000000112,137716.842,137728.40000000037,137733.494,145871.65,,,
Standby,html.Page,0_4_0,2021-12-02T12:05:36.370Z,,,,,,,,,,,,,,,,,,,,,,,,,,,,,,8002.668000000005,,timeout,,,,,,,,,,,,,,,,153858.6000000015,153857.646,145854.98,145872.30000000075,145871.65,153874.318,,,
Holding screen,html.Screen,0_4_1_0_0,2021-12-02T12:05:43.372Z,,,,,,,,,,,,,,,,,,,,,,,,,,,,,,7001.193999999989,,timeout,,,,,,,,,,,,,,,,160860.5,160858.842,153857.646,153858.90000000037,153874.318,160875.512,,,
screen,html.Screen,0_4_1_0_1_0,2021-12-02T12:05:44.840Z,,,,,,,,,,,,,,,,15,,,,,,,,,,,,,,1452.2880000007572,,response,,,7,D,,,,,Space,keypress(Space),,,,silence,Greg --------- ---------- - --- ------- -- --- ------------<br>----- -- -------- ------- ---- ------ - -------- ---- -----<br>--- ------- ---- -- --- -------- --- - ----- ------ ---- --<br>-------- --- -------- -------- --- -------- ---- -- ----- -<br>-------- ---- --- ---------- --------- -- ------- ------ -<br>--------- ----- -----,162328.80000000075,162327.80000000075,160858.842,160861,160875.512,162342.64,,0,Greg
screen,html.Screen,0_4_1_0_1_1,2021-12-02T12:05:45.496Z,,,,,,,,,,,,,,,,15,,,,,,,,,,,,,,640.6600000007311,,response,,,7,D,,,,,Space,keypress(Space),,,,silence,"---- Anderson, ---------- - --- ------- -- --- ------------<br>----- -- -------- ------- ---- ------ - -------- ---- -----<br>--- ------- ---- -- --- -------- --- - ----- ------ ---- --<br>-------- --- -------- -------- --- -------- ---- -- ----- -<br>-------- ---- --- ---------- --------- -- ------- ------ -<br>--------- ----- -----",162984.1000000015,162983.30000000075,162325.969,162329.1000000015,162342.64,162992.6,,1,"Anderson,"
screen,html.Screen,0_4_1_0_1_2,2021-12-02T12:05:46.192Z,,,,,,,,,,,,,,,,15,,,,,,,,,,,,,,686.6000000011118,,response,,,7,D,,,,,Space,keypress(Space),,,,silence,---- --------- considered - --- ------- -- --- ------------<br>----- -- -------- ------- ---- ------ - -------- ---- -----<br>--- ------- ---- -- --- -------- --- - ----- ------ ---- --<br>-------- --- -------- -------- --- -------- ---- -- ----- -<br>-------- ---- --- ---------- --------- -- ------- ------ -<br>--------- ----- -----,163680,163679.20000000112,162975.931,162984.40000000037,162992.6,163693.02,,2,considered
screen,html.Screen,0_4_1_0_1_3,2021-12-02T12:05:46.896Z,,,,,,,,,,,,,,,,15,,,,,,,,,,,,,,690.1800000011281,,response,,,7,D,,,,,Space,keypress(Space),,,,silence,---- --------- ---------- a --- ------- -- --- ------------<br>----- -- -------- ------- ---- ------ - -------- ---- -----<br>--- ------- ---- -- --- -------- --- - ----- ------ ---- --<br>-------- --- -------- -------- --- -------- ---- -- ----- -<br>-------- ---- --- ---------- --------- -- ------- ------ -<br>--------- ----- -----,164384,164383.20000000112,163676.349,163680.30000000075,163693.02,164393.134,,3,a
screen,html.Screen,0_4_1_0_1_4,2021-12-02T12:05:47.664Z,,,,,,,,,,,,,,,,15,,,,,,,,,,,,,,757.9660000014992,,response,,,7,D,,,,,Space,keypress(Space),,,,silence,---- --------- ---------- - key ------- -- --- ------------<br>----- -- -------- ------- ---- ------ - -------- ---- -----<br>--- ------- ---- -- --- -------- --- - ----- ------ ---- --<br>-------- --- -------- -------- --- -------- ---- -- ----- -<br>-------- ---- --- ---------- --------- -- ------- ------ -<br>--------- ----- -----,165151.90000000037,165151.1000000015,164376.464,164384.30000000075,164393.134,165159.953,,4,key
screen,html.Screen,0_4_1_0_1_5,2021-12-02T12:05:48.279Z,,,,,,,,,,,,,,,,15,,,,,,,,,,,,,,607.1470000014815,,response,,,7,D,,,,,Space,keypress(Space),,,,silence,---- --------- ---------- - --- witness -- --- ------------<br>----- -- -------- ------- ---- ------ - -------- ---- -----<br>--- ------- ---- -- --- -------- --- - ----- ------ ---- --<br>-------- --- -------- -------- --- -------- ---- -- ----- -<br>-------- ---- --- ---------- --------- -- ------- ------ -<br>--------- ----- -----,165767.80000000075,165767.1000000015,165143.283,165152.1000000015,165159.953,165776.87,,5,witness
screen,html.Screen,0_4_1_0_1_6,2021-12-02T12:05:48.775Z,,,,,,,,,,,,,,,,15,,,,,,,,,,,,,,486.13000000000466,,response,,,7,D,,,,,Space,keypress(Space),,,,silence,---- --------- ---------- - --- ------- by --- ------------<br>----- -- -------- ------- ---- ------ - -------- ---- -----<br>--- ------- ---- -- --- -------- --- - ----- ------ ---- --<br>-------- --- -------- -------- --- -------- ---- -- ----- -<br>-------- ---- --- ---------- --------- -- ------- ------ -<br>--------- ----- -----,166263.80000000075,166263,165760.199,165768,165776.87,166276.964,,6,by
screen,html.Screen,0_4_1_0_1_7,2021-12-02T12:05:49.175Z,,,,,,,,,,,,,,,,15,,,,,,,,,,,,,,386.0359999999928,,response,,,7,D,,,,,Space,keypress(Space),,,,silence,---- --------- ---------- - --- ------- -- the ------------<br>----- -- -------- ------- ---- ------ - -------- ---- -----<br>--- ------- ---- -- --- -------- --- - ----- ------ ---- --<br>-------- --- -------- -------- --- -------- ---- -- ----- -<br>-------- ---- --- ---------- --------- -- ------- ------ -<br>--------- ----- -----,166663.80000000075,166663,166260.294,166264.1000000015,166276.964,166677.08,,7,the
screen,html.Screen,0_4_1_0_1_8,2021-12-02T12:05:49.727Z,,,,,,,,,,,,,,,,15,,,,,,,,,,,,,,537.9200000000128,,response,,,7,D,,,,,Space,keypress(Space),,,,silence,"---- --------- ---------- - --- ------- -- --- prosecution,<br>----- -- -------- ------- ---- ------ - -------- ---- -----<br>--- ------- ---- -- --- -------- --- - ----- ------ ---- --<br>-------- --- -------- -------- --- -------- ---- -- ----- -<br>-------- ---- --- ---------- --------- -- ------- ------ -<br>--------- ----- -----",167215.80000000075,167215,166660.41,166664.1000000015,166677.08,167227.135,,8,"prosecution,"
screen,html.Screen,0_4_1_0_1_9,2021-12-02T12:05:50.295Z,,,,,,,,,,,,,,,,15,,,,,,,,,,,,,,555.8649999999907,,response,,,7,D,,,,,Space,keypress(Space),,,,silence,---- --------- ---------- - --- ------- -- --- ------------<br>vowed -- -------- ------- ---- ------ - -------- ---- -----<br>--- ------- ---- -- --- -------- --- - ----- ------ ---- --<br>-------- --- -------- -------- --- -------- ---- -- ----- -<br>-------- ---- --- ---------- --------- -- ------- ------ -<br>--------- ----- -----,167783.70000000112,167783,167210.466,167216.1000000015,167227.135,167793.997,,9,vowed
screen,html.Screen,0_4_1_0_1_10,2021-12-02T12:05:50.759Z,,,,,,,,,,,,,,,,15,,,,,,,,,,,,,,452.9030000003695,,response,,,7,D,,,,,Space,keypress(Space),,,,silence,---- --------- ---------- - --- ------- -- --- ------------<br>----- he -------- ------- ---- ------ - -------- ---- -----<br>--- ------- ---- -- --- -------- --- - ----- ------ ---- --<br>-------- --- -------- -------- --- -------- ---- -- ----- -<br>-------- ---- --- ---------- --------- -- ------- ------ -<br>--------- ----- -----,168247.70000000112,168246.90000000037,167777.327,167784,167793.997,168260.857,,10,he
screen,html.Screen,0_4_1_0_1_11,2021-12-02T12:05:51.207Z,,,,,,,,,,,,,,,,15,,,,,,,,,,,,,,434.0430000003835,,response,,,7,D,,,,,Space,keypress(Space),,,,silence,---- --------- ---------- - --- ------- -- --- ------------<br>----- -- wouldn't ------- ---- ------ - -------- ---- -----<br>--- ------- ---- -- --- -------- --- - ----- ------ ---- --<br>-------- --- -------- -------- --- -------- ---- -- ----- -<br>-------- ---- --- ---------- --------- -- ------- ------ -<br>--------- ----- -----,168695.70000000112,168694.90000000037,168244.186,168248,168260.857,168710.891,,11,wouldn't
screen,html.Screen,0_4_1_0_1_12,2021-12-02T12:05:51.775Z,,,,,,,,,,,,,,,,15,,,,,,,,,,,,,,552.0090000003693,,response,,,7,D,,,,,Space,keypress(Space),,,,silence,---- --------- ---------- - --- ------- -- --- ------------<br>----- -- -------- testify ---- ------ - -------- ---- -----<br>--- ------- ---- -- --- -------- --- - ----- ------ ---- --<br>-------- --- -------- -------- --- -------- ---- -- ----- -<br>-------- ---- --- ---------- --------- -- ------- ------ -<br>--------- ----- -----,169263.90000000037,169262.90000000037,168694.221,168696,168710.891,169277.777,,12,testify
screen,html.Screen,0_4_1_0_1_13,2021-12-02T12:05:52.231Z,,,,,,,,,,,,,,,,15,,,,,,,,,,,,,,441.0230000007432,,response,,,7,D,,,,,Space,keypress(Space),,,,silence,---- --------- ---------- - --- ------- -- --- ------------<br>----- -- -------- ------- when ------ - -------- ---- -----<br>--- ------- ---- -- --- -------- --- - ----- ------ ---- --<br>-------- --- -------- -------- --- -------- ---- -- ----- -<br>-------- ---- --- ---------- --------- -- ------- ------ -<br>--------- ----- -----,169719.70000000112,169718.80000000075,169261.106,169264.1000000015,169277.777,169727.855,,13,when
screen,html.Screen,0_4_1_0_1_14,2021-12-02T12:05:52.815Z,,,,,,,,,,,,,,,,15,,,,,,,,,,,,,,574.9450000007346,,response,,,7,D,,,,,Space,keypress(Space),,,,silence,---- --------- ---------- - --- ------- -- --- ------------<br>----- -- -------- ------- ---- served - -------- ---- -----<br>--- ------- ---- -- --- -------- --- - ----- ------ ---- --<br>-------- --- -------- -------- --- -------- ---- -- ----- -<br>-------- ---- --- ---------- --------- -- ------- ------ -<br>--------- ----- -----,170303.6000000015,170302.80000000075,169711.185,169720,169727.855,170311.334,,14,served
screen,html.Screen,0_4_1_0_1_15,2021-12-02T12:05:53.247Z,,,,,,,,,,,,,,,,15,,,,,,,,,,,,,,423.4660000007425,,response,,,7,D,,,,,Space,keypress(Space),,,,silence,---- --------- ---------- - --- ------- -- --- ------------<br>----- -- -------- ------- ---- ------ a -------- ---- -----<br>--- ------- ---- -- --- -------- --- - ----- ------ ---- --<br>-------- --- -------- -------- --- -------- ---- -- ----- -<br>-------- ---- --- ---------- --------- -- ------- ------ -<br>--------- ----- -----,170735.6000000015,170734.80000000075,170294.664,170303.90000000037,170311.334,170744.768,,15,a
screen,html.Screen,0_4_1_0_1_16,2021-12-02T12:05:54.415Z,,,,,,,,,,,,,,,,15,,,,,,,,,,,,,,1158.0320000007341,,response,,,7,D,,,,,Space,keypress(Space),,,,silence,---- --------- ---------- - --- ------- -- --- ------------<br>----- -- -------- ------- ---- ------ - subpoena ---- -----<br>--- ------- ---- -- --- -------- --- - ----- ------ ---- --<br>-------- --- -------- -------- --- -------- ---- -- ----- -<br>-------- ---- --- ---------- --------- -- ------- ------ -<br>--------- ----- -----,171903.6000000015,171902.80000000075,170728.098,170735.80000000075,170744.768,171911.564,,16,subpoena
screen,html.Screen,0_4_1_0_1_17,2021-12-02T12:05:55.184Z,,,,,,,,,,,,,,,,15,,,,,,,,,,,,,,759.5360000014771,,response,,,7,D,,,,,Space,keypress(Space),,,,silence,---- --------- ---------- - --- ------- -- --- ------------<br>----- -- -------- ------- ---- ------ - -------- last -----<br>--- ------- ---- -- --- -------- --- - ----- ------ ---- --<br>-------- --- -------- -------- --- -------- ---- -- ----- -<br>-------- ---- --- ---------- --------- -- ------- ------ -<br>--------- ----- -----,172671.90000000037,172671.1000000015,171894.895,171903.80000000075,171911.564,172678.796,,17,last
screen,html.Screen,0_4_1_0_1_18,2021-12-02T12:05:55.607Z,,,,,,,,,,,,,,,,15,,,,,,,,,,,,,,415.804000001488,,response,,,7,D,,,,,Space,keypress(Space),,,,silence,---- --------- ---------- - --- ------- -- --- ------------<br>----- -- -------- ------- ---- ------ - -------- ---- week.<br>--- ------- ---- -- --- -------- --- - ----- ------ ---- --<br>-------- --- -------- -------- --- -------- ---- -- ----- -<br>-------- ---- --- ---------- --------- -- ------- ------ -<br>--------- ----- -----,173095.5,173094.6000000015,172662.124,172672.20000000112,172678.796,173112.061,,18,week.
screen,html.Screen,0_4_1_0_1_19,2021-12-02T12:05:56.263Z,,,,,,,,,,,,,,,,15,,,,,,,,,,,,,,638.5390000015032,,response,,,7,D,,,,,Space,keypress(Space),,,,silence,---- --------- ---------- - --- ------- -- --- ------------<br>----- -- -------- ------- ---- ------ - -------- ---- -----<br>His ------- ---- -- --- -------- --- - ----- ------ ---- --<br>-------- --- -------- -------- --- -------- ---- -- ----- -<br>-------- ---- --- ---------- --------- -- ------- ------ -<br>--------- ----- -----,173751.5,173750.6000000015,173095.391,173095.70000000112,173112.061,173762.202,,19,His
screen,html.Screen,0_4_1_0_1_20,2021-12-02T12:05:56.895Z,,,,,,,,,,,,,,,,15,,,,,,,,,,,,,,620.3980000014999,,response,,,7,D,,,,,Space,keypress(Space),,,,silence,---- --------- ---------- - --- ------- -- --- ------------<br>----- -- -------- ------- ---- ------ - -------- ---- -----<br>--- lawyers ---- -- --- -------- --- - ----- ------ ---- --<br>-------- --- -------- -------- --- -------- ---- -- ----- -<br>-------- ---- --- ---------- --------- -- ------- ------ -<br>--------- ----- -----,174383.40000000037,174382.6000000015,173745.532,173751.70000000112,173762.202,174395.559,,20,lawyers
screen,html.Screen,0_4_1_0_1_21,2021-12-02T12:05:57.407Z,,,,,,,,,,,,,,,,15,,,,,,,,,,,,,,498.9409999999916,,response,,,7,D,,,,,Space,keypress(Space),,,,silence,---- --------- ---------- - --- ------- -- --- ------------<br>----- -- -------- ------- ---- ------ - -------- ---- -----<br>--- ------- said -- --- -------- --- - ----- ------ ---- --<br>-------- --- -------- -------- --- -------- ---- -- ----- -<br>-------- ---- --- ---------- --------- -- ------- ------ -<br>--------- ----- -----,174895.30000000075,174894.5,174378.89,174383.70000000112,174395.559,174912.621,,21,said
screen,html.Screen,0_4_1_0_1_22,2021-12-02T12:05:57.847Z,,,,,,,,,,,,,,,,15,,,,,,,,,,,,,,421.9790000014764,,response,,,7,D,,,,,Space,keypress(Space),,,,silence,---- --------- ---------- - --- ------- -- --- ------------<br>----- -- -------- ------- ---- ------ - -------- ---- -----<br>--- ------- ---- he --- -------- --- - ----- ------ ---- --<br>-------- --- -------- -------- --- -------- ---- -- ----- -<br>-------- ---- --- ---------- --------- -- ------- ------ -<br>--------- ----- -----,175335.40000000037,175334.6000000015,174895.949,174895.6000000015,174912.621,175345.955,,22,he
screen,html.Screen,0_4_1_0_1_23,2021-12-02T12:05:58.239Z,,,,,,,,,,,,,,,,15,,,,,,,,,,,,,,380.5450000000128,,response,,,7,D,,,,,Space,keypress(Space),,,,silence,---- --------- ---------- - --- ------- -- --- ------------<br>----- -- -------- ------- ---- ------ - -------- ---- -----<br>--- ------- ---- -- was -------- --- - ----- ------ ---- --<br>-------- --- -------- -------- --- -------- ---- -- ----- -<br>-------- ---- --- ---------- --------- -- ------- ------ -<br>--------- ----- -----,175727.30000000075,175726.5,175329.285,175335.6000000015,175345.955,175729.405,,23,was
screen,html.Screen,0_4_1_0_1_24,2021-12-02T12:05:58.807Z,,,,,,,,,,,,,,,,15,,,,,,,,,,,,,,565.0950000000012,,response,,,7,D,,,,,Space,keypress(Space),,,,silence,---- --------- ---------- - --- ------- -- --- ------------<br>----- -- -------- ------- ---- ------ - -------- ---- -----<br>--- ------- ---- -- --- prepared --- - ----- ------ ---- --<br>-------- --- -------- -------- --- -------- ---- -- ----- -<br>-------- ---- --- ---------- --------- -- ------- ------ -<br>--------- ----- -----,176295.30000000075,176294.5,175712.735,175727.6000000015,175729.405,176296.205,,24,prepared
screen,html.Screen,0_4_1_0_1_25,2021-12-02T12:05:59.343Z,,,,,,,,,,,,,,,,15,,,,,,,,,,,,,,534.1950000003853,,response,,,7,D,,,,,Space,keypress(Space),,,,silence,---- --------- ---------- - --- ------- -- --- ------------<br>----- -- -------- ------- ---- ------ - -------- ---- -----<br>--- ------- ---- -- --- -------- for - ----- ------ ---- --<br>-------- --- -------- -------- --- -------- ---- -- ----- -<br>-------- ---- --- ---------- --------- -- ------- ------ -<br>--------- ----- -----,176831.20000000112,176830.40000000037,176279.535,176295.5,176296.205,176846.17,,25,for
screen,html.Screen,0_4_1_0_1_26,2021-12-02T12:05:59.743Z,,,,,,,,,,,,,,,,15,,,,,,,,,,,,,,384.3299999999872,,response,,,7,D,,,,,Space,keypress(Space),,,,silence,---- --------- ---------- - --- ------- -- --- ------------<br>----- -- -------- ------- ---- ------ - -------- ---- -----<br>--- ------- ---- -- --- -------- --- a ----- ------ ---- --<br>-------- --- -------- -------- --- -------- ---- -- ----- -<br>-------- ---- --- ---------- --------- -- ------- ------ -<br>--------- ----- -----,177231.30000000075,177230.5,176829.502,176831.5,176846.17,177246.562,,26,a
screen,html.Screen,0_4_1_0_1_27,2021-12-02T12:06:00.343Z,,,,,,,,,,,,,,,,15,,,,,,,,,,,,,,583.8380000003672,,response,,,7,D,,,,,Space,keypress(Space),,,,silence,---- --------- ---------- - --- ------- -- --- ------------<br>----- -- -------- ------- ---- ------ - -------- ---- -----<br>--- ------- ---- -- --- -------- --- - third ------ ---- --<br>-------- --- -------- -------- --- -------- ---- -- ----- -<br>-------- ---- --- ---------- --------- -- ------- ------ -<br>--------- ----- -----,177831.20000000112,177830.40000000037,177229.89,177231.5,177246.562,177846.595,,27,third
screen,html.Screen,0_4_1_0_1_28,2021-12-02T12:06:00.871Z,,,,,,,,,,,,,,,,15,,,,,,,,,,,,,,511.7050000007439,,response,,,7,D,,,,,Space,keypress(Space),,,,silence,---- --------- ---------- - --- ------- -- --- ------------<br>----- -- -------- ------- ---- ------ - -------- ---- -----<br>--- ------- ---- -- --- -------- --- - ----- prison ---- --<br>-------- --- -------- -------- --- -------- ---- -- ----- -<br>-------- ---- --- ---------- --------- -- ------- ------ -<br>--------- ----- -----,178359.1000000015,178358.30000000075,177829.925,177831.40000000037,177846.595,178363.409,,28,prison
screen,html.Screen,0_4_1_0_1_29,2021-12-02T12:06:01.335Z,,,,,,,,,,,,,,,,15,,,,,,,,,,,,,,458.89100000073086,,response,,,7,D,,,,,Space,keypress(Space),,,,silence,---- --------- ---------- - --- ------- -- --- ------------<br>----- -- -------- ------- ---- ------ - -------- ---- -----<br>--- ------- ---- -- --- -------- --- - ----- ------ stay --<br>-------- --- -------- -------- --- -------- ---- -- ----- -<br>-------- ---- --- ---------- --------- -- ------- ------ -<br>--------- ----- -----,178823.20000000112,178822.30000000075,178346.739,178359.30000000075,178363.409,178830.186,,29,stay
screen,html.Screen,0_4_1_0_1_30,2021-12-02T12:06:01.759Z,,,,,,,,,,,,,,,,15,,,,,,,,,,,,,,416.1140000007581,,response,,,7,D,,,,,Space,keypress(Space),,,,silence,---- --------- ---------- - --- ------- -- --- ------------<br>----- -- -------- ------- ---- ------ - -------- ---- -----<br>--- ------- ---- -- --- -------- --- - ----- ------ ---- to<br>-------- --- -------- -------- --- -------- ---- -- ----- -<br>-------- ---- --- ---------- --------- -- ------- ------ -<br>--------- ----- -----,179247.20000000112,179246.30000000075,178813.516,178823.40000000037,178830.186,179263.533,,30,to
screen,html.Screen,0_4_1_0_1_31,2021-12-02T12:06:02.231Z,,,,,,,,,,,,,,,,15,,,,,,,,,,,,,,454.76700000074925,,response,,,7,D,,,,,Space,keypress(Space),,,,silence,---- --------- ---------- - --- ------- -- --- ------------<br>----- -- -------- ------- ---- ------ - -------- ---- -----<br>--- ------- ---- -- --- -------- --- - ----- ------ ---- --<br>maintain --- -------- -------- --- -------- ---- -- ----- -<br>-------- ---- --- ---------- --------- -- ------- ------ -<br>--------- ----- -----,179719.1000000015,179718.30000000075,179246.864,179247.5,179263.533,179730.529,,31,maintain
screen,html.Screen,0_4_1_0_1_32,2021-12-02T12:06:02.631Z,,,,,,,,,,,,,,,,15,,,,,,,,,,,,,,387.7710000007355,,response,,,7,D,,,,,Space,keypress(Space),,,,silence,---- --------- ---------- - --- ------- -- --- ------------<br>----- -- -------- ------- ---- ------ - -------- ---- -----<br>--- ------- ---- -- --- -------- --- - ----- ------ ---- --<br>-------- his -------- -------- --- -------- ---- -- ----- -<br>-------- ---- --- ---------- --------- -- ------- ------ -<br>--------- ----- -----,180119.1000000015,180118.30000000075,179713.857,179719.30000000075,179730.529,180130.52,,32,his
screen,html.Screen,0_4_1_0_1_33,2021-12-02T12:06:03.114Z,,,,,,,,,,,,,,,,15,,,,,,,,,,,,,,467.68000000112806,,response,,,7,D,,,,,Space,keypress(Space),,,,silence,---- --------- ---------- - --- ------- -- --- ------------<br>----- -- -------- ------- ---- ------ - -------- ---- -----<br>--- ------- ---- -- --- -------- --- - ----- ------ ---- --<br>-------- --- silence. -------- --- -------- ---- -- ----- -<br>-------- ---- --- ---------- --------- -- ------- ------ -<br>--------- ----- -----,180599,180598.20000000112,180113.85,180119.40000000037,180130.52,180613.985,,33,silence.
screen,html.Screen,0_4_1_0_1_34,2021-12-02T12:06:03.658Z,,,,,,,,,,,,,,,,15,,,,,,,,,,,,,,528.2150000011316,,response,,,7,D,,,,,Space,keypress(Space),,,,silence,---- --------- ---------- - --- ------- -- --- ------------<br>----- -- -------- ------- ---- ------ - -------- ---- -----<br>--- ------- ---- -- --- -------- --- - ----- ------ ---- --<br>-------- --- -------- Anderson --- -------- ---- -- ----- -<br>-------- ---- --- ---------- --------- -- ------- ------ -<br>--------- ----- -----,181143,181142.20000000112,180597.315,180599.20000000112,180613.985,181147.44,,34,Anderson
screen,html.Screen,0_4_1_0_1_35,2021-12-02T12:06:04.146Z,,,,,,,,,,,,,,,,15,,,,,,,,,,,,,,482.76000000111526,,response,,,7,D,,,,,Space,keypress(Space),,,,silence,---- --------- ---------- - --- ------- -- --- ------------<br>----- -- -------- ------- ---- ------ - -------- ---- -----<br>--- ------- ---- -- --- -------- --- - ----- ------ ---- --<br>-------- --- -------- -------- was -------- ---- -- ----- -<br>-------- ---- --- ---------- --------- -- ------- ------ -<br>--------- ----- -----,181631.1000000015,181630.20000000112,181130.77,181143.30000000075,181147.44,181647.566,,35,was
screen,html.Screen,0_4_1_0_1_36,2021-12-02T12:06:04.578Z,,,,,,,,,,,,,,,,15,,,,,,,,,,,,,,414.63400000112597,,response,,,7,D,,,,,Space,keypress(Space),,,,silence,---- --------- ---------- - --- ------- -- --- ------------<br>----- -- -------- ------- ---- ------ - -------- ---- -----<br>--- ------- ---- -- --- -------- --- - ----- ------ ---- --<br>-------- --- -------- -------- --- released ---- -- ----- -<br>-------- ---- --- ---------- --------- -- ------- ------ -<br>--------- ----- -----,182063,182062.20000000112,181630.896,181631.30000000075,181647.566,182064.356,,36,released
screen,html.Screen,0_4_1_0_1_37,2021-12-02T12:06:04.962Z,,,,,,,,,,,,,,,,15,,,,,,,,,,,,,,381.74400000149035,,response,,,7,D,,,,,Space,keypress(Space),,,,silence,---- --------- ---------- - --- ------- -- --- ------------<br>----- -- -------- ------- ---- ------ - -------- ---- -----<br>--- ------- ---- -- --- -------- --- - ----- ------ ---- --<br>-------- --- -------- -------- --- -------- July -- ----- -<br>-------- ---- --- ---------- --------- -- ------- ------ -<br>--------- ----- -----,182446.90000000037,182446.1000000015,182047.686,182063.20000000112,182064.356,182464.466,,37,July
screen,html.Screen,0_4_1_0_1_38,2021-12-02T12:06:05.507Z,,,,,,,,,,,,,,,,15,,,,,,,,,,,,,,526.0340000000142,,response,,,7,D,,,,,Space,keypress(Space),,,,silence,---- --------- ---------- - --- ------- -- --- ------------<br>----- -- -------- ------- ---- ------ - -------- ---- -----<br>--- ------- ---- -- --- -------- --- - ----- ------ ---- --<br>-------- --- -------- -------- --- -------- ---- 20 ----- -<br>-------- ---- --- ---------- --------- -- ------- ------ -<br>--------- ----- -----,182991.30000000075,182990.5,182447.796,182447.1000000015,182464.466,182997.841,,38,20
screen,html.Screen,0_4_1_0_1_39,2021-12-02T12:06:06.034Z,,,,,,,,,,,,,,,,15,,,,,,,,,,,,,,520.2590000015043,,response,,,7,D,,,,,Space,keypress(Space),,,,silence,---- --------- ---------- - --- ------- -- --- ------------<br>----- -- -------- ------- ---- ------ - -------- ---- -----<br>--- ------- ---- -- --- -------- --- - ----- ------ ---- --<br>-------- --- -------- -------- --- -------- ---- -- after -<br>-------- ---- --- ---------- --------- -- ------- ------ -<br>--------- ----- -----,183518.90000000037,183518.1000000015,182981.172,182991.5,182997.841,183531.514,,39,after
screen,html.Screen,0_4_1_0_1_40,2021-12-02T12:06:06.410Z,,,,,,,,,,,,,,,,15,,,,,,,,,,,,,,362.58600000149454,,response,,,7,D,,,,,Space,keypress(Space),,,,silence,---- --------- ---------- - --- ------- -- --- ------------<br>----- -- -------- ------- ---- ------ - -------- ---- -----<br>--- ------- ---- -- --- -------- --- - ----- ------ ---- --<br>-------- --- -------- -------- --- -------- ---- -- ----- a<br>-------- ---- --- ---------- --------- -- ------- ------ -<br>--------- ----- -----,183894.90000000037,183894.1000000015,183514.842,183519.1000000015,183531.514,183898.174,,40,a
screen,html.Screen,0_4_1_0_1_41,2021-12-02T12:06:06.818Z,,,,,,,,,,,,,,,,15,,,,,,,,,,,,,,403.82600000000093,,response,,,7,D,,,,,Space,keypress(Space),,,,silence,---- --------- ---------- - --- ------- -- --- ------------<br>----- -- -------- ------- ---- ------ - -------- ---- -----<br>--- ------- ---- -- --- -------- --- - ----- ------ ---- --<br>-------- --- -------- -------- --- -------- ---- -- ----- -<br>two-week ---- --- ---------- --------- -- ------- ------ -<br>--------- ----- -----,184302.80000000075,184302,183881.504,183895.20000000112,183898.174,184314.944,,41,two-week
screen,html.Screen,0_4_1_0_1_42,2021-12-02T12:06:07.346Z,,,,,,,,,,,,,,,,15,,,,,,,,,,,,,,515.0560000000114,,response,,,7,D,,,,,Space,keypress(Space),,,,silence,---- --------- ---------- - --- ------- -- --- ------------<br>----- -- -------- ------- ---- ------ - -------- ---- -----<br>--- ------- ---- -- --- -------- --- - ----- ------ ---- --<br>-------- --- -------- -------- --- -------- ---- -- ----- -<br>-------- stay --- ---------- --------- -- ------- ------ -<br>--------- ----- -----,184830.80000000075,184830,184298.274,184303.1000000015,184314.944,184848.409,,42,stay
screen,html.Screen,0_4_1_0_1_43,2021-12-02T12:06:07.770Z,,,,,,,,,,,,,,,,15,,,,,,,,,,,,,,405.5909999999858,,response,,,7,D,,,,,Space,keypress(Space),,,,silence,---- --------- ---------- - --- ------- -- --- ------------<br>----- -- -------- ------- ---- ------ - -------- ---- -----<br>--- ------- ---- -- --- -------- --- - ----- ------ ---- --<br>-------- --- -------- -------- --- -------- ---- -- ----- -<br>-------- ---- for ---------- --------- -- ------- ------ -<br>--------- ----- -----,185254.80000000075,185254,184831.739,184831.1000000015,184848.409,185265.23,,43,for
screen,html.Screen,0_4_1_0_1_44,2021-12-02T12:06:08.258Z,,,,,,,,,,,,,,,,15,,,,,,,,,,,,,,476.7699999999895,,response,,,7,D,,,,,Space,keypress(Space),,,,silence,---- --------- ---------- - --- ------- -- --- ------------<br>----- -- -------- ------- ---- ------ - -------- ---- -----<br>--- ------- ---- -- --- -------- --- - ----- ------ ---- --<br>-------- --- -------- -------- --- -------- ---- -- ----- -<br>-------- ---- --- previously --------- -- ------- ------ -<br>--------- ----- -----,185742.70000000112,185742,185248.559,185255.1000000015,185265.23,185748.622,,44,previously
screen,html.Screen,0_4_1_0_1_45,2021-12-02T12:06:08.738Z,,,,,,,,,,,,,,,,15,,,,,,,,,,,,,,473.2780000003695,,response,,,7,D,,,,,Space,keypress(Space),,,,silence,---- --------- ---------- - --- ------- -- --- ------------<br>----- -- -------- ------- ---- ------ - -------- ---- -----<br>--- ------- ---- -- --- -------- --- - ----- ------ ---- --<br>-------- --- -------- -------- --- -------- ---- -- ----- -<br>-------- ---- --- ---------- declining -- ------- ------ -<br>--------- ----- -----,186222.70000000112,186221.90000000037,185731.952,185743,185748.622,186232.093,,45,declining
screen,html.Screen,0_4_1_0_1_46,2021-12-02T12:06:09.178Z,,,,,,,,,,,,,,,,15,,,,,,,,,,,,,,429.80700000037905,,response,,,7,D,,,,,Space,keypress(Space),,,,silence,---- --------- ---------- - --- ------- -- --- ------------<br>----- -- -------- ------- ---- ------ - -------- ---- -----<br>--- ------- ---- -- --- -------- --- - ----- ------ ---- --<br>-------- --- -------- -------- --- -------- ---- -- ----- -<br>-------- ---- --- ---------- --------- to ------- ------ -<br>--------- ----- -----,186662.80000000075,186661.90000000037,186215.423,186222.90000000037,186232.093,186665.54,,46,to
screen,html.Screen,0_4_1_0_1_47,2021-12-02T12:06:09.610Z,,,,,,,,,,,,,,,,15,,,,,,,,,,,,,,428.3600000003644,,response,,,7,D,,,,,Space,keypress(Space),,,,silence,---- --------- ---------- - --- ------- -- --- ------------<br>----- -- -------- ------- ---- ------ - -------- ---- -----<br>--- ------- ---- -- --- -------- --- - ----- ------ ---- --<br>-------- --- -------- -------- --- -------- ---- -- ----- -<br>-------- ---- --- ---------- --------- -- testify ------ -<br>--------- ----- -----,187094.70000000112,187093.90000000037,186648.87,186662.90000000037,186665.54,187098.987,,47,testify
screen,html.Screen,0_4_1_0_1_48,2021-12-02T12:06:10.074Z,,,,,,,,,,,,,,,,15,,,,,,,,,,,,,,458.9130000003788,,response,,,7,D,,,,,Space,keypress(Space),,,,silence,---- --------- ---------- - --- ------- -- --- ------------<br>----- -- -------- ------- ---- ------ - -------- ---- -----<br>--- ------- ---- -- --- -------- --- - ----- ------ ---- --<br>-------- --- -------- -------- --- -------- ---- -- ----- -<br>-------- ---- --- ---------- --------- -- ------- before -<br>--------- ----- -----,187558.70000000112,187557.90000000037,187082.317,187095,187098.987,187565.771,,48,before
screen,html.Screen,0_4_1_0_1_49,2021-12-02T12:06:10.562Z,,,,,,,,,,,,,,,,15,,,,,,,,,,,,,,480.02900000073714,,response,,,7,D,,,,,Space,keypress(Space),,,,silence,---- --------- ---------- - --- ------- -- --- ------------<br>----- -- -------- ------- ---- ------ - -------- ---- -----<br>--- ------- ---- -- --- -------- --- - ----- ------ ---- --<br>-------- --- -------- -------- --- -------- ---- -- ----- -<br>-------- ---- --- ---------- --------- -- ------- ------ a<br>--------- ----- -----,188046.6000000015,188045.80000000075,187549.101,187558.90000000037,187565.771,188049.23,,49,a
screen,html.Screen,0_4_1_0_1_50,2021-12-02T12:06:11.098Z,,,,,,,,,,,,,,,,15,,,,,,,,,,,,,,532.5700000007346,,response,,,7,D,,,,,Space,keypress(Space),,,,silence,---- --------- ---------- - --- ------- -- --- ------------<br>----- -- -------- ------- ---- ------ - -------- ---- -----<br>--- ------- ---- -- --- -------- --- - ----- ------ ---- --<br>-------- --- -------- -------- --- -------- ---- -- ----- -<br>-------- ---- --- ---------- --------- -- ------- ------ -<br>different ----- -----,188582.6000000015,188581.80000000075,188032.56,188046.80000000075,188049.23,188599.366,,50,different
screen,html.Screen,0_4_1_0_1_51,2021-12-02T12:06:11.498Z,,,,,,,,,,,,,,,,15,,,,,,,,,,,,,,382.434000000736,,response,,,7,D,,,,,Space,keypress(Space),,,,silence,---- --------- ---------- - --- ------- -- --- ------------<br>----- -- -------- ------- ---- ------ - -------- ---- -----<br>--- ------- ---- -- --- -------- --- - ----- ------ ---- --<br>-------- --- -------- -------- --- -------- ---- -- ----- -<br>-------- ---- --- ---------- --------- -- ------- ------ -<br>--------- grand -----,188982.6000000015,188981.80000000075,188582.696,188582.90000000037,188599.366,188999.52,,51,grand
screen,html.Screen,0_4_1_0_1_52,2021-12-02T12:06:11.890Z,,,,,,,,,,,,,,,,15,,,,,,,,,,,,,,374.28000000075554,,response,,,7,D,,,,,Space,keypress(Space),,,,silence,---- --------- ---------- - --- ------- -- --- ------------<br>----- -- -------- ------- ---- ------ - -------- ---- -----<br>--- ------- ---- -- --- -------- --- - ----- ------ ---- --<br>-------- --- -------- -------- --- -------- ---- -- ----- -<br>-------- ---- --- ---------- --------- -- ------- ------ -<br>--------- ----- jury.,189374.6000000015,189373.80000000075,188982.849,188982.80000000075,188999.52,189382.904,,52,jury.
Item 7,flow.Loop,0_4_1_0_1,2021-12-02T12:06:11.890Z,,,,,,,,,,,,,,,,,,,,,,,,,,,,,,28498.288000000757,,completion,,,,,,,,,,,,,,,,189374.90000000037,189373.80000000075,160858.842,160860.80000000075,160875.512,189382.904,,,
