sender,sender_type,sender_id,timestamp,meta,,Blues,Classical,Country,Dance,Electronic,Folk,Gospel,Hip-Hop,Jazz,Latin,Musical/Film,New-age,Pop,Provo_ID,R&B,Rap,Reggae,Religious,Rock,Soul,Swing,Traditional,age,artist_name,correct,correctResponse,distraction,duration,education,ended_on,familiarity,gender,item,list,music_frequency,offensiveness,pleasantness,preference,response,response_action,snippet_file,song_name,song_rating,sound,text,time_commit,time_end,time_render,time_run,time_show,time_switch,url,word,word_ID
Instructions,html.Page,0_0,2021-11-12T15:25:06.720Z,"{""labjs_version"":""20.2.3"",""labjs_build"":{""flavor"":""production"",""commit"":""7ea907d66ca8aeef8054924ca5d82ffbe11e34e5""},""location"":""https://run.pavlovia.org/mvasilev/lab_music_a/"",""userAgent"":""Mozilla/5.0 (Windows NT 6.1; Win64; x64) AppleWebKit/537.36 (KHTML, like Gecko) Chrome/95.0.4638.69 Safari/537.36"",""platform"":""Win32"",""language"":""en-US"",""locale"":""en-US"",""timeZone"":""Europe/London"",""timezoneOffset"":0,""screen_width"":1920,""screen_height"":1080,""scroll_width"":1920,""scroll_height"":959,""window_innerWidth"":1920,""window_innerHeight"":1007,""devicePixelRatio"":1}",,,,,,,,,,,,,,,,,,,,,,,,,,,,,45065.46700000149,,form submission,,,,,,,,,,,,,,,,60682.300000000745,60681.10000000149,15582.293,15598.39999999851,15615.633,60689.845,{},,
Headphones,html.Page,0_1,2021-11-12T15:25:10.666Z,,,,,,,,,,,,,,,,,,,,,,,,,,,,,,3937.854999999254,,form submission,,,,,,,,,,,,,,,,64628.300000000745,64627.699999999255,60673.128,60683.10000000149,60689.845,64644.657,,,
Holding screen,html.Screen,0_2_0_0,2021-11-12T15:25:20.674Z,,,,,,,,,,,,,,,,,,,,,,,,,,,,,,10002.235000000008,,timeout,,,,,,,,,,,,,,,,74636.39999999851,74630.223,64611.317,64628.89999999851,64644.657,74646.892,,,
screen,html.Screen,0_2_0_1_0,2021-11-12T15:25:21.917Z,,,,,,,,,,,,,,,,53,,,,,,,,,,,,,,1231.107999999993,,response,,,99,,,,,,Space,keypress(Space),,,,,When -- ----- -- ------ - ------- --- ----------<br>------------- ------ ------ ---- ---- ------- ----- -- ----<br>-------- ------- -- ---------- --- - --- ----- ----- ----<br>---- --- --- ----- --- ---- ---- ------- ----- ---- -------<br>--- --- -- ----- -- --- ---- -- --- ---- -- ------ ------<br>--- ----- -- ----,75879.39999999851,75878,74630.223,74636.89999999851,74646.892,75880.849,,0,When
screen,html.Screen,0_2_0_1_1,2021-11-12T15:25:22.392Z,,,,,,,,,,,,,,,,53,,,,,,,,,,,,,,472.85099999925296,,response,,,99,,,,,,Space,keypress(Space),,,,,---- it ----- -- ------ - ------- --- ----------<br>------------- ------ ------ ---- ---- ------- ----- -- ----<br>-------- ------- -- ---------- --- - --- ----- ----- ----<br>---- --- --- ----- --- ---- ---- ------- ----- ---- -------<br>--- --- -- ----- -- --- ---- -- --- ---- -- ------ ------<br>--- ----- -- ----,76354.60000000149,76353.69999999925,75864.178,75879.80000000075,75880.849,76364.067,,1,it
screen,html.Screen,0_2_0_1_2,2021-11-12T15:25:22.936Z,,,,,,,,,,,,,,,,53,,,,,,,,,,,,,,533.6329999992595,,response,,,99,,,,,,Space,keypress(Space),,,,,---- -- comes -- ------ - ------- --- ----------<br>------------- ------ ------ ---- ---- ------- ----- -- ----<br>-------- ------- -- ---------- --- - --- ----- ----- ----<br>---- --- --- ----- --- ---- ---- ------- ----- ---- -------<br>--- --- -- ----- -- --- ---- -- --- ---- -- ------ ------<br>--- ----- -- ----,76898.60000000149,76897.69999999925,76347.398,76355,76364.067,76914.392,,2,comes
screen,html.Screen,0_2_0_1_3,2021-11-12T15:25:23.472Z,,,,,,,,,,,,,,,,53,,,,,,,,,,,,,,519.208000001483,,response,,,99,,,,,,Space,keypress(Space),,,,,---- -- ----- to ------ - ------- --- ----------<br>------------- ------ ------ ---- ---- ------- ----- -- ----<br>-------- ------- -- ---------- --- - --- ----- ----- ----<br>---- --- --- ----- --- ---- ---- ------- ----- ---- -------<br>--- --- -- ----- -- --- ---- -- --- ---- -- ------ ------<br>--- ----- -- ----,77434.60000000149,77433.60000000149,76897.721,76898.80000000075,76914.392,77447.787,,3,to
screen,html.Screen,0_2_0_1_4,2021-11-12T15:25:24.049Z,,,,,,,,,,,,,,,,53,,,,,,,,,,,,,,561.8130000014935,,response,,,99,,,,,,Space,keypress(Space),,,,,---- -- ----- -- having - ------- --- ----------<br>------------- ------ ------ ---- ---- ------- ----- -- ----<br>-------- ------- -- ---------- --- - --- ----- ----- ----<br>---- --- --- ----- --- ---- ---- ------- ----- ---- -------<br>--- --- -- ----- -- --- ---- -- --- ---- -- ------ ------<br>--- ----- -- ----,78010.69999999925,78009.60000000149,77431.117,77435.10000000149,77447.787,78014.616,,4,having
screen,html.Screen,0_2_0_1_5,2021-11-12T15:25:24.440Z,,,,,,,,,,,,,,,,53,,,,,,,,,,,,,,386.88400000000547,,response,,,99,,,,,,Space,keypress(Space),,,,,---- -- ----- -- ------ a ------- --- ----------<br>------------- ------ ------ ---- ---- ------- ----- -- ----<br>-------- ------- -- ---------- --- - --- ----- ----- ----<br>---- --- --- ----- --- ---- ---- ------- ----- ---- -------<br>--- --- -- ----- -- --- ---- -- --- ---- -- ------ ------<br>--- ----- -- ----,78402.5,78401.5,77997.946,78011.10000000149,78014.616,78414.691,,5,a
screen,html.Screen,0_2_0_1_6,2021-11-12T15:25:25.144Z,,,,,,,,,,,,,,,,53,,,,,,,,,,,,,,690.8089999999938,,response,,,99,,,,,,Space,keypress(Space),,,,,---- -- ----- -- ------ - lasting --- ----------<br>------------- ------ ------ ---- ---- ------- ----- -- ----<br>-------- ------- -- ---------- --- - --- ----- ----- ----<br>---- --- --- ----- --- ---- ---- ------- ----- ---- -------<br>--- --- -- ----- -- --- ---- -- --- ---- -- ------ ------<br>--- ----- -- ----,79106.39999999851,79105.5,78398.021,78403,78414.691,79114.874,,6,lasting
screen,html.Screen,0_2_0_1_7,2021-11-12T15:25:25.608Z,,,,,,,,,,,,,,,,53,,,,,,,,,,,,,,454.62600000000384,,response,,,99,,,,,,Space,keypress(Space),,,,,---- -- ----- -- ------ - ------- and ----------<br>------------- ------ ------ ---- ---- ------- ----- -- ----<br>-------- ------- -- ---------- --- - --- ----- ----- ----<br>---- --- --- ----- --- ---- ---- ------- ----- ---- -------<br>--- --- -- ----- -- --- ---- -- --- ---- -- ------ ------<br>--- ----- -- ----,79570.39999999851,79569.5,79098.204,79106.80000000075,79114.874,79581.47,,7,and
screen,html.Screen,0_2_0_1_8,2021-11-12T15:25:26.128Z,,,,,,,,,,,,,,,,53,,,,,,,,,,,,,,507.9299999985087,,response,,,99,,,,,,Space,keypress(Space),,,,,---- -- ----- -- ------ - ------- --- fulfilling<br>------------- ------ ------ ---- ---- ------- ----- -- ----<br>-------- ------- -- ---------- --- - --- ----- ----- ----<br>---- --- --- ----- --- ---- ---- ------- ----- ---- -------<br>--- --- -- ----- -- --- ---- -- --- ---- -- ------ ------<br>--- ----- -- ----,80090.60000000149,80089.39999999851,79564.802,79570.80000000075,79581.47,80098.513,,8,fulfilling
screen,html.Screen,0_2_0_1_9,2021-11-12T15:25:26.848Z,,,,,,,,,,,,,,,,53,,,,,,,,,,,,,,710.9869999999937,,response,,,99,,,,,,Space,keypress(Space),,,,,"---- -- ----- -- ------ - ------- --- ----------<br>relationship, ------ ------ ---- ---- ------- ----- -- ----<br>-------- ------- -- ---------- --- - --- ----- ----- ----<br>---- --- --- ----- --- ---- ---- ------- ----- ---- -------<br>--- --- -- ----- -- --- ---- -- --- ---- -- ------ ------<br>--- ----- -- ----",80810.39999999851,80809.5,80081.842,80090.89999999851,80098.513,80815.086,,9,"relationship,"
screen,html.Screen,0_2_0_1_10,2021-11-12T15:25:27.664Z,,,,,,,,,,,,,,,,53,,,,,,,,,,,,,,810.4140000000043,,response,,,99,,,,,,Space,keypress(Space),,,,,---- -- ----- -- ------ - ------- --- ----------<br>------------- common ------ ---- ---- ------- ----- -- ----<br>-------- ------- -- ---------- --- - --- ----- ----- ----<br>---- --- --- ----- --- ---- ---- ------- ----- ---- -------<br>--- --- -- ----- -- --- ---- -- --- ---- -- ------ ------<br>--- ----- -- ----,81626.39999999851,81625.5,80798.418,80810.60000000149,80815.086,81632.229,,10,common
screen,html.Screen,0_2_0_1_11,2021-11-12T15:25:28.152Z,,,,,,,,,,,,,,,,53,,,,,,,,,,,,,,481.17099999850325,,response,,,99,,,,,,Space,keypress(Space),,,,,---- -- ----- -- ------ - ------- --- ----------<br>------------- ------ wisdom ---- ---- ------- ----- -- ----<br>-------- ------- -- ---------- --- - --- ----- ----- ----<br>---- --- --- ----- --- ---- ---- ------- ----- ---- -------<br>--- --- -- ----- -- --- ---- -- --- ---- -- ------ ------<br>--- ----- -- ----,82114.30000000075,82113.39999999851,81615.558,81626.69999999925,81632.229,82115.596,,11,wisdom
screen,html.Screen,0_2_0_1_12,2021-11-12T15:25:28.640Z,,,,,,,,,,,,,,,,53,,,,,,,,,,,,,,485.70400000074005,,response,,,99,,,,,,Space,keypress(Space),,,,,---- -- ----- -- ------ - ------- --- ----------<br>------------- ------ ------ says ---- ------- ----- -- ----<br>-------- ------- -- ---------- --- - --- ----- ----- ----<br>---- --- --- ----- --- ---- ---- ------- ----- ---- -------<br>--- --- -- ----- -- --- ---- -- --- ---- -- ------ ------<br>--- ----- -- ----,82602.10000000149,82601.30000000075,82098.926,82114.60000000149,82115.596,82615.725,,12,says
screen,html.Screen,0_2_0_1_13,2021-11-12T15:25:29.320Z,,,,,,,,,,,,,,,,53,,,,,,,,,,,,,,665.4749999992491,,response,,,99,,,,,,Space,keypress(Space),,,,,---- -- ----- -- ------ - ------- --- ----------<br>------------- ------ ------ ---- that ------- ----- -- ----<br>-------- ------- -- ---------- --- - --- ----- ----- ----<br>---- --- --- ----- --- ---- ---- ------- ----- ---- -------<br>--- --- -- ----- -- --- ---- -- --- ---- -- ------ ------<br>--- ----- -- ----,83282,83281.19999999925,82599.055,82602.39999999851,82615.725,83299.218,,13,that
screen,html.Screen,0_2_0_1_14,2021-11-12T15:25:30.312Z,,,,,,,,,,,,,,,,53,,,,,,,,,,,,,,973.8820000014966,,response,,,99,,,,,,Space,keypress(Space),,,,,---- -- ----- -- ------ - ------- --- ----------<br>------------- ------ ------ ---- ---- feeling ----- -- ----<br>-------- ------- -- ---------- --- - --- ----- ----- ----<br>---- --- --- ----- --- ---- ---- ------- ----- ---- -------<br>--- --- -- ----- -- --- ---- -- --- ---- -- ------ ------<br>--- ----- -- ----,84274,84273.10000000149,83282.548,83282.19999999925,83299.218,84282.754,,14,feeling
screen,html.Screen,0_2_0_1_15,2021-11-12T15:25:31.056Z,,,,,,,,,,,,,,,,53,,,,,,,,,,,,,,734.3460000014893,,response,,,99,,,,,,Space,keypress(Space),,,,,---- -- ----- -- ------ - ------- --- ----------<br>------------- ------ ------ ---- ---- ------- close -- ----<br>-------- ------- -- ---------- --- - --- ----- ----- ----<br>---- --- --- ----- --- ---- ---- ------- ----- ---- -------<br>--- --- -- ----- -- --- ---- -- --- ---- -- ------ ------<br>--- ----- -- ----,85018,85017.10000000149,84266.084,84274.19999999925,84282.754,85032.932,,15,close
screen,html.Screen,0_2_0_1_16,2021-11-12T15:25:31.504Z,,,,,,,,,,,,,,,,53,,,,,,,,,,,,,,432.1680000014894,,response,,,99,,,,,,Space,keypress(Space),,,,,---- -- ----- -- ------ - ------- --- ----------<br>------------- ------ ------ ---- ---- ------- ----- to ----<br>-------- ------- -- ---------- --- - --- ----- ----- ----<br>---- --- --- ----- --- ---- ---- ------- ----- ---- -------<br>--- --- -- ----- -- --- ---- -- --- ---- -- ------ ------<br>--- ----- -- ----,85465.89999999851,85465.10000000149,85016.262,85018.19999999925,85032.932,85483.092,,16,to
screen,html.Screen,0_2_0_1_17,2021-11-12T15:25:32.080Z,,,,,,,,,,,,,,,,53,,,,,,,,,,,,,,558.2080000007409,,response,,,99,,,,,,Space,keypress(Space),,,,,---- -- ----- -- ------ - ------- --- ----------<br>------------- ------ ------ ---- ---- ------- ----- -- your<br>-------- ------- -- ---------- --- - --- ----- ----- ----<br>---- --- --- ----- --- ---- ---- ------- ----- ---- -------<br>--- --- -- ----- -- --- ---- -- --- ---- -- ------ ------<br>--- ----- -- ----,86042.19999999925,86041.30000000075,85466.422,85466.10000000149,85483.092,86049.894,,17,your
screen,html.Screen,0_2_0_1_18,2021-11-12T15:25:33.216Z,,,,,,,,,,,,,,,,53,,,,,,,,,,,,,,1127.1059999999998,,response,,,99,,,,,,Space,keypress(Space),,,,,---- -- ----- -- ------ - ------- --- ----------<br>------------- ------ ------ ---- ---- ------- ----- -- ----<br>romantic ------- -- ---------- --- - --- ----- ----- ----<br>---- --- --- ----- --- ---- ---- ------- ----- ---- -------<br>--- --- -- ----- -- --- ---- -- --- ---- -- ------ ------<br>--- ----- -- ----,87177.80000000075,87177,86033.224,86042.39999999851,86049.894,87183.448,,18,romantic
screen,html.Screen,0_2_0_1_19,2021-11-12T15:25:34.088Z,,,,,,,,,,,,,,,,53,,,,,,,,,,,,,,865.4519999985059,,response,,,99,,,,,,Space,keypress(Space),,,,,---- -- ----- -- ------ - ------- --- ----------<br>------------- ------ ------ ---- ---- ------- ----- -- ----<br>-------- partner -- ---------- --- - --- ----- ----- ----<br>---- --- --- ----- --- ---- ---- ------- ----- ---- -------<br>--- --- -- ----- -- --- ---- -- --- ---- -- ------ ------<br>--- ----- -- ----,88049.69999999925,88048.89999999851,87166.778,87178.10000000149,87183.448,88066.964,,19,partner
screen,html.Screen,0_2_0_1_20,2021-11-12T15:25:34.879Z,,,,,,,,,,,,,,,,53,,,,,,,,,,,,,,773.8360000007378,,response,,,99,,,,,,Space,keypress(Space),,,,,---- -- ----- -- ------ - ------- --- ----------<br>------------- ------ ------ ---- ---- ------- ----- -- ----<br>-------- ------- is ---------- --- - --- ----- ----- ----<br>---- --- --- ----- --- ---- ---- ------- ----- ---- -------<br>--- --- -- ----- -- --- ---- -- --- ---- -- ------ ------<br>--- ----- -- ----,88841.60000000149,88840.80000000075,88050.294,88050,88066.964,88850.569,,20,is
screen,html.Screen,0_2_0_1_21,2021-11-12T15:25:36.639Z,,,,,,,,,,,,,,,,53,,,,,,,,,,,,,,1750.1309999992518,,response,,,99,,,,,,Space,keypress(Space),,,,,---- -- ----- -- ------ - ------- --- ----------<br>------------- ------ ------ ---- ---- ------- ----- -- ----<br>-------- ------- -- paramount. --- - --- ----- ----- ----<br>---- --- --- ----- --- ---- ---- ------- ----- ---- -------<br>--- --- -- ----- -- --- ---- -- --- ---- -- ------ ------<br>--- ----- -- ----,90601.5,90600.69999999925,88833.899,88841.80000000075,88850.569,90617.591,,21,paramount.
screen,html.Screen,0_2_0_1_22,2021-11-12T15:25:37.471Z,,,,,,,,,,,,,,,,53,,,,,,,,,,,,,,815.1089999992546,,response,,,99,,,,,,Space,keypress(Space),,,,,---- -- ----- -- ------ - ------- --- ----------<br>------------- ------ ------ ---- ---- ------- ----- -- ----<br>-------- ------- -- ---------- But - --- ----- ----- ----<br>---- --- --- ----- --- ---- ---- ------- ----- ---- -------<br>--- --- -- ----- -- --- ---- -- --- ---- -- ------ ------<br>--- ----- -- ----,91433.5,91432.69999999925,90600.921,90601.89999999851,90617.591,91451.171,,22,But
screen,html.Screen,0_2_0_1_23,2021-11-12T15:25:37.903Z,,,,,,,,,,,,,,,,53,,,,,,,,,,,,,,413.52899999925285,,response,,,99,,,,,,Space,keypress(Space),,,,,---- -- ----- -- ------ - ------- --- ----------<br>------------- ------ ------ ---- ---- ------- ----- -- ----<br>-------- ------- -- ---------- --- a --- ----- ----- ----<br>---- --- --- ----- --- ---- ---- ------- ----- ---- -------<br>--- --- -- ----- -- --- ---- -- --- ---- -- ------ ------<br>--- ----- -- ----,91865.60000000149,91864.69999999925,91434.501,91433.89999999851,91451.171,91867.891,,23,a
screen,html.Screen,0_2_0_1_24,2021-11-12T15:25:38.943Z,,,,,,,,,,,,,,,,53,,,,,,,,,,,,,,1036.7090000014869,,response,,,99,,,,,,Space,keypress(Space),,,,,---- -- ----- -- ------ - ------- --- ----------<br>------------- ------ ------ ---- ---- ------- ----- -- ----<br>-------- ------- -- ---------- --- - new ----- ----- ----<br>---- --- --- ----- --- ---- ---- ------- ----- ---- -------<br>--- --- -- ----- -- --- ---- -- --- ---- -- ------ ------<br>--- ----- -- ----,92905.39999999851,92904.60000000149,91851.221,91865.89999999851,91867.891,92918.372,,24,new
screen,html.Screen,0_2_0_1_25,2021-11-12T15:25:39.463Z,,,,,,,,,,,,,,,,53,,,,,,,,,,,,,,506.127999999997,,response,,,99,,,,,,Space,keypress(Space),,,,,---- -- ----- -- ------ - ------- --- ----------<br>------------- ------ ------ ---- ---- ------- ----- -- ----<br>-------- ------- -- ---------- --- - --- study ----- ----<br>---- --- --- ----- --- ---- ---- ------- ----- ---- -------<br>--- --- -- ----- -- --- ---- -- --- ---- -- ------ ------<br>--- ----- -- ----,93425.39999999851,93424.5,92901.7,92905.69999999925,92918.372,93434.998,,25,study
screen,html.Screen,0_2_0_1_26,2021-11-12T15:25:40.295Z,,,,,,,,,,,,,,,,53,,,,,,,,,,,,,,821.401999998503,,response,,,99,,,,,,Space,keypress(Space),,,,,---- -- ----- -- ------ - ------- --- ----------<br>------------- ------ ------ ---- ---- ------- ----- -- ----<br>-------- ------- -- ---------- --- - --- ----- finds ----<br>---- --- --- ----- --- ---- ---- ------- ----- ---- -------<br>--- --- -- ----- -- --- ---- -- --- ---- -- ------ ------<br>--- ----- -- ----,94257.19999999925,94256.39999999851,93418.328,93425.69999999925,93434.998,94268.523,,26,finds
screen,html.Screen,0_2_0_1_27,2021-11-12T15:25:40.767Z,,,,,,,,,,,,,,,,53,,,,,,,,,,,,,,459.87699999850884,,response,,,99,,,,,,Space,keypress(Space),,,,,---- -- ----- -- ------ - ------- --- ----------<br>------------- ------ ------ ---- ---- ------- ----- -- ----<br>-------- ------- -- ---------- --- - --- ----- ----- that<br>---- --- --- ----- --- ---- ---- ------- ----- ---- -------<br>--- --- -- ----- -- --- ---- -- --- ---- -- ------ ------<br>--- ----- -- ----,94729.39999999851,94728.39999999851,94251.853,94257.69999999925,94268.523,94735.34,,27,that
screen,html.Screen,0_2_0_1_28,2021-11-12T15:25:41.279Z,,,,,,,,,,,,,,,,53,,,,,,,,,,,,,,505.0599999985134,,response,,,99,,,,,,Space,keypress(Space),,,,,---- -- ----- -- ------ - ------- --- ----------<br>------------- ------ ------ ---- ---- ------- ----- -- ----<br>-------- ------- -- ---------- --- - --- ----- ----- ----<br>it's --- --- ----- --- ---- ---- ------- ----- ---- -------<br>--- --- -- ----- -- --- ---- -- --- ---- -- ------ ------<br>--- ----- -- ----,95241.30000000075,95240.39999999851,94718.67,94729.69999999925,94735.34,95252.105,,28,it's
screen,html.Screen,0_2_0_1_29,2021-11-12T15:25:41.863Z,,,,,,,,,,,,,,,,53,,,,,,,,,,,,,,572.294999998514,,response,,,99,,,,,,Space,keypress(Space),,,,,---- -- ----- -- ------ - ------- --- ----------<br>------------- ------ ------ ---- ---- ------- ----- -- ----<br>-------- ------- -- ---------- --- - --- ----- ----- ----<br>---- not --- ----- --- ---- ---- ------- ----- ---- -------<br>--- --- -- ----- -- --- ---- -- --- ---- -- ------ ------<br>--- ----- -- ----,95825.10000000149,95824.39999999851,95235.435,95241.60000000149,95252.105,95835.597,,29,not
screen,html.Screen,0_2_0_1_30,2021-11-12T15:25:42.471Z,,,,,,,,,,,,,,,,53,,,,,,,,,,,,,,597.0030000014958,,response,,,99,,,,,,Space,keypress(Space),,,,,---- -- ----- -- ------ - ------- --- ----------<br>------------- ------ ------ ---- ---- ------- ----- -- ----<br>-------- ------- -- ---------- --- - --- ----- ----- ----<br>---- --- how ----- --- ---- ---- ------- ----- ---- -------<br>--- --- -- ----- -- --- ---- -- --- ---- -- ------ ------<br>--- ----- -- ----,96433.39999999851,96432.60000000149,95818.927,95825.5,95835.597,96435.741,,30,how
screen,html.Screen,0_2_0_1_31,2021-11-12T15:25:43.087Z,,,,,,,,,,,,,,,,53,,,,,,,,,,,,,,612.4589999992604,,response,,,99,,,,,,Space,keypress(Space),,,,,---- -- ----- -- ------ - ------- --- ----------<br>------------- ------ ------ ---- ---- ------- ----- -- ----<br>-------- ------- -- ---------- --- - --- ----- ----- ----<br>---- --- --- close --- ---- ---- ------- ----- ---- -------<br>--- --- -- ----- -- --- ---- -- --- ---- -- ------ ------<br>--- ----- -- ----,97049,97048.19999999925,96419.071,96433.69999999925,96435.741,97069.224,,31,close
screen,html.Screen,0_2_0_1_32,2021-11-12T15:25:43.767Z,,,,,,,,,,,,,,,,53,,,,,,,,,,,,,,658.975999999253,,response,,,99,,,,,,Space,keypress(Space),,,,,---- -- ----- -- ------ - ------- --- ----------<br>------------- ------ ------ ---- ---- ------- ----- -- ----<br>-------- ------- -- ---------- --- - --- ----- ----- ----<br>---- --- --- ----- you ---- ---- ------- ----- ---- -------<br>--- --- -- ----- -- --- ---- -- --- ---- -- ------ ------<br>--- ----- -- ----,97729.30000000075,97728.19999999925,97052.554,97052.10000000149,97069.224,97735.93,,32,you
screen,html.Screen,0_2_0_1_33,2021-11-12T15:25:44.543Z,,,,,,,,,,,,,,,,53,,,,,,,,,,,,,,768.2699999992619,,response,,,99,,,,,,Space,keypress(Space),,,,,---- -- ----- -- ------ - ------- --- ----------<br>------------- ------ ------ ---- ---- ------- ----- -- ----<br>-------- ------- -- ---------- --- - --- ----- ----- ----<br>---- --- --- ----- --- feel ---- ------- ----- ---- -------<br>--- --- -- ----- -- --- ---- -- --- ---- -- ------ ------<br>--- ----- -- ----,98505,98504.19999999925,97719.261,97729.5,97735.93,98519.733,,33,feel
screen,html.Screen,0_2_0_1_34,2021-11-12T15:25:45.015Z,,,,,,,,,,,,,,,,53,,,,,,,,,,,,,,456.46699999926204,,response,,,99,,,,,,Space,keypress(Space),,,,,---- -- ----- -- ------ - ------- --- ----------<br>------------- ------ ------ ---- ---- ------- ----- -- ----<br>-------- ------- -- ---------- --- - --- ----- ----- ----<br>---- --- --- ----- --- ---- that ------- ----- ---- -------<br>--- --- -- ----- -- --- ---- -- --- ---- -- ------ ------<br>--- ----- -- ----,98977,98976.19999999925,98503.061,98505.39999999851,98519.733,98986.242,,34,that
screen,html.Screen,0_2_0_1_35,2021-11-12T15:25:45.863Z,,,,,,,,,,,,,,,,53,,,,,,,,,,,,,,837.8580000014917,,response,,,99,,,,,,Space,keypress(Space),,,,,---- -- ----- -- ------ - ------- --- ----------<br>------------- ------ ------ ---- ---- ------- ----- -- ----<br>-------- ------- -- ---------- --- - --- ----- ----- ----<br>---- --- --- ----- --- ---- ---- matters ----- ---- -------<br>--- --- -- ----- -- --- ---- -- --- ---- -- ------ ------<br>--- ----- -- ----,99825,99824.10000000149,98969.573,98977.19999999925,98986.242,99836.634,,35,matters
screen,html.Screen,0_2_0_1_36,2021-11-12T15:25:46.631Z,,,,,,,,,,,,,,,,53,,,,,,,,,,,,,,755.4660000014846,,response,,,99,,,,,,Space,keypress(Space),,,,,"---- -- ----- -- ------ - ------- --- ----------<br>------------- ------ ------ ---- ---- ------- ----- -- ----<br>-------- ------- -- ---------- --- - --- ----- ----- ----<br>---- --- --- ----- --- ---- ---- ------- most, ---- -------<br>--- --- -- ----- -- --- ---- -- --- ---- -- ------ ------<br>--- ----- -- ----",100593.10000000149,100592.10000000149,99819.963,99825.10000000149,99836.634,100603.189,,36,"most,"
screen,html.Screen,0_2_0_1_37,2021-11-12T15:25:47.303Z,,,,,,,,,,,,,,,,53,,,,,,,,,,,,,,660.8110000000015,,response,,,99,,,,,,Space,keypress(Space),,,,,---- -- ----- -- ------ - ------- --- ----------<br>------------- ------ ------ ---- ---- ------- ----- -- ----<br>-------- ------- -- ---------- --- - --- ----- ----- ----<br>---- --- --- ----- --- ---- ---- ------- ----- it's -------<br>--- --- -- ----- -- --- ---- -- --- ---- -- ------ ------<br>--- ----- -- ----,101264.80000000075,101264,100586.521,100593.30000000075,100603.189,101270.179,,37,it's
screen,html.Screen,0_2_0_1_38,2021-11-12T15:25:47.935Z,,,,,,,,,,,,,,,,53,,,,,,,,,,,,,,625.8209999999963,,response,,,99,,,,,,Space,keypress(Space),,,,,---- -- ----- -- ------ - ------- --- ----------<br>------------- ------ ------ ---- ---- ------- ----- -- ----<br>-------- ------- -- ---------- --- - --- ----- ----- ----<br>---- --- --- ----- --- ---- ---- ------- ----- ---- whether<br>--- --- -- ----- -- --- ---- -- --- ---- -- ------ ------<br>--- ----- -- ----,101896.69999999925,101896,101253.509,101265.10000000149,101270.179,101903.774,,38,whether
screen,html.Screen,0_2_0_1_39,2021-11-12T15:25:48.647Z,,,,,,,,,,,,,,,,53,,,,,,,,,,,,,,704.125999998505,,response,,,99,,,,,,Space,keypress(Space),,,,,---- -- ----- -- ------ - ------- --- ----------<br>------------- ------ ------ ---- ---- ------- ----- -- ----<br>-------- ------- -- ---------- --- - --- ----- ----- ----<br>---- --- --- ----- --- ---- ---- ------- ----- ---- -------<br>you --- -- ----- -- --- ---- -- --- ---- -- ------ ------<br>--- ----- -- ----,102608.69999999925,102607.89999999851,101887.103,101897,101903.774,102620.637,,39,you
screen,html.Screen,0_2_0_1_40,2021-11-12T15:25:49.118Z,,,,,,,,,,,,,,,,53,,,,,,,,,,,,,,459.26299999850744,,response,,,99,,,,,,Space,keypress(Space),,,,,---- -- ----- -- ------ - ------- --- ----------<br>------------- ------ ------ ---- ---- ------- ----- -- ----<br>-------- ------- -- ---------- --- - --- ----- ----- ----<br>---- --- --- ----- --- ---- ---- ------- ----- ---- -------<br>--- are -- ----- -- --- ---- -- --- ---- -- ------ ------<br>--- ----- -- ----,103080.60000000149,103079.89999999851,102603.966,102608.89999999851,102620.637,103087.339,,40,are
screen,html.Screen,0_2_0_1_41,2021-11-12T15:25:49.646Z,,,,,,,,,,,,,,,,53,,,,,,,,,,,,,,520.4610000007378,,response,,,99,,,,,,Space,keypress(Space),,,,,---- -- ----- -- ------ - ------- --- ----------<br>------------- ------ ------ ---- ---- ------- ----- -- ----<br>-------- ------- -- ---------- --- - --- ----- ----- ----<br>---- --- --- ----- --- ---- ---- ------- ----- ---- -------<br>--- --- as ----- -- --- ---- -- --- ---- -- ------ ------<br>--- ----- -- ----,103608.60000000149,103607.80000000075,103070.669,103080.89999999851,103087.339,103620.807,,41,as
screen,html.Screen,0_2_0_1_42,2021-11-12T15:25:50.166Z,,,,,,,,,,,,,,,,53,,,,,,,,,,,,,,506.99300000074436,,response,,,99,,,,,,Space,keypress(Space),,,,,---- -- ----- -- ------ - ------- --- ----------<br>------------- ------ ------ ---- ---- ------- ----- -- ----<br>-------- ------- -- ---------- --- - --- ----- ----- ----<br>---- --- --- ----- --- ---- ---- ------- ----- ---- -------<br>--- --- -- close -- --- ---- -- --- ---- -- ------ ------<br>--- ----- -- ----,104128.60000000149,104127.80000000075,103604.137,103608.89999999851,103620.807,104137.619,,42,close
screen,html.Screen,0_2_0_1_43,2021-11-12T15:25:50.782Z,,,,,,,,,,,,,,,,53,,,,,,,,,,,,,,606.0809999992489,,response,,,99,,,,,,Space,keypress(Space),,,,,---- -- ----- -- ------ - ------- --- ----------<br>------------- ------ ------ ---- ---- ------- ----- -- ----<br>-------- ------- -- ---------- --- - --- ----- ----- ----<br>---- --- --- ----- --- ---- ---- ------- ----- ---- -------<br>--- --- -- ----- as --- ---- -- --- ---- -- ------ ------<br>--- ----- -- ----,104744.5,104743.69999999925,104120.949,104128.80000000075,104137.619,104754.416,,43,as
screen,html.Screen,0_2_0_1_44,2021-11-12T15:25:51.366Z,,,,,,,,,,,,,,,,53,,,,,,,,,,,,,,573.2839999992575,,response,,,99,,,,,,Space,keypress(Space),,,,,---- -- ----- -- ------ - ------- --- ----------<br>------------- ------ ------ ---- ---- ------- ----- -- ----<br>-------- ------- -- ---------- --- - --- ----- ----- ----<br>---- --- --- ----- --- ---- ---- ------- ----- ---- -------<br>--- --- -- ----- -- you ---- -- --- ---- -- ------ ------<br>--- ----- -- ----,105328.60000000149,105327.69999999925,104737.746,104744.80000000075,104754.416,105337.901,,44,you
screen,html.Screen,0_2_0_1_45,2021-11-12T15:25:52.078Z,,,,,,,,,,,,,,,,53,,,,,,,,,,,,,,701.6990000014921,,response,,,99,,,,,,Space,keypress(Space),,,,,---- -- ----- -- ------ - ------- --- ----------<br>------------- ------ ------ ---- ---- ------- ----- -- ----<br>-------- ------- -- ---------- --- - --- ----- ----- ----<br>---- --- --- ----- --- ---- ---- ------- ----- ---- -------<br>--- --- -- ----- -- --- want -- --- ---- -- ------ ------<br>--- ----- -- ----,106040.39999999851,106039.60000000149,105321.231,105328.80000000075,105337.901,106054.735,,45,want
screen,html.Screen,0_2_0_1_46,2021-11-12T15:25:52.519Z,,,,,,,,,,,,,,,,53,,,,,,,,,,,,,,425.1649999985093,,response,,,99,,,,,,Space,keypress(Space),,,,,---- -- ----- -- ------ - ------- --- ----------<br>------------- ------ ------ ---- ---- ------- ----- -- ----<br>-------- ------- -- ---------- --- - --- ----- ----- ----<br>---- --- --- ----- --- ---- ---- ------- ----- ---- -------<br>--- --- -- ----- -- --- ---- to --- ---- -- ------ ------<br>--- ----- -- ----,106480.60000000149,106479.89999999851,106038.065,106040.69999999925,106054.735,106488.187,,46,to
screen,html.Screen,0_2_0_1_47,2021-11-12T15:25:54.374Z,,,,,,,,,,,,,,,,53,,,,,,,,,,,,,,1847.2129999985045,,response,,,99,,,,,,Space,keypress(Space),,,,,"---- -- ----- -- ------ - ------- --- ----------<br>------------- ------ ------ ---- ---- ------- ----- -- ----<br>-------- ------- -- ---------- --- - --- ----- ----- ----<br>---- --- --- ----- --- ---- ---- ------- ----- ---- -------<br>--- --- -- ----- -- --- ---- -- be, ---- -- ------ ------<br>--- ----- -- ----",108336.19999999925,108335.39999999851,106471.517,106481,106488.187,108338.568,,47,"be,"
screen,html.Screen,0_2_0_1_48,2021-11-12T15:25:55.070Z,,,,,,,,,,,,,,,,53,,,,,,,,,,,,,,692.8319999985106,,response,,,99,,,,,,Space,keypress(Space),,,,,---- -- ----- -- ------ - ------- --- ----------<br>------------- ------ ------ ---- ---- ------- ----- -- ----<br>-------- ------- -- ---------- --- - --- ----- ----- ----<br>---- --- --- ----- --- ---- ---- ------- ----- ---- -------<br>--- --- -- ----- -- --- ---- -- --- even -- ------ ------<br>--- ----- -- ----,109032.19999999925,109031.39999999851,108321.898,108336.5,108338.568,109038.798,,48,even
screen,html.Screen,0_2_0_1_49,2021-11-12T15:25:55.638Z,,,,,,,,,,,,,,,,53,,,,,,,,,,,,,,560.7020000000048,,response,,,99,,,,,,Space,keypress(Space),,,,,---- -- ----- -- ------ - ------- --- ----------<br>------------- ------ ------ ---- ---- ------- ----- -- ----<br>-------- ------- -- ---------- --- - --- ----- ----- ----<br>---- --- --- ----- --- ---- ---- ------- ----- ---- -------<br>--- --- -- ----- -- --- ---- -- --- ---- if ------ ------<br>--- ----- -- ----,109600.10000000149,109599.5,109022.128,109032.5,109038.798,109605.542,,49,if
screen,html.Screen,0_2_0_1_50,2021-11-12T15:25:56.366Z,,,,,,,,,,,,,,,,53,,,,,,,,,,,,,,721.7580000007438,,response,,,99,,,,,,Space,keypress(Space),,,,,---- -- ----- -- ------ - ------- --- ----------<br>------------- ------ ------ ---- ---- ------- ----- -- ----<br>-------- ------- -- ---------- --- - --- ----- ----- ----<br>---- --- --- ----- --- ---- ---- ------- ----- ---- -------<br>--- --- -- ----- -- --- ---- -- --- ---- -- that's ------<br>--- ----- -- ----,110328.19999999925,110327.30000000075,109588.872,109600.5,109605.542,110339.186,,50,that's
screen,html.Screen,0_2_0_1_51,2021-11-12T15:25:57.142Z,,,,,,,,,,,,,,,,53,,,,,,,,,,,,,,764.1140000007435,,response,,,99,,,,,,Space,keypress(Space),,,,,---- -- ----- -- ------ - ------- --- ----------<br>------------- ------ ------ ---- ---- ------- ----- -- ----<br>-------- ------- -- ---------- --- - --- ----- ----- ----<br>---- --- --- ----- --- ---- ---- ------- ----- ---- -------<br>--- --- -- ----- -- --- ---- -- --- ---- -- ------ really<br>--- ----- -- ----,111104.10000000149,111103.30000000075,110322.515,110328.39999999851,110339.186,111105.826,,51,really
screen,html.Screen,0_2_0_1_52,2021-11-12T15:25:57.854Z,,,,,,,,,,,,,,,,53,,,,,,,,,,,,,,709.373999999254,,response,,,99,,,,,,Space,keypress(Space),,,,,---- -- ----- -- ------ - ------- --- ----------<br>------------- ------ ------ ---- ---- ------- ----- -- ----<br>-------- ------- -- ---------- --- - --- ----- ----- ----<br>---- --- --- ----- --- ---- ---- ------- ----- ---- -------<br>--- --- -- ----- -- --- ---- -- --- ---- -- ------ ------<br>not ----- -- ----,111816.10000000149,111815.19999999925,111089.157,111104.30000000075,111105.826,111822.912,,52,not
screen,html.Screen,0_2_0_1_53,2021-11-12T15:25:58.518Z,,,,,,,,,,,,,,,,53,,,,,,,,,,,,,,656.3880000007484,,response,,,99,,,,,,Space,keypress(Space),,,,,---- -- ----- -- ------ - ------- --- ----------<br>------------- ------ ------ ---- ---- ------- ----- -- ----<br>-------- ------- -- ---------- --- - --- ----- ----- ----<br>---- --- --- ----- --- ---- ---- ------- ----- ---- -------<br>--- --- -- ----- -- --- ---- -- --- ---- -- ------ ------<br>--- close -- ----,112480,112479.30000000075,111806.241,111816.19999999925,111822.912,112489.626,,53,close
screen,html.Screen,0_2_0_1_54,2021-11-12T15:25:59.070Z,,,,,,,,,,,,,,,,53,,,,,,,,,,,,,,541.5739999992511,,response,,,99,,,,,,Space,keypress(Space),,,,,---- -- ----- -- ------ - ------- --- ----------<br>------------- ------ ------ ---- ---- ------- ----- -- ----<br>-------- ------- -- ---------- --- - --- ----- ----- ----<br>---- --- --- ----- --- ---- ---- ------- ----- ---- -------<br>--- --- -- ----- -- --- ---- -- --- ---- -- ------ ------<br>--- ----- at ----,113031.89999999851,113031.19999999925,112472.956,112480.19999999925,112489.626,113039.784,,54,at
screen,html.Screen,0_2_0_1_55,2021-11-12T15:26:00.382Z,,,,,,,,,,,,,,,,53,,,,,,,,,,,,,,1303.3160000014905,,response,,,99,,,,,,Space,keypress(Space),,,,,---- -- ----- -- ------ - ------- --- ----------<br>------------- ------ ------ ---- ---- ------- ----- -- ----<br>-------- ------- -- ---------- --- - --- ----- ----- ----<br>---- --- --- ----- --- ---- ---- ------- ----- ---- -------<br>--- --- -- ----- -- --- ---- -- --- ---- -- ------ ------<br>--- ----- -- all.,114343.89999999851,114343.10000000149,113023.114,113032.10000000149,113039.784,114356.718,,55,all.
Item 99,flow.Loop,0_2_0_1,2021-11-12T15:26:00.386Z,,,,,,,,,,,,,,,,,,,,,,,,,,,,,,39696.20800000148,,completion,,,,A,,,,,,,,,,silence,,114348.5,114343.10000000149,74630.223,74636.80000000075,74646.892,114356.718,,,
Question 1,html.Screen,0_2_0_2,2021-11-12T15:26:05.590Z,,,,,,,,,,,,,,,,,,,,,,,,,,,true,FALSE,,5193.7820000000065,,response,,,99,A,,,,,FALSE,click #choice-2,,,,silence,,119551.89999999851,119550.5,114340.048,114348.80000000075,114356.718,119558.058,,,
Question 2,html.Screen,0_2_0_3,2021-11-12T15:26:11.690Z,,,,,,,,,,,,,,,,,,,,,,,,,,,true,TRUE,,6087.9419999999955,,response,,,99,A,,,,,TRUE,click #choice-1,,,,silence,,125647.30000000075,125646,119541.387,119552.19999999925,119558.058,125659.457,,,
Item 99,flow.Sequence,0_2_0,2021-11-12T15:26:11.691Z,,,,,,,,,,,,,,,,,,,,,,,,,,,,,,61001.343,,completion,,,,,,,,,,,,,,,,125647.80000000075,125646,64611.317,64628.800000000745,64644.657,125659.457,,,
Holding screen,html.Screen,0_2_1_0,2021-11-12T15:26:21.689Z,,,,,,,,,,,,,,,,,,,,,,,,,,,,,,10002.360000000015,,timeout,,,,,,,,,,,,,,,,135646.3999999985,135645.147,125642.788,125648.10000000149,125659.457,135661.817,,,
screen,html.Screen,0_2_1_1_0,2021-11-12T15:26:23.034Z,,,,,,,,,,,,,,,,54,,,,,,,,,,,,,,1328.18299999999,,response,,,100,,,,,,Space,keypress(Space),,,,,At --- ---- --- ------ ----- ------- ---- -- --- ------- --<br>------- ---------- ------ -- ----- -- ----- -- ---- ------<br>--- ----- --- --- ------ -------- ----- --- ------ ----- --<br>----- ----- ---------- --- --- ------ ------ ---- -- ------<br>------- --- ------ ----- --- ---- ------- -- ---- --- --<br>------- ------,136991.1000000015,136990,135645.147,135647,135661.817,136995.689,,0,At
screen,html.Screen,0_2_1_1_1,2021-11-12T15:26:23.441Z,,,,,,,,,,,,,,,,54,,,,,,,,,,,,,,401.81099999998696,,response,,,100,,,,,,Space,keypress(Space),,,,,-- the ---- --- ------ ----- ------- ---- -- --- ------- --<br>------- ---------- ------ -- ----- -- ----- -- ---- ------<br>--- ----- --- --- ------ -------- ----- --- ------ ----- --<br>----- ----- ---------- --- --- ------ ------ ---- -- ------<br>------- --- ------ ----- --- ---- ------- -- ---- --- --<br>------- ------,137398.30000000075,137397.5,136979.018,136991.3999999985,136995.689,137412.325,,1,the
screen,html.Screen,0_2_1_1_2,2021-11-12T15:26:23.969Z,,,,,,,,,,,,,,,,54,,,,,,,,,,,,,,513.1749999999884,,response,,,100,,,,,,Space,keypress(Space),,,,,-- --- time --- ------ ----- ------- ---- -- --- ------- --<br>------- ---------- ------ -- ----- -- ----- -- ---- ------<br>--- ----- --- --- ------ -------- ----- --- ------ ----- --<br>----- ----- ---------- --- --- ------ ------ ---- -- ------<br>------- --- ------ ----- --- ---- ------- -- ---- --- --<br>------- ------,137926.3999999985,137925.5,137395.655,137398.6000000015,137412.325,137929.159,,2,time
screen,html.Screen,0_2_1_1_3,2021-11-12T15:26:24.513Z,,,,,,,,,,,,,,,,54,,,,,,,,,,,,,,540.2409999984957,,response,,,100,,,,,,Space,keypress(Space),,,,,-- --- ---- the ------ ----- ------- ---- -- --- ------- --<br>------- ---------- ------ -- ----- -- ----- -- ---- ------<br>--- ----- --- --- ------ -------- ----- --- ------ ----- --<br>----- ----- ---------- --- --- ------ ------ ---- -- ------<br>------- --- ------ ----- --- ---- ------- -- ---- --- --<br>------- ------,138470.30000000075,138469.3999999985,137912.489,137926.6000000015,137929.159,138479.295,,3,the
screen,html.Screen,0_2_1_1_4,2021-11-12T15:26:25.057Z,,,,,,,,,,,,,,,,54,,,,,,,,,,,,,,534.1049999984971,,response,,,100,,,,,,Space,keypress(Space),,,,,-- --- ---- --- French ----- ------- ---- -- --- ------- --<br>------- ---------- ------ -- ----- -- ----- -- ---- ------<br>--- ----- --- --- ------ -------- ----- --- ------ ----- --<br>----- ----- ---------- --- --- ------ ------ ---- -- ------<br>------- --- ------ ----- --- ---- ------- -- ---- --- --<br>------- ------,139014.30000000075,139013.3999999985,138462.625,138472,138479.295,139029.338,,4,French
screen,html.Screen,0_2_1_1_5,2021-11-12T15:26:25.649Z,,,,,,,,,,,,,,,,54,,,,,,,,,,,,,,575.9620000007562,,response,,,100,,,,,,Space,keypress(Space),,,,,-- --- ---- --- ------ crown ------- ---- -- --- ------- --<br>------- ---------- ------ -- ----- -- ----- -- ---- ------<br>--- ----- --- --- ------ -------- ----- --- ------ ----- --<br>----- ----- ---------- --- --- ------ ------ ---- -- ------<br>------- --- ------ ----- --- ---- ------- -- ---- --- --<br>------- ------,139606.19999999925,139605.30000000075,139012.669,139014.5,139029.338,139612.948,,5,crown
screen,html.Screen,0_2_1_1_6,2021-11-12T15:26:26.145Z,,,,,,,,,,,,,,,,54,,,,,,,,,,,,,,488.251999999251,,response,,,100,,,,,,Space,keypress(Space),,,,,-- --- ---- --- ------ ----- secured ---- -- --- ------- --<br>------- ---------- ------ -- ----- -- ----- -- ---- ------<br>--- ----- --- --- ------ -------- ----- --- ------ ----- --<br>----- ----- ---------- --- --- ------ ------ ---- -- ------<br>------- --- ------ ----- --- ---- ------- -- ---- --- --<br>------- ------,140102.1000000015,140101.19999999925,139596.277,139606.30000000075,139612.948,140113.038,,6,secured
screen,html.Screen,0_2_1_1_7,2021-11-12T15:26:26.769Z,,,,,,,,,,,,,,,,54,,,,,,,,,,,,,,612.2620000007446,,response,,,100,,,,,,Space,keypress(Space),,,,,-- --- ---- --- ------ ----- ------- much -- --- ------- --<br>------- ---------- ------ -- ----- -- ----- -- ---- ------<br>--- ----- --- --- ------ -------- ----- --- ------ ----- --<br>----- ----- ---------- --- --- ------ ------ ---- -- ------<br>------- --- ------ ----- --- ---- ------- -- ---- --- --<br>------- ------,140726,140725.30000000075,140096.368,140102.30000000075,140113.038,140729.84,,7,much
screen,html.Screen,0_2_1_1_8,2021-11-12T15:26:27.257Z,,,,,,,,,,,,,,,,54,,,,,,,,,,,,,,483.35999999925843,,response,,,100,,,,,,Space,keypress(Space),,,,,-- --- ---- --- ------ ----- ------- ---- of --- ------- --<br>------- ---------- ------ -- ----- -- ----- -- ---- ------<br>--- ----- --- --- ------ -------- ----- --- ------ ----- --<br>----- ----- ---------- --- --- ------ ------ ---- -- ------<br>------- --- ------ ----- --- ---- ------- -- ---- --- --<br>------- ------,141214,141213.19999999925,140713.17,140726.30000000075,140729.84,141229.966,,8,of
screen,html.Screen,0_2_1_1_9,2021-11-12T15:26:27.785Z,,,,,,,,,,,,,,,,54,,,,,,,,,,,,,,511.1340000015043,,response,,,100,,,,,,Space,keypress(Space),,,,,-- --- ---- --- ------ ----- ------- ---- -- its ------- --<br>------- ---------- ------ -- ----- -- ----- -- ---- ------<br>--- ----- --- --- ------ -------- ----- --- ------ ----- --<br>----- ----- ---------- --- --- ------ ------ ---- -- ------<br>------- --- ------ ----- --- ---- ------- -- ---- --- --<br>------- ------,141741.8999999985,141741.1000000015,141213.296,141214.30000000075,141229.966,141746.744,,9,its
screen,html.Screen,0_2_1_1_10,2021-11-12T15:26:28.577Z,,,,,,,,,,,,,,,,54,,,,,,,,,,,,,,786.3560000014841,,response,,,100,,,,,,Space,keypress(Space),,,,,-- --- ---- --- ------ ----- ------- ---- -- --- revenue --<br>------- ---------- ------ -- ----- -- ----- -- ---- ------<br>--- ----- --- --- ------ -------- ----- --- ------ ----- --<br>----- ----- ---------- --- --- ------ ------ ---- -- ------<br>------- --- ------ ----- --- ---- ------- -- ---- --- --<br>------- ------,142533.8999999985,142533.1000000015,141730.074,141743,141746.744,142546.922,,10,revenue
screen,html.Screen,0_2_1_1_11,2021-11-12T15:26:29.137Z,,,,,,,,,,,,,,,,54,,,,,,,,,,,,,,546.0780000000086,,response,,,100,,,,,,Space,keypress(Space),,,,,-- --- ---- --- ------ ----- ------- ---- -- --- ------- by<br>------- ---------- ------ -- ----- -- ----- -- ---- ------<br>--- ----- --- --- ------ -------- ----- --- ------ ----- --<br>----- ----- ---------- --- --- ------ ------ ---- -- ------<br>------- --- ------ ----- --- ---- ------- -- ---- --- --<br>------- ------,143093.8999999985,143093,142530.252,142534.1000000015,142546.922,143097.079,,11,by
screen,html.Screen,0_2_1_1_12,2021-11-12T15:26:30.729Z,,,,,,,,,,,,,,,,54,,,,,,,,,,,,,,1587.921000000002,,response,,,100,,,,,,Space,keypress(Space),,,,,-- --- ---- --- ------ ----- ------- ---- -- --- ------- --<br>issuing ---------- ------ -- ----- -- ----- -- ---- ------<br>--- ----- --- --- ------ -------- ----- --- ------ ----- --<br>----- ----- ---------- --- --- ------ ------ ---- -- ------<br>------- --- ------ ----- --- ---- ------- -- ---- --- --<br>------- ------,144685.80000000075,144685,143080.409,143094.1000000015,143097.079,144697.425,,12,issuing
screen,html.Screen,0_2_1_1_13,2021-11-12T15:26:31.513Z,,,,,,,,,,,,,,,,54,,,,,,,,,,,,,,771.4749999985215,,response,,,100,,,,,,Space,keypress(Space),,,,,-- --- ---- --- ------ ----- ------- ---- -- --- ------- --<br>------- government ------ -- ----- -- ----- -- ---- ------<br>--- ----- --- --- ------ -------- ----- --- ------ ----- --<br>----- ----- ---------- --- --- ------ ------ ---- -- ------<br>------- --- ------ ----- --- ---- ------- -- ---- --- --<br>------- ------,145469.69999999925,145468.8999999985,144680.755,144686.1000000015,144697.425,145480.939,,13,government
screen,html.Screen,0_2_1_1_14,2021-11-12T15:26:32.136Z,,,,,,,,,,,,,,,,54,,,,,,,,,,,,,,611.861000000732,,response,,,100,,,,,,Space,keypress(Space),,,,,-- --- ---- --- ------ ----- ------- ---- -- --- ------- --<br>------- ---------- bonds. -- ----- -- ----- -- ---- ------<br>--- ----- --- --- ------ -------- ----- --- ------ ----- --<br>----- ----- ---------- --- --- ------ ------ ---- -- ------<br>------- --- ------ ----- --- ---- ------- -- ---- --- --<br>------- ------,146093.69999999925,146092.80000000075,145464.269,145470,145480.939,146097.809,,14,bonds.
screen,html.Screen,0_2_1_1_15,2021-11-12T15:26:32.664Z,,,,,,,,,,,,,,,,54,,,,,,,,,,,,,,523.0909999985015,,response,,,100,,,,,,Space,keypress(Space),,,,,-- --- ---- --- ------ ----- ------- ---- -- --- ------- --<br>------- ---------- ------ In ----- -- ----- -- ---- ------<br>--- ----- --- --- ------ -------- ----- --- ------ ----- --<br>----- ----- ---------- --- --- ------ ------ ---- -- ------<br>------- --- ------ ----- --- ---- ------- -- ---- --- --<br>------- ------,146621.69999999925,146620.8999999985,146081.139,146094,146097.809,146631.258,,15,In
screen,html.Screen,0_2_1_1_16,2021-11-12T15:26:34.569Z,,,,,,,,,,,,,,,,54,,,,,,,,,,,,,,1893.8420000014885,,response,,,100,,,,,,Space,keypress(Space),,,,,"-- --- ---- --- ------ ----- ------- ---- -- --- ------- --<br>------- ---------- ------ -- 1727, -- ----- -- ---- ------<br>--- ----- --- --- ------ -------- ----- --- ------ ----- --<br>----- ----- ---------- --- --- ------ ------ ---- -- ------<br>------- --- ------ ----- --- ---- ------- -- ---- --- --<br>------- ------",148525.8999999985,148525.1000000015,146614.588,146621.80000000075,146631.258,148531.65,,16,"1727,"
screen,html.Screen,0_2_1_1_17,2021-11-12T15:26:35.344Z,,,,,,,,,,,,,,,,54,,,,,,,,,,,,,,768.9500000014959,,response,,,100,,,,,,Space,keypress(Space),,,,,-- --- ---- --- ------ ----- ------- ---- -- --- ------- --<br>------- ---------- ------ -- ----- in ----- -- ---- ------<br>--- ----- --- --- ------ -------- ----- --- ------ ----- --<br>----- ----- ---------- --- --- ------ ------ ---- -- ------<br>------- --- ------ ----- --- ---- ------- -- ---- --- --<br>------- ------,149301.3999999985,149300.6000000015,148514.98,148526.19999999925,148531.65,149315.171,,17,in
screen,html.Screen,0_2_1_1_18,2021-11-12T15:26:35.904Z,,,,,,,,,,,,,,,,54,,,,,,,,,,,,,,545.429000001488,,response,,,100,,,,,,Space,keypress(Space),,,,,-- --- ---- --- ------ ----- ------- ---- -- --- ------- --<br>------- ---------- ------ -- ----- -- order -- ---- ------<br>--- ----- --- --- ------ -------- ----- --- ------ ----- --<br>----- ----- ---------- --- --- ------ ------ ---- -- ------<br>------- --- ------ ----- --- ---- ------- -- ---- --- --<br>------- ------,149861.3999999985,149860.6000000015,149298.501,149301.69999999925,149315.171,149865.371,,18,order
screen,html.Screen,0_2_1_1_19,2021-11-12T15:26:36.480Z,,,,,,,,,,,,,,,,54,,,,,,,,,,,,,,571.2290000014764,,response,,,100,,,,,,Space,keypress(Space),,,,,-- --- ---- --- ------ ----- ------- ---- -- --- ------- --<br>------- ---------- ------ -- ----- -- ----- to ---- ------<br>--- ----- --- --- ------ -------- ----- --- ------ ----- --<br>----- ----- ---------- --- --- ------ ------ ---- -- ------<br>------- --- ------ ----- --- ---- ------- -- ---- --- --<br>------- ------,150437.30000000075,150436.6000000015,149848.701,149861.69999999925,149865.371,150448.859,,19,to
screen,html.Screen,0_2_1_1_20,2021-11-12T15:26:37.120Z,,,,,,,,,,,,,,,,54,,,,,,,,,,,,,,627.7410000014934,,response,,,100,,,,,,Space,keypress(Space),,,,,-- --- ---- --- ------ ----- ------- ---- -- --- ------- --<br>------- ---------- ------ -- ----- -- ----- -- save ------<br>--- ----- --- --- ------ -------- ----- --- ------ ----- --<br>----- ----- ---------- --- --- ------ ------ ---- -- ------<br>------- --- ------ ----- --- ---- ------- -- ---- --- --<br>------- ------,151077.3999999985,151076.6000000015,150432.189,150437.6000000015,150448.859,151082.356,,20,save
screen,html.Screen,0_2_1_1_21,2021-11-12T15:26:37.744Z,,,,,,,,,,,,,,,,54,,,,,,,,,,,,,,618.1440000000002,,response,,,100,,,,,,Space,keypress(Space),,,,,"-- --- ---- --- ------ ----- ------- ---- -- --- ------- --<br>------- ---------- ------ -- ----- -- ----- -- ---- money,<br>--- ----- --- --- ------ -------- ----- --- ------ ----- --<br>----- ----- ---------- --- --- ------ ------ ---- -- ------<br>------- --- ------ ----- --- ---- ------- -- ---- --- --<br>------- ------",151701.30000000075,151700.5,151065.686,151077.6000000015,151082.356,151715.824,,21,"money,"
screen,html.Screen,0_2_1_1_22,2021-11-12T15:26:38.200Z,,,,,,,,,,,,,,,,54,,,,,,,,,,,,,,440.67600000000675,,response,,,100,,,,,,Space,keypress(Space),,,,,-- --- ---- --- ------ ----- ------- ---- -- --- ------- --<br>------- ---------- ------ -- ----- -- ----- -- ---- ------<br>the ----- --- --- ------ -------- ----- --- ------ ----- --<br>----- ----- ---------- --- --- ------ ------ ---- -- ------<br>------- --- ------ ----- --- ---- ------- -- ---- --- --<br>------- ------,152157.30000000075,152156.5,151699.154,151701.5,151715.824,152165.959,,22,the
screen,html.Screen,0_2_1_1_23,2021-11-12T15:26:38.824Z,,,,,,,,,,,,,,,,54,,,,,,,,,,,,,,614.5409999999974,,response,,,100,,,,,,Space,keypress(Space),,,,,-- --- ---- --- ------ ----- ------- ---- -- --- ------- --<br>------- ---------- ------ -- ----- -- ----- -- ---- ------<br>--- state --- --- ------ -------- ----- --- ------ ----- --<br>----- ----- ---------- --- --- ------ ------ ---- -- ------<br>------- --- ------ ----- --- ---- ------- -- ---- --- --<br>------- ------,152781.19999999925,152780.5,152149.289,152157.5,152165.959,152782.744,,23,state
screen,html.Screen,0_2_1_1_24,2021-11-12T15:26:39.448Z,,,,,,,,,,,,,,,,54,,,,,,,,,,,,,,621.6559999985038,,response,,,100,,,,,,Space,keypress(Space),,,,,-- --- ---- --- ------ ----- ------- ---- -- --- ------- --<br>------- ---------- ------ -- ----- -- ----- -- ---- ------<br>--- ----- cut --- ------ -------- ----- --- ------ ----- --<br>----- ----- ---------- --- --- ------ ------ ---- -- ------<br>------- --- ------ ----- --- ---- ------- -- ---- --- --<br>------- ------,153405.1000000015,153404.3999999985,152766.074,152781.5,152782.744,153416.246,,24,cut
screen,html.Screen,0_2_1_1_25,2021-11-12T15:26:39.968Z,,,,,,,,,,,,,,,,54,,,,,,,,,,,,,,508.0540000007313,,response,,,100,,,,,,Space,keypress(Space),,,,,-- --- ---- --- ------ ----- ------- ---- -- --- ------- --<br>------- ---------- ------ -- ----- -- ----- -- ---- ------<br>--- ----- --- the ------ -------- ----- --- ------ ----- --<br>----- ----- ---------- --- --- ------ ------ ---- -- ------<br>------- --- ------ ----- --- ---- ------- -- ---- --- --<br>------- ------,153925.19999999925,153924.30000000075,153399.576,153405.3999999985,153416.246,153933.046,,25,the
screen,html.Screen,0_2_1_1_26,2021-11-12T15:26:40.656Z,,,,,,,,,,,,,,,,54,,,,,,,,,,,,,,679.254000000743,,response,,,100,,,,,,Space,keypress(Space),,,,,-- --- ---- --- ------ ----- ------- ---- -- --- ------- --<br>------- ---------- ------ -- ----- -- ----- -- ---- ------<br>--- ----- --- --- bonds' -------- ----- --- ------ ----- --<br>----- ----- ---------- --- --- ------ ------ ---- -- ------<br>------- --- ------ ----- --- ---- ------- -- ---- --- --<br>------- ------,154613.1000000015,154612.30000000075,153916.376,153925.3999999985,153933.046,154616.525,,26,bonds'
screen,html.Screen,0_2_1_1_27,2021-11-12T15:26:41.536Z,,,,,,,,,,,,,,,,54,,,,,,,,,,,,,,875.6749999992608,,response,,,100,,,,,,Space,keypress(Space),,,,,-- --- ---- --- ------ ----- ------- ---- -- --- ------- --<br>------- ---------- ------ -- ----- -- ----- -- ---- ------<br>--- ----- --- --- ------ interest ----- --- ------ ----- --<br>----- ----- ---------- --- --- ------ ------ ---- -- ------<br>------- --- ------ ----- --- ---- ------- -- ---- --- --<br>------- ------,155493,155492.19999999925,154599.855,154613.30000000075,154616.525,155499.919,,27,interest
screen,html.Screen,0_2_1_1_28,2021-11-12T15:26:42.360Z,,,,,,,,,,,,,,,,54,,,,,,,,,,,,,,816.2809999992605,,response,,,100,,,,,,Space,keypress(Space),,,,,-- --- ---- --- ------ ----- ------- ---- -- --- ------- --<br>------- ---------- ------ -- ----- -- ----- -- ---- ------<br>--- ----- --- --- ------ -------- rate. --- ------ ----- --<br>----- ----- ---------- --- --- ------ ------ ---- -- ------<br>------- --- ------ ----- --- ---- ------- -- ---- --- --<br>------- ------,156317,156316.19999999925,155483.25,155493.19999999925,155499.919,156333.727,,28,rate.
screen,html.Screen,0_2_1_1_29,2021-11-12T15:26:42.976Z,,,,,,,,,,,,,,,,54,,,,,,,,,,,,,,598.4729999992414,,response,,,100,,,,,,Space,keypress(Space),,,,,-- --- ---- --- ------ ----- ------- ---- -- --- ------- --<br>------- ---------- ------ -- ----- -- ----- -- ---- ------<br>--- ----- --- --- ------ -------- ----- The ------ ----- --<br>----- ----- ---------- --- --- ------ ------ ---- -- ------<br>------- --- ------ ----- --- ---- ------- -- ---- --- --<br>------- ------,156933,156932.19999999925,156317.056,156317.19999999925,156333.727,156950.378,,29,The
screen,html.Screen,0_2_1_1_30,2021-11-12T15:26:43.624Z,,,,,,,,,,,,,,,,54,,,,,,,,,,,,,,629.7220000014931,,response,,,100,,,,,,Space,keypress(Space),,,,,-- --- ---- --- ------ ----- ------- ---- -- --- ------- --<br>------- ---------- ------ -- ----- -- ----- -- ---- ------<br>--- ----- --- --- ------ -------- ----- --- market ----- --<br>----- ----- ---------- --- --- ------ ------ ---- -- ------<br>------- --- ------ ----- --- ---- ------- -- ---- --- --<br>------- ------,157580.8999999985,157580.1000000015,156933.708,156933.19999999925,156950.378,157583.874,,30,market
screen,html.Screen,0_2_1_1_31,2021-11-12T15:26:44.176Z,,,,,,,,,,,,,,,,54,,,,,,,,,,,,,,548.1259999999893,,response,,,100,,,,,,Space,keypress(Space),,,,,-- --- ---- --- ------ ----- ------- ---- -- --- ------- --<br>------- ---------- ------ -- ----- -- ----- -- ---- ------<br>--- ----- --- --- ------ -------- ----- --- ------ value --<br>----- ----- ---------- --- --- ------ ------ ---- -- ------<br>------- --- ------ ----- --- ---- ------- -- ---- --- --<br>------- ------,158132.80000000075,158132,157567.204,157581.1000000015,157583.874,158134.198,,31,value
screen,html.Screen,0_2_1_1_32,2021-11-12T15:26:44.808Z,,,,,,,,,,,,,,,,54,,,,,,,,,,,,,,630.2019999985059,,response,,,100,,,,,,Space,keypress(Space),,,,,-- --- ---- --- ------ ----- ------- ---- -- --- ------- --<br>------- ---------- ------ -- ----- -- ----- -- ---- ------<br>--- ----- --- --- ------ -------- ----- --- ------ ----- of<br>----- ----- ---------- --- --- ------ ------ ---- -- ------<br>------- --- ------ ----- --- ---- ------- -- ---- --- --<br>------- ------,158765.1000000015,158764.3999999985,158117.526,158133.1000000015,158134.198,158767.423,,32,of
screen,html.Screen,0_2_1_1_33,2021-11-12T15:26:45.503Z,,,,,,,,,,,,,,,,54,,,,,,,,,,,,,,692.4769999985001,,response,,,100,,,,,,Space,keypress(Space),,,,,-- --- ---- --- ------ ----- ------- ---- -- --- ------- --<br>------- ---------- ------ -- ----- -- ----- -- ---- ------<br>--- ----- --- --- ------ -------- ----- --- ------ ----- --<br>these ----- ---------- --- --- ------ ------ ---- -- ------<br>------- --- ------ ----- --- ---- ------- -- ---- --- --<br>------- ------,159460.69999999925,159459.8999999985,158750.754,158765.5,158767.423,159467.797,,33,these
screen,html.Screen,0_2_1_1_34,2021-11-12T15:26:46.231Z,,,,,,,,,,,,,,,,54,,,,,,,,,,,,,,720.0030000007537,,response,,,100,,,,,,Space,keypress(Space),,,,,-- --- ---- --- ------ ----- ------- ---- -- --- ------- --<br>------- ---------- ------ -- ----- -- ----- -- ---- ------<br>--- ----- --- --- ------ -------- ----- --- ------ ----- --<br>----- bonds ---------- --- --- ------ ------ ---- -- ------<br>------- --- ------ ----- --- ---- ------- -- ---- --- --<br>------- ------,160188.6000000015,160187.80000000075,159451.126,159460.8999999985,159467.797,160201.225,,34,bonds
screen,html.Screen,0_2_1_1_35,2021-11-12T15:26:47.439Z,,,,,,,,,,,,,,,,54,,,,,,,,,,,,,,1194.4749999992491,,response,,,100,,,,,,Space,keypress(Space),,,,,"-- --- ---- --- ------ ----- ------- ---- -- --- ------- --<br>------- ---------- ------ -- ----- -- ----- -- ---- ------<br>--- ----- --- --- ------ -------- ----- --- ------ ----- --<br>----- ----- plummeted, --- --- ------ ------ ---- -- ------<br>------- --- ------ ----- --- ---- ------- -- ---- --- --<br>------- ------",161396.5,161395.69999999925,160184.555,160188.8999999985,160201.225,161401.518,,35,"plummeted,"
screen,html.Screen,0_2_1_1_36,2021-11-12T15:26:47.999Z,,,,,,,,,,,,,,,,54,,,,,,,,,,,,,,554.181999999244,,response,,,100,,,,,,Space,keypress(Space),,,,,-- --- ---- --- ------ ----- ------- ---- -- --- ------- --<br>------- ---------- ------ -- ----- -- ----- -- ---- ------<br>--- ----- --- --- ------ -------- ----- --- ------ ----- --<br>----- ----- ---------- and --- ------ ------ ---- -- ------<br>------- --- ------ ----- --- ---- ------- -- ---- --- --<br>------- ------,161956.5,161955.69999999925,161384.848,161396.80000000075,161401.518,161968.332,,36,and
screen,html.Screen,0_2_1_1_37,2021-11-12T15:26:48.599Z,,,,,,,,,,,,,,,,54,,,,,,,,,,,,,,587.4680000007502,,response,,,100,,,,,,Space,keypress(Space),,,,,-- --- ---- --- ------ ----- ------- ---- -- --- ------- --<br>------- ---------- ------ -- ----- -- ----- -- ---- ------<br>--- ----- --- --- ------ -------- ----- --- ------ ----- --<br>----- ----- ---------- --- the ------ ------ ---- -- ------<br>------- --- ------ ----- --- ---- ------- -- ---- --- --<br>------- ------,162556.5,162555.80000000075,161951.662,161956.69999999925,161968.332,162568.479,,37,the
screen,html.Screen,0_2_1_1_38,2021-11-12T15:26:49.287Z,,,,,,,,,,,,,,,,54,,,,,,,,,,,,,,675.2209999992629,,response,,,100,,,,,,Space,keypress(Space),,,,,-- --- ---- --- ------ ----- ------- ---- -- --- ------- --<br>------- ---------- ------ -- ----- -- ----- -- ---- ------<br>--- ----- --- --- ------ -------- ----- --- ------ ----- --<br>----- ----- ---------- --- --- market ------ ---- -- ------<br>------- --- ------ ----- --- ---- ------- -- ---- --- --<br>------- ------,163244.5,163243.69999999925,162551.809,162556.80000000075,162568.479,163251.976,,38,market
screen,html.Screen,0_2_1_1_39,2021-11-12T15:26:50.055Z,,,,,,,,,,,,,,,,54,,,,,,,,,,,,,,759.7239999992598,,response,,,100,,,,,,Space,keypress(Space),,,,,-- --- ---- --- ------ ----- ------- ---- -- --- ------- --<br>------- ---------- ------ -- ----- -- ----- -- ---- ------<br>--- ----- --- --- ------ -------- ----- --- ------ ----- --<br>----- ----- ---------- --- --- ------ became ---- -- ------<br>------- --- ------ ----- --- ---- ------- -- ---- --- --<br>------- ------,164012.5,164011.69999999925,163235.306,163244.69999999925,163251.976,164018.797,,39,became
screen,html.Screen,0_2_1_1_40,2021-11-12T15:26:51.327Z,,,,,,,,,,,,,,,,54,,,,,,,,,,,,,,1264.7030000000086,,response,,,100,,,,,,Space,keypress(Space),,,,,-- --- ---- --- ------ ----- ------- ---- -- --- ------- --<br>------- ---------- ------ -- ----- -- ----- -- ---- ------<br>--- ----- --- --- ------ -------- ----- --- ------ ----- --<br>----- ----- ---------- --- --- ------ ------ wary -- ------<br>------- --- ------ ----- --- ---- ------- -- ---- --- --<br>------- ------,165284.3999999985,165283.5,164002.127,164012.69999999925,164018.797,165285.75,,40,wary
screen,html.Screen,0_2_1_1_41,2021-11-12T15:26:51.887Z,,,,,,,,,,,,,,,,54,,,,,,,,,,,,,,557.75,,response,,,100,,,,,,Space,keypress(Space),,,,,-- --- ---- --- ------ ----- ------- ---- -- --- ------- --<br>------- ---------- ------ -- ----- -- ----- -- ---- ------<br>--- ----- --- --- ------ -------- ----- --- ------ ----- --<br>----- ----- ---------- --- --- ------ ------ ---- of ------<br>------- --- ------ ----- --- ---- ------- -- ---- --- --<br>------- ------,165844.30000000075,165843.5,165269.08,165284.6000000015,165285.75,165852.462,,41,of
screen,html.Screen,0_2_1_1_42,2021-11-12T15:26:52.511Z,,,,,,,,,,,,,,,,54,,,,,,,,,,,,,,614.9379999985103,,response,,,100,,,,,,Space,keypress(Space),,,,,-- --- ---- --- ------ ----- ------- ---- -- --- ------- --<br>------- ---------- ------ -- ----- -- ----- -- ---- ------<br>--- ----- --- --- ------ -------- ----- --- ------ ----- --<br>----- ----- ---------- --- --- ------ ------ ---- -- French<br>------- --- ------ ----- --- ---- ------- -- ---- --- --<br>------- ------,166468.19999999925,166467.3999999985,165835.793,165844.6000000015,165852.462,166469.371,,42,French
screen,html.Screen,0_2_1_1_43,2021-11-12T15:26:53.431Z,,,,,,,,,,,,,,,,54,,,,,,,,,,,,,,918.0289999984961,,response,,,100,,,,,,Space,keypress(Space),,,,,-- --- ---- --- ------ ----- ------- ---- -- --- ------- --<br>------- ---------- ------ -- ----- -- ----- -- ---- ------<br>--- ----- --- --- ------ -------- ----- --- ------ ----- --<br>----- ----- ---------- --- --- ------ ------ ---- -- ------<br>credit. --- ------ ----- --- ---- ------- -- ---- --- --<br>------- ------,167388.19999999925,167387.3999999985,166452.701,166468.5,166469.371,167403.041,,43,credit.
screen,html.Screen,0_2_1_1_44,2021-11-12T15:26:53.815Z,,,,,,,,,,,,,,,,54,,,,,,,,,,,,,,368.2590000007476,,response,,,100,,,,,,Space,keypress(Space),,,,,-- --- ---- --- ------ ----- ------- ---- -- --- ------- --<br>------- ---------- ------ -- ----- -- ----- -- ---- ------<br>--- ----- --- --- ------ -------- ----- --- ------ ----- --<br>----- ----- ---------- --- --- ------ ------ ---- -- ------<br>------- The ------ ----- --- ---- ------- -- ---- --- --<br>------- ------,167772.19999999925,167771.30000000075,167386.37,167388.5,167403.041,167786.418,,44,The
screen,html.Screen,0_2_1_1_45,2021-11-12T15:26:54.335Z,,,,,,,,,,,,,,,,54,,,,,,,,,,,,,,504.88200000073994,,response,,,100,,,,,,Space,keypress(Space),,,,,-- --- ---- --- ------ ----- ------- ---- -- --- ------- --<br>------- ---------- ------ -- ----- -- ----- -- ---- ------<br>--- ----- --- --- ------ -------- ----- --- ------ ----- --<br>----- ----- ---------- --- --- ------ ------ ---- -- ------<br>------- --- French ----- --- ---- ------- -- ---- --- --<br>------- ------,168292.1000000015,168291.30000000075,167769.748,167772.3999999985,167786.418,168303.204,,45,French
screen,html.Screen,0_2_1_1_46,2021-11-12T15:26:54.895Z,,,,,,,,,,,,,,,,54,,,,,,,,,,,,,,548.495999999257,,response,,,100,,,,,,Space,keypress(Space),,,,,-- --- ---- --- ------ ----- ------- ---- -- --- ------- --<br>------- ---------- ------ -- ----- -- ----- -- ---- ------<br>--- ----- --- --- ------ -------- ----- --- ------ ----- --<br>----- ----- ---------- --- --- ------ ------ ---- -- ------<br>------- --- ------ state --- ---- ------- -- ---- --- --<br>------- ------,168852.5,168851.69999999925,168286.534,168292.3999999985,168303.204,168870.006,,46,state
screen,html.Screen,0_2_1_1_47,2021-11-12T15:26:55.543Z,,,,,,,,,,,,,,,,54,,,,,,,,,,,,,,629.494000000006,,response,,,100,,,,,,Space,keypress(Space),,,,,-- --- ---- --- ------ ----- ------- ---- -- --- ------- --<br>------- ---------- ------ -- ----- -- ----- -- ---- ------<br>--- ----- --- --- ------ -------- ----- --- ------ ----- --<br>----- ----- ---------- --- --- ------ ------ ---- -- ------<br>------- --- ------ ----- was ---- ------- -- ---- --- --<br>------- ------,169500.19999999925,169499.5,168853.336,168852.69999999925,168870.006,169503.468,,47,was
screen,html.Screen,0_2_1_1_48,2021-11-12T15:26:55.943Z,,,,,,,,,,,,,,,,54,,,,,,,,,,,,,,395.8320000007516,,response,,,100,,,,,,Space,keypress(Space),,,,,-- --- ---- --- ------ ----- ------- ---- -- --- ------- --<br>------- ---------- ------ -- ----- -- ----- -- ---- ------<br>--- ----- --- --- ------ -------- ----- --- ------ ----- --<br>----- ----- ---------- --- --- ------ ------ ---- -- ------<br>------- --- ------ ----- --- left ------- -- ---- --- --<br>------- ------,169900.1000000015,169899.30000000075,169486.798,169500.3999999985,169503.468,169903.596,,48,left
screen,html.Screen,0_2_1_1_49,2021-11-12T15:26:56.487Z,,,,,,,,,,,,,,,,54,,,,,,,,,,,,,,539.6039999992645,,response,,,100,,,,,,Space,keypress(Space),,,,,-- --- ---- --- ------ ----- ------- ---- -- --- ------- --<br>------- ---------- ------ -- ----- -- ----- -- ---- ------<br>--- ----- --- --- ------ -------- ----- --- ------ ----- --<br>----- ----- ---------- --- --- ------ ------ ---- -- ------<br>------- --- ------ ----- --- ---- without -- ---- --- --<br>------- ------,170444,170443.19999999925,169886.926,169900.30000000075,169903.596,170453.74,,49,without
screen,html.Screen,0_2_1_1_50,2021-11-12T15:26:56.919Z,,,,,,,,,,,,,,,,54,,,,,,,,,,,,,,421.45999999926426,,response,,,100,,,,,,Space,keypress(Space),,,,,-- --- ---- --- ------ ----- ------- ---- -- --- ------- --<br>------- ---------- ------ -- ----- -- ----- -- ---- ------<br>--- ----- --- --- ------ -------- ----- --- ------ ----- --<br>----- ----- ---------- --- --- ------ ------ ---- -- ------<br>------- --- ------ ----- --- ---- ------- an ---- --- --<br>------- ------,170875.8999999985,170875.19999999925,170437.07,170444.19999999925,170453.74,170887.161,,50,an
screen,html.Screen,0_2_1_1_51,2021-11-12T15:26:57.575Z,,,,,,,,,,,,,,,,54,,,,,,,,,,,,,,643.9390000014973,,response,,,100,,,,,,Space,keypress(Space),,,,,-- --- ---- --- ------ ----- ------- ---- -- --- ------- --<br>------- ---------- ------ -- ----- -- ----- -- ---- ------<br>--- ----- --- --- ------ -------- ----- --- ------ ----- --<br>----- ----- ---------- --- --- ------ ------ ---- -- ------<br>------- --- ------ ----- --- ---- ------- -- easy --- --<br>------- ------,171531.8999999985,171531.1000000015,170870.491,170876.19999999925,170887.161,171537.307,,51,easy
screen,html.Screen,0_2_1_1_52,2021-11-12T15:26:58.231Z,,,,,,,,,,,,,,,,54,,,,,,,,,,,,,,649.6929999999993,,response,,,100,,,,,,Space,keypress(Space),,,,,-- --- ---- --- ------ ----- ------- ---- -- --- ------- --<br>------- ---------- ------ -- ----- -- ----- -- ---- ------<br>--- ----- --- --- ------ -------- ----- --- ------ ----- --<br>----- ----- ---------- --- --- ------ ------ ---- -- ------<br>------- --- ------ ----- --- ---- ------- -- ---- way --<br>------- ------,172187.80000000075,172187,171520.637,171532.1000000015,171537.307,172204.22,,52,way
screen,html.Screen,0_2_1_1_53,2021-11-12T15:26:58.735Z,,,,,,,,,,,,,,,,54,,,,,,,,,,,,,,486.77999999999884,,response,,,100,,,,,,Space,keypress(Space),,,,,-- --- ---- --- ------ ----- ------- ---- -- --- ------- --<br>------- ---------- ------ -- ----- -- ----- -- ---- ------<br>--- ----- --- --- ------ -------- ----- --- ------ ----- --<br>----- ----- ---------- --- --- ------ ------ ---- -- ------<br>------- --- ------ ----- --- ---- ------- -- ---- --- of<br>------- ------,172691.80000000075,172691,172187.549,172188.1000000015,172204.22,172704.268,,53,of
screen,html.Screen,0_2_1_1_54,2021-11-12T15:26:59.175Z,,,,,,,,,,,,,,,,54,,,,,,,,,,,,,,426.73199999998906,,response,,,100,,,,,,Space,keypress(Space),,,,,-- --- ---- --- ------ ----- ------- ---- -- --- ------- --<br>------- ---------- ------ -- ----- -- ----- -- ---- ------<br>--- ----- --- --- ------ -------- ----- --- ------ ----- --<br>----- ----- ---------- --- --- ------ ------ ---- -- ------<br>------- --- ------ ----- --- ---- ------- -- ---- --- --<br>raising ------,173131.80000000075,173131,172687.598,172692.1000000015,172704.268,173137.721,,54,raising
screen,html.Screen,0_2_1_1_55,2021-11-12T15:27:00.070Z,,,,,,,,,,,,,,,,54,,,,,,,,,,,,,,889.1789999985194,,response,,,100,,,,,,Space,keypress(Space),,,,,-- --- ---- --- ------ ----- ------- ---- -- --- ------- --<br>------- ---------- ------ -- ----- -- ----- -- ---- ------<br>--- ----- --- --- ------ -------- ----- --- ------ ----- --<br>----- ----- ---------- --- --- ------ ------ ---- -- ------<br>------- --- ------ ----- --- ---- ------- -- ---- --- --<br>------- money.,174027.69999999925,174026.8999999985,173121.051,173132,173137.721,174037.936,,55,money.
Item 100,flow.Loop,0_2_1_1,2021-11-12T15:27:00.071Z,,,,,,,,,,,,,,,,,,,,,,,,,,,,,,38365.0829999985,,completion,,,,A,,,,,,,,,,silence,,174028.1000000015,174026.8999999985,135645.147,135646.80000000075,135661.817,174037.936,,,
Question 1,html.Screen,0_2_1_2,2021-11-12T15:27:04.670Z,,,,,,,,,,,,,,,,,,,,,,,,,,,true,TRUE,,4588.364000000758,,response,,,100,A,,,,,TRUE,click #choice-1,,,,silence,,178627.5,178626.30000000075,174021.266,174028.3999999985,174037.936,178639.046,,,
Question 2,html.Screen,0_2_1_3,2021-11-12T15:27:07.058Z,,,,,,,,,,,,,,,,,,,,,,,,,,,true,FALSE,,2371.153999999253,,response,,,100,A,,,,,FALSE,click #choice-2,,,,silence,,181011.3999999985,181010.19999999925,178622.376,178627.69999999925,178639.046,181023.005,,,
Item 100,flow.Sequence,0_2_1,2021-11-12T15:27:07.058Z,,,,,,,,,,,,,,,,,,,,,,,,,,,,,,55350.74299999926,,completion,,,,,,,,,,,,,,,,181011.69999999925,181010.19999999925,125642.788,125648,125659.457,181023.005,,,
End of Practice,html.Page,0_2_2,2021-11-12T15:27:11.779Z,,,,,,,,,,,,,,,,,,,,,,,,,,,,,,4708.5950000014855,,form submission,,,,,,,,,,,,,,,,185732.1000000015,185731.6000000015,181006.334,181011.8999999985,181023.005,185740.683,,,
Practice,flow.Sequence,0_2,2021-11-12T15:27:11.779Z,,,,,,,,,,,,,,,,,,,,,,,,,,,,,,121086.94300000148,,completion,,,,,,,,,,,,,,,,185732.69999999925,185731.6000000015,64611.317,64628.699999999255,64644.657,185740.683,,,
Trap_instruction,html.Page,0_3_0,2021-11-12T15:27:17.634Z,,,,,,,,,,,,,,,,,,,,,,,,,,,,,,5846.21699999852,,form submission,,,,,,,,,,,,,,,,191587.6000000015,191586.8999999985,185724.013,185733,185740.683,191625.515,,,
trap_trial,html.Screen,0_3_1,2021-11-12T15:27:21.457Z,,,,,,,,,,,,,,,,,,,,,,,,,,,true,1,,3783.585000001476,,response,,,,,,,,,1,click #choice-1,,,,,,195410.3999999985,195409.1000000015,191575.502,191587.8999999985,191625.515,195426.503,,,
end of trap trial,html.Page,0_3_2,2021-11-12T15:27:25.073Z,,,,,,,,,,,,,,,,,,,,,,,,,,,,,,3599.797000000748,,form submission,,,,,,,,,,,,,,,,199026.80000000075,199026.30000000075,195409.832,195410.6000000015,195426.503,199027.156,,,
Trap 1,flow.Sequence,0_3,2021-11-12T15:27:25.074Z,,,,,,,,,,,,,,,,,,,,,,,,,,,,,,13285.617000000755,,completion,,,,,,,,,,,,,,,,199027.30000000075,199026.30000000075,185724.013,185733,185740.683,199027.156,,,
Standby,html.Page,0_4_0,2021-11-12T15:27:33.060Z,,,,,,,,,,,,,,,,,,,,,,,,,,,,,,8001.814000000013,,timeout,,,,,,,,,,,,,,,,207013.3999999985,207012.3,199010.486,199027.6000000015,199027.156,207028.97,,,
Holding screen,html.Screen,0_4_1_0_0,2021-11-12T15:27:40.062Z,,,,,,,,,,,,,,,,,,,,,,,,,,,,,,7001.959000000003,,timeout,,,,,,,,,,,,,,,,214015.30000000075,214014.259,207012.3,207013.80000000075,207028.97,214030.929,,,
screen,html.Screen,0_4_1_0_1_0,2021-11-12T15:27:41.552Z,,,,,,,,,,,,,,,,48,,,,,,,,,,,,,,1473.4709999985062,,response,,,10,A,,,,,Space,keypress(Space),,,,silence,As -- --- ------ ------- --------- ----------- --------<br>--------- -------- --- ------- -- ------- ---- -- ------<br>-- --- -------- -------- ---------- ---- ---- ---- ------<br>-- --------- -- ---- -- --- -- --- ------- -- - -----<br>---------- -- -- -- ---- ----- -- ------ -- --- ------<br>-------,215505.5,215504.3999999985,214014.259,214015.6000000015,214030.929,215514.641,,0,As
screen,html.Screen,0_4_1_0_1_1,2021-11-12T15:27:41.975Z,,,,,,,,,,,,,,,,48,,,,,,,,,,,,,,413.35899999999674,,response,,,10,A,,,,,Space,keypress(Space),,,,silence,-- in --- ------ ------- --------- ----------- --------<br>--------- -------- --- ------- -- ------- ---- -- ------<br>-- --- -------- -------- ---------- ---- ---- ---- ------<br>-- --------- -- ---- -- --- -- --- ------- -- - -----<br>---------- -- -- -- ---- ----- -- ------ -- --- ------<br>-------,215929,215928,215497.971,215505.80000000075,215514.641,215931.21,,1,in
screen,html.Screen,0_4_1_0_1_2,2021-11-12T15:27:42.519Z,,,,,,,,,,,,,,,,48,,,,,,,,,,,,,,540.7900000000081,,response,,,10,A,,,,,Space,keypress(Space),,,,silence,-- -- the ------ ------- --------- ----------- --------<br>--------- -------- --- ------- -- ------- ---- -- ------<br>-- --- -------- -------- ---------- ---- ---- ---- ------<br>-- --------- -- ---- -- --- -- --- ------- -- - -----<br>---------- -- -- -- ---- ----- -- ------ -- --- ------<br>-------,216472.80000000075,216472,215914.541,215929.19999999925,215931.21,216481.637,,2,the
screen,html.Screen,0_4_1_0_1_3,2021-11-12T15:27:42.991Z,,,,,,,,,,,,,,,,48,,,,,,,,,,,,,,462.3630000000121,,response,,,10,A,,,,,Space,keypress(Space),,,,silence,-- -- --- United ------- --------- ----------- --------<br>--------- -------- --- ------- -- ------- ---- -- ------<br>-- --- -------- -------- ---------- ---- ---- ---- ------<br>-- --------- -- ---- -- --- -- --- ------- -- - -----<br>---------- -- -- -- ---- ----- -- ------ -- --- ------<br>-------,216944.80000000075,216944,216464.966,216473,216481.637,216948.336,,3,United
screen,html.Screen,0_4_1_0_1_4,2021-11-12T15:27:43.431Z,,,,,,,,,,,,,,,,48,,,,,,,,,,,,,,435.56399999849964,,response,,,10,A,,,,,Space,keypress(Space),,,,silence,"-- -- --- ------ States, --------- ----------- --------<br>--------- -------- --- ------- -- ------- ---- -- ------<br>-- --- -------- -------- ---------- ---- ---- ---- ------<br>-- --------- -- ---- -- --- -- --- ------- -- - -----<br>---------- -- -- -- ---- ----- -- ------ -- --- ------<br>-------",217384.69999999925,217383.8999999985,216931.666,216945,216948.336,217398.484,,4,"States,"
screen,html.Screen,0_4_1_0_1_5,2021-11-12T15:27:44.095Z,,,,,,,,,,,,,,,,48,,,,,,,,,,,,,,649.4159999985131,,response,,,10,A,,,,,Space,keypress(Space),,,,silence,-- -- --- ------ ------- Colombian ----------- --------<br>--------- -------- --- ------- -- ------- ---- -- ------<br>-- --- -------- -------- ---------- ---- ---- ---- ------<br>-- --------- -- ---- -- --- -- --- ------- -- - -----<br>---------- -- -- -- ---- ----- -- ------ -- --- ------<br>-------,218048.69999999925,218047.8999999985,217381.814,217384.8999999985,217398.484,218065.28,,5,Colombian
screen,html.Screen,0_4_1_0_1_6,2021-11-12T15:27:44.799Z,,,,,,,,,,,,,,,,48,,,,,,,,,,,,,,686.619999998511,,response,,,10,A,,,,,Space,keypress(Space),,,,silence,-- -- --- ------ ------- --------- legislation --------<br>--------- -------- --- ------- -- ------- ---- -- ------<br>-- --- -------- -------- ---------- ---- ---- ---- ------<br>-- --------- -- ---- -- --- -- --- ------- -- - -----<br>---------- -- -- -- ---- ----- -- ------ -- --- ------<br>-------,218752.69999999925,218751.8999999985,218048.61,218048.8999999985,218065.28,218765.476,,6,legislation
screen,html.Screen,0_4_1_0_1_7,2021-11-12T15:27:45.519Z,,,,,,,,,,,,,,,,48,,,,,,,,,,,,,,706.32400000075,,response,,,10,A,,,,,Space,keypress(Space),,,,silence,-- -- --- ------ ------- --------- ----------- requires<br>--------- -------- --- ------- -- ------- ---- -- ------<br>-- --- -------- -------- ---------- ---- ---- ---- ------<br>-- --------- -- ---- -- --- -- --- ------- -- - -----<br>---------- -- -- -- ---- ----- -- ------ -- --- ------<br>-------,219472.6000000015,219471.80000000075,218748.806,218752.8999999985,218765.476,219482.288,,7,requires
screen,html.Screen,0_4_1_0_1_8,2021-11-12T15:27:46.223Z,,,,,,,,,,,,,,,,48,,,,,,,,,,,,,,693.5120000007446,,response,,,10,A,,,,,Space,keypress(Space),,,,silence,-- -- --- ------ ------- --------- ----------- --------<br>travelers -------- --- ------- -- ------- ---- -- ------<br>-- --- -------- -------- ---------- ---- ---- ---- ------<br>-- --------- -- ---- -- --- -- --- ------- -- - -----<br>---------- -- -- -- ---- ----- -- ------ -- --- ------<br>-------,220176.6000000015,220175.80000000075,219465.618,219472.80000000075,219482.288,220182.454,,8,travelers
screen,html.Screen,0_4_1_0_1_9,2021-11-12T15:27:46.751Z,,,,,,,,,,,,,,,,48,,,,,,,,,,,,,,521.1460000014922,,response,,,10,A,,,,,Space,keypress(Space),,,,silence,-- -- --- ------ ------- --------- ----------- --------<br>--------- entering --- ------- -- ------- ---- -- ------<br>-- --- -------- -------- ---------- ---- ---- ---- ------<br>-- --------- -- ---- -- --- -- --- ------- -- - -----<br>---------- -- -- -- ---- ----- -- ------ -- --- ------<br>-------,220704.5,220703.6000000015,220165.784,220177,220182.454,220715.937,,9,entering
screen,html.Screen,0_4_1_0_1_10,2021-11-12T15:27:47.271Z,,,,,,,,,,,,,,,,48,,,,,,,,,,,,,,507.7629999992496,,response,,,10,A,,,,,Space,keypress(Space),,,,silence,-- -- --- ------ ------- --------- ----------- --------<br>--------- -------- the ------- -- ------- ---- -- ------<br>-- --- -------- -------- ---------- ---- ---- ---- ------<br>-- --------- -- ---- -- --- -- --- ------- -- - -----<br>---------- -- -- -- ---- ----- -- ------ -- --- ------<br>-------,221224.5,221223.69999999925,220699.267,220704.80000000075,220715.937,221232.737,,10,the
screen,html.Screen,0_4_1_0_1_11,2021-11-12T15:27:48.183Z,,,,,,,,,,,,,,,,48,,,,,,,,,,,,,,902.8630000014964,,response,,,10,A,,,,,Space,keypress(Space),,,,silence,-- -- --- ------ ------- --------- ----------- --------<br>--------- -------- --- country -- ------- ---- -- ------<br>-- --- -------- -------- ---------- ---- ---- ---- ------<br>-- --------- -- ---- -- --- -- --- ------- -- - -----<br>---------- -- -- -- ---- ----- -- ------ -- --- ------<br>-------,222136.3999999985,222135.6000000015,221216.067,221224.8999999985,221232.737,222149.583,,11,country
screen,html.Screen,0_4_1_0_1_12,2021-11-12T15:27:48.527Z,,,,,,,,,,,,,,,,48,,,,,,,,,,,,,,330.01700000147684,,response,,,10,A,,,,,Space,keypress(Space),,,,silence,-- -- --- ------ ------- --------- ----------- --------<br>--------- -------- --- ------- to ------- ---- -- ------<br>-- --- -------- -------- ---------- ---- ---- ---- ------<br>-- --------- -- ---- -- --- -- --- ------- -- - -----<br>---------- -- -- -- ---- ----- -- ------ -- --- ------<br>-------,222480.3999999985,222479.6000000015,222132.913,222136.80000000075,222149.583,222483.037,,12,to
screen,html.Screen,0_4_1_0_1_13,2021-11-12T15:27:49.047Z,,,,,,,,,,,,,,,,48,,,,,,,,,,,,,,516.5630000014789,,response,,,10,A,,,,,Space,keypress(Space),,,,silence,-- -- --- ------ ------- --------- ----------- --------<br>--------- -------- --- ------- -- declare ---- -- ------<br>-- --- -------- -------- ---------- ---- ---- ---- ------<br>-- --------- -- ---- -- --- -- --- ------- -- - -----<br>---------- -- -- -- ---- ----- -- ------ -- --- ------<br>-------,223000.3999999985,222999.6000000015,222466.367,222480.69999999925,222483.037,223016.505,,13,declare
screen,html.Screen,0_4_1_0_1_14,2021-11-12T15:27:49.615Z,,,,,,,,,,,,,,,,48,,,,,,,,,,,,,,550.9949999999953,,response,,,10,A,,,,,Space,keypress(Space),,,,silence,-- -- --- ------ ------- --------- ----------- --------<br>--------- -------- --- ------- -- ------- cash -- ------<br>-- --- -------- -------- ---------- ---- ---- ---- ------<br>-- --------- -- ---- -- --- -- --- ------- -- - -----<br>---------- -- -- -- ---- ----- -- ------ -- --- ------<br>-------,223568.30000000075,223567.5,222999.835,223000.69999999925,223016.505,223583.292,,14,cash
screen,html.Screen,0_4_1_0_1_15,2021-11-12T15:27:49.975Z,,,,,,,,,,,,,,,,48,,,,,,,,,,,,,,344.20800000001327,,response,,,10,A,,,,,Space,keypress(Space),,,,silence,-- -- --- ------ ------- --------- ----------- --------<br>--------- -------- --- ------- -- ------- ---- in ------<br>-- --- -------- -------- ---------- ---- ---- ---- ------<br>-- --------- -- ---- -- --- -- --- ------- -- - -----<br>---------- -- -- -- ---- ----- -- ------ -- --- ------<br>-------,223928.19999999925,223927.5,223566.622,223568.5,223583.292,223933.382,,15,in
screen,html.Screen,0_4_1_0_1_16,2021-11-12T15:27:50.686Z,,,,,,,,,,,,,,,,48,,,,,,,,,,,,,,706.0179999984975,,response,,,10,A,,,,,Space,keypress(Space),,,,silence,-- -- --- ------ ------- --------- ----------- --------<br>--------- -------- --- ------- -- ------- ---- -- excess<br>-- --- -------- -------- ---------- ---- ---- ---- ------<br>-- --------- -- ---- -- --- -- --- ------- -- - -----<br>---------- -- -- -- ---- ----- -- ------ -- --- ------<br>-------,224640.1000000015,224639.3999999985,223916.712,223928.5,223933.382,224650.235,,16,excess
screen,html.Screen,0_4_1_0_1_17,2021-11-12T15:27:51.078Z,,,,,,,,,,,,,,,,48,,,,,,,,,,,,,,381.16499999852385,,response,,,10,A,,,,,Space,keypress(Space),,,,silence,-- -- --- ------ ------- --------- ----------- --------<br>--------- -------- --- ------- -- ------- ---- -- ------<br>of --- -------- -------- ---------- ---- ---- ---- ------<br>-- --------- -- ---- -- --- -- --- ------- -- - -----<br>---------- -- -- -- ---- ----- -- ------ -- --- ------<br>-------,225032.19999999925,225031.3999999985,224633.565,224640.5,224650.235,225033.652,,17,of
screen,html.Screen,0_4_1_0_1_18,2021-11-12T15:27:51.647Z,,,,,,,,,,,,,,,,48,,,,,,,,,,,,,,566.0479999992531,,response,,,10,A,,,,,Space,keypress(Space),,,,silence,-- -- --- ------ ------- --------- ----------- --------<br>--------- -------- --- ------- -- ------- ---- -- ------<br>-- ten -------- -------- ---------- ---- ---- ---- ------<br>-- --------- -- ---- -- --- -- --- ------- -- - -----<br>---------- -- -- -- ---- ----- -- ------ -- --- ------<br>-------,225600.5,225599.69999999925,225016.982,225032.5,225033.652,225617.119,,18,ten
screen,html.Screen,0_4_1_0_1_19,2021-11-12T15:27:52.158Z,,,,,,,,,,,,,,,,48,,,,,,,,,,,,,,494.181000000739,,response,,,10,A,,,,,Space,keypress(Space),,,,silence,-- -- --- ------ ------- --------- ----------- --------<br>--------- -------- --- ------- -- ------- ---- -- ------<br>-- --- thousand -------- ---------- ---- ---- ---- ------<br>-- --------- -- ---- -- --- -- --- ------- -- - -----<br>---------- -- -- -- ---- ----- -- ------ -- --- ------<br>-------,226112.1000000015,226111.30000000075,225600.449,225600.69999999925,225617.119,226117.26,,19,thousand
screen,html.Screen,0_4_1_0_1_20,2021-11-12T15:27:52.614Z,,,,,,,,,,,,,,,,48,,,,,,,,,,,,,,450.04000000073574,,response,,,10,A,,,,,Space,keypress(Space),,,,silence,-- -- --- ------ ------- --------- ----------- --------<br>--------- -------- --- ------- -- ------- ---- -- ------<br>-- --- -------- dollars. ---------- ---- ---- ---- ------<br>-- --------- -- ---- -- --- -- --- ------- -- - -----<br>---------- -- -- -- ---- ----- -- ------ -- --- ------<br>-------,226568.1000000015,226567.30000000075,226100.59,226112.30000000075,226117.26,226584.022,,20,dollars.
screen,html.Screen,0_4_1_0_1_21,2021-11-12T15:27:53.990Z,,,,,,,,,,,,,,,,48,,,,,,,,,,,,,,1359.1779999992577,,response,,,10,A,,,,,Space,keypress(Space),,,,silence,-- -- --- ------ ------- --------- ----------- --------<br>--------- -------- --- ------- -- ------- ---- -- ------<br>-- --- -------- -------- Concealing ---- ---- ---- ------<br>-- --------- -- ---- -- --- -- --- ------- -- - -----<br>---------- -- -- -- ---- ----- -- ------ -- --- ------<br>-------,227943.8999999985,227943.19999999925,226567.352,226568.30000000075,226584.022,227950.97,,21,Concealing
screen,html.Screen,0_4_1_0_1_22,2021-11-12T15:27:54.438Z,,,,,,,,,,,,,,,,48,,,,,,,,,,,,,,440.13000000148895,,response,,,10,A,,,,,Space,keypress(Space),,,,silence,-- -- --- ------ ------- --------- ----------- --------<br>--------- -------- --- ------- -- ------- ---- -- ------<br>-- --- -------- -------- ---------- more ---- ---- ------<br>-- --------- -- ---- -- --- -- --- ------- -- - -----<br>---------- -- -- -- ---- ----- -- ------ -- --- ------<br>-------,228391.80000000075,228391.1000000015,227934.3,227944.30000000075,227950.97,228401.155,,22,more
screen,html.Screen,0_4_1_0_1_23,2021-11-12T15:27:54.862Z,,,,,,,,,,,,,,,,48,,,,,,,,,,,,,,413.9450000014913,,response,,,10,A,,,,,Space,keypress(Space),,,,silence,-- -- --- ------ ------- --------- ----------- --------<br>--------- -------- --- ------- -- ------- ---- -- ------<br>-- --- -------- -------- ---------- ---- than ---- ------<br>-- --------- -- ---- -- --- -- --- ------- -- - -----<br>---------- -- -- -- ---- ----- -- ------ -- --- ------<br>-------,228815.8999999985,228815.1000000015,228384.485,228392.1000000015,228401.155,228817.852,,23,than
screen,html.Screen,0_4_1_0_1_24,2021-11-12T15:27:55.398Z,,,,,,,,,,,,,,,,48,,,,,,,,,,,,,,533.1479999999865,,response,,,10,A,,,,,Space,keypress(Space),,,,silence,-- -- --- ------ ------- --------- ----------- --------<br>--------- -------- --- ------- -- ------- ---- -- ------<br>-- --- -------- -------- ---------- ---- ---- that ------<br>-- --------- -- ---- -- --- -- --- ------- -- - -----<br>---------- -- -- -- ---- ----- -- ------ -- --- ------<br>-------,229351.80000000075,229351,228801.182,228816.19999999925,228817.852,229368.149,,24,that
screen,html.Screen,0_4_1_0_1_25,2021-11-12T15:27:55.918Z,,,,,,,,,,,,,,,,48,,,,,,,,,,,,,,502.8509999999951,,response,,,10,A,,,,,Space,keypress(Space),,,,silence,-- -- --- ------ ------- --------- ----------- --------<br>--------- -------- --- ------- -- ------- ---- -- ------<br>-- --- -------- -------- ---------- ---- ---- ---- amount<br>-- --------- -- ---- -- --- -- --- ------- -- - -----<br>---------- -- -- -- ---- ----- -- ------ -- --- ------<br>-------,229871.80000000075,229871,229351.477,229352.1000000015,229368.149,229884.851,,25,amount
screen,html.Screen,0_4_1_0_1_26,2021-11-12T15:27:56.374Z,,,,,,,,,,,,,,,,48,,,,,,,,,,,,,,442.249000001495,,response,,,10,A,,,,,Space,keypress(Space),,,,silence,-- -- --- ------ ------- --------- ----------- --------<br>--------- -------- --- ------- -- ------- ---- -- ------<br>-- --- -------- -------- ---------- ---- ---- ---- ------<br>to --------- -- ---- -- --- -- --- ------- -- - -----<br>---------- -- -- -- ---- ----- -- ------ -- --- ------<br>-------,230327.80000000075,230327.1000000015,229868.181,229872,229884.851,230334.924,,26,to
screen,html.Screen,0_4_1_0_1_27,2021-11-12T15:27:56.902Z,,,,,,,,,,,,,,,,48,,,,,,,,,,,,,,519.9759999985108,,response,,,10,A,,,,,Space,keypress(Space),,,,silence,-- -- --- ------ ------- --------- ----------- --------<br>--------- -------- --- ------- -- ------- ---- -- ------<br>-- --- -------- -------- ---------- ---- ---- ---- ------<br>-- transport -- ---- -- --- -- --- ------- -- - -----<br>---------- -- -- -- ---- ----- -- ------ -- --- ------<br>-------,230855.69999999925,230854.8999999985,230318.254,230328,230334.924,230868.396,,27,transport
screen,html.Screen,0_4_1_0_1_28,2021-11-12T15:27:57.590Z,,,,,,,,,,,,,,,,48,,,,,,,,,,,,,,674.503999998502,,response,,,10,A,,,,,Space,keypress(Space),,,,silence,-- -- --- ------ ------- --------- ----------- --------<br>--------- -------- --- ------- -- ------- ---- -- ------<br>-- --- -------- -------- ---------- ---- ---- ---- ------<br>-- --------- it ---- -- --- -- --- ------- -- - -----<br>---------- -- -- -- ---- ----- -- ------ -- --- ------<br>-------,231543.69999999925,231542.8999999985,230851.726,230856,230868.396,231551.868,,28,it
screen,html.Screen,0_4_1_0_1_29,2021-11-12T15:27:58.070Z,,,,,,,,,,,,,,,,48,,,,,,,,,,,,,,470.9320000007574,,response,,,10,A,,,,,Space,keypress(Space),,,,silence,-- -- --- ------ ------- --------- ----------- --------<br>--------- -------- --- ------- -- ------- ---- -- ------<br>-- --- -------- -------- ---------- ---- ---- ---- ------<br>-- --------- -- into -- --- -- --- ------- -- - -----<br>---------- -- -- -- ---- ----- -- ------ -- --- ------<br>-------,232023.69999999925,232022.80000000075,231535.198,231544,231551.868,232035.409,,29,into
screen,html.Screen,0_4_1_0_1_30,2021-11-12T15:27:58.526Z,,,,,,,,,,,,,,,,48,,,,,,,,,,,,,,443.4909999984957,,response,,,10,A,,,,,Space,keypress(Space),,,,silence,-- -- --- ------ ------- --------- ----------- --------<br>--------- -------- --- ------- -- ------- ---- -- ------<br>-- --- -------- -------- ---------- ---- ---- ---- ------<br>-- --------- -- ---- or --- -- --- ------- -- - -----<br>---------- -- -- -- ---- ----- -- ------ -- --- ------<br>-------,232479.69999999925,232478.8999999985,232018.738,232023.8999999985,232035.409,232485.463,,30,or
screen,html.Screen,0_4_1_0_1_31,2021-11-12T15:27:59.110Z,,,,,,,,,,,,,,,,48,,,,,,,,,,,,,,577.3370000007562,,response,,,10,A,,,,,Space,keypress(Space),,,,silence,-- -- --- ------ ------- --------- ----------- --------<br>--------- -------- --- ------- -- ------- ---- -- ------<br>-- --- -------- -------- ---------- ---- ---- ---- ------<br>-- --------- -- ---- -- out -- --- ------- -- - -----<br>---------- -- -- -- ---- ----- -- ------ -- --- ------<br>-------,233063.6000000015,233062.80000000075,232468.793,232480,232485.463,233068.943,,31,out
screen,html.Screen,0_4_1_0_1_32,2021-11-12T15:27:59.638Z,,,,,,,,,,,,,,,,48,,,,,,,,,,,,,,521.8570000007458,,response,,,10,A,,,,,Space,keypress(Space),,,,silence,-- -- --- ------ ------- --------- ----------- --------<br>--------- -------- --- ------- -- ------- ---- -- ------<br>-- --- -------- -------- ---------- ---- ---- ---- ------<br>-- --------- -- ---- -- --- of --- ------- -- - -----<br>---------- -- -- -- ---- ----- -- ------ -- --- ------<br>-------,233591.6000000015,233590.80000000075,233052.273,233063.80000000075,233068.943,233602.394,,32,of
screen,html.Screen,0_4_1_0_1_33,2021-11-12T15:27:59.959Z,,,,,,,,,,,,,,,,48,,,,,,,,,,,,,,308.4060000007448,,response,,,10,A,,,,,Space,keypress(Space),,,,silence,-- -- --- ------ ------- --------- ----------- --------<br>--------- -------- --- ------- -- ------- ---- -- ------<br>-- --- -------- -------- ---------- ---- ---- ---- ------<br>-- --------- -- ---- -- --- -- the ------- -- - -----<br>---------- -- -- -- ---- ----- -- ------ -- --- ------<br>-------,233912.5,233910.80000000075,233585.724,233591.8999999985,233602.394,233919.048,,33,the
screen,html.Screen,0_4_1_0_1_34,2021-11-12T15:28:00.550Z,,,,,,,,,,,,,,,,48,,,,,,,,,,,,,,583.7520000007353,,response,,,10,A,,,,,Space,keypress(Space),,,,silence,-- -- --- ------ ------- --------- ----------- --------<br>--------- -------- --- ------- -- ------- ---- -- ------<br>-- --- -------- -------- ---------- ---- ---- ---- ------<br>-- --------- -- ---- -- --- -- --- country -- - -----<br>---------- -- -- -- ---- ----- -- ------ -- --- ------<br>-------,234503.6000000015,234502.80000000075,233902.379,233912.8999999985,233919.048,234519.388,,34,country
screen,html.Screen,0_4_1_0_1_35,2021-11-12T15:28:00.966Z,,,,,,,,,,,,,,,,48,,,,,,,,,,,,,,399.31199999924866,,response,,,10,A,,,,,Space,keypress(Space),,,,silence,-- -- --- ------ ------- --------- ----------- --------<br>--------- -------- --- ------- -- ------- ---- -- ------<br>-- --- -------- -------- ---------- ---- ---- ---- ------<br>-- --------- -- ---- -- --- -- --- ------- is - -----<br>---------- -- -- -- ---- ----- -- ------ -- --- ------<br>-------,234919.6000000015,234918.69999999925,234502.716,234503.80000000075,234519.388,234935.891,,35,is
screen,html.Screen,0_4_1_0_1_36,2021-11-12T15:28:01.318Z,,,,,,,,,,,,,,,,48,,,,,,,,,,,,,,334.8089999992517,,response,,,10,A,,,,,Space,keypress(Space),,,,silence,-- -- --- ------ ------- --------- ----------- --------<br>--------- -------- --- ------- -- ------- ---- -- ------<br>-- --- -------- -------- ---------- ---- ---- ---- ------<br>-- --------- -- ---- -- --- -- --- ------- -- a -----<br>---------- -- -- -- ---- ----- -- ------ -- --- ------<br>-------,235271.5,235270.69999999925,234919.223,234919.69999999925,234935.891,235286.2,,36,a
screen,html.Screen,0_4_1_0_1_37,2021-11-12T15:28:01.878Z,,,,,,,,,,,,,,,,48,,,,,,,,,,,,,,544.6999999984982,,response,,,10,A,,,,,Space,keypress(Space),,,,silence,-- -- --- ------ ------- --------- ----------- --------<br>--------- -------- --- ------- -- ------- ---- -- ------<br>-- --- -------- -------- ---------- ---- ---- ---- ------<br>-- --------- -- ---- -- --- -- --- ------- -- - crime<br>---------- -- -- -- ---- ----- -- ------ -- --- ------<br>-------,235831.69999999925,235830.8999999985,235269.529,235271.69999999925,235286.2,235836.115,,37,crime
screen,html.Screen,0_4_1_0_1_38,2021-11-12T15:28:02.622Z,,,,,,,,,,,,,,,,48,,,,,,,,,,,,,,738.4850000014994,,response,,,10,A,,,,,Space,keypress(Space),,,,silence,-- -- --- ------ ------- --------- ----------- --------<br>--------- -------- --- ------- -- ------- ---- -- ------<br>-- --- -------- -------- ---------- ---- ---- ---- ------<br>-- --------- -- ---- -- --- -- --- ------- -- - -----<br>punishable -- -- -- ---- ----- -- ------ -- --- ------<br>-------,236575.3999999985,236574.6000000015,235819.447,235832,235836.115,236586.605,,38,punishable
screen,html.Screen,0_4_1_0_1_39,2021-11-12T15:28:03.046Z,,,,,,,,,,,,,,,,48,,,,,,,,,,,,,,411.99500000147964,,response,,,10,A,,,,,Space,keypress(Space),,,,silence,-- -- --- ------ ------- --------- ----------- --------<br>--------- -------- --- ------- -- ------- ---- -- ------<br>-- --- -------- -------- ---------- ---- ---- ---- ------<br>-- --------- -- ---- -- --- -- --- ------- -- - -----<br>---------- by -- -- ---- ----- -- ------ -- --- ------<br>-------,236999.3999999985,236998.6000000015,236569.933,236575.69999999925,236586.605,237003.233,,39,by
screen,html.Screen,0_4_1_0_1_40,2021-11-12T15:28:03.662Z,,,,,,,,,,,,,,,,48,,,,,,,,,,,,,,611.2669999999925,,response,,,10,A,,,,,Space,keypress(Space),,,,silence,-- -- --- ------ ------- --------- ----------- --------<br>--------- -------- --- ------- -- ------- ---- -- ------<br>-- --- -------- -------- ---------- ---- ---- ---- ------<br>-- --------- -- ---- -- --- -- --- ------- -- - -----<br>---------- -- up -- ---- ----- -- ------ -- --- ------<br>-------,237615.3999999985,237614.5,236986.563,236999.69999999925,237003.233,237620.048,,40,up
screen,html.Screen,0_4_1_0_1_41,2021-11-12T15:28:04.038Z,,,,,,,,,,,,,,,,48,,,,,,,,,,,,,,370.4519999999902,,response,,,10,A,,,,,Space,keypress(Space),,,,silence,-- -- --- ------ ------- --------- ----------- --------<br>--------- -------- --- ------- -- ------- ---- -- ------<br>-- --- -------- -------- ---------- ---- ---- ---- ------<br>-- --------- -- ---- -- --- -- --- ------- -- - -----<br>---------- -- -- to ---- ----- -- ------ -- --- ------<br>-------,237991.30000000075,237990.5,237603.378,237615.6000000015,237620.048,238003.485,,41,to
screen,html.Screen,0_4_1_0_1_42,2021-11-12T15:28:04.614Z,,,,,,,,,,,,,,,,48,,,,,,,,,,,,,,562.9149999985239,,response,,,10,A,,,,,Space,keypress(Space),,,,silence,-- -- --- ------ ------- --------- ----------- --------<br>--------- -------- --- ------- -- ------- ---- -- ------<br>-- --- -------- -------- ---------- ---- ---- ---- ------<br>-- --------- -- ---- -- --- -- --- ------- -- - -----<br>---------- -- -- -- five ----- -- ------ -- --- ------<br>-------,238567.19999999925,238566.3999999985,237986.815,237991.5,238003.485,238570.263,,42,five
screen,html.Screen,0_4_1_0_1_43,2021-11-12T15:28:05.134Z,,,,,,,,,,,,,,,,48,,,,,,,,,,,,,,516.1369999985036,,response,,,10,A,,,,,Space,keypress(Space),,,,silence,-- -- --- ------ ------- --------- ----------- --------<br>--------- -------- --- ------- -- ------- ---- -- ------<br>-- --- -------- -------- ---------- ---- ---- ---- ------<br>-- --------- -- ---- -- --- -- --- ------- -- - -----<br>---------- -- -- -- ---- years -- ------ -- --- ------<br>-------,239087.19999999925,239086.3999999985,238553.593,238567.5,238570.263,239103.753,,43,years
screen,html.Screen,0_4_1_0_1_44,2021-11-12T15:28:05.470Z,,,,,,,,,,,,,,,,48,,,,,,,,,,,,,,318.6469999985129,,response,,,10,A,,,,,Space,keypress(Space),,,,silence,-- -- --- ------ ------- --------- ----------- --------<br>--------- -------- --- ------- -- ------- ---- -- ------<br>-- --- -------- -------- ---------- ---- ---- ---- ------<br>-- --------- -- ---- -- --- -- --- ------- -- - -----<br>---------- -- -- -- ---- ----- in ------ -- --- ------<br>-------,239423.19999999925,239422.3999999985,239087.083,239087.5,239103.753,239437.153,,44,in
screen,html.Screen,0_4_1_0_1_45,2021-11-12T15:28:06.021Z,,,,,,,,,,,,,,,,48,,,,,,,,,,,,,,537.2469999985187,,response,,,10,A,,,,,Space,keypress(Space),,,,silence,-- -- --- ------ ------- --------- ----------- --------<br>--------- -------- --- ------- -- ------- ---- -- ------<br>-- --- -------- -------- ---------- ---- ---- ---- ------<br>-- --------- -- ---- -- --- -- --- ------- -- - -----<br>---------- -- -- -- ---- ----- -- prison -- --- ------<br>-------,239975.19999999925,239974.3999999985,239420.483,239423.3999999985,239437.153,239987.254,,45,prison
screen,html.Screen,0_4_1_0_1_46,2021-11-12T15:28:06.514Z,,,,,,,,,,,,,,,,48,,,,,,,,,,,,,,475.0460000007588,,response,,,10,A,,,,,Space,keypress(Space),,,,silence,-- -- --- ------ ------- --------- ----------- --------<br>--------- -------- --- ------- -- ------- ---- -- ------<br>-- --- -------- -------- ---------- ---- ---- ---- ------<br>-- --------- -- ---- -- --- -- --- ------- -- - -----<br>---------- -- -- -- ---- ----- -- ------ in --- ------<br>-------,240463.1000000015,240462.30000000075,239970.584,239975.3999999985,239987.254,240470.796,,46,in
screen,html.Screen,0_4_1_0_1_47,2021-11-12T15:28:07.106Z,,,,,,,,,,,,,,,,48,,,,,,,,,,,,,,583.504000000743,,response,,,10,A,,,,,Space,keypress(Space),,,,silence,-- -- --- ------ ------- --------- ----------- --------<br>--------- -------- --- ------- -- ------- ---- -- ------<br>-- --- -------- -------- ---------- ---- ---- ---- ------<br>-- --------- -- ---- -- --- -- --- ------- -- - -----<br>---------- -- -- -- ---- ----- -- ------ -- the ------<br>-------,241055.1000000015,241054.30000000075,240454.125,240463.3999999985,240470.796,241070.873,,47,the
screen,html.Screen,0_4_1_0_1_48,2021-11-12T15:28:07.522Z,,,,,,,,,,,,,,,,48,,,,,,,,,,,,,,399.3269999992626,,response,,,10,A,,,,,Space,keypress(Space),,,,silence,-- -- --- ------ ------- --------- ----------- --------<br>--------- -------- --- ------- -- ------- ---- -- ------<br>-- --- -------- -------- ---------- ---- ---- ---- ------<br>-- --------- -- ---- -- --- -- --- ------- -- - -----<br>---------- -- -- -- ---- ----- -- ------ -- --- United<br>-------,241471,241470.19999999925,241054.203,241055.3999999985,241070.873,241487.669,,48,United
screen,html.Screen,0_4_1_0_1_49,2021-11-12T15:28:08.450Z,,,,,,,,,,,,,,,,48,,,,,,,,,,,,,,910.5309999992605,,response,,,10,A,,,,,Space,keypress(Space),,,,silence,-- -- --- ------ ------- --------- ----------- --------<br>--------- -------- --- ------- -- ------- ---- -- ------<br>-- --- -------- -------- ---------- ---- ---- ---- ------<br>-- --------- -- ---- -- --- -- --- ------- -- - -----<br>---------- -- -- -- ---- ----- -- ------ -- --- ------<br>States.,242399,242398.19999999925,241470.999,241471.30000000075,241487.669,242404.506,,49,States.
Item 10,flow.Loop,0_4_1_0_1,2021-11-12T15:28:08.451Z,,,,,,,,,,,,,,,,,,,,,,,,,,,,,,28367.27099999925,,completion,,,,,,,,,,,,,,,,242399.3999999985,242398.19999999925,214014.259,214015.6000000015,214030.929,242404.506,,,
Question 1,html.Screen,0_4_1_0_2,2021-11-12T15:28:15.442Z,,,,,,,,,,,,,,,,,,,,,,,,,,,false,TRUE,,6984.893999998516,,response,,,10,A,,,,,FALSE,click #choice-2,,,,silence,,249390.6000000015,249389.3999999985,242387.836,242399.6000000015,242404.506,249406.28,,,
Question 2,html.Screen,0_4_1_0_3,2021-11-12T15:28:20.105Z,,,,,,,,,,,,,,,,,,,,,,,,,,,true,TRUE,,4646.820000001491,,response,,,10,A,,,,,TRUE,click #choice-1,,,,silence,,254054.30000000075,254053.1000000015,249389.609,249391,249406.28,254057.367,,,
Item 10,flow.Sequence,0_4_1_0,2021-11-12T15:28:20.107Z,,,,,,,,,,,,,,,,,,,,,,,,,,,,,,47024.13000000149,,completion,,,,,,,,,,,,,,,,254055.8999999985,254053.1000000015,207012.3,207013.69999999925,207028.97,254057.367,,,
Holding screen,html.Screen,0_4_1_1_0,2021-11-12T15:28:27.095Z,,,,,,,,,,,,,,,,,,,,,,,,,,,,,,7001.492999999988,,timeout,,,,,,,,,,,,,,,,261043.69999999925,261042.191,254040.697,254056.19999999925,254057.367,261058.86,,,
screen,html.Screen,0_4_1_1_1_0,2021-11-12T15:28:28.121Z,,,,,,,,,,,,,,,,11,,,,,,,,,,,,,,1010.440000000759,,response,,,4,A,,,,,Space,keypress(Space),,,,silence,Known -- ---- --- -- --- -------- ------------ ---------- --<br>- ------- ------ --------- -- ------------ -- --- ---- -----<br>------ ---- ---- ------ ------ ------- --- ----- ---------<br>---- --- -------- -------- --- --- -- ------- --- --- -----<br>-- --- ------ ------- --- --- -------- ---- --------- --<br>---------- -- -------- ----------------,262070.30000000075,262069.30000000075,261042.191,261044.19999999925,261058.86,262076.01,,0,Known
screen,html.Screen,0_4_1_1_1_1,2021-11-12T15:28:28.697Z,,,,,,,,,,,,,,,,11,,,,,,,,,,,,,,568.7900000007357,,response,,,4,A,,,,,Space,keypress(Space),,,,silence,----- as ---- --- -- --- -------- ------------ ---------- --<br>- ------- ------ --------- -- ------------ -- --- ---- -----<br>------ ---- ---- ------ ------ ------- --- ----- ---------<br>---- --- -------- -------- --- --- -- ------- --- --- -----<br>-- --- ------ ------- --- --- -------- ---- --------- --<br>---------- -- -------- ----------------,262645.6000000015,262644.80000000075,262059.339,262070.6000000015,262076.01,262659.288,,1,as
screen,html.Screen,0_4_1_1_1_2,2021-11-12T15:28:29.489Z,,,,,,,,,,,,,,,,11,,,,,,,,,,,,,,777.4119999992545,,response,,,4,A,,,,,Space,keypress(Space),,,,silence,----- -- Rapa --- -- --- -------- ------------ ---------- --<br>- ------- ------ --------- -- ------------ -- --- ---- -----<br>------ ---- ---- ------ ------ ------- --- ----- ---------<br>---- --- -------- -------- --- --- -- ------- --- --- -----<br>-- --- ------ ------- --- --- -------- ---- --------- --<br>---------- -- -------- ----------------,263437.6000000015,263436.69999999925,262642.619,262645.80000000075,262659.288,263443.062,,2,Rapa
screen,html.Screen,0_4_1_1_1_3,2021-11-12T15:28:30.145Z,,,,,,,,,,,,,,,,11,,,,,,,,,,,,,,649.6379999992787,,response,,,4,A,,,,,Space,keypress(Space),,,,silence,----- -- ---- Nui -- --- -------- ------------ ---------- --<br>- ------- ------ --------- -- ------------ -- --- ---- -----<br>------ ---- ---- ------ ------ ------- --- ----- ---------<br>---- --- -------- -------- --- --- -- ------- --- --- -----<br>-- --- ------ ------- --- --- -------- ---- --------- --<br>---------- -- -------- ----------------,264093.5,264092.69999999925,263426.391,263437.80000000075,263443.062,264109.79,,3,Nui
