sender,sender_type,sender_id,timestamp,meta,,Blues,Classical,Country,Dance,Electronic,Folk,Gospel,Hip-Hop,Jazz,Latin,Musical/Film,New-age,Pop,Provo_ID,R&B,Rap,Reggae,Religious,Rock,Soul,Swing,Traditional,age,artist_name,correct,correctResponse,distraction,duration,education,ended_on,familiarity,gender,item,list,music_frequency,offensiveness,pleasantness,preference,response,response_action,snippet_file,song_name,song_rating,sound,text,time_commit,time_end,time_render,time_run,time_show,time_switch,url,word,word_ID
Instructions,html.Page,0_0,2021-12-02T14:48:57.205Z,"{""labjs_version"":""20.2.3"",""labjs_build"":{""flavor"":""production"",""commit"":""7ea907d66ca8aeef8054924ca5d82ffbe11e34e5""},""location"":""https://run.pavlovia.org/mvasilev/lab_music_c/"",""userAgent"":""Mozilla/5.0 (Windows NT 6.1; Win64; x64) AppleWebKit/537.36 (KHTML, like Gecko) Chrome/96.0.4664.45 Safari/537.36"",""platform"":""Win32"",""language"":""en-US"",""locale"":""en-US"",""timeZone"":""Europe/London"",""timezoneOffset"":0,""screen_width"":1920,""screen_height"":1080,""scroll_width"":1920,""scroll_height"":959,""window_innerWidth"":1920,""window_innerHeight"":1007,""devicePixelRatio"":1}",,,,,,,,,,,,,,,,,,,,,,,,,,,,,39600.368000002236,,form submission,,,,,,,,,,,,,,,,46813.10000000149,46811.900000002235,7194.861,7197.800000000745,7211.532,46821.68,{},,
Headphones,html.Page,0_1,2021-12-02T14:48:59.830Z,,,,,,,,,,,,,,,,,,,,,,,,,,,,,,2616.0199999992547,,form submission,,,,,,,,,,,,,,,,49438.300000000745,49437.699999999255,46805.009,46813.800000000745,46821.68,49439.17,,,
Holding screen,html.Screen,0_2_0_0,2021-12-02T14:49:09.824Z,,,,,,,,,,,,,,,,,,,,,,,,,,,,,,10018.885000000002,,timeout,,,,,,,,,,,,,,,,59432,59424.717,49422.497,49438.800000000745,49439.17,59458.055,,,
screen,html.Screen,0_2_0_1_0,2021-12-02T14:49:10.795Z,,,,,,,,,,,,,,,,53,,,,,,,,,,,,,,940.7450000007448,,response,,,99,,,,,,Space,keypress(Space),,,,,When -- ----- -- ------ - ------- --- ----------<br>------------- ------ ------ ---- ---- ------- ----- -- ----<br>-------- ------- -- ---------- --- - --- ----- ----- ----<br>---- --- --- ----- --- ---- ---- ------- ----- ---- -------<br>--- --- -- ----- -- --- ---- -- --- ---- -- ------ ------<br>--- ----- -- ----,60400.199999999255,60398.800000000745,59424.717,59432.5,59458.055,60408.623,,0,When
screen,html.Screen,0_2_0_1_1,2021-12-02T14:49:11.283Z,,,,,,,,,,,,,,,,53,,,,,,,,,,,,,,478.2770000022356,,response,,,99,,,,,,Space,keypress(Space),,,,,---- it ----- -- ------ - ------- --- ----------<br>------------- ------ ------ ---- ---- ------- ----- -- ----<br>-------- ------- -- ---------- --- - --- ----- ----- ----<br>---- --- --- ----- --- ---- ---- ------- ----- ---- -------<br>--- --- -- ----- -- --- ---- -- --- ---- -- ------ ------<br>--- ----- -- ----,60887.699999999255,60886.900000002235,60391.951,60400.699999999255,60408.623,60891.934,,1,it
screen,html.Screen,0_2_0_1_2,2021-12-02T14:49:11.787Z,,,,,,,,,,,,,,,,53,,,,,,,,,,,,,,498.86600000074395,,response,,,99,,,,,,Space,keypress(Space),,,,,---- -- comes -- ------ - ------- --- ----------<br>------------- ------ ------ ---- ---- ------- ----- -- ----<br>-------- ------- -- ---------- --- - --- ----- ----- ----<br>---- --- --- ----- --- ---- ---- ------- ----- ---- -------<br>--- --- -- ----- -- --- ---- -- --- ---- -- ------ ------<br>--- ----- -- ----,61392.10000000149,61390.800000000745,60875.264,60888,60891.934,61408.749,,2,comes
screen,html.Screen,0_2_0_1_3,2021-12-02T14:49:12.291Z,,,,,,,,,,,,,,,,53,,,,,,,,,,,,,,486.5510000007416,,response,,,99,,,,,,Space,keypress(Space),,,,,---- -- ----- to ------ - ------- --- ----------<br>------------- ------ ------ ---- ---- ------- ----- -- ----<br>-------- ------- -- ---------- --- - --- ----- ----- ----<br>---- --- --- ----- --- ---- ---- ------- ----- ---- -------<br>--- --- -- ----- -- --- ---- -- --- ---- -- ------ ------<br>--- ----- -- ----,61896.199999999255,61895.300000000745,61392.079,61392.400000002235,61408.749,61908.925,,3,to
screen,html.Screen,0_2_0_1_4,2021-12-02T14:49:12.779Z,,,,,,,,,,,,,,,,53,,,,,,,,,,,,,,473.77499999925203,,response,,,99,,,,,,Space,keypress(Space),,,,,---- -- ----- -- having - ------- --- ----------<br>------------- ------ ------ ---- ---- ------- ----- -- ----<br>-------- ------- -- ---------- --- - --- ----- ----- ----<br>---- --- --- ----- --- ---- ---- ------- ----- ---- -------<br>--- --- -- ----- -- --- ---- -- --- ---- -- ------ ------<br>--- ----- -- ----,62384,62382.699999999255,61892.254,61896.800000000745,61908.925,62392.347,,4,having
screen,html.Screen,0_2_0_1_5,2021-12-02T14:49:13.298Z,,,,,,,,,,,,,,,,53,,,,,,,,,,,,,,510.35299999925337,,response,,,99,,,,,,Space,keypress(Space),,,,,---- -- ----- -- ------ a ------- --- ----------<br>------------- ------ ------ ---- ---- ------- ----- -- ----<br>-------- ------- -- ---------- --- - --- ----- ----- ----<br>---- --- --- ----- --- ---- ---- ------- ----- ---- -------<br>--- --- -- ----- -- --- ---- -- --- ---- -- ------ ------<br>--- ----- -- ----,62903.60000000149,62902.699999999255,62375.677,62384.300000000745,62392.347,62909.147,,5,a
screen,html.Screen,0_2_0_1_6,2021-12-02T14:49:13.786Z,,,,,,,,,,,,,,,,53,,,,,,,,,,,,,,481.55299999925774,,response,,,99,,,,,,Space,keypress(Space),,,,,---- -- ----- -- ------ - lasting --- ----------<br>------------- ------ ------ ---- ---- ------- ----- -- ----<br>-------- ------- -- ---------- --- - --- ----- ----- ----<br>---- --- --- ----- --- ---- ---- ------- ----- ---- -------<br>--- --- -- ----- -- --- ---- -- --- ---- -- ------ ------<br>--- ----- -- ----,63391.699999999255,63390.699999999255,62892.477,62904.199999999255,62909.147,63409.278,,6,lasting
screen,html.Screen,0_2_0_1_7,2021-12-02T14:49:14.250Z,,,,,,,,,,,,,,,,53,,,,,,,,,,,,,,445.3220000014917,,response,,,99,,,,,,Space,keypress(Space),,,,,---- -- ----- -- ------ - ------- and ----------<br>------------- ------ ------ ---- ---- ------- ----- -- ----<br>-------- ------- -- ---------- --- - --- ----- ----- ----<br>---- --- --- ----- --- ---- ---- ------- ----- ---- -------<br>--- --- -- ----- -- --- ---- -- --- ---- -- ------ ------<br>--- ----- -- ----,63855.60000000149,63854.60000000149,63392.608,63392,63409.278,63859.384,,7,and
screen,html.Screen,0_2_0_1_8,2021-12-02T14:49:14.795Z,,,,,,,,,,,,,,,,53,,,,,,,,,,,,,,539.3159999992567,,response,,,99,,,,,,Space,keypress(Space),,,,,---- -- ----- -- ------ - ------- --- fulfilling<br>------------- ------ ------ ---- ---- ------- ----- -- ----<br>-------- ------- -- ---------- --- - --- ----- ----- ----<br>---- --- --- ----- --- ---- ---- ------- ----- ---- -------<br>--- --- -- ----- -- --- ---- -- --- ---- -- ------ ------<br>--- ----- -- ----,64399.800000000745,64398.699999999255,63842.714,63855.900000002235,63859.384,64409.526,,8,fulfilling
screen,html.Screen,0_2_0_1_9,2021-12-02T14:49:15.322Z,,,,,,,,,,,,,,,,53,,,,,,,,,,,,,,517.0740000014921,,response,,,99,,,,,,Space,keypress(Space),,,,,"---- -- ----- -- ------ - ------- --- ----------<br>relationship, ------ ------ ---- ---- ------- ----- -- ----<br>-------- ------- -- ---------- --- - --- ----- ----- ----<br>---- --- --- ----- --- ---- ---- ------- ----- ---- -------<br>--- --- -- ----- -- --- ---- -- --- ---- -- ------ ------<br>--- ----- -- ----",64927.60000000149,64926.60000000149,64392.856,64400.199999999255,64409.526,64942.897,,9,"relationship,"
screen,html.Screen,0_2_0_1_10,2021-12-02T14:49:15.818Z,,,,,,,,,,,,,,,,53,,,,,,,,,,,,,,479.7030000014929,,response,,,99,,,,,,Space,keypress(Space),,,,,---- -- ----- -- ------ - ------- --- ----------<br>------------- common ------ ---- ---- ------- ----- -- ----<br>-------- ------- -- ---------- --- - --- ----- ----- ----<br>---- --- --- ----- --- ---- ---- ------- ----- ---- -------<br>--- --- -- ----- -- --- ---- -- --- ---- -- ------ ------<br>--- ----- -- ----,65423.5,65422.60000000149,64926.228,64927.800000000745,64942.897,65426.51,,10,common
screen,html.Screen,0_2_0_1_11,2021-12-02T14:49:16.530Z,,,,,,,,,,,,,,,,53,,,,,,,,,,,,,,708.290000000743,,response,,,99,,,,,,Space,keypress(Space),,,,,---- -- ----- -- ------ - ------- --- ----------<br>------------- ------ wisdom ---- ---- ------- ----- -- ----<br>-------- ------- -- ---------- --- - --- ----- ----- ----<br>---- --- --- ----- --- ---- ---- ------- ----- ---- -------<br>--- --- -- ----- -- --- ---- -- --- ---- -- ------ ------<br>--- ----- -- ----,66135.69999999925,66134.80000000075,65409.839,65423.699999999255,65426.51,66143.368,,11,wisdom
screen,html.Screen,0_2_0_1_12,2021-12-02T14:49:17.090Z,,,,,,,,,,,,,,,,53,,,,,,,,,,,,,,551.1319999999978,,response,,,99,,,,,,Space,keypress(Space),,,,,---- -- ----- -- ------ - ------- --- ----------<br>------------- ------ ------ says ---- ------- ----- -- ----<br>-------- ------- -- ---------- --- - --- ----- ----- ----<br>---- --- --- ----- --- ---- ---- ------- ----- ---- -------<br>--- --- -- ----- -- --- ---- -- --- ---- -- ------ ------<br>--- ----- -- ----,66695.40000000224,66694.5,66126.697,66135.90000000224,66143.368,66709.969,,12,says
screen,html.Screen,0_2_0_1_13,2021-12-02T14:49:17.626Z,,,,,,,,,,,,,,,,53,,,,,,,,,,,,,,520.4310000022379,,response,,,99,,,,,,Space,keypress(Space),,,,,---- -- ----- -- ------ - ------- --- ----------<br>------------- ------ ------ ---- that ------- ----- -- ----<br>-------- ------- -- ---------- --- - --- ----- ----- ----<br>---- --- --- ----- --- ---- ---- ------- ----- ---- -------<br>--- --- -- ----- -- --- ---- -- --- ---- -- ------ ------<br>--- ----- -- ----,67231.30000000075,67230.40000000224,66693.3,66695.60000000149,66709.969,67243.716,,13,that
screen,html.Screen,0_2_0_1_14,2021-12-02T14:49:18.114Z,,,,,,,,,,,,,,,,53,,,,,,,,,,,,,,474.6840000022348,,response,,,99,,,,,,Space,keypress(Space),,,,,---- -- ----- -- ------ - ------- --- ----------<br>------------- ------ ------ ---- ---- feeling ----- -- ----<br>-------- ------- -- ---------- --- - --- ----- ----- ----<br>---- --- --- ----- --- ---- ---- ------- ----- ---- -------<br>--- --- -- ----- -- --- ---- -- --- ---- -- ------ ------<br>--- ----- -- ----,67719.19999999925,67718.40000000224,67227.044,67231.5,67243.716,67726.925,,14,feeling
screen,html.Screen,0_2_0_1_15,2021-12-02T14:49:18.650Z,,,,,,,,,,,,,,,,53,,,,,,,,,,,,,,527.4750000022323,,response,,,99,,,,,,Space,keypress(Space),,,,,---- -- ----- -- ------ - ------- --- ----------<br>------------- ------ ------ ---- ---- ------- close -- ----<br>-------- ------- -- ---------- --- - --- ----- ----- ----<br>---- --- --- ----- --- ---- ---- ------- ----- ---- -------<br>--- --- -- ----- -- --- ---- -- --- ---- -- ------ ------<br>--- ----- -- ----,68255.30000000075,68254.40000000224,67710.256,67719.5,67726.925,68260.626,,15,close
screen,html.Screen,0_2_0_1_16,2021-12-02T14:49:19.130Z,,,,,,,,,,,,,,,,53,,,,,,,,,,,,,,473.6740000007412,,response,,,99,,,,,,Space,keypress(Space),,,,,---- -- ----- -- ------ - ------- --- ----------<br>------------- ------ ------ ---- ---- ------- ----- to ----<br>-------- ------- -- ---------- --- - --- ----- ----- ----<br>---- --- --- ----- --- ---- ---- ------- ----- ---- -------<br>--- --- -- ----- -- --- ---- -- --- ---- -- ------ ------<br>--- ----- -- ----,68735.19999999925,68734.30000000075,68243.954,68255.5,68260.626,68744.027,,16,to
screen,html.Screen,0_2_0_1_17,2021-12-02T14:49:19.618Z,,,,,,,,,,,,,,,,53,,,,,,,,,,,,,,478.2730000007432,,response,,,99,,,,,,Space,keypress(Space),,,,,---- -- ----- -- ------ - ------- --- ----------<br>------------- ------ ------ ---- ---- ------- ----- -- your<br>-------- ------- -- ---------- --- - --- ----- ----- ----<br>---- --- --- ----- --- ---- ---- ------- ----- ---- -------<br>--- --- -- ----- -- --- ---- -- --- ---- -- ------ ------<br>--- ----- -- ----,69223.19999999925,69222.30000000075,68727.356,68735.40000000224,68744.027,69227.334,,17,your
screen,html.Screen,0_2_0_1_18,2021-12-02T14:49:20.258Z,,,,,,,,,,,,,,,,53,,,,,,,,,,,,,,634.9660000007425,,response,,,99,,,,,,Space,keypress(Space),,,,,---- -- ----- -- ------ - ------- --- ----------<br>------------- ------ ------ ---- ---- ------- ----- -- ----<br>romantic ------- -- ---------- --- - --- ----- ----- ----<br>---- --- --- ----- --- ---- ---- ------- ----- ---- -------<br>--- --- -- ----- -- --- ---- -- --- ---- -- ------ ------<br>--- ----- -- ----,69863.10000000149,69862.30000000075,69210.665,69223.40000000224,69227.334,69877.72,,18,romantic
screen,html.Screen,0_2_0_1_19,2021-12-02T14:49:20.746Z,,,,,,,,,,,,,,,,53,,,,,,,,,,,,,,472.5800000007439,,response,,,99,,,,,,Space,keypress(Space),,,,,---- -- ----- -- ------ - ------- --- ----------<br>------------- ------ ------ ---- ---- ------- ----- -- ----<br>-------- partner -- ---------- --- - --- ----- ----- ----<br>---- --- --- ----- --- ---- ---- ------- ----- ---- -------<br>--- --- -- ----- -- --- ---- -- --- ---- -- ------ ------<br>--- ----- -- ----,70351.10000000149,70350.30000000075,69861.048,69863.40000000224,69877.72,70360.979,,19,partner
screen,html.Screen,0_2_0_1_20,2021-12-02T14:49:21.298Z,,,,,,,,,,,,,,,,53,,,,,,,,,,,,,,541.2209999992483,,response,,,99,,,,,,Space,keypress(Space),,,,,---- -- ----- -- ------ - ------- --- ----------<br>------------- ------ ------ ---- ---- ------- ----- -- ----<br>-------- ------- is ---------- --- - --- ----- ----- ----<br>---- --- --- ----- --- ---- ---- ------- ----- ---- -------<br>--- --- -- ----- -- --- ---- -- --- ---- -- ------ ------<br>--- ----- -- ----,70903.10000000149,70902.19999999925,70344.31,70351.30000000075,70360.979,70911.248,,20,is
screen,html.Screen,0_2_0_1_21,2021-12-02T14:49:22.018Z,,,,,,,,,,,,,,,,53,,,,,,,,,,,,,,711.0520000007382,,response,,,99,,,,,,Space,keypress(Space),,,,,---- -- ----- -- ------ - ------- --- ----------<br>------------- ------ ------ ---- ---- ------- ----- -- ----<br>-------- ------- -- paramount. --- - --- ----- ----- ----<br>---- --- --- ----- --- ---- ---- ------- ----- ---- -------<br>--- --- -- ----- -- --- ---- -- --- ---- -- ------ ------<br>--- ----- -- ----,71623.10000000149,71622.30000000075,70894.577,70903.40000000224,70911.248,71627.946,,21,paramount.
screen,html.Screen,0_2_0_1_22,2021-12-02T14:49:22.546Z,,,,,,,,,,,,,,,,53,,,,,,,,,,,,,,522.6540000014938,,response,,,99,,,,,,Space,keypress(Space),,,,,---- -- ----- -- ------ - ------- --- ----------<br>------------- ------ ------ ---- ---- ------- ----- -- ----<br>-------- ------- -- ---------- But - --- ----- ----- ----<br>---- --- --- ----- --- ---- ---- ------- ----- ---- -------<br>--- --- -- ----- -- --- ---- -- --- ---- -- ------ ------<br>--- ----- -- ----,72151.40000000224,72150.60000000149,71611.277,71623.60000000149,71627.946,72161.592,,22,But
screen,html.Screen,0_2_0_1_23,2021-12-02T14:49:23.026Z,,,,,,,,,,,,,,,,53,,,,,,,,,,,,,,468.60799999925075,,response,,,99,,,,,,Space,keypress(Space),,,,,---- -- ----- -- ------ - ------- --- ----------<br>------------- ------ ------ ---- ---- ------- ----- -- ----<br>-------- ------- -- ---------- --- a --- ----- ----- ----<br>---- --- --- ----- --- ---- ---- ------- ----- ---- -------<br>--- --- -- ----- -- --- ---- -- --- ---- -- ------ ------<br>--- ----- -- ----,72630.90000000224,72630.19999999925,72144.921,72151.60000000149,72161.592,72644.993,,23,a
screen,html.Screen,0_2_0_1_24,2021-12-02T14:49:23.530Z,,,,,,,,,,,,,,,,53,,,,,,,,,,,,,,489.20699999925273,,response,,,99,,,,,,Space,keypress(Space),,,,,---- -- ----- -- ------ - ------- --- ----------<br>------------- ------ ------ ---- ---- ------- ----- -- ----<br>-------- ------- -- ---------- --- - new ----- ----- ----<br>---- --- --- ----- --- ---- ---- ------- ----- ---- -------<br>--- --- -- ----- -- --- ---- -- --- ---- -- ------ ------<br>--- ----- -- ----,73135,73134.19999999925,72628.323,72631.19999999925,72644.993,73145.104,,24,new
screen,html.Screen,0_2_0_1_25,2021-12-02T14:49:24.058Z,,,,,,,,,,,,,,,,53,,,,,,,,,,,,,,517.0959999992483,,response,,,99,,,,,,Space,keypress(Space),,,,,---- -- ----- -- ------ - ------- --- ----------<br>------------- ------ ------ ---- ---- ------- ----- -- ----<br>-------- ------- -- ---------- --- - --- study ----- ----<br>---- --- --- ----- --- ---- ---- ------- ----- ---- -------<br>--- --- -- ----- -- --- ---- -- --- ---- -- ------ ------<br>--- ----- -- ----,73663,73662.19999999925,73128.434,73135.30000000075,73145.104,73678.646,,25,study
screen,html.Screen,0_2_0_1_26,2021-12-02T14:49:24.514Z,,,,,,,,,,,,,,,,53,,,,,,,,,,,,,,439.45400000149675,,response,,,99,,,,,,Space,keypress(Space),,,,,---- -- ----- -- ------ - ------- --- ----------<br>------------- ------ ------ ---- ---- ------- ----- -- ----<br>-------- ------- -- ---------- --- - --- ----- finds ----<br>---- --- --- ----- --- ---- ---- ------- ----- ---- -------<br>--- --- -- ----- -- --- ---- -- --- ---- -- ------ ------<br>--- ----- -- ----,74118.90000000224,74118.10000000149,73661.975,73663.30000000075,73678.646,74128.54,,26,finds
screen,html.Screen,0_2_0_1_27,2021-12-02T14:49:24.914Z,,,,,,,,,,,,,,,,53,,,,,,,,,,,,,,389.4600000000064,,response,,,99,,,,,,Space,keypress(Space),,,,,---- -- ----- -- ------ - ------- --- ----------<br>------------- ------ ------ ---- ---- ------- ----- -- ----<br>-------- ------- -- ---------- --- - --- ----- ----- that<br>---- --- --- ----- --- ---- ---- ------- ----- ---- -------<br>--- --- -- ----- -- --- ---- -- --- ---- -- ------ ------<br>--- ----- -- ----,74518.90000000224,74518,74111.872,74119.19999999925,74128.54,74528.895,,27,that
screen,html.Screen,0_2_0_1_28,2021-12-02T14:49:25.506Z,,,,,,,,,,,,,,,,53,,,,,,,,,,,,,,581.1049999999959,,response,,,99,,,,,,Space,keypress(Space),,,,,---- -- ----- -- ------ - ------- --- ----------<br>------------- ------ ------ ---- ---- ------- ----- -- ----<br>-------- ------- -- ---------- --- - --- ----- ----- ----<br>it's --- --- ----- --- ---- ---- ------- ----- ---- -------<br>--- --- -- ----- -- --- ---- -- --- ---- -- ------ ------<br>--- ----- -- ----,75110.80000000075,75110,74512.223,74519.19999999925,74528.895,75112.33,,28,it's
screen,html.Screen,0_2_0_1_29,2021-12-02T14:49:25.978Z,,,,,,,,,,,,,,,,53,,,,,,,,,,,,,,469.77000000148837,,response,,,99,,,,,,Space,keypress(Space),,,,,---- -- ----- -- ------ - ------- --- ----------<br>------------- ------ ------ ---- ---- ------- ----- -- ----<br>-------- ------- -- ---------- --- - --- ----- ----- ----<br>---- not --- ----- --- ---- ---- ------- ----- ---- -------<br>--- --- -- ----- -- --- ---- -- --- ---- -- ------ ------<br>--- ----- -- ----,75582.80000000075,75582.10000000149,75095.659,75111,75112.33,75595.733,,29,not
screen,html.Screen,0_2_0_1_30,2021-12-02T14:49:26.490Z,,,,,,,,,,,,,,,,53,,,,,,,,,,,,,,498.2670000000071,,response,,,99,,,,,,Space,keypress(Space),,,,,---- -- ----- -- ------ - ------- --- ----------<br>------------- ------ ------ ---- ---- ------- ----- -- ----<br>-------- ------- -- ---------- --- - --- ----- ----- ----<br>---- --- how ----- --- ---- ---- ------- ----- ---- -------<br>--- --- -- ----- -- --- ---- -- --- ---- -- ------ ------<br>--- ----- -- ----,76094.80000000075,76094,75579.063,75583.10000000149,75595.733,76095.877,,30,how
screen,html.Screen,0_2_0_1_31,2021-12-02T14:49:26.954Z,,,,,,,,,,,,,,,,53,,,,,,,,,,,,,,462.02300000224204,,response,,,99,,,,,,Space,keypress(Space),,,,,---- -- ----- -- ------ - ------- --- ----------<br>------------- ------ ------ ---- ---- ------- ----- -- ----<br>-------- ------- -- ---------- --- - --- ----- ----- ----<br>---- --- --- close --- ---- ---- ------- ----- ---- -------<br>--- --- -- ----- -- --- ---- -- --- ---- -- ------ ------<br>--- ----- -- ----,76559,76557.90000000224,76079.207,76095.10000000149,76095.877,76562.666,,31,close
screen,html.Screen,0_2_0_1_32,2021-12-02T14:49:27.394Z,,,,,,,,,,,,,,,,53,,,,,,,,,,,,,,435.23400000223774,,response,,,99,,,,,,Space,keypress(Space),,,,,---- -- ----- -- ------ - ------- --- ----------<br>------------- ------ ------ ---- ---- ------- ----- -- ----<br>-------- ------- -- ---------- --- - --- ----- ----- ----<br>---- --- --- ----- you ---- ---- ------- ----- ---- -------<br>--- --- -- ----- -- --- ---- -- --- ---- -- ------ ------<br>--- ----- -- ----,76998.80000000075,76997.90000000224,76545.996,76559.10000000149,76562.666,77012.771,,32,you
screen,html.Screen,0_2_0_1_33,2021-12-02T14:49:27.866Z,,,,,,,,,,,,,,,,53,,,,,,,,,,,,,,457.1290000022418,,response,,,99,,,,,,Space,keypress(Space),,,,,---- -- ----- -- ------ - ------- --- ----------<br>------------- ------ ------ ---- ---- ------- ----- -- ----<br>-------- ------- -- ---------- --- - --- ----- ----- ----<br>---- --- --- ----- --- feel ---- ------- ----- ---- -------<br>--- --- -- ----- -- --- ---- -- --- ---- -- ------ ------<br>--- ----- -- ----,77470.69999999925,77469.90000000224,76996.101,76999,77012.771,77479.553,,33,feel
screen,html.Screen,0_2_0_1_34,2021-12-02T14:49:28.338Z,,,,,,,,,,,,,,,,53,,,,,,,,,,,,,,462.3470000022353,,response,,,99,,,,,,Space,keypress(Space),,,,,---- -- ----- -- ------ - ------- --- ----------<br>------------- ------ ------ ---- ---- ------- ----- -- ----<br>-------- ------- -- ---------- --- - --- ----- ----- ----<br>---- --- --- ----- --- ---- that ------- ----- ---- -------<br>--- --- -- ----- -- --- ---- -- --- ---- -- ------ ------<br>--- ----- -- ----,77942.69999999925,77941.90000000224,77462.883,77471,77479.553,77946.392,,34,that
screen,html.Screen,0_2_0_1_35,2021-12-02T14:49:28.809Z,,,,,,,,,,,,,,,,53,,,,,,,,,,,,,,467.40800000073796,,response,,,99,,,,,,Space,keypress(Space),,,,,---- -- ----- -- ------ - ------- --- ----------<br>------------- ------ ------ ---- ---- ------- ----- -- ----<br>-------- ------- -- ---------- --- - --- ----- ----- ----<br>---- --- --- ----- --- ---- ---- matters ----- ---- -------<br>--- --- -- ----- -- --- ---- -- --- ---- -- ------ ------<br>--- ----- -- ----,78414.60000000149,78413.80000000075,77929.721,77942.90000000224,77946.392,78429.795,,35,matters
screen,html.Screen,0_2_0_1_36,2021-12-02T14:49:29.321Z,,,,,,,,,,,,,,,,53,,,,,,,,,,,,,,496.0050000007468,,response,,,99,,,,,,Space,keypress(Space),,,,,"---- -- ----- -- ------ - ------- --- ----------<br>------------- ------ ------ ---- ---- ------- ----- -- ----<br>-------- ------- -- ---------- --- - --- ----- ----- ----<br>---- --- --- ----- --- ---- ---- ------- most, ---- -------<br>--- --- -- ----- -- --- ---- -- --- ---- -- ------ ------<br>--- ----- -- ----",78926.60000000149,78925.80000000075,78413.125,78414.90000000224,78429.795,78929.99,,36,"most,"
screen,html.Screen,0_2_0_1_37,2021-12-02T14:49:29.810Z,,,,,,,,,,,,,,,,53,,,,,,,,,,,,,,483.8100000007398,,response,,,99,,,,,,Space,keypress(Space),,,,,---- -- ----- -- ------ - ------- --- ----------<br>------------- ------ ------ ---- ---- ------- ----- -- ----<br>-------- ------- -- ---------- --- - --- ----- ----- ----<br>---- --- --- ----- --- ---- ---- ------- ----- it's -------<br>--- --- -- ----- -- --- ---- -- --- ---- -- ------ ------<br>--- ----- -- ----,79414.69999999925,79413.80000000075,78913.319,78926.90000000224,78929.99,79430.044,,37,it's
screen,html.Screen,0_2_0_1_38,2021-12-02T14:49:30.314Z,,,,,,,,,,,,,,,,53,,,,,,,,,,,,,,487.75600000075065,,response,,,99,,,,,,Space,keypress(Space),,,,,---- -- ----- -- ------ - ------- --- ----------<br>------------- ------ ------ ---- ---- ------- ----- -- ----<br>-------- ------- -- ---------- --- - --- ----- ----- ----<br>---- --- --- ----- --- ---- ---- ------- ----- ---- whether<br>--- --- -- ----- -- --- ---- -- --- ---- -- ------ ------<br>--- ----- -- ----,79918.80000000075,79917.80000000075,79413.374,79415.19999999925,79430.044,79930.192,,38,whether
screen,html.Screen,0_2_0_1_39,2021-12-02T14:49:30.785Z,,,,,,,,,,,,,,,,53,,,,,,,,,,,,,,459.6080000007496,,response,,,99,,,,,,Space,keypress(Space),,,,,---- -- ----- -- ------ - ------- --- ----------<br>------------- ------ ------ ---- ---- ------- ----- -- ----<br>-------- ------- -- ---------- --- - --- ----- ----- ----<br>---- --- --- ----- --- ---- ---- ------- ----- ---- -------<br>you --- -- ----- -- --- ---- -- --- ---- -- ------ ------<br>--- ----- -- ----,80390.60000000149,80389.80000000075,79913.522,79919,79930.192,80396.907,,39,you
screen,html.Screen,0_2_0_1_40,2021-12-02T14:49:31.241Z,,,,,,,,,,,,,,,,53,,,,,,,,,,,,,,448.7929999992484,,response,,,99,,,,,,Space,keypress(Space),,,,,---- -- ----- -- ------ - ------- --- ----------<br>------------- ------ ------ ---- ---- ------- ----- -- ----<br>-------- ------- -- ---------- --- - --- ----- ----- ----<br>---- --- --- ----- --- ---- ---- ------- ----- ---- -------<br>--- are -- ----- -- --- ---- -- --- ---- -- ------ ------<br>--- ----- -- ----,80846.5,80845.69999999925,80380.238,80390.80000000075,80396.907,80863.73,,40,are
screen,html.Screen,0_2_0_1_41,2021-12-02T14:49:31.745Z,,,,,,,,,,,,,,,,53,,,,,,,,,,,,,,485.969999999259,,response,,,99,,,,,,Space,keypress(Space),,,,,---- -- ----- -- ------ - ------- --- ----------<br>------------- ------ ------ ---- ---- ------- ----- -- ----<br>-------- ------- -- ---------- --- - --- ----- ----- ----<br>---- --- --- ----- --- ---- ---- ------- ----- ---- -------<br>--- --- as ----- -- --- ---- -- --- ---- -- ------ ------<br>--- ----- -- ----,81350.5,81349.69999999925,80847.06,80846.80000000075,80863.73,81363.943,,41,as
screen,html.Screen,0_2_0_1_42,2021-12-02T14:49:32.161Z,,,,,,,,,,,,,,,,53,,,,,,,,,,,,,,401.75699999925564,,response,,,99,,,,,,Space,keypress(Space),,,,,---- -- ----- -- ------ - ------- --- ----------<br>------------- ------ ------ ---- ---- ------- ----- -- ----<br>-------- ------- -- ---------- --- - --- ----- ----- ----<br>---- --- --- ----- --- ---- ---- ------- ----- ---- -------<br>--- --- -- close -- --- ---- -- --- ---- -- ------ ------<br>--- ----- -- ----,81766.40000000224,81765.69999999925,81347.272,81350.69999999925,81363.943,81780.713,,42,close
screen,html.Screen,0_2_0_1_43,2021-12-02T14:49:32.626Z,,,,,,,,,,,,,,,,53,,,,,,,,,,,,,,449.2869999999966,,response,,,99,,,,,,Space,keypress(Space),,,,,---- -- ----- -- ------ - ------- --- ----------<br>------------- ------ ------ ---- ---- ------- ----- -- ----<br>-------- ------- -- ---------- --- - --- ----- ----- ----<br>---- --- --- ----- --- ---- ---- ------- ----- ---- -------<br>--- --- -- ----- as --- ---- -- --- ---- -- ------ ------<br>--- ----- -- ----,82230.80000000075,82230,81764.042,81766.69999999925,81780.713,82247.463,,43,as
screen,html.Screen,0_2_0_1_44,2021-12-02T14:49:33.129Z,,,,,,,,,,,,,,,,53,,,,,,,,,,,,,,486.13700000148674,,response,,,99,,,,,,Space,keypress(Space),,,,,---- -- ----- -- ------ - ------- --- ----------<br>------------- ------ ------ ---- ---- ------- ----- -- ----<br>-------- ------- -- ---------- --- - --- ----- ----- ----<br>---- --- --- ----- --- ---- ---- ------- ----- ---- -------<br>--- --- -- ----- -- you ---- -- --- ---- -- ------ ------<br>--- ----- -- ----,82734.40000000224,82733.60000000149,82230.793,82231.10000000149,82247.463,82747.575,,44,you
screen,html.Screen,0_2_0_1_45,2021-12-02T14:49:33.553Z,,,,,,,,,,,,,,,,53,,,,,,,,,,,,,,410.025000001493,,response,,,99,,,,,,Space,keypress(Space),,,,,---- -- ----- -- ------ - ------- --- ----------<br>------------- ------ ------ ---- ---- ------- ----- -- ----<br>-------- ------- -- ---------- --- - --- ----- ----- ----<br>---- --- --- ----- --- ---- ---- ------- ----- ---- -------<br>--- --- -- ----- -- --- want -- --- ---- -- ------ ------<br>--- ----- -- ----,83158.40000000224,83157.60000000149,82730.905,82734.60000000149,82747.575,83164.401,,45,want
screen,html.Screen,0_2_0_1_46,2021-12-02T14:49:34.001Z,,,,,,,,,,,,,,,,53,,,,,,,,,,,,,,441.099000000002,,response,,,99,,,,,,Space,keypress(Space),,,,,---- -- ----- -- ------ - ------- --- ----------<br>------------- ------ ------ ---- ---- ------- ----- -- ----<br>-------- ------- -- ---------- --- - --- ----- ----- ----<br>---- --- --- ----- --- ---- ---- ------- ----- ---- -------<br>--- --- -- ----- -- --- ---- to --- ---- -- ------ ------<br>--- ----- -- ----,83606.30000000075,83605.5,83147.73,83158.60000000149,83164.401,83614.469,,46,to
screen,html.Screen,0_2_0_1_47,2021-12-02T14:49:34.465Z,,,,,,,,,,,,,,,,53,,,,,,,,,,,,,,455.0310000000027,,response,,,99,,,,,,Space,keypress(Space),,,,,"---- -- ----- -- ------ - ------- --- ----------<br>------------- ------ ------ ---- ---- ------- ----- -- ----<br>-------- ------- -- ---------- --- - --- ----- ----- ----<br>---- --- --- ----- --- ---- ---- ------- ----- ---- -------<br>--- --- -- ----- -- --- ---- -- be, ---- -- ------ ------<br>--- ----- -- ----",84070.30000000075,84069.5,83597.799,83606.60000000149,83614.469,84081.309,,47,"be,"
screen,html.Screen,0_2_0_1_48,2021-12-02T14:49:35.017Z,,,,,,,,,,,,,,,,53,,,,,,,,,,,,,,540.0910000022413,,response,,,99,,,,,,Space,keypress(Space),,,,,---- -- ----- -- ------ - ------- --- ----------<br>------------- ------ ------ ---- ---- ------- ----- -- ----<br>-------- ------- -- ---------- --- - --- ----- ----- ----<br>---- --- --- ----- --- ---- ---- ------- ----- ---- -------<br>--- --- -- ----- -- --- ---- -- --- even -- ------ ------<br>--- ----- -- ----,84622.40000000224,84621.40000000224,84064.638,84070.60000000149,84081.309,84631.288,,48,even
screen,html.Screen,0_2_0_1_49,2021-12-02T14:49:35.761Z,,,,,,,,,,,,,,,,53,,,,,,,,,,,,,,734.2119999999995,,response,,,99,,,,,,Space,keypress(Space),,,,,---- -- ----- -- ------ - ------- --- ----------<br>------------- ------ ------ ---- ---- ------- ----- -- ----<br>-------- ------- -- ---------- --- - --- ----- ----- ----<br>---- --- --- ----- --- ---- ---- ------- ----- ---- -------<br>--- --- -- ----- -- --- ---- -- --- ---- if ------ ------<br>--- ----- -- ----,85366.30000000075,85365.5,84614.619,84622.60000000149,84631.288,85381.649,,49,if
screen,html.Screen,0_2_0_1_50,2021-12-02T14:49:36.289Z,,,,,,,,,,,,,,,,53,,,,,,,,,,,,,,511.7510000022303,,response,,,99,,,,,,Space,keypress(Space),,,,,---- -- ----- -- ------ - ------- --- ----------<br>------------- ------ ------ ---- ---- ------- ----- -- ----<br>-------- ------- -- ---------- --- - --- ----- ----- ----<br>---- --- --- ----- --- ---- ---- ------- ----- ---- -------<br>--- --- -- ----- -- --- ---- -- --- ---- -- that's ------<br>--- ----- -- ----,85894.40000000224,85893.40000000224,85364.978,85366.5,85381.649,85898.263,,50,that's
screen,html.Screen,0_2_0_1_51,2021-12-02T14:49:36.761Z,,,,,,,,,,,,,,,,53,,,,,,,,,,,,,,467.2369999999937,,response,,,99,,,,,,Space,keypress(Space),,,,,---- -- ----- -- ------ - ------- --- ----------<br>------------- ------ ------ ---- ---- ------- ----- -- ----<br>-------- ------- -- ---------- --- - --- ----- ----- ----<br>---- --- --- ----- --- ---- ---- ------- ----- ---- -------<br>--- --- -- ----- -- --- ---- -- --- ---- -- ------ really<br>--- ----- -- ----,86366.30000000075,86365.5,85881.594,85894.69999999925,85898.263,86381.791,,51,really
screen,html.Screen,0_2_0_1_52,2021-12-02T14:49:37.273Z,,,,,,,,,,,,,,,,53,,,,,,,,,,,,,,495.60900000223774,,response,,,99,,,,,,Space,keypress(Space),,,,,---- -- ----- -- ------ - ------- --- ----------<br>------------- ------ ------ ---- ---- ------- ----- -- ----<br>-------- ------- -- ---------- --- - --- ----- ----- ----<br>---- --- --- ----- --- ---- ---- ------- ----- ---- -------<br>--- --- -- ----- -- --- ---- -- --- ---- -- ------ ------<br>not ----- -- ----,86878.10000000149,86877.40000000224,86365.121,86366.5,86381.791,86882.056,,52,not
screen,html.Screen,0_2_0_1_53,2021-12-02T14:49:37.745Z,,,,,,,,,,,,,,,,53,,,,,,,,,,,,,,467.3440000022383,,response,,,99,,,,,,Space,keypress(Space),,,,,---- -- ----- -- ------ - ------- --- ----------<br>------------- ------ ------ ---- ---- ------- ----- -- ----<br>-------- ------- -- ---------- --- - --- ----- ----- ----<br>---- --- --- ----- --- ---- ---- ------- ----- ---- -------<br>--- --- -- ----- -- --- ---- -- --- ---- -- ------ ------<br>--- close -- ----,87350.19999999925,87349.40000000224,86865.384,86878.40000000224,86882.056,87365.488,,53,close
screen,html.Screen,0_2_0_1_54,2021-12-02T14:49:38.185Z,,,,,,,,,,,,,,,,53,,,,,,,,,,,,,,423.8120000007475,,response,,,99,,,,,,Space,keypress(Space),,,,,---- -- ----- -- ------ - ------- --- ----------<br>------------- ------ ------ ---- ---- ------- ----- -- ----<br>-------- ------- -- ---------- --- - --- ----- ----- ----<br>---- --- --- ----- --- ---- ---- ------- ----- ---- -------<br>--- --- -- ----- -- --- ---- -- --- ---- -- ------ ------<br>--- ----- at ----,87790.19999999925,87789.30000000075,87348.817,87350.40000000224,87365.488,87798.887,,54,at
screen,html.Screen,0_2_0_1_55,2021-12-02T14:49:38.665Z,,,,,,,,,,,,,,,,53,,,,,,,,,,,,,,470.4130000007426,,response,,,99,,,,,,Space,keypress(Space),,,,,---- -- ----- -- ------ - ------- --- ----------<br>------------- ------ ------ ---- ---- ------- ----- -- ----<br>-------- ------- -- ---------- --- - --- ----- ----- ----<br>---- --- --- ----- --- ---- ---- ------- ----- ---- -------<br>--- --- -- ----- -- --- ---- -- --- ---- -- ------ ------<br>--- ----- -- all.,88270.19999999925,88269.30000000075,87782.217,87790.40000000224,87798.887,88282.343,,55,all.
Item 99,flow.Loop,0_2_0_1,2021-12-02T14:49:38.670Z,,,,,,,,,,,,,,,,,,,,,,,,,,,,,,28811.245000000745,,completion,,,,C,,,,,,,,,,silence,,88274.69999999925,88269.30000000075,59424.717,59432.400000002235,59458.055,88282.343,,,
Question 1,html.Screen,0_2_0_2,2021-12-02T14:49:49.222Z,,,,,,,,,,,,,,,,,,,,,,,,,,,true,FALSE,,10543.657000000007,,response,,,99,C,,,,,FALSE,click #choice-2,,,,silence,,98827.40000000224,98826,88265.673,88275,88282.343,98834.965,,,
Question 2,html.Screen,0_2_0_3,2021-12-02T14:49:54.311Z,,,,,,,,,,,,,,,,,,,,,,,,,,,true,TRUE,,5080.234999999258,,response,,,99,C,,,,,TRUE,click #choice-1,,,,silence,,103916.5,103915.19999999925,98818.298,98827.69999999925,98834.965,103936.305,,,
Item 99,flow.Sequence,0_2_0,2021-12-02T14:49:54.312Z,,,,,,,,,,,,,,,,,,,,,,,,,,,,,,54476.02999999926,,completion,,,,,,,,,,,,,,,,103917,103915.19999999925,49422.497,49438.60000000149,49439.17,103936.305,,,
Holding screen,html.Screen,0_2_1_0,2021-12-02T14:50:04.318Z,,,,,,,,,,,,,,,,,,,,,,,,,,,,,,10002.545000000013,,timeout,,,,,,,,,,,,,,,,113923.30000000075,113922.18,103919.636,103917.30000000075,103936.305,113938.85,,,
screen,html.Screen,0_2_1_1_0,2021-12-02T14:50:05.328Z,,,,,,,,,,,,,,,,54,,,,,,,,,,,,,,993.5500000022294,,response,,,100,,,,,,Space,keypress(Space),,,,,At --- ---- --- ------ ----- ------- ---- -- --- ------- --<br>------- ---------- ------ -- ----- -- ----- -- ---- ------<br>--- ----- --- --- ------ -------- ----- --- ------ ----- --<br>----- ----- ---------- --- --- ------ ------ ---- -- ------<br>------- --- ------ ----- --- ---- ------- -- ---- --- --<br>------- ------,114933.19999999925,114932.40000000224,113922.18,113923.80000000075,113938.85,114939.258,,0,At
screen,html.Screen,0_2_1_1_1,2021-12-02T14:50:05.935Z,,,,,,,,,,,,,,,,54,,,,,,,,,,,,,,600.5420000007434,,response,,,100,,,,,,Space,keypress(Space),,,,,-- the ---- --- ------ ----- ------- ---- -- --- ------- --<br>------- ---------- ------ -- ----- -- ----- -- ---- ------<br>--- ----- --- --- ------ -------- ----- --- ------ ----- --<br>----- ----- ---------- --- --- ------ ------ ---- -- ------<br>------- --- ------ ----- --- ---- ------- -- ---- --- --<br>------- ------,115540.69999999925,115539.80000000075,114922.587,114933.5,114939.258,115555.94,,1,the
screen,html.Screen,0_2_1_1_2,2021-12-02T14:50:06.496Z,,,,,,,,,,,,,,,,54,,,,,,,,,,,,,,543.8600000007427,,response,,,100,,,,,,Space,keypress(Space),,,,,-- --- time --- ------ ----- ------- ---- -- --- ------- --<br>------- ---------- ------ -- ----- -- ----- -- ---- ------<br>--- ----- --- --- ------ -------- ----- --- ------ ----- --<br>----- ----- ---------- --- --- ------ ------ ---- -- ------<br>------- --- ------ ----- --- ---- ------- -- ---- --- --<br>------- ------,116100.80000000075,116099.80000000075,115539.27,115540.90000000224,115555.94,116106.235,,2,time
screen,html.Screen,0_2_1_1_3,2021-12-02T14:50:07.111Z,,,,,,,,,,,,,,,,54,,,,,,,,,,,,,,609.4649999992544,,response,,,100,,,,,,Space,keypress(Space),,,,,-- --- ---- the ------ ----- ------- ---- -- --- ------- --<br>------- ---------- ------ -- ----- -- ----- -- ---- ------<br>--- ----- --- --- ------ -------- ----- --- ------ ----- --<br>----- ----- ---------- --- --- ------ ------ ---- -- ------<br>------- --- ------ ----- --- ---- ------- -- ---- --- --<br>------- ------,116716.60000000149,116715.69999999925,116089.564,116101,116106.235,116722.957,,3,the
screen,html.Screen,0_2_1_1_4,2021-12-02T14:50:07.687Z,,,,,,,,,,,,,,,,54,,,,,,,,,,,,,,568.7429999992601,,response,,,100,,,,,,Space,keypress(Space),,,,,-- --- ---- --- French ----- ------- ---- -- --- ------- --<br>------- ---------- ------ -- ----- -- ----- -- ---- ------<br>--- ----- --- --- ------ -------- ----- --- ------ ----- --<br>----- ----- ---------- --- --- ------ ------ ---- -- ------<br>------- --- ------ ----- --- ---- ------- -- ---- --- --<br>------- ------,117292.5,117291.69999999925,116706.287,116716.80000000075,116722.957,117306.542,,4,French
screen,html.Screen,0_2_1_1_5,2021-12-02T14:50:08.199Z,,,,,,,,,,,,,,,,54,,,,,,,,,,,,,,497.15799999925366,,response,,,100,,,,,,Space,keypress(Space),,,,,-- --- ---- --- ------ crown ------- ---- -- --- ------- --<br>------- ---------- ------ -- ----- -- ----- -- ---- ------<br>--- ----- --- --- ------ -------- ----- --- ------ ----- --<br>----- ----- ---------- --- --- ------ ------ ---- -- ------<br>------- --- ------ ----- --- ---- ------- -- ---- --- --<br>------- ------,117804.69999999925,117803.69999999925,117289.871,117292.80000000075,117306.542,117806.598,,5,crown
screen,html.Screen,0_2_1_1_6,2021-12-02T14:50:08.903Z,,,,,,,,,,,,,,,,54,,,,,,,,,,,,,,701.002000001492,,response,,,100,,,,,,Space,keypress(Space),,,,,-- --- ---- --- ------ ----- secured ---- -- --- ------- --<br>------- ---------- ------ -- ----- -- ----- -- ---- ------<br>--- ----- --- --- ------ -------- ----- --- ------ ----- --<br>----- ----- ---------- --- --- ------ ------ ---- -- ------<br>------- --- ------ ----- --- ---- ------- -- ---- --- --<br>------- ------,118508.40000000224,118507.60000000149,117789.928,117804.90000000224,117806.598,118523.434,,6,secured
screen,html.Screen,0_2_1_1_7,2021-12-02T14:50:09.415Z,,,,,,,,,,,,,,,,54,,,,,,,,,,,,,,496.1660000014963,,response,,,100,,,,,,Space,keypress(Space),,,,,-- --- ---- --- ------ ----- ------- much -- --- ------- --<br>------- ---------- ------ -- ----- -- ----- -- ---- ------<br>--- ----- --- --- ------ -------- ----- --- ------ ----- --<br>----- ----- ---------- --- --- ------ ------ ---- -- ------<br>------- --- ------ ----- --- ---- ------- -- ---- --- --<br>------- ------,119020.30000000075,119019.60000000149,118506.764,118508.60000000149,118523.434,119023.468,,7,much
screen,html.Screen,0_2_1_1_8,2021-12-02T14:50:09.983Z,,,,,,,,,,,,,,,,54,,,,,,,,,,,,,,564.1320000014966,,response,,,100,,,,,,Space,keypress(Space),,,,,-- --- ---- --- ------ ----- ------- ---- of --- ------- --<br>------- ---------- ------ -- ----- -- ----- -- ---- ------<br>--- ----- --- --- ------ -------- ----- --- ------ ----- --<br>----- ----- ---------- --- --- ------ ------ ---- -- ------<br>------- --- ------ ----- --- ---- ------- -- ---- --- --<br>------- ------,119588.30000000075,119587.60000000149,119006.799,119020.60000000149,119023.468,119590.457,,8,of
screen,html.Screen,0_2_1_1_9,2021-12-02T14:50:10.922Z,,,,,,,,,,,,,,,,54,,,,,,,,,,,,,,933.0430000000051,,response,,,100,,,,,,Space,keypress(Space),,,,,-- --- ---- --- ------ ----- ------- ---- -- its ------- --<br>------- ---------- ------ -- ----- -- ----- -- ---- ------<br>--- ----- --- --- ------ -------- ----- --- ------ ----- --<br>----- ----- ---------- --- --- ------ ------ ---- -- ------<br>------- --- ------ ----- --- ---- ------- -- ---- --- --<br>------- ------,120524.30000000075,120523.5,119573.786,119588.69999999925,119590.457,120540.602,,9,its
screen,html.Screen,0_2_1_1_10,2021-12-02T14:50:11.434Z,,,,,,,,,,,,,,,,54,,,,,,,,,,,,,,494.99800000149116,,response,,,100,,,,,,Space,keypress(Space),,,,,-- --- ---- --- ------ ----- ------- ---- -- --- revenue --<br>------- ---------- ------ -- ----- -- ----- -- ---- ------<br>--- ----- --- --- ------ -------- ----- --- ------ ----- --<br>----- ----- ---------- --- --- ------ ------ ---- -- ------<br>------- --- ------ ----- --- ---- ------- -- ---- --- --<br>------- ------,121036.30000000075,121035.60000000149,120523.932,120524.60000000149,120540.602,121040.763,,10,revenue
screen,html.Screen,0_2_1_1_11,2021-12-02T14:50:11.874Z,,,,,,,,,,,,,,,,54,,,,,,,,,,,,,,434.7369999999937,,response,,,100,,,,,,Space,keypress(Space),,,,,-- --- ---- --- ------ ----- ------- ---- -- --- ------- by<br>------- ---------- ------ -- ----- -- ----- -- ---- ------<br>--- ----- --- --- ------ -------- ----- --- ------ ----- --<br>----- ----- ---------- --- --- ------ ------ ---- -- ------<br>------- --- ------ ----- --- ---- ------- -- ---- --- --<br>------- ------,121476.5,121475.5,121024.093,121036.5,121040.763,121490.888,,11,by
screen,html.Screen,0_2_1_1_12,2021-12-02T14:50:12.402Z,,,,,,,,,,,,,,,,54,,,,,,,,,,,,,,512.5120000022289,,response,,,100,,,,,,Space,keypress(Space),,,,,-- --- ---- --- ------ ----- ------- ---- -- --- ------- --<br>issuing ---------- ------ -- ----- -- ----- -- ---- ------<br>--- ----- --- --- ------ -------- ----- --- ------ ----- --<br>----- ----- ---------- --- --- ------ ------ ---- -- ------<br>------- --- ------ ----- --- ---- ------- -- ---- --- --<br>------- ------,122004.19999999925,122003.40000000224,121474.218,121476.69999999925,121490.888,122007.684,,12,issuing
screen,html.Screen,0_2_1_1_13,2021-12-02T14:50:12.922Z,,,,,,,,,,,,,,,,54,,,,,,,,,,,,,,515.7160000022413,,response,,,100,,,,,,Space,keypress(Space),,,,,-- --- ---- --- ------ ----- ------- ---- -- --- ------- --<br>------- government ------ -- ----- -- ----- -- ---- ------<br>--- ----- --- --- ------ -------- ----- --- ------ ----- --<br>----- ----- ---------- --- --- ------ ------ ---- -- ------<br>------- --- ------ ----- --- ---- ------- -- ---- --- --<br>------- ------,122524.19999999925,122523.40000000224,121991.014,122004.5,122007.684,122541.202,,13,government
screen,html.Screen,0_2_1_1_14,2021-12-02T14:50:13.538Z,,,,,,,,,,,,,,,,54,,,,,,,,,,,,,,598.1980000022304,,response,,,100,,,,,,Space,keypress(Space),,,,,-- --- ---- --- ------ ----- ------- ---- -- --- ------- --<br>------- ---------- bonds. -- ----- -- ----- -- ---- ------<br>--- ----- --- --- ------ -------- ----- --- ------ ----- --<br>----- ----- ---------- --- --- ------ ------ ---- -- ------<br>------- --- ------ ----- --- ---- ------- -- ---- --- --<br>------- ------,123140.19999999925,123139.40000000224,122524.531,122524.5,122541.202,123141.295,,14,bonds.
screen,html.Screen,0_2_1_1_15,2021-12-02T14:50:13.962Z,,,,,,,,,,,,,,,,54,,,,,,,,,,,,,,422.0050000007468,,response,,,100,,,,,,Space,keypress(Space),,,,,-- --- ---- --- ------ ----- ------- ---- -- --- ------- --<br>------- ---------- ------ In ----- -- ----- -- ---- ------<br>--- ----- --- --- ------ -------- ----- --- ------ ----- --<br>----- ----- ---------- --- --- ------ ------ ---- -- ------<br>------- --- ------ ----- --- ---- ------- -- ---- --- --<br>------- ------,123564.19999999925,123563.30000000075,123124.625,123140.40000000224,123141.295,123574.744,,15,In
screen,html.Screen,0_2_1_1_16,2021-12-02T14:50:14.426Z,,,,,,,,,,,,,,,,54,,,,,,,,,,,,,,452.556000000739,,response,,,100,,,,,,Space,keypress(Space),,,,,"-- --- ---- --- ------ ----- ------- ---- -- --- ------- --<br>------- ---------- ------ -- 1727, -- ----- -- ---- ------<br>--- ----- --- --- ------ -------- ----- --- ------ ----- --<br>----- ----- ---------- --- --- ------ ------ ---- -- ------<br>------- --- ------ ----- --- ---- ------- -- ---- --- --<br>------- ------",124028.19999999925,124027.30000000075,123558.074,123564.40000000224,123574.744,124041.46,,16,"1727,"
screen,html.Screen,0_2_1_1_17,2021-12-02T14:50:15.482Z,,,,,,,,,,,,,,,,54,,,,,,,,,,,,,,1042.2399999992485,,response,,,100,,,,,,Space,keypress(Space),,,,,-- --- ---- --- ------ ----- ------- ---- -- --- ------- --<br>------- ---------- ------ -- ----- in ----- -- ---- ------<br>--- ----- --- --- ------ -------- ----- --- ------ ----- --<br>----- ----- ---------- --- --- ------ ------ ---- -- ------<br>------- --- ------ ----- --- ---- ------- -- ---- --- --<br>------- ------,125084.5,125083.69999999925,124024.791,124028.40000000224,124041.46,125091.963,,17,in
screen,html.Screen,0_2_1_1_18,2021-12-02T14:50:15.858Z,,,,,,,,,,,,,,,,54,,,,,,,,,,,,,,367.3370000007417,,response,,,100,,,,,,Space,keypress(Space),,,,,-- --- ---- --- ------ ----- ------- ---- -- --- ------- --<br>------- ---------- ------ -- ----- -- order -- ---- ------<br>--- ----- --- --- ------ -------- ----- --- ------ ----- --<br>----- ----- ---------- --- --- ------ ------ ---- -- ------<br>------- --- ------ ----- --- ---- ------- -- ---- --- --<br>------- ------,125460.10000000149,125459.30000000075,125075.291,125084.69999999925,125091.963,125475.232,,18,order
screen,html.Screen,0_2_1_1_19,2021-12-02T14:50:16.354Z,,,,,,,,,,,,,,,,54,,,,,,,,,,,,,,479.96799999925133,,response,,,100,,,,,,Space,keypress(Space),,,,,-- --- ---- --- ------ ----- ------- ---- -- --- ------- --<br>------- ---------- ------ -- ----- -- ----- to ---- ------<br>--- ----- --- --- ------ -------- ----- --- ------ ----- --<br>----- ----- ---------- --- --- ------ ------ ---- -- ------<br>------- --- ------ ----- --- ---- ------- -- ---- --- --<br>------- ------,125956,125955.19999999925,125458.562,125460.30000000075,125475.232,125958.7,,19,to
screen,html.Screen,0_2_1_1_20,2021-12-02T14:50:16.810Z,,,,,,,,,,,,,,,,54,,,,,,,,,,,,,,452.49999999925785,,response,,,100,,,,,,Space,keypress(Space),,,,,-- --- ---- --- ------ ----- ------- ---- -- --- ------- --<br>------- ---------- ------ -- ----- -- ----- -- save ------<br>--- ----- --- --- ------ -------- ----- --- ------ ----- --<br>----- ----- ---------- --- --- ------ ------ ---- -- ------<br>------- --- ------ ----- --- ---- ------- -- ---- --- --<br>------- ------,126412,126411.19999999925,125942.03,125956.30000000075,125958.7,126425.488,,20,save
screen,html.Screen,0_2_1_1_21,2021-12-02T14:50:17.194Z,,,,,,,,,,,,,,,,54,,,,,,,,,,,,,,369.7119999992574,,response,,,100,,,,,,Space,keypress(Space),,,,,"-- --- ---- --- ------ ----- ------- ---- -- --- ------- --<br>------- ---------- ------ -- ----- -- ----- -- ---- money,<br>--- ----- --- --- ------ -------- ----- --- ------ ----- --<br>----- ----- ---------- --- --- ------ ------ ---- -- ------<br>------- --- ------ ----- --- ---- ------- -- ---- --- --<br>------- ------",126796,126795.19999999925,126408.818,126412.30000000075,126425.488,126808.926,,21,"money,"
screen,html.Screen,0_2_1_1_22,2021-12-02T14:50:17.682Z,,,,,,,,,,,,,,,,54,,,,,,,,,,,,,,474.2739999992482,,response,,,100,,,,,,Space,keypress(Space),,,,,-- --- ---- --- ------ ----- ------- ---- -- --- ------- --<br>------- ---------- ------ -- ----- -- ----- -- ---- ------<br>the ----- --- --- ------ -------- ----- --- ------ ----- --<br>----- ----- ---------- --- --- ------ ------ ---- -- ------<br>------- --- ------ ----- --- ---- ------- -- ---- --- --<br>------- ------,127283.90000000224,127283.19999999925,126792.256,126796.19999999925,126808.926,127292.423,,22,the
screen,html.Screen,0_2_1_1_23,2021-12-02T14:50:18.082Z,,,,,,,,,,,,,,,,54,,,,,,,,,,,,,,390.7769999992597,,response,,,100,,,,,,Space,keypress(Space),,,,,-- --- ---- --- ------ ----- ------- ---- -- --- ------- --<br>------- ---------- ------ -- ----- -- ----- -- ---- ------<br>--- state --- --- ------ -------- ----- --- ------ ----- --<br>----- ----- ---------- --- --- ------ ------ ---- -- ------<br>------- --- ------ ----- --- ---- ------- -- ---- --- --<br>------- ------,127684,127683.19999999925,127275.752,127284.19999999925,127292.423,127692.429,,23,state
screen,html.Screen,0_2_1_1_24,2021-12-02T14:50:18.490Z,,,,,,,,,,,,,,,,54,,,,,,,,,,,,,,398.6710000014864,,response,,,100,,,,,,Space,keypress(Space),,,,,-- --- ---- --- ------ ----- ------- ---- -- --- ------- --<br>------- ---------- ------ -- ----- -- ----- -- ---- ------<br>--- ----- cut --- ------ -------- ----- --- ------ ----- --<br>----- ----- ---------- --- --- ------ ------ ---- -- ------<br>------- --- ------ ----- --- ---- ------- -- ---- --- --<br>------- ------,128092,128091.10000000149,127675.76,127684.19999999925,127692.429,128109.255,,24,cut
screen,html.Screen,0_2_1_1_25,2021-12-02T14:50:19.242Z,,,,,,,,,,,,,,,,54,,,,,,,,,,,,,,733.8450000014855,,response,,,100,,,,,,Space,keypress(Space),,,,,-- --- ---- --- ------ ----- ------- ---- -- --- ------- --<br>------- ---------- ------ -- ----- -- ----- -- ---- ------<br>--- ----- --- the ------ -------- ----- --- ------ ----- --<br>----- ----- ---------- --- --- ------ ------ ---- -- ------<br>------- --- ------ ----- --- ---- ------- -- ---- --- --<br>------- ------,128843.90000000224,128843.10000000149,128092.585,128092.10000000149,128109.255,128859.489,,25,the
screen,html.Screen,0_2_1_1_26,2021-12-02T14:50:19.554Z,,,,,,,,,,,,,,,,54,,,,,,,,,,,,,,295.6110000014887,,response,,,100,,,,,,Space,keypress(Space),,,,,-- --- ---- --- ------ ----- ------- ---- -- --- ------- --<br>------- ---------- ------ -- ----- -- ----- -- ---- ------<br>--- ----- --- --- bonds' -------- ----- --- ------ ----- --<br>----- ----- ---------- --- --- ------ ------ ---- -- ------<br>------- --- ------ ----- --- ---- ------- -- ---- --- --<br>------- ------,129155.90000000224,129155.10000000149,128842.818,128844.19999999925,128859.489,129159.537,,26,bonds'
screen,html.Screen,0_2_1_1_27,2021-12-02T14:50:20.250Z,,,,,,,,,,,,,,,,54,,,,,,,,,,,,,,691.4630000000034,,response,,,100,,,,,,Space,keypress(Space),,,,,-- --- ---- --- ------ ----- ------- ---- -- --- ------- --<br>------- ---------- ------ -- ----- -- ----- -- ---- ------<br>--- ----- --- --- ------ interest ----- --- ------ ----- --<br>----- ----- ---------- --- --- ------ ------ ---- -- ------<br>------- --- ------ ----- --- ---- ------- -- ---- --- --<br>------- ------,129851.80000000075,129851,129142.867,129156.10000000149,129159.537,129859.698,,27,interest
screen,html.Screen,0_2_1_1_28,2021-12-02T14:50:20.786Z,,,,,,,,,,,,,,,,54,,,,,,,,,,,,,,527.301999999996,,response,,,100,,,,,,Space,keypress(Space),,,,,-- --- ---- --- ------ ----- ------- ---- -- --- ------- --<br>------- ---------- ------ -- ----- -- ----- -- ---- ------<br>--- ----- --- --- ------ -------- rate. --- ------ ----- --<br>----- ----- ---------- --- --- ------ ------ ---- -- ------<br>------- --- ------ ----- --- ---- ------- -- ---- --- --<br>------- ------,130387.90000000224,130387,129843.028,129852,129859.698,130393.157,,28,rate.
screen,html.Screen,0_2_1_1_29,2021-12-02T14:50:21.466Z,,,,,,,,,,,,,,,,54,,,,,,,,,,,,,,673.7430000022287,,response,,,100,,,,,,Space,keypress(Space),,,,,-- --- ---- --- ------ ----- ------- ---- -- --- ------- --<br>------- ---------- ------ -- ----- -- ----- -- ---- ------<br>--- ----- --- --- ------ -------- ----- The ------ ----- --<br>----- ----- ---------- --- --- ------ ------ ---- -- ------<br>------- --- ------ ----- --- ---- ------- -- ---- --- --<br>------- ------,131067.80000000075,131066.90000000224,130376.487,130388.19999999925,130393.157,131076.675,,29,The
screen,html.Screen,0_2_1_1_30,2021-12-02T14:50:21.762Z,,,,,,,,,,,,,,,,54,,,,,,,,,,,,,,286.2250000022468,,response,,,100,,,,,,Space,keypress(Space),,,,,-- --- ---- --- ------ ----- ------- ---- -- --- ------- --<br>------- ---------- ------ -- ----- -- ----- -- ---- ------<br>--- ----- --- --- ------ -------- ----- --- market ----- --<br>----- ----- ---------- --- --- ------ ------ ---- -- ------<br>------- --- ------ ----- --- ---- ------- -- ---- --- --<br>------- ------,131363.80000000075,131362.90000000224,131060.005,131068,131076.675,131376.833,,30,market
screen,html.Screen,0_2_1_1_31,2021-12-02T14:50:22.282Z,,,,,,,,,,,,,,,,54,,,,,,,,,,,,,,506.16699999998673,,response,,,100,,,,,,Space,keypress(Space),,,,,-- --- ---- --- ------ ----- ------- ---- -- --- ------- --<br>------- ---------- ------ -- ----- -- ----- -- ---- ------<br>--- ----- --- --- ------ -------- ----- --- ------ value --<br>----- ----- ---------- --- --- ------ ------ ---- -- ------<br>------- --- ------ ----- --- ---- ------- -- ---- --- --<br>------- ------,131883.69999999925,131883,131360.162,131364,131376.833,131893.563,,31,value
screen,html.Screen,0_2_1_1_32,2021-12-02T14:50:22.714Z,,,,,,,,,,,,,,,,54,,,,,,,,,,,,,,421.2370000007504,,response,,,100,,,,,,Space,keypress(Space),,,,,-- --- ---- --- ------ ----- ------- ---- -- --- ------- --<br>------- ---------- ------ -- ----- -- ----- -- ---- ------<br>--- ----- --- --- ------ -------- ----- --- ------ ----- of<br>----- ----- ---------- --- --- ------ ------ ---- -- ------<br>------- --- ------ ----- --- ---- ------- -- ---- --- --<br>------- ------,132315.69999999925,132314.80000000075,131876.893,131884,131893.563,132327.017,,32,of
screen,html.Screen,0_2_1_1_33,2021-12-02T14:50:23.122Z,,,,,,,,,,,,,,,,54,,,,,,,,,,,,,,395.7830000007525,,response,,,100,,,,,,Space,keypress(Space),,,,,-- --- ---- --- ------ ----- ------- ---- -- --- ------- --<br>------- ---------- ------ -- ----- -- ----- -- ---- ------<br>--- ----- --- --- ------ -------- ----- --- ------ ----- --<br>these ----- ---------- --- --- ------ ------ ---- -- ------<br>------- --- ------ ----- --- ---- ------- -- ---- --- --<br>------- ------,132723.69999999925,132722.80000000075,132310.347,132316,132327.017,132727.121,,33,these
screen,html.Screen,0_2_1_1_34,2021-12-02T14:50:23.530Z,,,,,,,,,,,,,,,,54,,,,,,,,,,,,,,403.6790000007313,,response,,,100,,,,,,Space,keypress(Space),,,,,-- --- ---- --- ------ ----- ------- ---- -- --- ------- --<br>------- ---------- ------ -- ----- -- ----- -- ---- ------<br>--- ----- --- --- ------ -------- ----- --- ------ ----- --<br>----- bonds ---------- --- --- ------ ------ ---- -- ------<br>------- --- ------ ----- --- ---- ------- -- ---- --- --<br>------- ------,133131.6000000015,133130.80000000075,132710.451,132724,132727.121,133143.798,,34,bonds
screen,html.Screen,0_2_1_1_35,2021-12-02T14:50:24.194Z,,,,,,,,,,,,,,,,54,,,,,,,,,,,,,,650.9019999992452,,response,,,100,,,,,,Space,keypress(Space),,,,,"-- --- ---- --- ------ ----- ------- ---- -- --- ------- --<br>------- ---------- ------ -- ----- -- ----- -- ---- ------<br>--- ----- --- --- ------ -------- ----- --- ------ ----- --<br>----- ----- plummeted, --- --- ------ ------ ---- -- ------<br>------- --- ------ ----- --- ---- ------- -- ---- --- --<br>------- ------",133795.6000000015,133794.69999999925,133127.129,133131.90000000224,133143.798,133810.83,,35,"plummeted,"
screen,html.Screen,0_2_1_1_36,2021-12-02T14:50:24.706Z,,,,,,,,,,,,,,,,54,,,,,,,,,,,,,,495.97000000075786,,response,,,100,,,,,,Space,keypress(Space),,,,,-- --- ---- --- ------ ----- ------- ---- -- --- ------- --<br>------- ---------- ------ -- ----- -- ----- -- ---- ------<br>--- ----- --- --- ------ -------- ----- --- ------ ----- --<br>----- ----- ---------- and --- ------ ------ ---- -- ------<br>------- --- ------ ----- --- ---- ------- -- ---- --- --<br>------- ------,134307.69999999925,134306.80000000075,133794.158,133795.80000000075,133810.83,134310.901,,36,and
screen,html.Screen,0_2_1_1_37,2021-12-02T14:50:25.346Z,,,,,,,,,,,,,,,,54,,,,,,,,,,,,,,635.8990000007325,,response,,,100,,,,,,Space,keypress(Space),,,,,-- --- ---- --- ------ ----- ------- ---- -- --- ------- --<br>------- ---------- ------ -- ----- -- ----- -- ---- ------<br>--- ----- --- --- ------ -------- ----- --- ------ ----- --<br>----- ----- ---------- --- the ------ ------ ---- -- ------<br>------- --- ------ ----- --- ---- ------- -- ---- --- --<br>------- ------,134947.5,134946.80000000075,134294.23,134308,134310.901,134961.018,,37,the
screen,html.Screen,0_2_1_1_38,2021-12-02T14:50:25.794Z,,,,,,,,,,,,,,,,54,,,,,,,,,,,,,,434.181999999244,,response,,,100,,,,,,Space,keypress(Space),,,,,-- --- ---- --- ------ ----- ------- ---- -- --- ------- --<br>------- ---------- ------ -- ----- -- ----- -- ---- ------<br>--- ----- --- --- ------ -------- ----- --- ------ ----- --<br>----- ----- ---------- --- --- market ------ ---- -- ------<br>------- --- ------ ----- --- ---- ------- -- ---- --- --<br>------- ------,135396.1000000015,135395.19999999925,134944.348,134947.80000000075,134961.018,135411.144,,38,market
screen,html.Screen,0_2_1_1_39,2021-12-02T14:50:26.073Z,,,,,,,,,,,,,,,,54,,,,,,,,,,,,,,263.5559999992547,,response,,,100,,,,,,Space,keypress(Space),,,,,-- --- ---- --- ------ ----- ------- ---- -- --- ------- --<br>------- ---------- ------ -- ----- -- ----- -- ---- ------<br>--- ----- --- --- ------ -------- ----- --- ------ ----- --<br>----- ----- ---------- --- --- ------ became ---- -- ------<br>------- --- ------ ----- --- ---- ------- -- ---- --- --<br>------- ------,135675.5,135674.69999999925,135394.474,135396.30000000075,135411.144,135677.851,,39,became
screen,html.Screen,0_2_1_1_40,2021-12-02T14:50:26.698Z,,,,,,,,,,,,,,,,54,,,,,,,,,,,,,,620.8489999992598,,response,,,100,,,,,,Space,keypress(Space),,,,,-- --- ---- --- ------ ----- ------- ---- -- --- ------- --<br>------- ---------- ------ -- ----- -- ----- -- ---- ------<br>--- ----- --- --- ------ -------- ----- --- ------ ----- --<br>----- ----- ---------- --- --- ------ ------ wary -- ------<br>------- --- ------ ----- --- ---- ------- -- ---- --- --<br>------- ------,136299.6000000015,136298.69999999925,135661.181,135675.69999999925,135677.851,136311.408,,40,wary
screen,html.Screen,0_2_1_1_41,2021-12-02T14:50:27.145Z,,,,,,,,,,,,,,,,54,,,,,,,,,,,,,,435.29199999925913,,response,,,100,,,,,,Space,keypress(Space),,,,,-- --- ---- --- ------ ----- ------- ---- -- --- ------- --<br>------- ---------- ------ -- ----- -- ----- -- ---- ------<br>--- ----- --- --- ------ -------- ----- --- ------ ----- --<br>----- ----- ---------- --- --- ------ ------ ---- of ------<br>------- --- ------ ----- --- ---- ------- -- ---- --- --<br>------- ------,136747.40000000224,136746.69999999925,136294.737,136301.19999999925,136311.408,136761.527,,41,of
screen,html.Screen,0_2_1_1_42,2021-12-02T14:50:27.537Z,,,,,,,,,,,,,,,,54,,,,,,,,,,,,,,377.07300000148825,,response,,,100,,,,,,Space,keypress(Space),,,,,-- --- ---- --- ------ ----- ------- ---- -- --- ------- --<br>------- ---------- ------ -- ----- -- ----- -- ---- ------<br>--- ----- --- --- ------ -------- ----- --- ------ ----- --<br>----- ----- ---------- --- --- ------ ------ ---- -- French<br>------- --- ------ ----- --- ---- ------- -- ---- --- --<br>------- ------,137139.40000000224,137138.6000000015,136744.856,136747.69999999925,136761.527,137144.929,,42,French
screen,html.Screen,0_2_1_1_43,2021-12-02T14:50:28.057Z,,,,,,,,,,,,,,,,54,,,,,,,,,,,,,,513.6710000014864,,response,,,100,,,,,,Space,keypress(Space),,,,,-- --- ---- --- ------ ----- ------- ---- -- --- ------- --<br>------- ---------- ------ -- ----- -- ----- -- ---- ------<br>--- ----- --- --- ------ -------- ----- --- ------ ----- --<br>----- ----- ---------- --- --- ------ ------ ---- -- ------<br>credit. --- ------ ----- --- ---- ------- -- ---- --- --<br>------- ------,137659.5,137658.6000000015,137128.259,137139.69999999925,137144.929,137661.709,,43,credit.
screen,html.Screen,0_2_1_1_44,2021-12-02T14:50:28.777Z,,,,,,,,,,,,,,,,54,,,,,,,,,,,,,,716.8910000014876,,response,,,100,,,,,,Space,keypress(Space),,,,,-- --- ---- --- ------ ----- ------- ---- -- --- ------- --<br>------- ---------- ------ -- ----- -- ----- -- ---- ------<br>--- ----- --- --- ------ -------- ----- --- ------ ----- --<br>----- ----- ---------- --- --- ------ ------ ---- -- ------<br>------- The ------ ----- --- ---- ------- -- ---- --- --<br>------- ------,138379.40000000224,138378.6000000015,137645.039,137659.69999999925,137661.709,138395.209,,44,The
screen,html.Screen,0_2_1_1_45,2021-12-02T14:50:29.513Z,,,,,,,,,,,,,,,,54,,,,,,,,,,,,,,719.2909999999974,,response,,,100,,,,,,Space,keypress(Space),,,,,-- --- ---- --- ------ ----- ------- ---- -- --- ------- --<br>------- ---------- ------ -- ----- -- ----- -- ---- ------<br>--- ----- --- --- ------ -------- ----- --- ------ ----- --<br>----- ----- ---------- --- --- ------ ------ ---- -- ------<br>------- --- French ----- --- ---- ------- -- ---- --- --<br>------- ------,139115.30000000075,139114.5,138378.539,138379.69999999925,138395.209,139128.801,,45,French
screen,html.Screen,0_2_1_1_46,2021-12-02T14:50:30.121Z,,,,,,,,,,,,,,,,54,,,,,,,,,,,,,,593.6989999999932,,response,,,100,,,,,,Space,keypress(Space),,,,,-- --- ---- --- ------ ----- ------- ---- -- --- ------- --<br>------- ---------- ------ -- ----- -- ----- -- ---- ------<br>--- ----- --- --- ------ -------- ----- --- ------ ----- --<br>----- ----- ---------- --- --- ------ ------ ---- -- ------<br>------- --- ------ state --- ---- ------- -- ---- --- --<br>------- ------,139723.30000000075,139722.5,139112.13,139115.5,139128.801,139728.905,,46,state
screen,html.Screen,0_2_1_1_47,2021-12-02T14:50:30.657Z,,,,,,,,,,,,,,,,54,,,,,,,,,,,,,,529.4950000022363,,response,,,100,,,,,,Space,keypress(Space),,,,,-- --- ---- --- ------ ----- ------- ---- -- --- ------- --<br>------- ---------- ------ -- ----- -- ----- -- ---- ------<br>--- ----- --- --- ------ -------- ----- --- ------ ----- --<br>----- ----- ---------- --- --- ------ ------ ---- -- ------<br>------- --- ------ ----- was ---- ------- -- ---- --- --<br>------- ------,140259.19999999925,140258.40000000224,139712.235,139723.6000000015,139728.905,140262.382,,47,was
screen,html.Screen,0_2_1_1_48,2021-12-02T14:50:31.361Z,,,,,,,,,,,,,,,,54,,,,,,,,,,,,,,700.0180000022228,,response,,,100,,,,,,Space,keypress(Space),,,,,-- --- ---- --- ------ ----- ------- ---- -- --- ------- --<br>------- ---------- ------ -- ----- -- ----- -- ---- ------<br>--- ----- --- --- ------ -------- ----- --- ------ ----- --<br>----- ----- ---------- --- --- ------ ------ ---- -- ------<br>------- --- ------ ----- --- left ------- -- ---- --- --<br>------- ------,140963.19999999925,140962.40000000224,140245.712,140259.40000000224,140262.382,140979.226,,48,left
screen,html.Screen,0_2_1_1_49,2021-12-02T14:50:31.785Z,,,,,,,,,,,,,,,,54,,,,,,,,,,,,,,407.17400000224006,,response,,,100,,,,,,Space,keypress(Space),,,,,-- --- ---- --- ------ ----- ------- ---- -- --- ------- --<br>------- ---------- ------ -- ----- -- ----- -- ---- ------<br>--- ----- --- --- ------ -------- ----- --- ------ ----- --<br>----- ----- ---------- --- --- ------ ------ ---- -- ------<br>------- --- ------ ----- --- ---- without -- ---- --- --<br>------- ------,141387.19999999925,141386.40000000224,140962.556,140963.5,140979.226,141395.97,,49,without
screen,html.Screen,0_2_1_1_50,2021-12-02T14:50:32.305Z,,,,,,,,,,,,,,,,54,,,,,,,,,,,,,,510.430000002234,,response,,,100,,,,,,Space,keypress(Space),,,,,-- --- ---- --- ------ ----- ------- ---- -- --- ------- --<br>------- ---------- ------ -- ----- -- ----- -- ---- ------<br>--- ----- --- --- ------ -------- ----- --- ------ ----- --<br>----- ----- ---------- --- --- ------ ------ ---- -- ------<br>------- --- ------ ----- --- ---- ------- an ---- --- --<br>------- ------,141907.1000000015,141906.40000000224,141379.3,141387.40000000224,141395.97,141912.845,,50,an
screen,html.Screen,0_2_1_1_51,2021-12-02T14:50:32.801Z,,,,,,,,,,,,,,,,54,,,,,,,,,,,,,,489.4550000007439,,response,,,100,,,,,,Space,keypress(Space),,,,,-- --- ---- --- ------ ----- ------- ---- -- --- ------- --<br>------- ---------- ------ -- ----- -- ----- -- ---- ------<br>--- ----- --- --- ------ -------- ----- --- ------ ----- --<br>----- ----- ---------- --- --- ------ ------ ---- -- ------<br>------- --- ------ ----- --- ---- ------- -- easy --- --<br>------- ------,142403.1000000015,142402.30000000075,141896.174,141907.40000000224,141912.845,142412.938,,51,easy
screen,html.Screen,0_2_1_1_52,2021-12-02T14:50:33.297Z,,,,,,,,,,,,,,,,54,,,,,,,,,,,,,,485.3620000007504,,response,,,100,,,,,,Space,keypress(Space),,,,,-- --- ---- --- ------ ----- ------- ---- -- --- ------- --<br>------- ---------- ------ -- ----- -- ----- -- ---- ------<br>--- ----- --- --- ------ -------- ----- --- ------ ----- --<br>----- ----- ---------- --- --- ------ ------ ---- -- ------<br>------- --- ------ ----- --- ---- ------- -- ---- way --<br>------- ------,142899,142898.30000000075,142396.268,142403.40000000224,142412.938,142913.053,,52,way
screen,html.Screen,0_2_1_1_53,2021-12-02T14:50:33.665Z,,,,,,,,,,,,,,,,54,,,,,,,,,,,,,,353.1469999992405,,response,,,100,,,,,,Space,keypress(Space),,,,,-- --- ---- --- ------ ----- ------- ---- -- --- ------- --<br>------- ---------- ------ -- ----- -- ----- -- ---- ------<br>--- ----- --- --- ------ -------- ----- --- ------ ----- --<br>----- ----- ---------- --- --- ------ ------ ---- -- ------<br>------- --- ------ ----- --- ---- ------- -- ---- --- of<br>------- ------,143267.1000000015,143266.19999999925,142896.383,142899.19999999925,142913.053,143279.83,,53,of
screen,html.Screen,0_2_1_1_54,2021-12-02T14:50:34.273Z,,,,,,,,,,,,,,,,54,,,,,,,,,,,,,,594.3699999992677,,response,,,100,,,,,,Space,keypress(Space),,,,,-- --- ---- --- ------ ----- ------- ---- -- --- ------- --<br>------- ---------- ------ -- ----- -- ----- -- ---- ------<br>--- ----- --- --- ------ -------- ----- --- ------ ----- --<br>----- ----- ---------- --- --- ------ ------ ---- -- ------<br>------- --- ------ ----- --- ---- ------- -- ---- --- --<br>raising ------,143875.1000000015,143874.19999999925,143263.16,143267.30000000075,143279.83,143879.877,,54,raising
screen,html.Screen,0_2_1_1_55,2021-12-02T14:50:34.577Z,,,,,,,,,,,,,,,,54,,,,,,,,,,,,,,298.32299999924726,,response,,,100,,,,,,Space,keypress(Space),,,,,-- --- ---- --- ------ ----- ------- ---- -- --- ------- --<br>------- ---------- ------ -- ----- -- ----- -- ---- ------<br>--- ----- --- --- ------ -------- ----- --- ------ ----- --<br>----- ----- ---------- --- --- ------ ------ ---- -- ------<br>------- --- ------ ----- --- ---- ------- -- ---- --- --<br>------- money.,144179,144178.19999999925,143863.208,143875.30000000075,143879.877,144196.812,,55,money.
Item 100,flow.Loop,0_2_1_1,2021-12-02T14:50:34.577Z,,,,,,,,,,,,,,,,,,,,,,,,,,,,,,30239.34999999925,,completion,,,,C,,,,,,,,,,silence,,144179.40000000224,144178.19999999925,113922.18,113923.60000000149,113938.85,144196.812,,,
Question 1,html.Screen,0_2_1_2,2021-12-02T14:50:39.728Z,,,,,,,,,,,,,,,,,,,,,,,,,,,true,TRUE,,5131.98800000074,,response,,,100,C,,,,,TRUE,click #choice-1,,,,silence,,149330.1000000015,149328.80000000075,144180.14,144179.69999999925,144196.812,149331.399,,,
Question 2,html.Screen,0_2_1_3,2021-12-02T14:50:42.786Z,,,,,,,,,,,,,,,,,,,,,,,,,,,true,FALSE,,3055.40100000074,,response,,,100,C,,,,,FALSE,click #choice-2,,,,silence,,152388,152386.80000000075,149314.729,149330.40000000224,149331.399,152415.491,,,
Item 100,flow.Sequence,0_2_1,2021-12-02T14:50:42.786Z,,,,,,,,,,,,,,,,,,,,,,,,,,,,,,48450.49500000075,,completion,,,,,,,,,,,,,,,,152388.40000000224,152386.80000000075,103919.636,103917.19999999925,103936.305,152415.491,,,
End of Practice,html.Page,0_2_2,2021-12-02T14:50:49.775Z,,,,,,,,,,,,,,,,,,,,,,,,,,,,,,6961.008999999991,,form submission,,,,,,,,,,,,,,,,159377.19999999925,159376.5,152398.821,152388.5,152415.491,159384.053,,,
Practice,flow.Sequence,0_2,2021-12-02T14:50:49.776Z,,,,,,,,,,,,,,,,,,,,,,,,,,,,,,109937.33,,completion,,,,,,,,,,,,,,,,159377.80000000075,159376.5,49422.497,49438.60000000149,49439.17,159384.053,,,
Trap_instruction,html.Page,0_3_0,2021-12-02T14:50:55.209Z,,,,,,,,,,,,,,,,,,,,,,,,,,,,,,5426.446999999986,,form submission,,,,,,,,,,,,,,,,164811.19999999925,164810.5,159367.379,159378.19999999925,159384.053,164835.507,,,
trap_trial,html.Screen,0_3_1,2021-12-02T14:50:59.584Z,,,,,,,,,,,,,,,,,,,,,,,,,,,true,1,,4349.492999999988,,response,,,,,,,,,1,click #choice-1,,,,,,169186.30000000075,169185,164802.153,164811.5,164835.507,169186.215,,,
end of trap trial,html.Page,0_3_2,2021-12-02T14:51:02.619Z,,,,,,,,,,,,,,,,,,,,,,,,,,,,,,3034.1850000022387,,form submission,,,,,,,,,,,,,,,,172221,172220.40000000224,169169.545,169186.6000000015,169186.215,172220.557,,,
Trap 1,flow.Sequence,0_3,2021-12-02T14:51:02.620Z,,,,,,,,,,,,,,,,,,,,,,,,,,,,,,12836.34700000222,,completion,,,,,,,,,,,,,,,,172221.6000000015,172220.40000000224,159367.379,159378.1000000015,159384.053,172220.557,,,
Standby,html.Page,0_4_0,2021-12-02T14:51:10.605Z,,,,,,,,,,,,,,,,,,,,,,,,,,,,,,8001.643000000011,,timeout,,,,,,,,,,,,,,,,180207.1000000015,180205.53,172203.887,172222,172220.557,180222.2,,,
Holding screen,html.Screen,0_4_1_0_0,2021-12-02T14:51:17.609Z,,,,,,,,,,,,,,,,,,,,,,,,,,,,,,7002.154999999999,,timeout,,,,,,,,,,,,,,,,187209,187207.685,180205.53,180207.5,180222.2,187224.355,,,
screen,html.Screen,0_4_1_0_1_0,2021-12-02T14:51:18.249Z,,,,,,,,,,,,,,,,15,,,,,,,,,,,,,,623.4450000007346,,response,,,7,C,,,,,Space,keypress(Space),,,,instrumental,Greg --------- ---------- - --- ------- -- --- ------------<br>----- -- -------- ------- ---- ------ - -------- ---- -----<br>--- ------- ---- -- --- -------- --- - ----- ------ ---- --<br>-------- --- -------- -------- --- -------- ---- -- ----- -<br>-------- ---- --- ---------- --------- -- ------- ------ -<br>--------- ----- -----,187848.69999999925,187847.80000000075,187207.685,187209.5,187224.355,187874.546,,0,Greg
screen,html.Screen,0_4_1_0_1_1,2021-12-02T14:51:18.641Z,,,,,,,,,,,,,,,,15,,,,,,,,,,,,,,365.25400000074296,,response,,,7,C,,,,,Space,keypress(Space),,,,instrumental,"---- Anderson, ---------- - --- ------- -- --- ------------<br>----- -- -------- ------- ---- ------ - -------- ---- -----<br>--- ------- ---- -- --- -------- --- - ----- ------ ---- --<br>-------- --- -------- -------- --- -------- ---- -- ----- -<br>-------- ---- --- ---------- --------- -- ------- ------ -<br>--------- ----- -----",188240.69999999925,188239.80000000075,187857.876,187849,187874.546,188258.067,,1,"Anderson,"
screen,html.Screen,0_4_1_0_1_2,2021-12-02T14:51:19.353Z,,,,,,,,,,,,,,,,15,,,,,,,,,,,,,,693.733000000735,,response,,,7,C,,,,,Space,keypress(Space),,,,instrumental,---- --------- considered - --- ------- -- --- ------------<br>----- -- -------- ------- ---- ------ - -------- ---- -----<br>--- ------- ---- -- --- -------- --- - ----- ------ ---- --<br>-------- --- -------- -------- --- -------- ---- -- ----- -<br>-------- ---- --- ---------- --------- -- ------- ------ -<br>--------- ----- -----,188952.69999999925,188951.80000000075,188241.396,188241,188258.067,188958.292,,2,considered
screen,html.Screen,0_4_1_0_1_3,2021-12-02T14:51:19.705Z,,,,,,,,,,,,,,,,15,,,,,,,,,,,,,,345.50800000075833,,response,,,7,C,,,,,Space,keypress(Space),,,,instrumental,---- --------- ---------- a --- ------- -- --- ------------<br>----- -- -------- ------- ---- ------ - -------- ---- -----<br>--- ------- ---- -- --- -------- --- - ----- ------ ---- --<br>-------- --- -------- -------- --- -------- ---- -- ----- -<br>-------- ---- --- ---------- --------- -- ------- ------ -<br>--------- ----- -----,189304.5,189303.80000000075,188941.621,188952.90000000224,188958.292,189308.377,,3,a
screen,html.Screen,0_4_1_0_1_4,2021-12-02T14:51:20.129Z,,,,,,,,,,,,,,,,15,,,,,,,,,,,,,,419.32299999924726,,response,,,7,C,,,,,Space,keypress(Space),,,,instrumental,---- --------- ---------- - key ------- -- --- ------------<br>----- -- -------- ------- ---- ------ - -------- ---- -----<br>--- ------- ---- -- --- -------- --- - ----- ------ ---- --<br>-------- --- -------- -------- --- -------- ---- -- ----- -<br>-------- ---- --- ---------- --------- -- ------- ------ -<br>--------- ----- -----,189728.40000000224,189727.69999999925,189291.706,189304.80000000075,189308.377,189741.79,,4,key
screen,html.Screen,0_4_1_0_1_5,2021-12-02T14:51:20.745Z,,,,,,,,,,,,,,,,15,,,,,,,,,,,,,,601.9099999992468,,response,,,7,C,,,,,Space,keypress(Space),,,,instrumental,---- --------- ---------- - --- witness -- --- ------------<br>----- -- -------- ------- ---- ------ - -------- ---- -----<br>--- ------- ---- -- --- -------- --- - ----- ------ ---- --<br>-------- --- -------- -------- --- -------- ---- -- ----- -<br>-------- ---- --- ---------- --------- -- ------- ------ -<br>--------- ----- -----,190344.6000000015,190343.69999999925,189725.12,189728.6000000015,189741.79,190358.652,,5,witness
screen,html.Screen,0_4_1_0_1_6,2021-12-02T14:51:21.129Z,,,,,,,,,,,,,,,,15,,,,,,,,,,,,,,368.94800000148825,,response,,,7,C,,,,,Space,keypress(Space),,,,instrumental,---- --------- ---------- - --- ------- by --- ------------<br>----- -- -------- ------- ---- ------ - -------- ---- -----<br>--- ------- ---- -- --- -------- --- - ----- ------ ---- --<br>-------- --- -------- -------- --- -------- ---- -- ----- -<br>-------- ---- --- ---------- --------- -- ------- ------ -<br>--------- ----- -----,190728.40000000224,190727.6000000015,190341.981,190344.90000000224,190358.652,190742.019,,6,by
screen,html.Screen,0_4_1_0_1_7,2021-12-02T14:51:21.529Z,,,,,,,,,,,,,,,,15,,,,,,,,,,,,,,385.5810000014899,,response,,,7,C,,,,,Space,keypress(Space),,,,instrumental,---- --------- ---------- - --- ------- -- the ------------<br>----- -- -------- ------- ---- ------ - -------- ---- -----<br>--- ------- ---- -- --- -------- --- - ----- ------ ---- --<br>-------- --- -------- -------- --- -------- ---- -- ----- -<br>-------- ---- --- ---------- --------- -- ------- ------ -<br>--------- ----- -----,191128.30000000075,191127.6000000015,190725.349,190728.5,190742.019,191142.052,,7,the
screen,html.Screen,0_4_1_0_1_8,2021-12-02T14:51:22.137Z,,,,,,,,,,,,,,,,15,,,,,,,,,,,,,,593.5480000014941,,response,,,7,C,,,,,Space,keypress(Space),,,,instrumental,"---- --------- ---------- - --- ------- -- --- prosecution,<br>----- -- -------- ------- ---- ------ - -------- ---- -----<br>--- ------- ---- -- --- -------- --- - ----- ------ ---- --<br>-------- --- -------- -------- --- -------- ---- -- ----- -<br>-------- ---- --- ---------- --------- -- ------- ------ -<br>--------- ----- -----",191736.40000000224,191735.6000000015,191125.383,191128.6000000015,191142.052,191742.473,,8,"prosecution,"
screen,html.Screen,0_4_1_0_1_9,2021-12-02T14:51:22.673Z,,,,,,,,,,,,,,,,15,,,,,,,,,,,,,,529.127000001492,,response,,,7,C,,,,,Space,keypress(Space),,,,instrumental,---- --------- ---------- - --- ------- -- --- ------------<br>vowed -- -------- ------- ---- ------ - -------- ---- -----<br>--- ------- ---- -- --- -------- --- - ----- ------ ---- --<br>-------- --- -------- -------- --- -------- ---- -- ----- -<br>-------- ---- --- ---------- --------- -- ------- ------ -<br>--------- ----- -----,192272.40000000224,192271.6000000015,191725.8,191736.6000000015,191742.473,192275.66,,9,vowed
screen,html.Screen,0_4_1_0_1_10,2021-12-02T14:51:23.305Z,,,,,,,,,,,,,,,,15,,,,,,,,,,,,,,627.8399999999965,,response,,,7,C,,,,,Space,keypress(Space),,,,instrumental,---- --------- ---------- - --- ------- -- --- ------------<br>----- he -------- ------- ---- ------ - -------- ---- -----<br>--- ------- ---- -- --- -------- --- - ----- ------ ---- --<br>-------- --- -------- -------- --- -------- ---- -- ----- -<br>-------- ---- --- ---------- --------- -- ------- ------ -<br>--------- ----- -----,192904.30000000075,192903.5,192258.991,192272.69999999925,192275.66,192909.2,,10,he
screen,html.Screen,0_4_1_0_1_11,2021-12-02T14:51:23.681Z,,,,,,,,,,,,,,,,15,,,,,,,,,,,,,,370.4000000014785,,response,,,7,C,,,,,Space,keypress(Space),,,,instrumental,---- --------- ---------- - --- ------- -- --- ------------<br>----- -- wouldn't ------- ---- ------ - -------- ---- -----<br>--- ------- ---- -- --- -------- --- - ----- ------ ---- --<br>-------- --- -------- -------- --- -------- ---- -- ----- -<br>-------- ---- --- ---------- --------- -- ------- ------ -<br>--------- ----- -----,193280.40000000224,193279.6000000015,192892.53,192904.5,192909.2,193292.79,,11,wouldn't
screen,html.Screen,0_4_1_0_1_12,2021-12-02T14:51:24.041Z,,,,,,,,,,,,,,,,15,,,,,,,,,,,,,,346.70999999999185,,response,,,7,C,,,,,Space,keypress(Space),,,,instrumental,---- --------- ---------- - --- ------- -- --- ------------<br>----- -- -------- testify ---- ------ - -------- ---- -----<br>--- ------- ---- -- --- -------- --- - ----- ------ ---- --<br>-------- --- -------- -------- --- -------- ---- -- ----- -<br>-------- ---- --- ---------- --------- -- ------- ------ -<br>--------- ----- -----,193640.40000000224,193639.5,193276.118,193280.5,193292.79,193642.789,,12,testify
screen,html.Screen,0_4_1_0_1_13,2021-12-02T14:51:24.545Z,,,,,,,,,,,,,,,,15,,,,,,,,,,,,,,500.71100000001024,,response,,,7,C,,,,,Space,keypress(Space),,,,instrumental,---- --------- ---------- - --- ------- -- --- ------------<br>----- -- -------- ------- when ------ - -------- ---- -----<br>--- ------- ---- -- --- -------- --- - ----- ------ ---- --<br>-------- --- -------- -------- --- -------- ---- -- ----- -<br>-------- ---- --- ---------- --------- -- ------- ------ -<br>--------- ----- -----,194144.30000000075,194143.5,193626.119,193640.5,193642.789,194159.628,,13,when
screen,html.Screen,0_4_1_0_1_14,2021-12-02T14:51:25.385Z,,,,,,,,,,,,,,,,15,,,,,,,,,,,,,,823.7720000022382,,response,,,7,C,,,,,Space,keypress(Space),,,,instrumental,---- --------- ---------- - --- ------- -- --- ------------<br>----- -- -------- ------- ---- served - -------- ---- -----<br>--- ------- ---- -- --- -------- --- - ----- ------ ---- --<br>-------- --- -------- -------- --- -------- ---- -- ----- -<br>-------- ---- --- ---------- --------- -- ------- ------ -<br>--------- ----- -----,194984.30000000075,194983.40000000224,194142.957,194144.5,194159.628,194992.901,,14,served
screen,html.Screen,0_4_1_0_1_15,2021-12-02T14:51:25.673Z,,,,,,,,,,,,,,,,15,,,,,,,,,,,,,,278.5989999999874,,response,,,7,C,,,,,Space,keypress(Space),,,,instrumental,---- --------- ---------- - --- ------- -- --- ------------<br>----- -- -------- ------- ---- ------ a -------- ---- -----<br>--- ------- ---- -- --- -------- --- - ----- ------ ---- --<br>-------- --- -------- -------- --- -------- ---- -- ----- -<br>-------- ---- --- ---------- --------- -- ------- ------ -<br>--------- ----- -----,195272.30000000075,195271.5,194976.233,194984.5,194992.901,195276.505,,15,a
screen,html.Screen,0_4_1_0_1_16,2021-12-02T14:51:26.601Z,,,,,,,,,,,,,,,,15,,,,,,,,,,,,,,922.7950000007404,,response,,,7,C,,,,,Space,keypress(Space),,,,instrumental,---- --------- ---------- - --- ------- -- --- ------------<br>----- -- -------- ------- ---- ------ - subpoena ---- -----<br>--- ------- ---- -- --- -------- --- - ----- ------ ---- --<br>-------- --- -------- -------- --- -------- ---- -- ----- -<br>-------- ---- --- ---------- --------- -- ------- ------ -<br>--------- ----- -----,196200.1000000015,196199.30000000075,195259.835,195272.40000000224,195276.505,196210.044,,16,subpoena
screen,html.Screen,0_4_1_0_1_17,2021-12-02T14:51:27.057Z,,,,,,,,,,,,,,,,15,,,,,,,,,,,,,,445.9560000000056,,response,,,7,C,,,,,Space,keypress(Space),,,,instrumental,---- --------- ---------- - --- ------- -- --- ------------<br>----- -- -------- ------- ---- ------ - -------- last -----<br>--- ------- ---- -- --- -------- --- - ----- ------ ---- --<br>-------- --- -------- -------- --- -------- ---- -- ----- -<br>-------- ---- --- ---------- --------- -- ------- ------ -<br>--------- ----- -----,196656.90000000224,196656,196193.374,196200.40000000224,196210.044,196677.045,,17,last
screen,html.Screen,0_4_1_0_1_18,2021-12-02T14:51:27.448Z,,,,,,,,,,,,,,,,15,,,,,,,,,,,,,,370.25500000073225,,response,,,7,C,,,,,Space,keypress(Space),,,,instrumental,---- --------- ---------- - --- ------- -- --- ------------<br>----- -- -------- ------- ---- ------ - -------- ---- week.<br>--- ------- ---- -- --- -------- --- - ----- ------ ---- --<br>-------- --- -------- -------- --- -------- ---- -- ----- -<br>-------- ---- --- ---------- --------- -- ------- ------ -<br>--------- ----- -----,197048,197047.30000000075,196660.372,196657.1000000015,196677.045,197060.246,,18,week.
screen,html.Screen,0_4_1_0_1_19,2021-12-02T14:51:27.985Z,,,,,,,,,,,,,,,,15,,,,,,,,,,,,,,523.0540000007313,,response,,,7,C,,,,,Space,keypress(Space),,,,instrumental,---- --------- ---------- - --- ------- -- --- ------------<br>----- -- -------- ------- ---- ------ - -------- ---- -----<br>His ------- ---- -- --- -------- --- - ----- ------ ---- --<br>-------- --- -------- -------- --- -------- ---- -- ----- -<br>-------- ---- --- ---------- --------- -- ------- ------ -<br>--------- ----- -----,197584.1000000015,197583.30000000075,197043.577,197048.30000000075,197060.246,197593.755,,19,His
screen,html.Screen,0_4_1_0_1_20,2021-12-02T14:51:28.520Z,,,,,,,,,,,,,,,,15,,,,,,,,,,,,,,525.4449999992503,,response,,,7,C,,,,,Space,keypress(Space),,,,instrumental,---- --------- ---------- - --- ------- -- --- ------------<br>----- -- -------- ------- ---- ------ - -------- ---- -----<br>--- lawyers ---- -- --- -------- --- - ----- ------ ---- --<br>-------- --- -------- -------- --- -------- ---- -- ----- -<br>-------- ---- --- ---------- --------- -- ------- ------ -<br>--------- ----- -----,198120.1000000015,198119.19999999925,197577.085,197584.30000000075,197593.755,198127.368,,20,lawyers
screen,html.Screen,0_4_1_0_1_21,2021-12-02T14:51:28.968Z,,,,,,,,,,,,,,,,15,,,,,,,,,,,,,,439.73200000150246,,response,,,7,C,,,,,Space,keypress(Space),,,,instrumental,---- --------- ---------- - --- ------- -- --- ------------<br>----- -- -------- ------- ---- ------ - -------- ---- -----<br>--- ------- said -- --- -------- --- - ----- ------ ---- --<br>-------- --- -------- -------- --- -------- ---- -- ----- -<br>-------- ---- --- ---------- --------- -- ------- ------ -<br>--------- ----- -----,198568,198567.1000000015,198110.696,198120.30000000075,198127.368,198577.301,,21,said
screen,html.Screen,0_4_1_0_1_22,2021-12-02T14:51:29.296Z,,,,,,,,,,,,,,,,15,,,,,,,,,,,,,,317.8989999992482,,response,,,7,C,,,,,Space,keypress(Space),,,,instrumental,---- --------- ---------- - --- ------- -- --- ------------<br>----- -- -------- ------- ---- ------ - -------- ---- -----<br>--- ------- ---- he --- -------- --- - ----- ------ ---- --<br>-------- --- -------- -------- --- -------- ---- -- ----- -<br>-------- ---- --- ---------- --------- -- ------- ------ -<br>--------- ----- -----,198896.1000000015,198895.19999999925,198560.632,198568.19999999925,198577.301,198910.853,,22,he
screen,html.Screen,0_4_1_0_1_23,2021-12-02T14:51:29.784Z,,,,,,,,,,,,,,,,15,,,,,,,,,,,,,,472.34699999925215,,response,,,7,C,,,,,Space,keypress(Space),,,,instrumental,---- --------- ---------- - --- ------- -- --- ------------<br>----- -- -------- ------- ---- ------ - -------- ---- -----<br>--- ------- ---- -- was -------- --- - ----- ------ ---- --<br>-------- --- -------- -------- --- -------- ---- -- ----- -<br>-------- ---- --- ---------- --------- -- ------- ------ -<br>--------- ----- -----,199384,199383.19999999925,198894.182,198896.30000000075,198910.853,199394.263,,23,was
screen,html.Screen,0_4_1_0_1_24,2021-12-02T14:51:30.264Z,,,,,,,,,,,,,,,,15,,,,,,,,,,,,,,468.83700000148383,,response,,,7,C,,,,,Space,keypress(Space),,,,instrumental,---- --------- ---------- - --- ------- -- --- ------------<br>----- -- -------- ------- ---- ------ - -------- ---- -----<br>--- ------- ---- -- --- prepared --- - ----- ------ ---- --<br>-------- --- -------- -------- --- -------- ---- -- ----- -<br>-------- ---- --- ---------- --------- -- ------- ------ -<br>--------- ----- -----,199864,199863.1000000015,199377.593,199384.30000000075,199394.263,199877.607,,24,prepared
screen,html.Screen,0_4_1_0_1_25,2021-12-02T14:51:30.640Z,,,,,,,,,,,,,,,,15,,,,,,,,,,,,,,361.49300000150106,,response,,,7,C,,,,,Space,keypress(Space),,,,instrumental,---- --------- ---------- - --- ------- -- --- ------------<br>----- -- -------- ------- ---- ------ - -------- ---- -----<br>--- ------- ---- -- --- -------- for - ----- ------ ---- --<br>-------- --- -------- -------- --- -------- ---- -- ----- -<br>-------- ---- --- ---------- --------- -- ------- ------ -<br>--------- ----- -----,200240,200239.1000000015,199860.938,199864.19999999925,199877.607,200244.578,,25,for
screen,html.Screen,0_4_1_0_1_26,2021-12-02T14:51:30.944Z,,,,,,,,,,,,,,,,15,,,,,,,,,,,,,,298.5220000014815,,response,,,7,C,,,,,Space,keypress(Space),,,,instrumental,---- --------- ---------- - --- ------- -- --- ------------<br>----- -- -------- ------- ---- ------ - -------- ---- -----<br>--- ------- ---- -- --- -------- --- a ----- ------ ---- --<br>-------- --- -------- -------- --- -------- ---- -- ----- -<br>-------- ---- --- ---------- --------- -- ------- ------ -<br>--------- ----- -----,200543.90000000224,200543.1000000015,200227.906,200240.19999999925,200244.578,200561.142,,26,a
screen,html.Screen,0_4_1_0_1_27,2021-12-02T14:51:31.440Z,,,,,,,,,,,,,,,,15,,,,,,,,,,,,,,477.95800000149757,,response,,,7,C,,,,,Space,keypress(Space),,,,instrumental,---- --------- ---------- - --- ------- -- --- ------------<br>----- -- -------- ------- ---- ------ - -------- ---- -----<br>--- ------- ---- -- --- -------- --- - third ------ ---- --<br>-------- --- -------- -------- --- -------- ---- -- ----- -<br>-------- ---- --- ---------- --------- -- ------- ------ -<br>--------- ----- -----,201039.90000000224,201039.1000000015,200544.473,200544.19999999925,200561.142,201044.789,,27,third
screen,html.Screen,0_4_1_0_1_28,2021-12-02T14:51:31.976Z,,,,,,,,,,,,,,,,15,,,,,,,,,,,,,,530.3110000015004,,response,,,7,C,,,,,Space,keypress(Space),,,,instrumental,---- --------- ---------- - --- ------- -- --- ------------<br>----- -- -------- ------- ---- ------ - -------- ---- -----<br>--- ------- ---- -- --- -------- --- - ----- prison ---- --<br>-------- --- -------- -------- --- -------- ---- -- ----- -<br>-------- ---- --- ---------- --------- -- ------- ------ -<br>--------- ----- -----,201575.80000000075,201575.1000000015,201028.117,201040.1000000015,201044.789,201578.152,,28,prison
screen,html.Screen,0_4_1_0_1_29,2021-12-02T14:51:32.384Z,,,,,,,,,,,,,,,,15,,,,,,,,,,,,,,404.84799999999814,,response,,,7,C,,,,,Space,keypress(Space),,,,instrumental,---- --------- ---------- - --- ------- -- --- ------------<br>----- -- -------- ------- ---- ------ - -------- ---- -----<br>--- ------- ---- -- --- -------- --- - ----- ------ stay --<br>-------- --- -------- -------- --- -------- ---- -- ----- -<br>-------- ---- --- ---------- --------- -- ------- ------ -<br>--------- ----- -----,201983.90000000224,201983,201561.482,201576,201578.152,201994.942,,29,stay
screen,html.Screen,0_4_1_0_1_30,2021-12-02T14:51:32.776Z,,,,,,,,,,,,,,,,15,,,,,,,,,,,,,,380.05799999999,,response,,,7,C,,,,,Space,keypress(Space),,,,instrumental,---- --------- ---------- - --- ------- -- --- ------------<br>----- -- -------- ------- ---- ------ - -------- ---- -----<br>--- ------- ---- -- --- -------- --- - ----- ------ ---- to<br>-------- --- -------- -------- --- -------- ---- -- ----- -<br>-------- ---- --- ---------- --------- -- ------- ------ -<br>--------- ----- -----,202375.80000000075,202375,201978.272,201984.1000000015,201994.942,202378.362,,30,to
screen,html.Screen,0_4_1_0_1_31,2021-12-02T14:51:33.312Z,,,,,,,,,,,,,,,,15,,,,,,,,,,,,,,532.6380000000063,,response,,,7,C,,,,,Space,keypress(Space),,,,instrumental,---- --------- ---------- - --- ------- -- --- ------------<br>----- -- -------- ------- ---- ------ - -------- ---- -----<br>--- ------- ---- -- --- -------- --- - ----- ------ ---- --<br>maintain --- -------- -------- --- -------- ---- -- ----- -<br>-------- ---- --- ---------- --------- -- ------- ------ -<br>--------- ----- -----,202911.80000000075,202911,202361.692,202376,202378.362,202928.501,,31,maintain
screen,html.Screen,0_4_1_0_1_32,2021-12-02T14:51:33.720Z,,,,,,,,,,,,,,,,15,,,,,,,,,,,,,,390.4990000000107,,response,,,7,C,,,,,Space,keypress(Space),,,,instrumental,---- --------- ---------- - --- ------- -- --- ------------<br>----- -- -------- ------- ---- ------ - -------- ---- -----<br>--- ------- ---- -- --- -------- --- - ----- ------ ---- --<br>-------- his -------- -------- --- -------- ---- -- ----- -<br>-------- ---- --- ---------- --------- -- ------- ------ -<br>--------- ----- -----,203319.80000000075,203319,202911.831,202912.1000000015,202928.501,203328.614,,32,his
screen,html.Screen,0_4_1_0_1_33,2021-12-02T14:51:34.186Z,,,,,,,,,,,,,,,,15,,,,,,,,,,,,,,454.2860000022338,,response,,,7,C,,,,,Space,keypress(Space),,,,instrumental,---- --------- ---------- - --- ------- -- --- ------------<br>----- -- -------- ------- ---- ------ - -------- ---- -----<br>--- ------- ---- -- --- -------- --- - ----- ------ ---- --<br>-------- --- silence. -------- --- -------- ---- -- ----- -<br>-------- ---- --- ---------- --------- -- ------- ------ -<br>--------- ----- -----,203785.1000000015,203782.90000000224,203311.944,203320,203328.614,203795.328,,33,silence.
screen,html.Screen,0_4_1_0_1_34,2021-12-02T14:51:34.800Z,,,,,,,,,,,,,,,,15,,,,,,,,,,,,,,603.5720000022266,,response,,,7,C,,,,,Space,keypress(Space),,,,instrumental,---- --------- ---------- - --- ------- -- --- ------------<br>----- -- -------- ------- ---- ------ - -------- ---- -----<br>--- ------- ---- -- --- -------- --- - ----- ------ ---- --<br>-------- --- -------- Anderson --- -------- ---- -- ----- -<br>-------- ---- --- ---------- --------- -- ------- ------ -<br>--------- ----- -----,204399.80000000075,204398.90000000224,203778.659,203785.40000000224,203795.328,204412.272,,34,Anderson
screen,html.Screen,0_4_1_0_1_35,2021-12-02T14:51:35.328Z,,,,,,,,,,,,,,,,15,,,,,,,,,,,,,,514.5280000007479,,response,,,7,C,,,,,Space,keypress(Space),,,,instrumental,---- --------- ---------- - --- ------- -- --- ------------<br>----- -- -------- ------- ---- ------ - -------- ---- -----<br>--- ------- ---- -- --- -------- --- - ----- ------ ---- --<br>-------- --- -------- -------- was -------- ---- -- ----- -<br>-------- ---- --- ---------- --------- -- ------- ------ -<br>--------- ----- -----,204927.6000000015,204926.80000000075,204395.601,204400,204412.272,204929.07,,35,was
screen,html.Screen,0_4_1_0_1_36,2021-12-02T14:51:35.624Z,,,,,,,,,,,,,,,,15,,,,,,,,,,,,,,293.7300000007381,,response,,,7,C,,,,,Space,keypress(Space),,,,instrumental,---- --------- ---------- - --- ------- -- --- ------------<br>----- -- -------- ------- ---- ------ - -------- ---- -----<br>--- ------- ---- -- --- -------- --- - ----- ------ ---- --<br>-------- --- -------- -------- --- released ---- -- ----- -<br>-------- ---- --- ---------- --------- -- ------- ------ -<br>--------- ----- -----,205223.6000000015,205222.80000000075,204912.399,204927.69999999925,204929.07,205229.104,,36,released
screen,html.Screen,0_4_1_0_1_37,2021-12-02T14:51:36.064Z,,,,,,,,,,,,,,,,15,,,,,,,,,,,,,,433.696000000753,,response,,,7,C,,,,,Space,keypress(Space),,,,instrumental,---- --------- ---------- - --- ------- -- --- ------------<br>----- -- -------- ------- ---- ------ - -------- ---- -----<br>--- ------- ---- -- --- -------- --- - ----- ------ ---- --<br>-------- --- -------- -------- --- -------- July -- ----- -<br>-------- ---- --- ---------- --------- -- ------- ------ -<br>--------- ----- -----,205663.6000000015,205662.80000000075,205212.434,205223.90000000224,205229.104,205679.211,,37,July
screen,html.Screen,0_4_1_0_1_38,2021-12-02T14:51:36.672Z,,,,,,,,,,,,,,,,15,,,,,,,,,,,,,,591.5890000007348,,response,,,7,C,,,,,Space,keypress(Space),,,,instrumental,---- --------- ---------- - --- ------- -- --- ------------<br>----- -- -------- ------- ---- ------ - -------- ---- -----<br>--- ------- ---- -- --- -------- --- - ----- ------ ---- --<br>-------- --- -------- -------- --- -------- ---- 20 ----- -<br>-------- ---- --- ---------- --------- -- ------- ------ -<br>--------- ----- -----,206271.6000000015,206270.80000000075,205662.541,205663.80000000075,205679.211,206279.36,,38,20
screen,html.Screen,0_4_1_0_1_39,2021-12-02T14:51:37.544Z,,,,,,,,,,,,,,,,15,,,,,,,,,,,,,,863.8399999992689,,response,,,7,C,,,,,Space,keypress(Space),,,,instrumental,---- --------- ---------- - --- ------- -- --- ------------<br>----- -- -------- ------- ---- ------ - -------- ---- -----<br>--- ------- ---- -- --- -------- --- - ----- ------ ---- --<br>-------- --- -------- -------- --- -------- ---- -- after -<br>-------- ---- --- ---------- --------- -- ------- ------ -<br>--------- ----- -----,207143.90000000224,207143.19999999925,206262.69,206271.80000000075,206279.36,207146.096,,39,after
screen,html.Screen,0_4_1_0_1_40,2021-12-02T14:51:37.880Z,,,,,,,,,,,,,,,,15,,,,,,,,,,,,,,332.7040000007546,,response,,,7,C,,,,,Space,keypress(Space),,,,instrumental,---- --------- ---------- - --- ------- -- --- ------------<br>----- -- -------- ------- ---- ------ - -------- ---- -----<br>--- ------- ---- -- --- -------- --- - ----- ------ ---- --<br>-------- --- -------- -------- --- -------- ---- -- ----- a<br>-------- ---- --- ---------- --------- -- ------- ------ -<br>--------- ----- -----,207479.6000000015,207478.80000000075,207129.427,207144.19999999925,207146.096,207496.419,,40,a
screen,html.Screen,0_4_1_0_1_41,2021-12-02T14:51:38.360Z,,,,,,,,,,,,,,,,15,,,,,,,,,,,,,,462.28099999926053,,response,,,7,C,,,,,Space,keypress(Space),,,,instrumental,---- --------- ---------- - --- ------- -- --- ------------<br>----- -- -------- ------- ---- ------ - -------- ---- -----<br>--- ------- ---- -- --- -------- --- - ----- ------ ---- --<br>-------- --- -------- -------- --- -------- ---- -- ----- -<br>two-week ---- --- ---------- --------- -- ------- ------ -<br>--------- ----- -----,207959.6000000015,207958.69999999925,207479.748,207479.90000000224,207496.419,207963.136,,41,two-week
screen,html.Screen,0_4_1_0_1_42,2021-12-02T14:51:38.976Z,,,,,,,,,,,,,,,,15,,,,,,,,,,,,,,611.5639999992563,,response,,,7,C,,,,,Space,keypress(Space),,,,instrumental,---- --------- ---------- - --- ------- -- --- ------------<br>----- -- -------- ------- ---- ------ - -------- ---- -----<br>--- ------- ---- -- --- -------- --- - ----- ------ ---- --<br>-------- --- -------- -------- --- -------- ---- -- ----- -<br>-------- stay --- ---------- --------- -- ------- ------ -<br>--------- ----- -----,208575.6000000015,208574.69999999925,207946.466,207959.80000000075,207963.136,208579.782,,42,stay
screen,html.Screen,0_4_1_0_1_43,2021-12-02T14:51:39.360Z,,,,,,,,,,,,,,,,15,,,,,,,,,,,,,,378.9179999992484,,response,,,7,C,,,,,Space,keypress(Space),,,,instrumental,---- --------- ---------- - --- ------- -- --- ------------<br>----- -- -------- ------- ---- ------ - -------- ---- -----<br>--- ------- ---- -- --- -------- --- - ----- ------ ---- --<br>-------- --- -------- -------- --- -------- ---- -- ----- -<br>-------- ---- for ---------- --------- -- ------- ------ -<br>--------- ----- -----,208959.5,208958.69999999925,208563.114,208575.80000000075,208579.782,208963.355,,43,for
screen,html.Screen,0_4_1_0_1_44,2021-12-02T14:51:39.784Z,,,,,,,,,,,,,,,,15,,,,,,,,,,,,,,419.34499999924446,,response,,,7,C,,,,,Space,keypress(Space),,,,instrumental,---- --------- ---------- - --- ------- -- --- ------------<br>----- -- -------- ------- ---- ------ - -------- ---- -----<br>--- ------- ---- -- --- -------- --- - ----- ------ ---- --<br>-------- --- -------- -------- --- -------- ---- -- ----- -<br>-------- ---- --- previously --------- -- ------- ------ -<br>--------- ----- -----,209383.5,209382.69999999925,208946.685,208959.69999999925,208963.355,209396.917,,44,previously
screen,html.Screen,0_4_1_0_1_45,2021-12-02T14:51:40.392Z,,,,,,,,,,,,,,,,15,,,,,,,,,,,,,,593.6830000015034,,response,,,7,C,,,,,Space,keypress(Space),,,,instrumental,---- --------- ---------- - --- ------- -- --- ------------<br>----- -- -------- ------- ---- ------ - -------- ---- -----<br>--- ------- ---- -- --- -------- --- - ----- ------ ---- --<br>-------- --- -------- -------- --- -------- ---- -- ----- -<br>-------- ---- --- ---------- declining -- ------- ------ -<br>--------- ----- -----,209991.40000000224,209990.6000000015,209380.245,209383.69999999925,209396.917,209996.985,,45,declining
screen,html.Screen,0_4_1_0_1_46,2021-12-02T14:51:40.816Z,,,,,,,,,,,,,,,,15,,,,,,,,,,,,,,417.51500000001397,,response,,,7,C,,,,,Space,keypress(Space),,,,instrumental,---- --------- ---------- - --- ------- -- --- ------------<br>----- -- -------- ------- ---- ------ - -------- ---- -----<br>--- ------- ---- -- --- -------- --- - ----- ------ ---- --<br>-------- --- -------- -------- --- -------- ---- -- ----- -<br>-------- ---- --- ---------- --------- to ------- ------ -<br>--------- ----- -----,210415.30000000075,210414.5,209980.315,209991.6000000015,209996.985,210430.439,,46,to
screen,html.Screen,0_4_1_0_1_47,2021-12-02T14:51:40.976Z,,,,,,,,,,,,,,,,15,,,,,,,,,,,,,,144.16100000147708,,response,,,7,C,,,,,Space,keypress(Space),,,,instrumental,---- --------- ---------- - --- ------- -- --- ------------<br>----- -- -------- ------- ---- ------ - -------- ---- -----<br>--- ------- ---- -- --- -------- --- - ----- ------ ---- --<br>-------- --- -------- -------- --- -------- ---- -- ----- -<br>-------- ---- --- ---------- --------- -- testify ------ -<br>--------- ----- -----,210575.40000000224,210574.6000000015,210413.769,210415.6000000015,210430.439,210580.5,,47,testify
screen,html.Screen,0_4_1_0_1_48,2021-12-02T14:51:41.752Z,,,,,,,,,,,,,,,,15,,,,,,,,,,,,,,770,,response,,,7,C,,,,,Space,keypress(Space),,,,instrumental,---- --------- ---------- - --- ------- -- --- ------------<br>----- -- -------- ------- ---- ------ - -------- ---- -----<br>--- ------- ---- -- --- -------- --- - ----- ------ ---- --<br>-------- --- -------- -------- --- -------- ---- -- ----- -<br>-------- ---- --- ---------- --------- -- ------- before -<br>--------- ----- -----,211351.30000000075,211350.5,210563.83,210575.6000000015,210580.5,211363.991,,48,before
screen,html.Screen,0_4_1_0_1_49,2021-12-02T14:51:42.064Z,,,,,,,,,,,,,,,,15,,,,,,,,,,,,,,298.5089999999909,,response,,,7,C,,,,,Space,keypress(Space),,,,instrumental,---- --------- ---------- - --- ------- -- --- ------------<br>----- -- -------- ------- ---- ------ - -------- ---- -----<br>--- ------- ---- -- --- -------- --- - ----- ------ ---- --<br>-------- --- -------- -------- --- -------- ---- -- ----- -<br>-------- ---- --- ---------- --------- -- ------- ------ a<br>--------- ----- -----,211663.30000000075,211662.5,211347.321,211351.6000000015,211363.991,211680.732,,49,a
screen,html.Screen,0_4_1_0_1_50,2021-12-02T14:51:42.544Z,,,,,,,,,,,,,,,,15,,,,,,,,,,,,,,461.76800000001094,,response,,,7,C,,,,,Space,keypress(Space),,,,instrumental,---- --------- ---------- - --- ------- -- --- ------------<br>----- -- -------- ------- ---- ------ - -------- ---- -----<br>--- ------- ---- -- --- -------- --- - ----- ------ ---- --<br>-------- --- -------- -------- --- -------- ---- -- ----- -<br>-------- ---- --- ---------- --------- -- ------- ------ -<br>different ----- -----,212143.30000000075,212142.5,211664.062,211663.6000000015,211680.732,212147.587,,50,different
screen,html.Screen,0_4_1_0_1_51,2021-12-02T14:51:42.944Z,,,,,,,,,,,,,,,,15,,,,,,,,,,,,,,394.91300000000047,,response,,,7,C,,,,,Space,keypress(Space),,,,instrumental,---- --------- ---------- - --- ------- -- --- ------------<br>----- -- -------- ------- ---- ------ - -------- ---- -----<br>--- ------- ---- -- --- -------- --- - ----- ------ ---- --<br>-------- --- -------- -------- --- -------- ---- -- ----- -<br>-------- ---- --- ---------- --------- -- ------- ------ -<br>--------- grand -----,212543.30000000075,212542.5,212130.916,212143.5,212147.587,212547.647,,51,grand
screen,html.Screen,0_4_1_0_1_52,2021-12-02T14:51:43.304Z,,,,,,,,,,,,,,,,15,,,,,,,,,,,,,,354.75300000223797,,response,,,7,C,,,,,Space,keypress(Space),,,,instrumental,---- --------- ---------- - --- ------- -- --- ------------<br>----- -- -------- ------- ---- ------ - -------- ---- -----<br>--- ------- ---- -- --- -------- --- - ----- ------ ---- --<br>-------- --- -------- -------- --- -------- ---- -- ----- -<br>-------- ---- --- ---------- --------- -- ------- ------ -<br>--------- ----- jury.,212903.30000000075,212902.40000000224,212530.977,212543.5,212547.647,212914.392,,52,jury.
