sender,sender_type,sender_id,timestamp,meta,,Blues,Classical,Country,Dance,Electronic,Folk,Gospel,Hip-Hop,Jazz,Latin,Musical/Film,New-age,Pop,Provo_ID,R&B,Rap,Reggae,Religious,Rock,Soul,Swing,Traditional,age,artist_name,correct,correctResponse,distraction,duration,education,ended_on,familiarity,gender,item,list,music_frequency,offensiveness,pleasantness,preference,response,response_action,snippet_file,song_name,song_rating,sound,text,time_commit,time_end,time_render,time_run,time_show,time_switch,url,word,word_ID
Instructions,html.Page,0_0,2021-11-05T13:00:04.663Z,"{""labjs_version"":""20.2.3"",""labjs_build"":{""flavor"":""production"",""commit"":""7ea907d66ca8aeef8054924ca5d82ffbe11e34e5""},""location"":""https://run.pavlovia.org/mvasilev/lab_music_c/"",""userAgent"":""Mozilla/5.0 (Windows NT 6.1; Win64; x64) AppleWebKit/537.36 (KHTML, like Gecko) Chrome/95.0.4638.69 Safari/537.36"",""platform"":""Win32"",""language"":""en-US"",""locale"":""en-US"",""timeZone"":""Europe/London"",""timezoneOffset"":0,""screen_width"":1920,""screen_height"":1080,""scroll_width"":1920,""scroll_height"":959,""window_innerWidth"":1920,""window_innerHeight"":1007,""devicePixelRatio"":1}",,,,,,,,,,,,,,,,,,,,,,,,,,,,,32719.00100000596,,form submission,,,,,,,,,,,,,,,,40003.59999999404,40002.40000000596,7266.728,7274.5,7283.399,40006.266,{},,
Headphones,html.Page,0_1,2021-11-05T13:00:11.361Z,,,,,,,,,,,,,,,,,,,,,,,,,,,,,,6694.333999994036,,form submission,,,,,,,,,,,,,,,,46701.09999999404,46700.59999999404,39989.607,40004.29999999702,40006.266,46710.433,,,
Holding screen,html.Screen,0_2_0_0,2021-11-05T13:00:21.362Z,,,,,,,,,,,,,,,,,,,,,,,,,,,,,,10002.628000000004,,timeout,,,,,,,,,,,,,,,,56702.09999999404,56696.392,46693.766,46701.59999999404,46710.433,56713.061,,,
screen,html.Screen,0_2_0_1_0,2021-11-05T13:00:22.336Z,,,,,,,,,,,,,,,,53,,,,,,,,,,,,,,962.038999994038,,response,,,99,,,,,,Space,keypress(Space),,,,,When -- ----- -- ------ - ------- --- ----------<br>------------- ------ ------ ---- ---- ------- ----- -- ----<br>-------- ------- -- ---------- --- - --- ----- ----- ----<br>---- --- --- ----- --- ---- ---- ------- ----- ---- -------<br>--- --- -- ----- -- --- ---- -- --- ---- -- ------ ------<br>--- ----- -- ----,57676.40000000596,57675.09999999404,56696.392,56702.5,56713.061,57680.387,,0,When
screen,html.Screen,0_2_0_1_1,2021-11-05T13:00:22.895Z,,,,,,,,,,,,,,,,53,,,,,,,,,,,,,,554.6129999999976,,response,,,99,,,,,,Space,keypress(Space),,,,,---- it ----- -- ------ - ------- --- ----------<br>------------- ------ ------ ---- ---- ------- ----- -- ----<br>-------- ------- -- ---------- --- - --- ----- ----- ----<br>---- --- --- ----- --- ---- ---- ------- ----- ---- -------<br>--- --- -- ----- -- --- ---- -- --- ---- -- ------ ------<br>--- ----- -- ----,58235.90000000596,58235,57663.715,57676.79999999702,57680.387,58247.111,,1,it
screen,html.Screen,0_2_0_1_2,2021-11-05T13:00:23.479Z,,,,,,,,,,,,,,,,53,,,,,,,,,,,,,,571.8890000000029,,response,,,99,,,,,,Space,keypress(Space),,,,,---- -- comes -- ------ - ------- --- ----------<br>------------- ------ ------ ---- ---- ------- ----- -- ----<br>-------- ------- -- ---------- --- - --- ----- ----- ----<br>---- --- --- ----- --- ---- ---- ------- ----- ---- -------<br>--- --- -- ----- -- --- ---- -- --- ---- -- ------ ------<br>--- ----- -- ----,58819.90000000596,58819,58230.44,58236.20000000298,58247.111,58830.612,,2,comes
screen,html.Screen,0_2_0_1_3,2021-11-05T13:00:23.895Z,,,,,,,,,,,,,,,,53,,,,,,,,,,,,,,404.387999999999,,response,,,99,,,,,,Space,keypress(Space),,,,,---- -- ----- to ------ - ------- --- ----------<br>------------- ------ ------ ---- ---- ------- ----- -- ----<br>-------- ------- -- ---------- --- - --- ----- ----- ----<br>---- --- --- ----- --- ---- ---- ------- ----- ---- -------<br>--- --- -- ----- -- --- ---- -- --- ---- -- ------ ------<br>--- ----- -- ----,59236,59235,58813.941,58820.09999999404,58830.612,59247.39,,3,to
screen,html.Screen,0_2_0_1_4,2021-11-05T13:00:24.312Z,,,,,,,,,,,,,,,,53,,,,,,,,,,,,,,403.51000000596105,,response,,,99,,,,,,Space,keypress(Space),,,,,---- -- ----- -- having - ------- --- ----------<br>------------- ------ ------ ---- ---- ------- ----- -- ----<br>-------- ------- -- ---------- --- - --- ----- ----- ----<br>---- --- --- ----- --- ---- ---- ------- ----- ---- -------<br>--- --- -- ----- -- --- ---- -- --- ---- -- ------ ------<br>--- ----- -- ----,59652.09999999404,59650.90000000596,59230.719,59236.40000000596,59247.39,59664.174,,4,having
screen,html.Screen,0_2_0_1_5,2021-11-05T13:00:24.663Z,,,,,,,,,,,,,,,,53,,,,,,,,,,,,,,338.7260000059614,,response,,,99,,,,,,Space,keypress(Space),,,,,---- -- ----- -- ------ a ------- --- ----------<br>------------- ------ ------ ---- ---- ------- ----- -- ----<br>-------- ------- -- ---------- --- - --- ----- ----- ----<br>---- --- --- ----- --- ---- ---- ------- ----- ---- -------<br>--- --- -- ----- -- --- ---- -- --- ---- -- ------ ------<br>--- ----- -- ----,60003.79999999702,60002.90000000596,59647.503,59652.5,59664.174,60014.271,,5,a
screen,html.Screen,0_2_0_1_6,2021-11-05T13:00:25.090Z,,,,,,,,,,,,,,,,53,,,,,,,,,,,,,,412.5289999970191,,response,,,99,,,,,,Space,keypress(Space),,,,,---- -- ----- -- ------ - lasting --- ----------<br>------------- ------ ------ ---- ---- ------- ----- -- ----<br>-------- ------- -- ---------- --- - --- ----- ----- ----<br>---- --- --- ----- --- ---- ---- ------- ----- ---- -------<br>--- --- -- ----- -- --- ---- -- --- ---- -- ------ ------<br>--- ----- -- ----,60427.79999999702,60426.79999999702,59997.6,60004.29999999702,60014.271,60431.05,,6,lasting
screen,html.Screen,0_2_0_1_7,2021-11-05T13:00:25.458Z,,,,,,,,,,,,,,,,53,,,,,,,,,,,,,,363.85000000595755,,response,,,99,,,,,,Space,keypress(Space),,,,,---- -- ----- -- ------ - ------- and ----------<br>------------- ------ ------ ---- ---- ------- ----- -- ----<br>-------- ------- -- ---------- --- - --- ----- ----- ----<br>---- --- --- ----- --- ---- ---- ------- ----- ---- -------<br>--- --- -- ----- -- --- ---- -- --- ---- -- ------ ------<br>--- ----- -- ----,60795.79999999702,60794.90000000596,60414.379,60428.09999999404,60431.05,60797.629,,7,and
screen,html.Screen,0_2_0_1_8,2021-11-05T13:00:25.858Z,,,,,,,,,,,,,,,,53,,,,,,,,,,,,,,397.27100000595965,,response,,,99,,,,,,Space,keypress(Space),,,,,---- -- ----- -- ------ - ------- --- fulfilling<br>------------- ------ ------ ---- ---- ------- ----- -- ----<br>-------- ------- -- ---------- --- - --- ----- ----- ----<br>---- --- --- ----- --- ---- ---- ------- ----- ---- -------<br>--- --- -- ----- -- --- ---- -- --- ---- -- ------ ------<br>--- ----- -- ----,61196,61194.90000000596,60780.961,60796.09999999404,60797.629,61197.972,,8,fulfilling
screen,html.Screen,0_2_0_1_9,2021-11-05T13:00:26.194Z,,,,,,,,,,,,,,,,53,,,,,,,,,,,,,,332.9280000059589,,response,,,99,,,,,,Space,keypress(Space),,,,,"---- -- ----- -- ------ - ------- --- ----------<br>relationship, ------ ------ ---- ---- ------- ----- -- ----<br>-------- ------- -- ---------- --- - --- ----- ----- ----<br>---- --- --- ----- --- ---- ---- ------- ----- ---- -------<br>--- --- -- ----- -- --- ---- -- --- ---- -- ------ ------<br>--- ----- -- ----",61531.79999999702,61530.90000000596,61181.3,61196.29999999702,61197.972,61547.9,,9,"relationship,"
screen,html.Screen,0_2_0_1_10,2021-11-05T13:00:26.634Z,,,,,,,,,,,,,,,,53,,,,,,,,,,,,,,423.3999999970183,,response,,,99,,,,,,Space,keypress(Space),,,,,---- -- ----- -- ------ - ------- --- ----------<br>------------- common ------ ---- ---- ------- ----- -- ----<br>-------- ------- -- ---------- --- - --- ----- ----- ----<br>---- --- --- ----- --- ---- ---- ------- ----- ---- -------<br>--- --- -- ----- -- --- ---- -- --- ---- -- ------ ------<br>--- ----- -- ----,61972.20000000298,61971.29999999702,61531.231,61532,61547.9,61981.498,,10,common
screen,html.Screen,0_2_0_1_11,2021-11-05T13:00:27.033Z,,,,,,,,,,,,,,,,53,,,,,,,,,,,,,,389.3019999970202,,response,,,99,,,,,,Space,keypress(Space),,,,,---- -- ----- -- ------ - ------- --- ----------<br>------------- ------ wisdom ---- ---- ------- ----- -- ----<br>-------- ------- -- ---------- --- - --- ----- ----- ----<br>---- --- --- ----- --- ---- ---- ------- ----- ---- -------<br>--- --- -- ----- -- --- ---- -- --- ---- -- ------ ------<br>--- ----- -- ----,62371.70000000298,62370.79999999702,61964.826,61972.40000000596,61981.498,62381.563,,11,wisdom
screen,html.Screen,0_2_0_1_12,2021-11-05T13:00:27.457Z,,,,,,,,,,,,,,,,53,,,,,,,,,,,,,,413.1370000029783,,response,,,99,,,,,,Space,keypress(Space),,,,,---- -- ----- -- ------ - ------- --- ----------<br>------------- ------ ------ says ---- ------- ----- -- ----<br>-------- ------- -- ---------- --- - --- ----- ----- ----<br>---- --- --- ----- --- ---- ---- ------- ----- ---- -------<br>--- --- -- ----- -- --- ---- -- --- ---- -- ------ ------<br>--- ----- -- ----,62795.5,62794.70000000298,62364.892,62372,62381.563,62798.342,,12,says
screen,html.Screen,0_2_0_1_13,2021-11-05T13:00:27.769Z,,,,,,,,,,,,,,,,53,,,,,,,,,,,,,,308.45799999702285,,response,,,99,,,,,,Space,keypress(Space),,,,,---- -- ----- -- ------ - ------- --- ----------<br>------------- ------ ------ ---- that ------- ----- -- ----<br>-------- ------- -- ---------- --- - --- ----- ----- ----<br>---- --- --- ----- --- ---- ---- ------- ----- ---- -------<br>--- --- -- ----- -- --- ---- -- --- ---- -- ------ ------<br>--- ----- -- ----,63107.59999999404,63106.79999999702,62781.671,62795.79999999702,62798.342,63115.039,,13,that
screen,html.Screen,0_2_0_1_14,2021-11-05T13:00:28.161Z,,,,,,,,,,,,,,,,53,,,,,,,,,,,,,,383.76099999702274,,response,,,99,,,,,,Space,keypress(Space),,,,,---- -- ----- -- ------ - ------- --- ----------<br>------------- ------ ------ ---- ---- feeling ----- -- ----<br>-------- ------- -- ---------- --- - --- ----- ----- ----<br>---- --- --- ----- --- ---- ---- ------- ----- ---- -------<br>--- --- -- ----- -- --- ---- -- --- ---- -- ------ ------<br>--- ----- -- ----,63499.59999999404,63498.79999999702,63098.369,63107.79999999702,63115.039,63515.21,,14,feeling
screen,html.Screen,0_2_0_1_15,2021-11-05T13:00:28.521Z,,,,,,,,,,,,,,,,53,,,,,,,,,,,,,,343.58999999702064,,response,,,99,,,,,,Space,keypress(Space),,,,,---- -- ----- -- ------ - ------- --- ----------<br>------------- ------ ------ ---- ---- ------- close -- ----<br>-------- ------- -- ---------- --- - --- ----- ----- ----<br>---- --- --- ----- --- ---- ---- ------- ----- ---- -------<br>--- --- -- ----- -- --- ---- -- --- ---- -- ------ ------<br>--- ----- -- ----,63859.59999999404,63858.79999999702,63498.539,63499.90000000596,63515.21,63865.262,,15,close
screen,html.Screen,0_2_0_1_16,2021-11-05T13:00:28.841Z,,,,,,,,,,,,,,,,53,,,,,,,,,,,,,,313.5379999970173,,response,,,99,,,,,,Space,keypress(Space),,,,,---- -- ----- -- ------ - ------- --- ----------<br>------------- ------ ------ ---- ---- ------- ----- to ----<br>-------- ------- -- ---------- --- - --- ----- ----- ----<br>---- --- --- ----- --- ---- ---- ------- ----- ---- -------<br>--- --- -- ----- -- --- ---- -- --- ---- -- ------ ------<br>--- ----- -- ----,64179.5,64178.79999999702,63848.592,63859.90000000596,63865.262,64182.048,,16,to
screen,html.Screen,0_2_0_1_17,2021-11-05T13:00:29.177Z,,,,,,,,,,,,,,,,53,,,,,,,,,,,,,,332.65200000297773,,response,,,99,,,,,,Space,keypress(Space),,,,,---- -- ----- -- ------ - ------- --- ----------<br>------------- ------ ------ ---- ---- ------- ----- -- your<br>-------- ------- -- ---------- --- - --- ----- ----- ----<br>---- --- --- ----- --- ---- ---- ------- ----- ---- -------<br>--- --- -- ----- -- --- ---- -- --- ---- -- ------ ------<br>--- ----- -- ----,64515.5,64514.70000000298,64165.377,64179.79999999702,64182.048,64532.163,,17,your
screen,html.Screen,0_2_0_1_18,2021-11-05T13:00:29.521Z,,,,,,,,,,,,,,,,53,,,,,,,,,,,,,,326.53700000297977,,response,,,99,,,,,,Space,keypress(Space),,,,,---- -- ----- -- ------ - ------- --- ----------<br>------------- ------ ------ ---- ---- ------- ----- -- ----<br>romantic ------- -- ---------- --- - --- ----- ----- ----<br>---- --- --- ----- --- ---- ---- ------- ----- ---- -------<br>--- --- -- ----- -- --- ---- -- --- ---- -- ------ ------<br>--- ----- -- ----,64859.59999999404,64858.70000000298,64515.492,64515.79999999702,64532.163,64865.533,,18,romantic
screen,html.Screen,0_2_0_1_19,2021-11-05T13:00:29.953Z,,,,,,,,,,,,,,,,53,,,,,,,,,,,,,,425.16700000297715,,response,,,99,,,,,,Space,keypress(Space),,,,,---- -- ----- -- ------ - ------- --- ----------<br>------------- ------ ------ ---- ---- ------- ----- -- ----<br>-------- partner -- ---------- --- - --- ----- ----- ----<br>---- --- --- ----- --- ---- ---- ------- ----- ---- -------<br>--- --- -- ----- -- --- ---- -- --- ---- -- ------ ------<br>--- ----- -- ----,65291.5,65290.70000000298,64848.863,64859.79999999702,64865.533,65299.026,,19,partner
screen,html.Screen,0_2_0_1_20,2021-11-05T13:00:30.289Z,,,,,,,,,,,,,,,,53,,,,,,,,,,,,,,327.6740000029822,,response,,,99,,,,,,Space,keypress(Space),,,,,---- -- ----- -- ------ - ------- --- ----------<br>------------- ------ ------ ---- ---- ------- ----- -- ----<br>-------- ------- is ---------- --- - --- ----- ----- ----<br>---- --- --- ----- --- ---- ---- ------- ----- ---- -------<br>--- --- -- ----- -- --- ---- -- --- ---- -- ------ ------<br>--- ----- -- ----,65627.5,65626.70000000298,65282.355,65291.79999999702,65299.026,65632.443,,20,is
screen,html.Screen,0_2_0_1_21,2021-11-05T13:00:30.617Z,,,,,,,,,,,,,,,,53,,,,,,,,,,,,,,322.25700000298093,,response,,,99,,,,,,Space,keypress(Space),,,,,---- -- ----- -- ------ - ------- --- ----------<br>------------- ------ ------ ---- ---- ------- ----- -- ----<br>-------- ------- -- paramount. --- - --- ----- ----- ----<br>---- --- --- ----- --- ---- ---- ------- ----- ---- -------<br>--- --- -- ----- -- --- ---- -- --- ---- -- ------ ------<br>--- ----- -- ----,65955.5,65954.70000000298,65615.772,65627.79999999702,65632.443,65965.839,,21,paramount.
screen,html.Screen,0_2_0_1_22,2021-11-05T13:00:31.353Z,,,,,,,,,,,,,,,,53,,,,,,,,,,,,,,724.7609999940323,,response,,,99,,,,,,Space,keypress(Space),,,,,---- -- ----- -- ------ - ------- --- ----------<br>------------- ------ ------ ---- ---- ------- ----- -- ----<br>-------- ------- -- ---------- But - --- ----- ----- ----<br>---- --- --- ----- --- ---- ---- ------- ----- ---- -------<br>--- --- -- ----- -- --- ---- -- --- ---- -- ------ ------<br>--- ----- -- ----,66691.5,66690.59999999404,65949.169,65956,65965.839,66699.393,,22,But
screen,html.Screen,0_2_0_1_23,2021-11-05T13:00:31.769Z,,,,,,,,,,,,,,,,53,,,,,,,,,,,,,,407.20699999404314,,response,,,99,,,,,,Space,keypress(Space),,,,,---- -- ----- -- ------ - ------- --- ----------<br>------------- ------ ------ ---- ---- ------- ----- -- ----<br>-------- ------- -- ---------- --- a --- ----- ----- ----<br>---- --- --- ----- --- ---- ---- ------- ----- ---- -------<br>--- --- -- ----- -- --- ---- -- --- ---- -- ------ ------<br>--- ----- -- ----,67107.40000000596,67106.59999999404,66682.722,66691.79999999702,66699.393,67116.175,,23,a
screen,html.Screen,0_2_0_1_24,2021-11-05T13:00:32.089Z,,,,,,,,,,,,,,,,53,,,,,,,,,,,,,,310.4249999940366,,response,,,99,,,,,,Space,keypress(Space),,,,,---- -- ----- -- ------ - ------- --- ----------<br>------------- ------ ------ ---- ---- ------- ----- -- ----<br>-------- ------- -- ---------- --- - new ----- ----- ----<br>---- --- --- ----- --- ---- ---- ------- ----- ---- -------<br>--- --- -- ----- -- --- ---- -- --- ---- -- ------ ------<br>--- ----- -- ----,67427.40000000596,67426.59999999404,67099.504,67107.59999999404,67116.175,67432.899,,24,new
screen,html.Screen,0_2_0_1_25,2021-11-05T13:00:32.481Z,,,,,,,,,,,,,,,,53,,,,,,,,,,,,,,385.70099999403465,,response,,,99,,,,,,Space,keypress(Space),,,,,---- -- ----- -- ------ - ------- --- ----------<br>------------- ------ ------ ---- ---- ------- ----- -- ----<br>-------- ------- -- ---------- --- - --- study ----- ----<br>---- --- --- ----- --- ---- ---- ------- ----- ---- -------<br>--- --- -- ----- -- --- ---- -- --- ---- -- ------ ------<br>--- ----- -- ----,67819.40000000596,67818.59999999404,67416.229,67427.59999999404,67432.899,67833.034,,25,study
screen,html.Screen,0_2_0_1_26,2021-11-05T13:00:32.825Z,,,,,,,,,,,,,,,,53,,,,,,,,,,,,,,329.5659999940399,,response,,,99,,,,,,Space,keypress(Space),,,,,---- -- ----- -- ------ - ------- --- ----------<br>------------- ------ ------ ---- ---- ------- ----- -- ----<br>-------- ------- -- ---------- --- - --- ----- finds ----<br>---- --- --- ----- --- ---- ---- ------- ----- ---- -------<br>--- --- -- ----- -- --- ---- -- --- ---- -- ------ ------<br>--- ----- -- ----,68163.40000000596,68162.59999999404,67816.363,67819.70000000298,67833.034,68166.313,,26,finds
screen,html.Screen,0_2_0_1_27,2021-11-05T13:00:33.161Z,,,,,,,,,,,,,,,,53,,,,,,,,,,,,,,332.2869999940449,,response,,,99,,,,,,Space,keypress(Space),,,,,---- -- ----- -- ------ - ------- --- ----------<br>------------- ------ ------ ---- ---- ------- ----- -- ----<br>-------- ------- -- ---------- --- - --- ----- ----- that<br>---- --- --- ----- --- ---- ---- ------- ----- ---- -------<br>--- --- -- ----- -- --- ---- -- --- ---- -- ------ ------<br>--- ----- -- ----,68499.29999999702,68498.59999999404,68149.645,68163.70000000298,68166.313,68516.598,,27,that
screen,html.Screen,0_2_0_1_28,2021-11-05T13:00:33.457Z,,,,,,,,,,,,,,,,53,,,,,,,,,,,,,,277.90200000000186,,response,,,99,,,,,,Space,keypress(Space),,,,,---- -- ----- -- ------ - ------- --- ----------<br>------------- ------ ------ ---- ---- ------- ----- -- ----<br>-------- ------- -- ---------- --- - --- ----- ----- ----<br>it's --- --- ----- --- ---- ---- ------- ----- ---- -------<br>--- --- -- ----- -- --- ---- -- --- ---- -- ------ ------<br>--- ----- -- ----,68795.40000000596,68794.5,68499.926,68499.70000000298,68516.598,68799.959,,28,it's
screen,html.Screen,0_2_0_1_29,2021-11-05T13:00:33.841Z,,,,,,,,,,,,,,,,53,,,,,,,,,,,,,,378.640999994037,,response,,,99,,,,,,Space,keypress(Space),,,,,---- -- ----- -- ------ - ------- --- ----------<br>------------- ------ ------ ---- ---- ------- ----- -- ----<br>-------- ------- -- ---------- --- - --- ----- ----- ----<br>---- not --- ----- --- ---- ---- ------- ----- ---- -------<br>--- --- -- ----- -- --- ---- -- --- ---- -- ------ ------<br>--- ----- -- ----,69179.40000000596,69178.59999999404,68783.288,68795.59999999404,68799.959,69183.296,,29,not
screen,html.Screen,0_2_0_1_30,2021-11-05T13:00:34.145Z,,,,,,,,,,,,,,,,53,,,,,,,,,,,,,,299.30399999403744,,response,,,99,,,,,,Space,keypress(Space),,,,,---- -- ----- -- ------ - ------- --- ----------<br>------------- ------ ------ ---- ---- ------- ----- -- ----<br>-------- ------- -- ---------- --- - --- ----- ----- ----<br>---- --- how ----- --- ---- ---- ------- ----- ---- -------<br>--- --- -- ----- -- --- ---- -- --- ---- -- ------ ------<br>--- ----- -- ----,69483.29999999702,69482.59999999404,69166.627,69179.59999999404,69183.296,69500.143,,30,how
screen,html.Screen,0_2_0_1_31,2021-11-05T13:00:34.489Z,,,,,,,,,,,,,,,,53,,,,,,,,,,,,,,326.3570000000036,,response,,,99,,,,,,Space,keypress(Space),,,,,---- -- ----- -- ------ - ------- --- ----------<br>------------- ------ ------ ---- ---- ------- ----- -- ----<br>-------- ------- -- ---------- --- - --- ----- ----- ----<br>---- --- --- close --- ---- ---- ------- ----- ---- -------<br>--- --- -- ----- -- --- ---- -- --- ---- -- ------ ------<br>--- ----- -- ----,69827.29999999702,69826.5,69483.472,69483.59999999404,69500.143,69833.573,,31,close
screen,html.Screen,0_2_0_1_32,2021-11-05T13:00:34.817Z,,,,,,,,,,,,,,,,53,,,,,,,,,,,,,,320.92699999999604,,response,,,99,,,,,,Space,keypress(Space),,,,,---- -- ----- -- ------ - ------- --- ----------<br>------------- ------ ------ ---- ---- ------- ----- -- ----<br>-------- ------- -- ---------- --- - --- ----- ----- ----<br>---- --- --- ----- you ---- ---- ------- ----- ---- -------<br>--- --- -- ----- -- --- ---- -- --- ---- -- ------ ------<br>--- ----- -- ----,70155.29999999702,70154.5,69816.902,69827.5,69833.573,70166.966,,32,you
screen,html.Screen,0_2_0_1_33,2021-11-05T13:00:35.145Z,,,,,,,,,,,,,,,,53,,,,,,,,,,,,,,315.53399999999965,,response,,,99,,,,,,Space,keypress(Space),,,,,---- -- ----- -- ------ - ------- --- ----------<br>------------- ------ ------ ---- ---- ------- ----- -- ----<br>-------- ------- -- ---------- --- - --- ----- ----- ----<br>---- --- --- ----- --- feel ---- ------- ----- ---- -------<br>--- --- -- ----- -- --- ---- -- --- ---- -- ------ ------<br>--- ----- -- ----,70483.40000000596,70482.5,70150.296,70155.59999999404,70166.966,70500.428,,33,feel
screen,html.Screen,0_2_0_1_34,2021-11-05T13:00:35.465Z,,,,,,,,,,,,,,,,53,,,,,,,,,,,,,,302.0720000000001,,response,,,99,,,,,,Space,keypress(Space),,,,,---- -- ----- -- ------ - ------- --- ----------<br>------------- ------ ------ ---- ---- ------- ----- -- ----<br>-------- ------- -- ---------- --- - --- ----- ----- ----<br>---- --- --- ----- --- ---- that ------- ----- ---- -------<br>--- --- -- ----- -- --- ---- -- --- ---- -- ------ ------<br>--- ----- -- ----,70803.29999999702,70802.5,70483.757,70483.70000000298,70500.428,70816.978,,34,that
screen,html.Screen,0_2_0_1_35,2021-11-05T13:00:35.817Z,,,,,,,,,,,,,,,,53,,,,,,,,,,,,,,337.5219999999972,,response,,,99,,,,,,Space,keypress(Space),,,,,---- -- ----- -- ------ - ------- --- ----------<br>------------- ------ ------ ---- ---- ------- ----- -- ----<br>-------- ------- -- ---------- --- - --- ----- ----- ----<br>---- --- --- ----- --- ---- ---- matters ----- ---- -------<br>--- --- -- ----- -- --- ---- -- --- ---- -- ------ ------<br>--- ----- -- ----,71155.20000000298,71154.5,70800.311,70803.59999999404,70816.978,71167.364,,35,matters
screen,html.Screen,0_2_0_1_36,2021-11-05T13:00:36.105Z,,,,,,,,,,,,,,,,53,,,,,,,,,,,,,,275.03600000595907,,response,,,99,,,,,,Space,keypress(Space),,,,,"---- -- ----- -- ------ - ------- --- ----------<br>------------- ------ ------ ---- ---- ------- ----- -- ----<br>-------- ------- -- ---------- --- - --- ----- ----- ----<br>---- --- --- ----- --- ---- ---- ------- most, ---- -------<br>--- --- -- ----- -- --- ---- -- --- ---- -- ------ ------<br>--- ----- -- ----",71443.20000000298,71442.40000000596,71150.691,71155.5,71167.364,71450.642,,36,"most,"
screen,html.Screen,0_2_0_1_37,2021-11-05T13:00:36.465Z,,,,,,,,,,,,,,,,53,,,,,,,,,,,,,,351.75800000595336,,response,,,99,,,,,,Space,keypress(Space),,,,,---- -- ----- -- ------ - ------- --- ----------<br>------------- ------ ------ ---- ---- ------- ----- -- ----<br>-------- ------- -- ---------- --- - --- ----- ----- ----<br>---- --- --- ----- --- ---- ---- ------- ----- it's -------<br>--- --- -- ----- -- --- ---- -- --- ---- -- ------ ------<br>--- ----- -- ----,71803.20000000298,71802.40000000596,71433.972,71443.5,71450.642,71817.394,,37,it's
screen,html.Screen,0_2_0_1_38,2021-11-05T13:00:36.769Z,,,,,,,,,,,,,,,,53,,,,,,,,,,,,,,289.50600000596023,,response,,,99,,,,,,Space,keypress(Space),,,,,---- -- ----- -- ------ - ------- --- ----------<br>------------- ------ ------ ---- ---- ------- ----- -- ----<br>-------- ------- -- ---------- --- - --- ----- ----- ----<br>---- --- --- ----- --- ---- ---- ------- ----- ---- whether<br>--- --- -- ----- -- --- ---- -- --- ---- -- ------ ------<br>--- ----- -- ----,72107.70000000298,72106.90000000596,71800.724,71803.5,71817.394,72117.526,,38,whether
screen,html.Screen,0_2_0_1_39,2021-11-05T13:00:37.073Z,,,,,,,,,,,,,,,,53,,,,,,,,,,,,,,292.87400000596244,,response,,,99,,,,,,Space,keypress(Space),,,,,---- -- ----- -- ------ - ------- --- ----------<br>------------- ------ ------ ---- ---- ------- ----- -- ----<br>-------- ------- -- ---------- --- - --- ----- ----- ----<br>---- --- --- ----- --- ---- ---- ------- ----- ---- -------<br>you --- -- ----- -- --- ---- -- --- ---- -- ------ ------<br>--- ----- -- ----,72411.20000000298,72410.40000000596,72100.855,72107.90000000596,72117.526,72417.574,,39,you
screen,html.Screen,0_2_0_1_40,2021-11-05T13:00:37.385Z,,,,,,,,,,,,,,,,53,,,,,,,,,,,,,,304.8260000059672,,response,,,99,,,,,,Space,keypress(Space),,,,,---- -- ----- -- ------ - ------- --- ----------<br>------------- ------ ------ ---- ---- ------- ----- -- ----<br>-------- ------- -- ---------- --- - --- ----- ----- ----<br>---- --- --- ----- --- ---- ---- ------- ----- ---- -------<br>--- are -- ----- -- --- ---- -- --- ---- -- ------ ------<br>--- ----- -- ----,72723.20000000298,72722.40000000596,72400.904,72411.40000000596,72417.574,72734.359,,40,are
screen,html.Screen,0_2_0_1_41,2021-11-05T13:00:37.697Z,,,,,,,,,,,,,,,,53,,,,,,,,,,,,,,300.0410000059637,,response,,,99,,,,,,Space,keypress(Space),,,,,---- -- ----- -- ------ - ------- --- ----------<br>------------- ------ ------ ---- ---- ------- ----- -- ----<br>-------- ------- -- ---------- --- - --- ----- ----- ----<br>---- --- --- ----- --- ---- ---- ------- ----- ---- -------<br>--- --- as ----- -- --- ---- -- --- ---- -- ------ ------<br>--- ----- -- ----,73035.09999999404,73034.40000000596,72717.688,72723.5,72734.359,73051.078,,41,as
screen,html.Screen,0_2_0_1_42,2021-11-05T13:00:37.985Z,,,,,,,,,,,,,,,,53,,,,,,,,,,,,,,271.3220000059664,,response,,,99,,,,,,Space,keypress(Space),,,,,---- -- ----- -- ------ - ------- --- ----------<br>------------- ------ ------ ---- ---- ------- ----- -- ----<br>-------- ------- -- ---------- --- - --- ----- ----- ----<br>---- --- --- ----- --- ---- ---- ------- ----- ---- -------<br>--- --- -- close -- --- ---- -- --- ---- -- ------ ------<br>--- ----- -- ----,73323.20000000298,73322.40000000596,73034.408,73035.5,73051.078,73334.525,,42,close
screen,html.Screen,0_2_0_1_43,2021-11-05T13:00:38.273Z,,,,,,,,,,,,,,,,53,,,,,,,,,,,,,,275.8750000059663,,response,,,99,,,,,,Space,keypress(Space),,,,,---- -- ----- -- ------ - ------- --- ----------<br>------------- ------ ------ ---- ---- ------- ----- -- ----<br>-------- ------- -- ---------- --- - --- ----- ----- ----<br>---- --- --- ----- --- ---- ---- ------- ----- ---- -------<br>--- --- -- ----- as --- ---- -- --- ---- -- ------ ------<br>--- ----- -- ----,73611.20000000298,73610.40000000596,73317.854,73323.40000000596,73334.525,73617.929,,43,as
screen,html.Screen,0_2_0_1_44,2021-11-05T13:00:38.601Z,,,,,,,,,,,,,,,,53,,,,,,,,,,,,,,320.47100000595674,,response,,,99,,,,,,Space,keypress(Space),,,,,---- -- ----- -- ------ - ------- --- ----------<br>------------- ------ ------ ---- ---- ------- ----- -- ----<br>-------- ------- -- ---------- --- - --- ----- ----- ----<br>---- --- --- ----- --- ---- ---- ------- ----- ---- -------<br>--- --- -- ----- -- you ---- -- --- ---- -- ------ ------<br>--- ----- -- ----,73939.09999999404,73938.40000000596,73601.258,73611.40000000596,73617.929,73951.351,,44,you
screen,html.Screen,0_2_0_1_45,2021-11-05T13:00:38.873Z,,,,,,,,,,,,,,,,53,,,,,,,,,,,,,,258.94899999702466,,response,,,99,,,,,,Space,keypress(Space),,,,,---- -- ----- -- ------ - ------- --- ----------<br>------------- ------ ------ ---- ---- ------- ----- -- ----<br>-------- ------- -- ---------- --- - --- ----- ----- ----<br>---- --- --- ----- --- ---- ---- ------- ----- ---- -------<br>--- --- -- ----- -- --- want -- --- ---- -- ------ ------<br>--- ----- -- ----,74211.09999999404,74210.29999999702,73934.68,73939.40000000596,73951.351,74218.053,,45,want
screen,html.Screen,0_2_0_1_46,2021-11-05T13:00:39.209Z,,,,,,,,,,,,,,,,53,,,,,,,,,,,,,,328.2469999970199,,response,,,99,,,,,,Space,keypress(Space),,,,,---- -- ----- -- ------ - ------- --- ----------<br>------------- ------ ------ ---- ---- ------- ----- -- ----<br>-------- ------- -- ---------- --- - --- ----- ----- ----<br>---- --- --- ----- --- ---- ---- ------- ----- ---- -------<br>--- --- -- ----- -- --- ---- to --- ---- -- ------ ------<br>--- ----- -- ----,74547.09999999404,74546.29999999702,74201.383,74211.29999999702,74218.053,74551.502,,46,to
screen,html.Screen,0_2_0_1_47,2021-11-05T13:00:39.537Z,,,,,,,,,,,,,,,,53,,,,,,,,,,,,,,322.79799999702664,,response,,,99,,,,,,Space,keypress(Space),,,,,"---- -- ----- -- ------ - ------- --- ----------<br>------------- ------ ------ ---- ---- ------- ----- -- ----<br>-------- ------- -- ---------- --- - --- ----- ----- ----<br>---- --- --- ----- --- ---- ---- ------- ----- ---- -------<br>--- --- -- ----- -- --- ---- -- be, ---- -- ------ ------<br>--- ----- -- ----",74875.09999999404,74874.29999999702,74534.831,74547.29999999702,74551.502,74884.898,,47,"be,"
screen,html.Screen,0_2_0_1_48,2021-11-05T13:00:39.857Z,,,,,,,,,,,,,,,,53,,,,,,,,,,,,,,309.4019999970187,,response,,,99,,,,,,Space,keypress(Space),,,,,---- -- ----- -- ------ - ------- --- ----------<br>------------- ------ ------ ---- ---- ------- ----- -- ----<br>-------- ------- -- ---------- --- - --- ----- ----- ----<br>---- --- --- ----- --- ---- ---- ------- ----- ---- -------<br>--- --- -- ----- -- --- ---- -- --- even -- ------ ------<br>--- ----- -- ----,75195.09999999404,75194.29999999702,74868.228,74875.40000000596,74884.898,75201.683,,48,even
screen,html.Screen,0_2_0_1_49,2021-11-05T13:00:40.185Z,,,,,,,,,,,,,,,,53,,,,,,,,,,,,,,320.5170000029757,,response,,,99,,,,,,Space,keypress(Space),,,,,---- -- ----- -- ------ - ------- --- ----------<br>------------- ------ ------ ---- ---- ------- ----- -- ----<br>-------- ------- -- ---------- --- - --- ----- ----- ----<br>---- --- --- ----- --- ---- ---- ------- ----- ---- -------<br>--- --- -- ----- -- --- ---- -- --- ---- if ------ ------<br>--- ----- -- ----,75523,75522.20000000298,75185.012,75195.40000000596,75201.683,75535.112,,49,if
screen,html.Screen,0_2_0_1_50,2021-11-05T13:00:40.457Z,,,,,,,,,,,,,,,,53,,,,,,,,,,,,,,259.18799999702605,,response,,,99,,,,,,Space,keypress(Space),,,,,---- -- ----- -- ------ - ------- --- ----------<br>------------- ------ ------ ---- ---- ------- ----- -- ----<br>-------- ------- -- ---------- --- - --- ----- ----- ----<br>---- --- --- ----- --- ---- ---- ------- ----- ---- -------<br>--- --- -- ----- -- --- ---- -- --- ---- -- that's ------<br>--- ----- -- ----,75795.40000000596,75794.29999999702,75518.441,75523.29999999702,75535.112,75801.856,,50,that's
screen,html.Screen,0_2_0_1_51,2021-11-05T13:00:40.753Z,,,,,,,,,,,,,,,,53,,,,,,,,,,,,,,288.44399999702,,response,,,99,,,,,,Space,keypress(Space),,,,,---- -- ----- -- ------ - ------- --- ----------<br>------------- ------ ------ ---- ---- ------- ----- -- ----<br>-------- ------- -- ---------- --- - --- ----- ----- ----<br>---- --- --- ----- --- ---- ---- ------- ----- ---- -------<br>--- --- -- ----- -- --- ---- -- --- ---- -- ------ really<br>--- ----- -- ----,76091,76090.29999999702,75785.185,75795.59999999404,75801.856,76101.75,,51,really
screen,html.Screen,0_2_0_1_52,2021-11-05T13:00:41.041Z,,,,,,,,,,,,,,,,53,,,,,,,,,,,,,,276.45000000298023,,response,,,99,,,,,,Space,keypress(Space),,,,,---- -- ----- -- ------ - ------- --- ----------<br>------------- ------ ------ ---- ---- ------- ----- -- ----<br>-------- ------- -- ---------- --- - --- ----- ----- ----<br>---- --- --- ----- --- ---- ---- ------- ----- ---- -------<br>--- --- -- ----- -- --- ---- -- --- ---- -- ------ ------<br>not ----- -- ----,76379,76378.20000000298,76085.083,76091.29999999702,76101.75,76385.439,,52,not
screen,html.Screen,0_2_0_1_53,2021-11-05T13:00:41.329Z,,,,,,,,,,,,,,,,53,,,,,,,,,,,,,,280.76100000298175,,response,,,99,,,,,,Space,keypress(Space),,,,,---- -- ----- -- ------ - ------- --- ----------<br>------------- ------ ------ ---- ---- ------- ----- -- ----<br>-------- ------- -- ---------- --- - --- ----- ----- ----<br>---- --- --- ----- --- ---- ---- ------- ----- ---- -------<br>--- --- -- ----- -- --- ---- -- --- ---- -- ------ ------<br>--- close -- ----,76667,76666.20000000298,76368.765,76379.29999999702,76385.439,76668.713,,53,close
screen,html.Screen,0_2_0_1_54,2021-11-05T13:00:41.609Z,,,,,,,,,,,,,,,,53,,,,,,,,,,,,,,277.48700000297686,,response,,,99,,,,,,Space,keypress(Space),,,,,---- -- ----- -- ------ - ------- --- ----------<br>------------- ------ ------ ---- ---- ------- ----- -- ----<br>-------- ------- -- ---------- --- - --- ----- ----- ----<br>---- --- --- ----- --- ---- ---- ------- ----- ---- -------<br>--- --- -- ----- -- --- ---- -- --- ---- -- ------ ------<br>--- ----- at ----,76947,76946.20000000298,76652.043,76667.20000000298,76668.713,76952.16,,54,at
screen,html.Screen,0_2_0_1_55,2021-11-05T13:00:41.889Z,,,,,,,,,,,,,,,,53,,,,,,,,,,,,,,273.93999999403604,,response,,,99,,,,,,Space,keypress(Space),,,,,---- -- ----- -- ------ - ------- --- ----------<br>------------- ------ ------ ---- ---- ------- ----- -- ----<br>-------- ------- -- ---------- --- - --- ----- ----- ----<br>---- --- --- ----- --- ---- ---- ------- ----- ---- -------<br>--- --- -- ----- -- --- ---- -- --- ---- -- ------ ------<br>--- ----- -- all.,77227,77226.09999999404,76935.489,76947.20000000298,76952.16,77235.541,,55,all.
Item 99,flow.Loop,0_2_0_1,2021-11-05T13:00:41.893Z,,,,,,,,,,,,,,,,,,,,,,,,,,,,,,20513.038999994038,,completion,,,,C,,,,,,,,,,silence,,77231.29999999702,77226.09999999404,56696.392,56702.40000000596,56713.061,77235.541,,,
Question 1,html.Screen,0_2_0_2,2021-11-05T13:00:47.945Z,,,,,,,,,,,,,,,,,,,,,,,,,,,true,FALSE,,6046.159000002983,,response,,,99,C,,,,,FALSE,click #choice-2,,,,silence,,83283.09999999404,83281.70000000298,77218.871,77231.59999999404,77235.541,83303.791,,,
Question 2,html.Screen,0_2_0_3,2021-11-05T13:00:55.848Z,,,,,,,,,,,,,,,,,,,,,,,,,,,true,TRUE,,7881.609000005963,,response,,,99,C,,,,,TRUE,click #choice-1,,,,silence,,91186.59999999404,91185.40000000596,83287.121,83283.40000000596,83303.791,91189.261,,,
Item 99,flow.Sequence,0_2_0,2021-11-05T13:00:55.849Z,,,,,,,,,,,,,,,,,,,,,,,,,,,,,,44474.96700000596,,completion,,,,,,,,,,,,,,,,91187,91185.40000000596,46693.766,46701.59999999404,46710.433,91189.261,,,
Holding screen,html.Screen,0_2_1_0,2021-11-05T13:01:05.838Z,,,,,,,,,,,,,,,,,,,,,,,,,,,,,,10002.665000000008,,timeout,,,,,,,,,,,,,,,,101176.29999999702,101175.255,91172.59,91187.5,91189.261,101191.926,,,
screen,html.Screen,0_2_1_1_0,2021-11-05T13:01:06.704Z,,,,,,,,,,,,,,,,54,,,,,,,,,,,,,,849.6739999940328,,response,,,100,,,,,,Space,keypress(Space),,,,,At --- ---- --- ------ ----- ------- ---- -- --- ------- --<br>------- ---------- ------ -- ----- -- ----- -- ---- ------<br>--- ----- --- --- ------ -------- ----- --- ------ ----- --<br>----- ----- ---------- --- --- ------ ------ ---- -- ------<br>------- --- ------ ----- --- ---- ------- -- ---- --- --<br>------- ------,102042.5,102041.59999999404,101175.255,101176.70000000298,101191.926,102042.217,,0,At
screen,html.Screen,0_2_1_1_1,2021-11-05T13:01:07.032Z,,,,,,,,,,,,,,,,54,,,,,,,,,,,,,,326.7829999999958,,response,,,100,,,,,,Space,keypress(Space),,,,,-- the ---- --- ------ ----- ------- ---- -- --- ------- --<br>------- ---------- ------ -- ----- -- ----- -- ---- ------<br>--- ----- --- --- ------ -------- ----- --- ------ ----- --<br>----- ----- ---------- --- --- ------ ------ ---- -- ------<br>------- --- ------ ----- --- ---- ------- -- ---- --- --<br>------- ------,102369.90000000596,102369,102025.546,102042.79999999702,102042.217,102375.652,,1,the
screen,html.Screen,0_2_1_1_2,2021-11-05T13:01:07.304Z,,,,,,,,,,,,,,,,54,,,,,,,,,,,,,,265.34799999999814,,response,,,100,,,,,,Space,keypress(Space),,,,,-- --- time --- ------ ----- ------- ---- -- --- ------- --<br>------- ---------- ------ -- ----- -- ----- -- ---- ------<br>--- ----- --- --- ------ -------- ----- --- ------ ----- --<br>----- ----- ---------- --- --- ------ ------ ---- -- ------<br>------- --- ------ ----- --- ---- ------- -- ---- --- --<br>------- ------,102641.90000000596,102641,102358.981,102370.09999999404,102375.652,102659.032,,2,time
screen,html.Screen,0_2_1_1_3,2021-11-05T13:01:07.632Z,,,,,,,,,,,,,,,,54,,,,,,,,,,,,,,309.9679999999935,,response,,,100,,,,,,Space,keypress(Space),,,,,-- --- ---- the ------ ----- ------- ---- -- --- ------- --<br>------- ---------- ------ -- ----- -- ----- -- ---- ------<br>--- ----- --- --- ------ -------- ----- --- ------ ----- --<br>----- ----- ---------- --- --- ------ ------ ---- -- ------<br>------- --- ------ ----- --- ---- ------- -- ---- --- --<br>------- ------,102969.90000000596,102969,102642.362,102642.09999999404,102659.032,102975.825,,3,the
screen,html.Screen,0_2_1_1_4,2021-11-05T13:01:07.919Z,,,,,,,,,,,,,,,,54,,,,,,,,,,,,,,281.0750000059634,,response,,,100,,,,,,Space,keypress(Space),,,,,-- --- ---- --- French ----- ------- ---- -- --- ------- --<br>------- ---------- ------ -- ----- -- ----- -- ---- ------<br>--- ----- --- --- ------ -------- ----- --- ------ ----- --<br>----- ----- ---------- --- --- ------ ------ ---- -- ------<br>------- --- ------ ----- --- ---- ------- -- ---- --- --<br>------- ------,103257.5,103256.90000000596,102959.154,102970.09999999404,102975.825,103259.181,,4,French
screen,html.Screen,0_2_1_1_5,2021-11-05T13:01:08.224Z,,,,,,,,,,,,,,,,54,,,,,,,,,,,,,,301.81900000000314,,response,,,100,,,,,,Space,keypress(Space),,,,,-- --- ---- --- ------ crown ------- ---- -- --- ------- --<br>------- ---------- ------ -- ----- -- ----- -- ---- ------<br>--- ----- --- --- ------ -------- ----- --- ------ ----- --<br>----- ----- ---------- --- --- ------ ------ ---- -- ------<br>------- --- ------ ----- --- ---- ------- -- ---- --- --<br>------- ------,103561.79999999702,103561,103242.511,103257.79999999702,103259.181,103575.979,,5,crown
screen,html.Screen,0_2_1_1_6,2021-11-05T13:01:08.552Z,,,,,,,,,,,,,,,,54,,,,,,,,,,,,,,313.02099999999336,,response,,,100,,,,,,Space,keypress(Space),,,,,-- --- ---- --- ------ ----- secured ---- -- --- ------- --<br>------- ---------- ------ -- ----- -- ----- -- ---- ------<br>--- ----- --- --- ------ -------- ----- --- ------ ----- --<br>----- ----- ---------- --- --- ------ ------ ---- -- ------<br>------- --- ------ ----- --- ---- ------- -- ---- --- --<br>------- ------,103889.79999999702,103889,103559.308,103562.09999999404,103575.979,103892.725,,6,secured
screen,html.Screen,0_2_1_1_7,2021-11-05T13:01:08.832Z,,,,,,,,,,,,,,,,54,,,,,,,,,,,,,,276.3749999940337,,response,,,100,,,,,,Space,keypress(Space),,,,,-- --- ---- --- ------ ----- ------- much -- --- ------- --<br>------- ---------- ------ -- ----- -- ----- -- ---- ------<br>--- ----- --- --- ------ -------- ----- --- ------ ----- --<br>----- ----- ---------- --- --- ------ ------ ---- -- ------<br>------- --- ------ ----- --- ---- ------- -- ---- --- --<br>------- ------,104169.79999999702,104169.09999999404,103876.054,103890,103892.725,104176.144,,7,much
screen,html.Screen,0_2_1_1_8,2021-11-05T13:01:09.120Z,,,,,,,,,,,,,,,,54,,,,,,,,,,,,,,280.85599999999977,,response,,,100,,,,,,Space,keypress(Space),,,,,-- --- ---- --- ------ ----- ------- ---- of --- ------- --<br>------- ---------- ------ -- ----- -- ----- -- ---- ------<br>--- ----- --- --- ------ -------- ----- --- ------ ----- --<br>----- ----- ---------- --- --- ------ ------ ---- -- ------<br>------- --- ------ ----- --- ---- ------- -- ---- --- --<br>------- ------,104457.79999999702,104457,104159.473,104170,104176.144,104459.52,,8,of
screen,html.Screen,0_2_1_1_9,2021-11-05T13:01:09.376Z,,,,,,,,,,,,,,,,54,,,,,,,,,,,,,,253.47999999999593,,response,,,100,,,,,,Space,keypress(Space),,,,,-- --- ---- --- ------ ----- ------- ---- -- its ------- --<br>------- ---------- ------ -- ----- -- ----- -- ---- ------<br>--- ----- --- --- ------ -------- ----- --- ------ ----- --<br>----- ----- ---------- --- --- ------ ------ ---- -- ------<br>------- --- ------ ----- --- ---- ------- -- ---- --- --<br>------- ------,104713.79999999702,104713,104442.85,104458,104459.52,104726.193,,9,its
screen,html.Screen,0_2_1_1_10,2021-11-05T13:01:09.624Z,,,,,,,,,,,,,,,,54,,,,,,,,,,,,,,234.8070000000007,,response,,,100,,,,,,Space,keypress(Space),,,,,-- --- ---- --- ------ ----- ------- ---- -- --- revenue --<br>------- ---------- ------ -- ----- -- ----- -- ---- ------<br>--- ----- --- --- ------ -------- ----- --- ------ ----- --<br>----- ----- ---------- --- --- ------ ------ ---- -- ------<br>------- --- ------ ----- --- ---- ------- -- ---- --- --<br>------- ------,104961.79999999702,104961,104709.524,104714,104726.193,104976.387,,10,revenue
screen,html.Screen,0_2_1_1_11,2021-11-05T13:01:09.920Z,,,,,,,,,,,,,,,,54,,,,,,,,,,,,,,280.513000005958,,response,,,100,,,,,,Space,keypress(Space),,,,,-- --- ---- --- ------ ----- ------- ---- -- --- ------- by<br>------- ---------- ------ -- ----- -- ----- -- ---- ------<br>--- ----- --- --- ------ -------- ----- --- ------ ----- --<br>----- ----- ---------- --- --- ------ ------ ---- -- ------<br>------- --- ------ ----- --- ---- ------- -- ---- --- --<br>------- ------,105257.79999999702,105256.90000000596,104959.715,104962,104976.387,105259.768,,11,by
screen,html.Screen,0_2_1_1_12,2021-11-05T13:01:10.216Z,,,,,,,,,,,,,,,,54,,,,,,,,,,,,,,293.1320000059641,,response,,,100,,,,,,Space,keypress(Space),,,,,-- --- ---- --- ------ ----- ------- ---- -- --- ------- --<br>issuing ---------- ------ -- ----- -- ----- -- ---- ------<br>--- ----- --- --- ------ -------- ----- --- ------ ----- --<br>----- ----- ---------- --- --- ------ ------ ---- -- ------<br>------- --- ------ ----- --- ---- ------- -- ---- --- --<br>------- ------,105553.79999999702,105552.90000000596,105243.097,105258,105259.768,105559.81,,12,issuing
screen,html.Screen,0_2_1_1_13,2021-11-05T13:01:10.488Z,,,,,,,,,,,,,,,,54,,,,,,,,,,,,,,265.1900000000023,,response,,,100,,,,,,Space,keypress(Space),,,,,-- --- ---- --- ------ ----- ------- ---- -- --- ------- --<br>------- government ------ -- ----- -- ----- -- ---- ------<br>--- ----- --- --- ------ -------- ----- --- ------ ----- --<br>----- ----- ---------- --- --- ------ ------ ---- -- ------<br>------- --- ------ ----- --- ---- ------- -- ---- --- --<br>------- ------,105825.79999999702,105825,105543.14,105554.09999999404,105559.81,105843.247,,13,government
screen,html.Screen,0_2_1_1_14,2021-11-05T13:01:10.792Z,,,,,,,,,,,,,,,,54,,,,,,,,,,,,,,285.65300000595744,,response,,,100,,,,,,Space,keypress(Space),,,,,-- --- ---- --- ------ ----- ------- ---- -- --- ------- --<br>------- ---------- bonds. -- ----- -- ----- -- ---- ------<br>--- ----- --- --- ------ -------- ----- --- ------ ----- --<br>----- ----- ---------- --- --- ------ ------ ---- -- ------<br>------- --- ------ ----- --- ---- ------- -- ---- --- --<br>------- ------,106129.70000000298,106128.90000000596,105826.576,105826,105843.247,106143.329,,14,bonds.
screen,html.Screen,0_2_1_1_15,2021-11-05T13:01:11.735Z,,,,,,,,,,,,,,,,54,,,,,,,,,,,,,,929.4709999970219,,response,,,100,,,,,,Space,keypress(Space),,,,,-- --- ---- --- ------ ----- ------- ---- -- --- ------- --<br>------- ---------- ------ In ----- -- ----- -- ---- ------<br>--- ----- --- --- ------ -------- ----- --- ------ ----- --<br>----- ----- ---------- --- --- ------ ------ ---- -- ------<br>------- --- ------ ----- --- ---- ------- -- ---- --- --<br>------- ------,107073.70000000298,107072.79999999702,106126.658,106130,106143.329,107076.91,,15,In
screen,html.Screen,0_2_1_1_16,2021-11-05T13:01:12.055Z,,,,,,,,,,,,,,,,54,,,,,,,,,,,,,,315.8899999970163,,response,,,100,,,,,,Space,keypress(Space),,,,,"-- --- ---- --- ------ ----- ------- ---- -- --- ------- --<br>------- ---------- ------ -- 1727, -- ----- -- ---- ------<br>--- ----- --- --- ------ -------- ----- --- ------ ----- --<br>----- ----- ---------- --- --- ------ ------ ---- -- ------<br>------- --- ------ ----- --- ---- ------- -- ---- --- --<br>------- ------",107393.59999999404,107392.79999999702,107060.239,107073.79999999702,107076.91,107410.295,,16,"1727,"
screen,html.Screen,0_2_1_1_17,2021-11-05T13:01:14.343Z,,,,,,,,,,,,,,,,54,,,,,,,,,,,,,,2270.5049999970215,,response,,,100,,,,,,Space,keypress(Space),,,,,-- --- ---- --- ------ ----- ------- ---- -- --- ------- --<br>------- ---------- ------ -- ----- in ----- -- ---- ------<br>--- ----- --- --- ------ -------- ----- --- ------ ----- --<br>----- ----- ---------- --- --- ------ ------ ---- -- ------<br>------- --- ------ ----- --- ---- ------- -- ---- --- --<br>------- ------,109681.59999999404,109680.79999999702,107393.625,107393.90000000596,107410.295,109694.274,,17,in
screen,html.Screen,0_2_1_1_18,2021-11-05T13:01:14.736Z,,,,,,,,,,,,,,,,54,,,,,,,,,,,,,,378.5259999970149,,response,,,100,,,,,,Space,keypress(Space),,,,,-- --- ---- --- ------ ----- ------- ---- -- --- ------- --<br>------- ---------- ------ -- ----- -- order -- ---- ------<br>--- ----- --- --- ------ -------- ----- --- ------ ----- --<br>----- ----- ---------- --- --- ------ ------ ---- -- ------<br>------- --- ------ ----- --- ---- ------- -- ---- --- --<br>------- ------,110073.70000000298,110072.79999999702,109677.603,109681.79999999702,109694.274,110077.646,,18,order
screen,html.Screen,0_2_1_1_19,2021-11-05T13:01:15.095Z,,,,,,,,,,,,,,,,54,,,,,,,,,,,,,,355.05400000298687,,response,,,100,,,,,,Space,keypress(Space),,,,,-- --- ---- --- ------ ----- ------- ---- -- --- ------- --<br>------- ---------- ------ -- ----- -- ----- to ---- ------<br>--- ----- --- --- ------ -------- ----- --- ------ ----- --<br>----- ----- ---------- --- --- ------ ------ ---- -- ------<br>------- --- ------ ----- --- ---- ------- -- ---- --- --<br>------- ------,110433.5,110432.70000000298,110060.976,110074,110077.646,110444.479,,19,to
screen,html.Screen,0_2_1_1_20,2021-11-05T13:01:15.423Z,,,,,,,,,,,,,,,,54,,,,,,,,,,,,,,316.32099999701313,,response,,,100,,,,,,Space,keypress(Space),,,,,-- --- ---- --- ------ ----- ------- ---- -- --- ------- --<br>------- ---------- ------ -- ----- -- ----- -- save ------<br>--- ----- --- --- ------ -------- ----- --- ------ ----- --<br>----- ----- ---------- --- --- ------ ------ ---- -- ------<br>------- --- ------ ----- --- ---- ------- -- ---- --- --<br>------- ------,110761.59999999404,110760.79999999702,110427.808,110433.79999999702,110444.479,110777.912,,20,save
screen,html.Screen,0_2_1_1_21,2021-11-05T13:01:15.759Z,,,,,,,,,,,,,,,,54,,,,,,,,,,,,,,318.7880000029836,,response,,,100,,,,,,Space,keypress(Space),,,,,"-- --- ---- --- ------ ----- ------- ---- -- --- ------- --<br>------- ---------- ------ -- ----- -- ----- -- ---- money,<br>--- ----- --- --- ------ -------- ----- --- ------ ----- --<br>----- ----- ---------- --- --- ------ ------ ---- -- ------<br>------- --- ------ ----- --- ---- ------- -- ---- --- --<br>------- ------",111097.5,111096.70000000298,110761.241,110761.79999999702,110777.912,111111.294,,21,"money,"
screen,html.Screen,0_2_1_1_22,2021-11-05T13:01:16.159Z,,,,,,,,,,,,,,,,54,,,,,,,,,,,,,,385.4060000029858,,response,,,100,,,,,,Space,keypress(Space),,,,,-- --- ---- --- ------ ----- ------- ---- -- --- ------- --<br>------- ---------- ------ -- ----- -- ----- -- ---- ------<br>the ----- --- --- ------ -------- ----- --- ------ ----- --<br>----- ----- ---------- --- --- ------ ------ ---- -- ------<br>------- --- ------ ----- --- ---- ------- -- ---- --- --<br>------- ------,111497.5,111496.70000000298,111094.624,111097.79999999702,111111.294,111511.326,,22,the
screen,html.Screen,0_2_1_1_23,2021-11-05T13:01:16.599Z,,,,,,,,,,,,,,,,54,,,,,,,,,,,,,,425.3740000029793,,response,,,100,,,,,,Space,keypress(Space),,,,,-- --- ---- --- ------ ----- ------- ---- -- --- ------- --<br>------- ---------- ------ -- ----- -- ----- -- ---- ------<br>--- state --- --- ------ -------- ----- --- ------ ----- --<br>----- ----- ---------- --- --- ------ ------ ---- -- ------<br>------- --- ------ ----- --- ---- ------- -- ---- --- --<br>------- ------,111937.40000000596,111936.70000000298,111494.657,111497.70000000298,111511.326,111944.941,,23,state
screen,html.Screen,0_2_1_1_24,2021-11-05T13:01:17.024Z,,,,,,,,,,,,,,,,54,,,,,,,,,,,,,,416.15899999403337,,response,,,100,,,,,,Space,keypress(Space),,,,,-- --- ---- --- ------ ----- ------- ---- -- --- ------- --<br>------- ---------- ------ -- ----- -- ----- -- ---- ------<br>--- ----- cut --- ------ -------- ----- --- ------ ----- --<br>----- ----- ---------- --- --- ------ ------ ---- -- ------<br>------- --- ------ ----- --- ---- ------- -- ---- --- --<br>------- ------,112361.90000000596,112361.09999999404,111928.269,111937.70000000298,111944.941,112378.338,,24,cut
screen,html.Screen,0_2_1_1_25,2021-11-05T13:01:17.423Z,,,,,,,,,,,,,,,,54,,,,,,,,,,,,,,382.26199999403616,,response,,,100,,,,,,Space,keypress(Space),,,,,-- --- ---- --- ------ ----- ------- ---- -- --- ------- --<br>------- ---------- ------ -- ----- -- ----- -- ---- ------<br>--- ----- --- the ------ -------- ----- --- ------ ----- --<br>----- ----- ---------- --- --- ------ ------ ---- -- ------<br>------- --- ------ ----- --- ---- ------- -- ---- --- --<br>------- ------,112761.5,112760.59999999404,112361.667,112362.09999999404,112378.338,112778.45,,25,the
screen,html.Screen,0_2_1_1_26,2021-11-05T13:01:17.863Z,,,,,,,,,,,,,,,,54,,,,,,,,,,,,,,422.14999999404245,,response,,,100,,,,,,Space,keypress(Space),,,,,-- --- ---- --- ------ ----- ------- ---- -- --- ------- --<br>------- ---------- ------ -- ----- -- ----- -- ---- ------<br>--- ----- --- --- bonds' -------- ----- --- ------ ----- --<br>----- ----- ---------- --- --- ------ ------ ---- -- ------<br>------- --- ------ ----- --- ---- ------- -- ---- --- --<br>------- ------,113201.40000000596,113200.59999999404,112761.779,112761.70000000298,112778.45,113211.849,,26,bonds'
screen,html.Screen,0_2_1_1_27,2021-11-05T13:01:18.287Z,,,,,,,,,,,,,,,,54,,,,,,,,,,,,,,412.75099999403756,,response,,,100,,,,,,Space,keypress(Space),,,,,-- --- ---- --- ------ ----- ------- ---- -- --- ------- --<br>------- ---------- ------ -- ----- -- ----- -- ---- ------<br>--- ----- --- --- ------ interest ----- --- ------ ----- --<br>----- ----- ---------- --- --- ------ ------ ---- -- ------<br>------- --- ------ ----- --- ---- ------- -- ---- --- --<br>------- ------,113625.40000000596,113624.59999999404,113195.179,113201.59999999404,113211.849,113628.685,,27,interest
screen,html.Screen,0_2_1_1_28,2021-11-05T13:01:18.727Z,,,,,,,,,,,,,,,,54,,,,,,,,,,,,,,435.91499999404186,,response,,,100,,,,,,Space,keypress(Space),,,,,-- --- ---- --- ------ ----- ------- ---- -- --- ------- --<br>------- ---------- ------ -- ----- -- ----- -- ---- ------<br>--- ----- --- --- ------ -------- rate. --- ------ ----- --<br>----- ----- ---------- --- --- ------ ------ ---- -- ------<br>------- --- ------ ----- --- ---- ------- -- ---- --- --<br>------- ------,114065.40000000596,114064.59999999404,113612.014,113625.70000000298,113628.685,114078.687,,28,rate.
screen,html.Screen,0_2_1_1_29,2021-11-05T13:01:19.471Z,,,,,,,,,,,,,,,,54,,,,,,,,,,,,,,729.8129999999946,,response,,,100,,,,,,Space,keypress(Space),,,,,-- --- ---- --- ------ ----- ------- ---- -- --- ------- --<br>------- ---------- ------ -- ----- -- ----- -- ---- ------<br>--- ----- --- --- ------ -------- ----- The ------ ----- --<br>----- ----- ---------- --- --- ------ ------ ---- -- ------<br>------- --- ------ ----- --- ---- ------- -- ---- --- --<br>------- ------,114809.29999999702,114808.5,114062.018,114065.59999999404,114078.687,114812.401,,29,The
screen,html.Screen,0_2_1_1_30,2021-11-05T13:01:19.879Z,,,,,,,,,,,,,,,,54,,,,,,,,,,,,,,404.1989999940415,,response,,,100,,,,,,Space,keypress(Space),,,,,-- --- ---- --- ------ ----- ------- ---- -- --- ------- --<br>------- ---------- ------ -- ----- -- ----- -- ---- ------<br>--- ----- --- --- ------ -------- ----- --- market ----- --<br>----- ----- ---------- --- --- ------ ------ ---- -- ------<br>------- --- ------ ----- --- ---- ------- -- ---- --- --<br>------- ------,115217.29999999702,115216.59999999404,114795.729,114809.59999999404,114812.401,115229.109,,30,market
screen,html.Screen,0_2_1_1_31,2021-11-05T13:01:20.239Z,,,,,,,,,,,,,,,,54,,,,,,,,,,,,,,347.39100000000326,,response,,,100,,,,,,Space,keypress(Space),,,,,-- --- ---- --- ------ ----- ------- ---- -- --- ------- --<br>------- ---------- ------ -- ----- -- ----- -- ---- ------<br>--- ----- --- --- ------ -------- ----- --- ------ value --<br>----- ----- ---------- --- --- ------ ------ ---- -- ------<br>------- --- ------ ----- --- ---- ------- -- ---- --- --<br>------- ------,115577.29999999702,115576.5,115212.438,115217.59999999404,115229.109,115579.089,,31,value
screen,html.Screen,0_2_1_1_32,2021-11-05T13:01:20.607Z,,,,,,,,,,,,,,,,54,,,,,,,,,,,,,,365.4109999999928,,response,,,100,,,,,,Space,keypress(Space),,,,,-- --- ---- --- ------ ----- ------- ---- -- --- ------- --<br>------- ---------- ------ -- ----- -- ----- -- ---- ------<br>--- ----- --- --- ------ -------- ----- --- ------ ----- of<br>----- ----- ---------- --- --- ------ ------ ---- -- ------<br>------- --- ------ ----- --- ---- ------- -- ---- --- --<br>------- ------,115945.29999999702,115944.5,115562.42,115577.59999999404,115579.089,115962.667,,32,of
screen,html.Screen,0_2_1_1_33,2021-11-05T13:01:21.015Z,,,,,,,,,,,,,,,,54,,,,,,,,,,,,,,389.8329999999987,,response,,,100,,,,,,Space,keypress(Space),,,,,-- --- ---- --- ------ ----- ------- ---- -- --- ------- --<br>------- ---------- ------ -- ----- -- ----- -- ---- ------<br>--- ----- --- --- ------ -------- ----- --- ------ ----- --<br>these ----- ---------- --- --- ------ ------ ---- -- ------<br>------- --- ------ ----- --- ---- ------- -- ---- --- --<br>------- ------,116353.29999999702,116352.5,115945.995,115945.59999999404,115962.667,116362.801,,33,these
screen,html.Screen,0_2_1_1_34,2021-11-05T13:01:21.407Z,,,,,,,,,,,,,,,,54,,,,,,,,,,,,,,381.69899999999325,,response,,,100,,,,,,Space,keypress(Space),,,,,-- --- ---- --- ------ ----- ------- ---- -- --- ------- --<br>------- ---------- ------ -- ----- -- ----- -- ---- ------<br>--- ----- --- --- ------ -------- ----- --- ------ ----- --<br>----- bonds ---------- --- --- ------ ------ ---- -- ------<br>------- --- ------ ----- --- ---- ------- -- ---- --- --<br>------- ------,116745.29999999702,116744.5,116346.129,116353.5,116362.801,116762.811,,34,bonds
screen,html.Screen,0_2_1_1_35,2021-11-05T13:01:21.799Z,,,,,,,,,,,,,,,,54,,,,,,,,,,,,,,373.6889999999985,,response,,,100,,,,,,Space,keypress(Space),,,,,"-- --- ---- --- ------ ----- ------- ---- -- --- ------- --<br>------- ---------- ------ -- ----- -- ----- -- ---- ------<br>--- ----- --- --- ------ -------- ----- --- ------ ----- --<br>----- ----- plummeted, --- --- ------ ------ ---- -- ------<br>------- --- ------ ----- --- ---- ------- -- ---- --- --<br>------- ------",117137.29999999702,117136.5,116746.141,116745.5,116762.811,117146.25,,35,"plummeted,"
screen,html.Screen,0_2_1_1_36,2021-11-05T13:01:22.327Z,,,,,,,,,,,,,,,,54,,,,,,,,,,,,,,518.1500000059605,,response,,,100,,,,,,Space,keypress(Space),,,,,-- --- ---- --- ------ ----- ------- ---- -- --- ------- --<br>------- ---------- ------ -- ----- -- ----- -- ---- ------<br>--- ----- --- --- ------ -------- ----- --- ------ ----- --<br>----- ----- ---------- and --- ------ ------ ---- -- ------<br>------- --- ------ ----- --- ---- ------- -- ---- --- --<br>------- ------,117665.20000000298,117664.40000000596,117129.58,117137.5,117146.25,117679.764,,36,and
screen,html.Screen,0_2_1_1_37,2021-11-05T13:01:22.679Z,,,,,,,,,,,,,,,,54,,,,,,,,,,,,,,336.6360000059649,,response,,,100,,,,,,Space,keypress(Space),,,,,-- --- ---- --- ------ ----- ------- ---- -- --- ------- --<br>------- ---------- ------ -- ----- -- ----- -- ---- ------<br>--- ----- --- --- ------ -------- ----- --- ------ ----- --<br>----- ----- ---------- --- the ------ ------ ---- -- ------<br>------- --- ------ ----- --- ---- ------- -- ---- --- --<br>------- ------,118017.20000000298,118016.40000000596,117663.093,117665.5,117679.764,118029.755,,37,the
screen,html.Screen,0_2_1_1_38,2021-11-05T13:01:22.999Z,,,,,,,,,,,,,,,,54,,,,,,,,,,,,,,306.5449999970151,,response,,,100,,,,,,Space,keypress(Space),,,,,-- --- ---- --- ------ ----- ------- ---- -- --- ------- --<br>------- ---------- ------ -- ----- -- ----- -- ---- ------<br>--- ----- --- --- ------ -------- ----- --- ------ ----- --<br>----- ----- ---------- --- --- market ------ ---- -- ------<br>------- --- ------ ----- --- ---- ------- -- ---- --- --<br>------- ------,118337.09999999404,118336.29999999702,118013.086,118017.40000000596,118029.755,118346.632,,38,market
screen,html.Screen,0_2_1_1_39,2021-11-05T13:01:23.335Z,,,,,,,,,,,,,,,,54,,,,,,,,,,,,,,325.56800000298244,,response,,,100,,,,,,Space,keypress(Space),,,,,-- --- ---- --- ------ ----- ------- ---- -- --- ------- --<br>------- ---------- ------ -- ----- -- ----- -- ---- ------<br>--- ----- --- --- ------ -------- ----- --- ------ ----- --<br>----- ----- ---------- --- --- ------ became ---- -- ------<br>------- --- ------ ----- --- ---- ------- -- ---- --- --<br>------- ------,118673.09999999404,118672.20000000298,118329.961,118337.29999999702,118346.632,118680.049,,39,became
screen,html.Screen,0_2_1_1_40,2021-11-05T13:01:23.623Z,,,,,,,,,,,,,,,,54,,,,,,,,,,,,,,280.2509999970207,,response,,,100,,,,,,Space,keypress(Space),,,,,-- --- ---- --- ------ ----- ------- ---- -- --- ------- --<br>------- ---------- ------ -- ----- -- ----- -- ---- ------<br>--- ----- --- --- ------ -------- ----- --- ------ ----- --<br>----- ----- ---------- --- --- ------ ------ wary -- ------<br>------- --- ------ ----- --- ---- ------- -- ---- --- --<br>------- ------,118961.09999999404,118960.29999999702,118663.378,118673.29999999702,118680.049,118963.405,,40,wary
screen,html.Screen,0_2_1_1_41,2021-11-05T13:01:23.911Z,,,,,,,,,,,,,,,,54,,,,,,,,,,,,,,284.89499999702093,,response,,,100,,,,,,Space,keypress(Space),,,,,-- --- ---- --- ------ ----- ------- ---- -- --- ------- --<br>------- ---------- ------ -- ----- -- ----- -- ---- ------<br>--- ----- --- --- ------ -------- ----- --- ------ ----- --<br>----- ----- ---------- --- --- ------ ------ ---- of ------<br>------- --- ------ ----- --- ---- ------- -- ---- --- --<br>------- ------,119249.09999999404,119248.29999999702,118946.735,118961.40000000596,118963.405,119263.496,,41,of
screen,html.Screen,0_2_1_1_42,2021-11-05T13:01:24.263Z,,,,,,,,,,,,,,,,54,,,,,,,,,,,,,,336.8039999970206,,response,,,100,,,,,,Space,keypress(Space),,,,,-- --- ---- --- ------ ----- ------- ---- -- --- ------- --<br>------- ---------- ------ -- ----- -- ----- -- ---- ------<br>--- ----- --- --- ------ -------- ----- --- ------ ----- --<br>----- ----- ---------- --- --- ------ ------ ---- -- French<br>------- --- ------ ----- --- ---- ------- -- ---- --- --<br>------- ------,119601.09999999404,119600.29999999702,119246.826,119249.29999999702,119263.496,119613.47,,42,French
screen,html.Screen,0_2_1_1_43,2021-11-05T13:01:24.615Z,,,,,,,,,,,,,,,,54,,,,,,,,,,,,,,338.8299999970186,,response,,,100,,,,,,Space,keypress(Space),,,,,-- --- ---- --- ------ ----- ------- ---- -- --- ------- --<br>------- ---------- ------ -- ----- -- ----- -- ---- ------<br>--- ----- --- --- ------ -------- ----- --- ------ ----- --<br>----- ----- ---------- --- --- ------ ------ ---- -- ------<br>credit. --- ------ ----- --- ---- ------- -- ---- --- --<br>------- ------,119953.09999999404,119952.29999999702,119596.802,119601.40000000596,119613.47,119963.804,,43,credit.
screen,html.Screen,0_2_1_1_44,2021-11-05T13:01:25.138Z,,,,,,,,,,,,,,,,54,,,,,,,,,,,,,,508.49599999701604,,response,,,100,,,,,,Space,keypress(Space),,,,,-- --- ---- --- ------ ----- ------- ---- -- --- ------- --<br>------- ---------- ------ -- ----- -- ----- -- ---- ------<br>--- ----- --- --- ------ -------- ----- --- ------ ----- --<br>----- ----- ---------- --- --- ------ ------ ---- -- ------<br>------- The ------ ----- --- ---- ------- -- ---- --- --<br>------- ------,120473.09999999404,120472.29999999702,119947.131,119953.29999999702,119963.804,120480.513,,44,The
screen,html.Screen,0_2_1_1_45,2021-11-05T13:01:25.514Z,,,,,,,,,,,,,,,,54,,,,,,,,,,,,,,367.7869999970135,,response,,,100,,,,,,Space,keypress(Space),,,,,-- --- ---- --- ------ ----- ------- ---- -- --- ------- --<br>------- ---------- ------ -- ----- -- ----- -- ---- ------<br>--- ----- --- --- ------ -------- ----- --- ------ ----- --<br>----- ----- ---------- --- --- ------ ------ ---- -- ------<br>------- --- French ----- --- ---- ------- -- ---- --- --<br>------- ------,120849.09999999404,120848.29999999702,120463.842,120473.29999999702,120480.513,120863.964,,45,French
screen,html.Screen,0_2_1_1_46,2021-11-05T13:01:25.914Z,,,,,,,,,,,,,,,,54,,,,,,,,,,,,,,384.33599999701255,,response,,,100,,,,,,Space,keypress(Space),,,,,-- --- ---- --- ------ ----- ------- ---- -- --- ------- --<br>------- ---------- ------ -- ----- -- ----- -- ---- ------<br>--- ----- --- --- ------ -------- ----- --- ------ ----- --<br>----- ----- ---------- --- --- ------ ------ ---- -- ------<br>------- --- ------ state --- ---- ------- -- ---- --- --<br>------- ------,121249.09999999404,121248.29999999702,120847.293,120849.29999999702,120863.964,121264.028,,46,state
screen,html.Screen,0_2_1_1_47,2021-11-05T13:01:26.306Z,,,,,,,,,,,,,,,,54,,,,,,,,,,,,,,376.1720000029745,,response,,,100,,,,,,Space,keypress(Space),,,,,-- --- ---- --- ------ ----- ------- ---- -- --- ------- --<br>------- ---------- ------ -- ----- -- ----- -- ---- ------<br>--- ----- --- --- ------ -------- ----- --- ------ ----- --<br>----- ----- ---------- --- --- ------ ------ ---- -- ------<br>------- --- ------ ----- was ---- ------- -- ---- --- --<br>------- ------,121641.09999999404,121640.20000000298,121247.358,121249.29999999702,121264.028,121647.532,,47,was
screen,html.Screen,0_2_1_1_48,2021-11-05T13:01:26.666Z,,,,,,,,,,,,,,,,54,,,,,,,,,,,,,,352.76799999701325,,response,,,100,,,,,,Space,keypress(Space),,,,,-- --- ---- --- ------ ----- ------- ---- -- --- ------- --<br>------- ---------- ------ -- ----- -- ----- -- ---- ------<br>--- ----- --- --- ------ -------- ----- --- ------ ----- --<br>----- ----- ---------- --- --- ------ ------ ---- -- ------<br>------- --- ------ ----- --- left ------- -- ---- --- --<br>------- ------,122001,122000.29999999702,121630.861,121641.29999999702,121647.532,122014.103,,48,left
screen,html.Screen,0_2_1_1_49,2021-11-05T13:01:27.010Z,,,,,,,,,,,,,,,,54,,,,,,,,,,,,,,330.09700000297744,,response,,,100,,,,,,Space,keypress(Space),,,,,-- --- ---- --- ------ ----- ------- ---- -- --- ------- --<br>------- ---------- ------ -- ----- -- ----- -- ---- ------<br>--- ----- --- --- ------ -------- ----- --- ------ ----- --<br>----- ----- ---------- --- --- ------ ------ ---- -- ------<br>------- --- ------ ----- --- ---- without -- ---- --- --<br>------- ------,122345,122344.20000000298,121997.435,122001.29999999702,122014.103,122347.726,,49,without
screen,html.Screen,0_2_1_1_50,2021-11-05T13:01:27.346Z,,,,,,,,,,,,,,,,54,,,,,,,,,,,,,,332.8739999940444,,response,,,100,,,,,,Space,keypress(Space),,,,,-- --- ---- --- ------ ----- ------- ---- -- --- ------- --<br>------- ---------- ------ -- ----- -- ----- -- ---- ------<br>--- ----- --- --- ------ -------- ----- --- ------ ----- --<br>----- ----- ---------- --- --- ------ ------ ---- -- ------<br>------- --- ------ ----- --- ---- ------- an ---- --- --<br>------- ------,122681.40000000596,122680.59999999404,122331.054,122345.29999999702,122347.726,122697.775,,50,an
screen,html.Screen,0_2_1_1_51,2021-11-05T13:01:27.738Z,,,,,,,,,,,,,,,,54,,,,,,,,,,,,,,374.42500000298605,,response,,,100,,,,,,Space,keypress(Space),,,,,-- --- ---- --- ------ ----- ------- ---- -- --- ------- --<br>------- ---------- ------ -- ----- -- ----- -- ---- ------<br>--- ----- --- --- ------ -------- ----- --- ------ ----- --<br>----- ----- ---------- --- --- ------ ------ ---- -- ------<br>------- --- ------ ----- --- ---- ------- -- easy --- --<br>------- ------,123073,123072.20000000298,122681.104,122681.70000000298,122697.775,123081.221,,51,easy
screen,html.Screen,0_2_1_1_52,2021-11-05T13:01:28.097Z,,,,,,,,,,,,,,,,54,,,,,,,,,,,,,,350.9790000029752,,response,,,100,,,,,,Space,keypress(Space),,,,,-- --- ---- --- ------ ----- ------- ---- -- --- ------- --<br>------- ---------- ------ -- ----- -- ----- -- ---- ------<br>--- ----- --- --- ------ -------- ----- --- ------ ----- --<br>----- ----- ---------- --- --- ------ ------ ---- -- ------<br>------- --- ------ ----- --- ---- ------- -- ---- way --<br>------- ------,123432.90000000596,123432.20000000298,123064.55,123073.20000000298,123081.221,123447.979,,52,way
screen,html.Screen,0_2_1_1_53,2021-11-05T13:01:28.385Z,,,,,,,,,,,,,,,,54,,,,,,,,,,,,,,272.2210000029736,,response,,,100,,,,,,Space,keypress(Space),,,,,-- --- ---- --- ------ ----- ------- ---- -- --- ------- --<br>------- ---------- ------ -- ----- -- ----- -- ---- ------<br>--- ----- --- --- ------ -------- ----- --- ------ ----- --<br>----- ----- ---------- --- --- ------ ------ ---- -- ------<br>------- --- ------ ----- --- ---- ------- -- ---- --- of<br>------- ------,123721,123720.20000000298,123431.308,123433.20000000298,123447.979,123731.389,,53,of
screen,html.Screen,0_2_1_1_54,2021-11-05T13:01:28.753Z,,,,,,,,,,,,,,,,54,,,,,,,,,,,,,,356.81100000298466,,response,,,100,,,,,,Space,keypress(Space),,,,,-- --- ---- --- ------ ----- ------- ---- -- --- ------- --<br>------- ---------- ------ -- ----- -- ----- -- ---- ------<br>--- ----- --- --- ------ -------- ----- --- ------ ----- --<br>----- ----- ---------- --- --- ------ ------ ---- -- ------<br>------- --- ------ ----- --- ---- ------- -- ---- --- --<br>raising ------,124088.90000000596,124088.20000000298,123714.718,123721.20000000298,123731.389,124098.158,,54,raising
screen,html.Screen,0_2_1_1_55,2021-11-05T13:01:29.225Z,,,,,,,,,,,,,,,,54,,,,,,,,,,,,,,461.9419999940437,,response,,,100,,,,,,Space,keypress(Space),,,,,-- --- ---- --- ------ ----- ------- ---- -- --- ------- --<br>------- ---------- ------ -- ----- -- ----- -- ---- ------<br>--- ----- --- --- ------ -------- ----- --- ------ ----- --<br>----- ----- ---------- --- --- ------ ------ ---- -- ------<br>------- --- ------ ----- --- ---- ------- -- ---- --- --<br>------- money.,124561,124560.09999999404,124081.487,124089.20000000298,124098.158,124564.949,,55,money.
Item 100,flow.Loop,0_2_1_1,2021-11-05T13:01:29.226Z,,,,,,,,,,,,,,,,,,,,,,,,,,,,,,23368.173999994033,,completion,,,,C,,,,,,,,,,silence,,124561.40000000596,124560.09999999404,101175.255,101176.59999999404,101191.926,124564.949,,,
Question 1,html.Screen,0_2_1_2,2021-11-05T13:01:32.265Z,,,,,,,,,,,,,,,,,,,,,,,,,,,true,TRUE,,3034.751000002987,,response,,,100,C,,,,,TRUE,click #choice-1,,,,silence,,127600.90000000596,127599.70000000298,124548.278,124561.59999999404,124564.949,127615.683,,,
Question 2,html.Screen,0_2_1_3,2021-11-05T13:01:34.905Z,,,,,,,,,,,,,,,,,,,,,,,,,,,true,FALSE,,2624.0170000029757,,response,,,100,C,,,,,FALSE,click #choice-2,,,,silence,,130240.79999999702,130239.70000000298,127599.013,127601.20000000298,127615.683,130250.018,,,
Item 100,flow.Sequence,0_2_1,2021-11-05T13:01:34.906Z,,,,,,,,,,,,,,,,,,,,,,,,,,,,,,39050.43900000298,,completion,,,,,,,,,,,,,,,,130241.20000000298,130239.70000000298,91172.59,91187.40000000596,91189.261,130250.018,,,
End of Practice,html.Page,0_2_2,2021-11-05T13:01:38.906Z,,,,,,,,,,,,,,,,,,,,,,,,,,,,,,3991.081999994043,,form submission,,,,,,,,,,,,,,,,134241.70000000298,134241.09999999404,130233.342,130241.40000000596,130250.018,134250.855,,,
Practice,flow.Sequence,0_2,2021-11-05T13:01:38.907Z,,,,,,,,,,,,,,,,,,,,,,,,,,,,,,87530.66699999405,,completion,,,,,,,,,,,,,,,,134242.29999999702,134241.09999999404,46693.766,46701.5,46710.433,134250.855,,,
Trap_instruction,html.Page,0_3_0,2021-11-05T13:01:42.650Z,,,,,,,,,,,,,,,,,,,,,,,,,,,,,,3734.04500000595,,form submission,,,,,,,,,,,,,,,,137985.40000000596,137984.90000000596,134234.184,134242.59999999404,134250.855,138001.575,,,
trap_trial,html.Screen,0_3_1,2021-11-05T13:01:45.697Z,,,,,,,,,,,,,,,,,,,,,,,,,,,true,1,,3029.6250000029686,,response,,,,,,,,,1,click #choice-1,,,,,,141032.5,141031.20000000298,137968.235,137985.59999999404,138001.575,141035.782,,,
end of trap trial,html.Page,0_3_2,2021-11-05T13:01:48.578Z,,,,,,,,,,,,,,,,,,,,,,,,,,,,,,2877.0179999970132,,form submission,,,,,,,,,,,,,,,,143913.29999999702,143912.79999999702,141019.112,141032.79999999702,141035.782,143920.106,,,
Trap 1,flow.Sequence,0_3,2021-11-05T13:01:48.578Z,,,,,,,,,,,,,,,,,,,,,,,,,,,,,,9661.94499999701,,completion,,,,,,,,,,,,,,,,143913.79999999702,143912.79999999702,134234.184,134242.5,134250.855,143920.106,,,
Standby,html.Page,0_4_0,2021-11-05T13:01:56.571Z,,,,,,,,,,,,,,,,,,,,,,,,,,,,,,8001.55799999999,,timeout,,,,,,,,,,,,,,,,151906.5,151904.994,143903.435,143914.20000000298,143920.106,151921.664,,,
Holding screen,html.Screen,0_4_1_0_0,2021-11-05T13:02:03.573Z,,,,,,,,,,,,,,,,,,,,,,,,,,,,,,7002.381000000023,,timeout,,,,,,,,,,,,,,,,158908.5,158907.375,151904.994,151906.79999999702,151921.664,158924.045,,,
screen,html.Screen,0_4_1_0_1_0,2021-11-05T13:02:04.449Z,,,,,,,,,,,,,,,,2,,,,,,,,,,,,,,859.0549999940267,,response,,,1,C,,,,,Space,keypress(Space),,,,instrumental,Two ---- ------ --- ------- ---------- ------- ----------<br>--- --------- --- ----------- ------- ----- ------- ---<br>--------- ---- -- --- ---- -- --------- -- ---- -------<br>-- --------- ------ --- ----- ------ ---- --- --------- --<br>------ - ---- -- --- ----------- ------- ---- ----- -----<br>--- -------- - ------ ---- -- ----- ---- --- --- -----------<br>-- -------,159784.29999999702,159783.09999999404,158907.375,158908.90000000596,158924.045,159791.063,,0,Two
screen,html.Screen,0_4_1_0_1_1,2021-11-05T13:02:04.872Z,,,,,,,,,,,,,,,,2,,,,,,,,,,,,,,415.43700000000536,,response,,,1,C,,,,,Space,keypress(Space),,,,instrumental,--- days ------ --- ------- ---------- ------- ----------<br>--- --------- --- ----------- ------- ----- ------- ---<br>--------- ---- -- --- ---- -- --------- -- ---- -------<br>-- --------- ------ --- ----- ------ ---- --- --------- --<br>------ - ---- -- --- ----------- ------- ---- ----- -----<br>--- -------- - ------ ---- -- ----- ---- --- --- -----------<br>-- -------,160207.29999999702,160206.5,159774.392,159784.59999999404,159791.063,160224.472,,1,days
screen,html.Screen,0_4_1_0_1_2,2021-11-05T13:02:05.248Z,,,,,,,,,,,,,,,,2,,,,,,,,,,,,,,358.1279999940307,,response,,,1,C,,,,,Space,keypress(Space),,,,instrumental,"--- ---- later, --- ------- ---------- ------- ----------<br>--- --------- --- ----------- ------- ----- ------- ---<br>--------- ---- -- --- ---- -- --------- -- ---- -------<br>-- --------- ------ --- ----- ------ ---- --- --------- --<br>------ - ---- -- --- ----------- ------- ---- ----- -----<br>--- -------- - ------ ---- -- ----- ---- --- --- -----------<br>-- -------",160583.40000000596,160582.59999999404,160207.802,160207.59999999404,160224.472,160591.211,,2,"later,"
screen,html.Screen,0_4_1_0_1_3,2021-11-05T13:02:05.576Z,,,,,,,,,,,,,,,,2,,,,,,,,,,,,,,319.28899999998976,,response,,,1,C,,,,,Space,keypress(Space),,,,instrumental,--- ---- ------ the ------- ---------- ------- ----------<br>--- --------- --- ----------- ------- ----- ------- ---<br>--------- ---- -- --- ---- -- --------- -- ---- -------<br>-- --------- ------ --- ----- ------ ---- --- --------- --<br>------ - ---- -- --- ----------- ------- ---- ----- -----<br>--- -------- - ------ ---- -- ----- ---- --- --- -----------<br>-- -------,160911.40000000596,160910.5,160574.541,160583.70000000298,160591.211,160924.803,,3,the
screen,html.Screen,0_4_1_0_1_4,2021-11-05T13:02:05.968Z,,,,,,,,,,,,,,,,2,,,,,,,,,,,,,,377.69699999998556,,response,,,1,C,,,,,Space,keypress(Space),,,,instrumental,--- ---- ------ --- British ---------- ------- ----------<br>--- --------- --- ----------- ------- ----- ------- ---<br>--------- ---- -- --- ---- -- --------- -- ---- -------<br>-- --------- ------ --- ----- ------ ---- --- --------- --<br>------ - ---- -- --- ----------- ------- ---- ----- -----<br>--- -------- - ------ ---- -- ----- ---- --- --- -----------<br>-- -------,161303.29999999702,161302.5,160908.13,160911.59999999404,160924.803,161307.996,,4,British
screen,html.Screen,0_4_1_0_1_5,2021-11-05T13:02:06.608Z,,,,,,,,,,,,,,,,2,,,,,,,,,,,,,,634.5039999999863,,response,,,1,C,,,,,Space,keypress(Space),,,,instrumental,--- ---- ------ --- ------- astronomer ------- ----------<br>--- --------- --- ----------- ------- ----- ------- ---<br>--------- ---- -- --- ---- -- --------- -- ---- -------<br>-- --------- ------ --- ----- ------ ---- --- --------- --<br>------ - ---- -- --- ----------- ------- ---- ----- -----<br>--- -------- - ------ ---- -- ----- ---- --- --- -----------<br>-- -------,161943.29999999702,161942.5,161291.328,161303.59999999404,161307.996,161958.304,,5,astronomer
screen,html.Screen,0_4_1_0_1_6,2021-11-05T13:02:07.032Z,,,,,,,,,,,,,,,,2,,,,,,,,,,,,,,407.99599999701604,,response,,,1,C,,,,,Space,keypress(Space),,,,instrumental,--- ---- ------ --- ------- ---------- Richard ----------<br>--- --------- --- ----------- ------- ----- ------- ---<br>--------- ---- -- --- ---- -- --------- -- ---- -------<br>-- --------- ------ --- ----- ------ ---- --- --------- --<br>------ - ---- -- --- ----------- ------- ---- ----- -----<br>--- -------- - ------ ---- -- ----- ---- --- --- -----------<br>-- -------,162367.20000000298,162366.29999999702,161941.633,161943.59999999404,161958.304,162375.012,,6,Richard
screen,html.Screen,0_4_1_0_1_7,2021-11-05T13:02:07.704Z,,,,,,,,,,,,,,,,2,,,,,,,,,,,,,,663.4880000000121,,response,,,1,C,,,,,Space,keypress(Space),,,,instrumental,--- ---- ------ --- ------- ---------- ------- Carrington<br>--- --------- --- ----------- ------- ----- ------- ---<br>--------- ---- -- --- ---- -- --------- -- ---- -------<br>-- --------- ------ --- ----- ------ ---- --- --------- --<br>------ - ---- -- --- ----------- ------- ---- ----- -----<br>--- -------- - ------ ---- -- ----- ---- --- --- -----------<br>-- -------,163039.29999999702,163038.5,162358.342,162367.5,162375.012,163041.902,,7,Carrington
screen,html.Screen,0_4_1_0_1_8,2021-11-05T13:02:08.152Z,,,,,,,,,,,,,,,,2,,,,,,,,,,,,,,444.3979999970179,,response,,,1,C,,,,,Space,keypress(Space),,,,instrumental,--- ---- ------ --- ------- ---------- ------- ----------<br>was --------- --- ----------- ------- ----- ------- ---<br>--------- ---- -- --- ---- -- --------- -- ---- -------<br>-- --------- ------ --- ----- ------ ---- --- --------- --<br>------ - ---- -- --- ----------- ------- ---- ----- -----<br>--- -------- - ------ ---- -- ----- ---- --- --- -----------<br>-- -------,163487.09999999404,163486.29999999702,163025.231,163039.70000000298,163041.902,163492.125,,8,was
screen,html.Screen,0_4_1_0_1_9,2021-11-05T13:02:08.600Z,,,,,,,,,,,,,,,,2,,,,,,,,,,,,,,442.27500000596046,,response,,,1,C,,,,,Space,keypress(Space),,,,instrumental,--- ---- ------ --- ------- ---------- ------- ----------<br>--- observing --- ----------- ------- ----- ------- ---<br>--------- ---- -- --- ---- -- --------- -- ---- -------<br>-- --------- ------ --- ----- ------ ---- --- --------- --<br>------ - ---- -- --- ----------- ------- ---- ----- -----<br>--- -------- - ------ ---- -- ----- ---- --- --- -----------<br>-- -------,163935.29999999702,163934.40000000596,163475.453,163487.5,163492.125,163942.115,,9,observing
screen,html.Screen,0_4_1_0_1_10,2021-11-05T13:02:08.984Z,,,,,,,,,,,,,,,,2,,,,,,,,,,,,,,376.2850000059698,,response,,,1,C,,,,,Space,keypress(Space),,,,instrumental,--- ---- ------ --- ------- ---------- ------- ----------<br>--- --------- the ----------- ------- ----- ------- ---<br>--------- ---- -- --- ---- -- --------- -- ---- -------<br>-- --------- ------ --- ----- ------ ---- --- --------- --<br>------ - ---- -- --- ----------- ------- ---- ----- -----<br>--- -------- - ------ ---- -- ----- ---- --- --- -----------<br>-- -------,164319.20000000298,164318.40000000596,163925.445,163935.5,163942.115,164325.534,,10,the
screen,html.Screen,0_4_1_0_1_11,2021-11-05T13:02:09.496Z,,,,,,,,,,,,,,,,2,,,,,,,,,,,,,,504.86600000594626,,response,,,1,C,,,,,Space,keypress(Space),,,,instrumental,--- ---- ------ --- ------- ---------- ------- ----------<br>--- --------- --- interesting ------- ----- ------- ---<br>--------- ---- -- --- ---- -- --------- -- ---- -------<br>-- --------- ------ --- ----- ------ ---- --- --------- --<br>------ - ---- -- --- ----------- ------- ---- ----- -----<br>--- -------- - ------ ---- -- ----- ---- --- --- -----------<br>-- -------,164831.20000000298,164830.40000000596,164308.864,164319.40000000596,164325.534,164842.388,,11,interesting
screen,html.Screen,0_4_1_0_1_12,2021-11-05T13:02:10.168Z,,,,,,,,,,,,,,,,2,,,,,,,,,,,,,,659.9119999970135,,response,,,1,C,,,,,Space,keypress(Space),,,,instrumental,--- ---- ------ --- ------- ---------- ------- ----------<br>--- --------- --- ----------- sunspot ----- ------- ---<br>--------- ---- -- --- ---- -- --------- -- ---- -------<br>-- --------- ------ --- ----- ------ ---- --- --------- --<br>------ - ---- -- --- ----------- ------- ---- ----- -----<br>--- -------- - ------ ---- -- ----- ---- --- --- -----------<br>-- -------,165503.09999999404,165502.29999999702,164825.717,164831.40000000596,164842.388,165509.366,,12,sunspot
screen,html.Screen,0_4_1_0_1_13,2021-11-05T13:02:10.648Z,,,,,,,,,,,,,,,,2,,,,,,,,,,,,,,472.9339999970107,,response,,,1,C,,,,,Space,keypress(Space),,,,instrumental,--- ---- ------ --- ------- ---------- ------- ----------<br>--- --------- --- ----------- ------- group ------- ---<br>--------- ---- -- --- ---- -- --------- -- ---- -------<br>-- --------- ------ --- ----- ------ ---- --- --------- --<br>------ - ---- -- --- ----------- ------- ---- ----- -----<br>--- -------- - ------ ---- -- ----- ---- --- --- -----------<br>-- -------,165983.29999999702,165982.29999999702,165492.694,165503.40000000596,165509.366,165992.74,,13,group
screen,html.Screen,0_4_1_0_1_14,2021-11-05T13:02:11.048Z,,,,,,,,,,,,,,,,2,,,,,,,,,,,,,,389.46000000298955,,response,,,1,C,,,,,Space,keypress(Space),,,,instrumental,--- ---- ------ --- ------- ---------- ------- ----------<br>--- --------- --- ----------- ------- ----- through ---<br>--------- ---- -- --- ---- -- --------- -- ---- -------<br>-- --------- ------ --- ----- ------ ---- --- --------- --<br>------ - ---- -- --- ----------- ------- ---- ----- -----<br>--- -------- - ------ ---- -- ----- ---- --- --- -----------<br>-- -------,166383,166382.20000000298,165976.069,165983.5,165992.74,166392.847,,14,through
screen,html.Screen,0_4_1_0_1_15,2021-11-05T13:02:11.408Z,,,,,,,,,,,,,,,,2,,,,,,,,,,,,,,349.4529999970109,,response,,,1,C,,,,,Space,keypress(Space),,,,instrumental,--- ---- ------ --- ------- ---------- ------- ----------<br>--- --------- --- ----------- ------- ----- ------- his<br>--------- ---- -- --- ---- -- --------- -- ---- -------<br>-- --------- ------ --- ----- ------ ---- --- --------- --<br>------ - ---- -- --- ----------- ------- ---- ----- -----<br>--- -------- - ------ ---- -- ----- ---- --- --- -----------<br>-- -------,166743.20000000298,166742.29999999702,166376.176,166383.29999999702,166392.847,166759.495,,15,his
screen,html.Screen,0_4_1_0_1_16,2021-11-05T13:02:11.936Z,,,,,,,,,,,,,,,,2,,,,,,,,,,,,,,510.7050000029849,,response,,,1,C,,,,,Space,keypress(Space),,,,instrumental,--- ---- ------ --- ------- ---------- ------- ----------<br>--- --------- --- ----------- ------- ----- ------- ---<br>telescope ---- -- --- ---- -- --------- -- ---- -------<br>-- --------- ------ --- ----- ------ ---- --- --------- --<br>------ - ---- -- --- ----------- ------- ---- ----- -----<br>--- -------- - ------ ---- -- ----- ---- --- --- -----------<br>-- -------,167271.09999999404,167270.20000000298,166742.826,166743.40000000596,166759.495,167276.53,,16,telescope
screen,html.Screen,0_4_1_0_1_17,2021-11-05T13:02:12.384Z,,,,,,,,,,,,,,,,2,,,,,,,,,,,,,,441.6700000029814,,response,,,1,C,,,,,Space,keypress(Space),,,,instrumental,--- ---- ------ --- ------- ---------- ------- ----------<br>--- --------- --- ----------- ------- ----- ------- ---<br>--------- when -- --- ---- -- --------- -- ---- -------<br>-- --------- ------ --- ----- ------ ---- --- --------- --<br>------ - ---- -- --- ----------- ------- ---- ----- -----<br>--- -------- - ------ ---- -- ----- ---- --- --- -----------<br>-- -------,167719,167718.20000000298,167259.857,167271.29999999702,167276.53,167726.347,,17,when
screen,html.Screen,0_4_1_0_1_18,2021-11-05T13:02:12.880Z,,,,,,,,,,,,,,,,2,,,,,,,,,,,,,,487.8530000029714,,response,,,1,C,,,,,Space,keypress(Space),,,,instrumental,--- ---- ------ --- ------- ---------- ------- ----------<br>--- --------- --- ----------- ------- ----- ------- ---<br>--------- ---- he --- ---- -- --------- -- ---- -------<br>-- --------- ------ --- ----- ------ ---- --- --------- --<br>------ - ---- -- --- ----------- ------- ---- ----- -----<br>--- -------- - ------ ---- -- ----- ---- --- --- -----------<br>-- -------,168215,168214.20000000298,167709.679,167719.29999999702,167726.347,168226.735,,18,he
screen,html.Screen,0_4_1_0_1_19,2021-11-05T13:02:13.296Z,,,,,,,,,,,,,,,,2,,,,,,,,,,,,,,403.4650000029942,,response,,,1,C,,,,,Space,keypress(Space),,,,instrumental,--- ---- ------ --- ------- ---------- ------- ----------<br>--- --------- --- ----------- ------- ----- ------- ---<br>--------- ---- -- saw ---- -- --------- -- ---- -------<br>-- --------- ------ --- ----- ------ ---- --- --------- --<br>------ - ---- -- --- ----------- ------- ---- ----- -----<br>--- -------- - ------ ---- -- ----- ---- --- --- -----------<br>-- -------,168631,168630.20000000298,168210.063,168215.20000000298,168226.735,168643.46,,19,saw
screen,html.Screen,0_4_1_0_1_20,2021-11-05T13:02:13.744Z,,,,,,,,,,,,,,,,2,,,,,,,,,,,,,,434.7400000029884,,response,,,1,C,,,,,Space,keypress(Space),,,,instrumental,--- ---- ------ --- ------- ---------- ------- ----------<br>--- --------- --- ----------- ------- ----- ------- ---<br>--------- ---- -- --- what -- --------- -- ---- -------<br>-- --------- ------ --- ----- ------ ---- --- --------- --<br>------ - ---- -- --- ----------- ------- ---- ----- -----<br>--- -------- - ------ ---- -- ----- ---- --- --- -----------<br>-- -------,169079,169078.20000000298,168626.789,168631.20000000298,168643.46,169093.539,,20,what
screen,html.Screen,0_4_1_0_1_21,2021-11-05T13:02:14.128Z,,,,,,,,,,,,,,,,2,,,,,,,,,,,,,,368.6610000029905,,response,,,1,C,,,,,Space,keypress(Space),,,,instrumental,--- ---- ------ --- ------- ---------- ------- ----------<br>--- --------- --- ----------- ------- ----- ------- ---<br>--------- ---- -- --- ---- he --------- -- ---- -------<br>-- --------- ------ --- ----- ------ ---- --- --------- --<br>------ - ---- -- --- ----------- ------- ---- ----- -----<br>--- -------- - ------ ---- -- ----- ---- --- --- -----------<br>-- -------,169463,169462.20000000298,169076.869,169079.29999999702,169093.539,169476.877,,21,he
screen,html.Screen,0_4_1_0_1_22,2021-11-05T13:02:14.504Z,,,,,,,,,,,,,,,,2,,,,,,,,,,,,,,361.72299999403185,,response,,,1,C,,,,,Space,keypress(Space),,,,instrumental,--- ---- ------ --- ------- ---------- ------- ----------<br>--- --------- --- ----------- ------- ----- ------- ---<br>--------- ---- -- --- ---- -- described -- ---- -------<br>-- --------- ------ --- ----- ------ ---- --- --------- --<br>------ - ---- -- --- ----------- ------- ---- ----- -----<br>--- -------- - ------ ---- -- ----- ---- --- --- -----------<br>-- -------,169839.40000000596,169838.59999999404,169460.208,169463.29999999702,169476.877,169843.841,,22,described
screen,html.Screen,0_4_1_0_1_23,2021-11-05T13:02:14.831Z,,,,,,,,,,,,,,,,2,,,,,,,,,,,,,,322.05900000597467,,response,,,1,C,,,,,Space,keypress(Space),,,,instrumental,--- ---- ------ --- ------- ---------- ------- ----------<br>--- --------- --- ----------- ------- ----- ------- ---<br>--------- ---- -- --- ---- -- --------- as ---- -------<br>-- --------- ------ --- ----- ------ ---- --- --------- --<br>------ - ---- -- --- ----------- ------- ---- ----- -----<br>--- -------- - ------ ---- -- ----- ---- --- --- -----------<br>-- -------,170166.90000000596,170165.90000000596,169827.169,169839.59999999404,169843.841,170177.203,,23,as
screen,html.Screen,0_4_1_0_1_24,2021-11-05T13:02:15.151Z,,,,,,,,,,,,,,,,2,,,,,,,,,,,,,,308.7969999999914,,response,,,1,C,,,,,Space,keypress(Space),,,,instrumental,"--- ---- ------ --- ------- ---------- ------- ----------<br>--- --------- --- ----------- ------- ----- ------- ---<br>--------- ---- -- --- ---- -- --------- -- ""two -------<br>-- --------- ------ --- ----- ------ ---- --- --------- --<br>------ - ---- -- --- ----------- ------- ---- ----- -----<br>--- -------- - ------ ---- -- ----- ---- --- --- -----------<br>-- -------",170486.70000000298,170486,170160.532,170167.20000000298,170177.203,170493.901,,24,"""two"
screen,html.Screen,0_4_1_0_1_25,2021-11-05T13:02:15.479Z,,,,,,,,,,,,,,,,2,,,,,,,,,,,,,,319.9990000059479,,response,,,1,C,,,,,Space,keypress(Space),,,,instrumental,--- ---- ------ --- ------- ---------- ------- ----------<br>--- --------- --- ----------- ------- ----- ------- ---<br>--------- ---- -- --- ---- -- --------- -- ---- patches<br>-- --------- ------ --- ----- ------ ---- --- --------- --<br>------ - ---- -- --- ----------- ------- ---- ----- -----<br>--- -------- - ------ ---- -- ----- ---- --- --- -----------<br>-- -------,170814.59999999404,170813.90000000596,170477.231,170487,170493.901,170827.422,,25,patches
screen,html.Screen,0_4_1_0_1_26,2021-11-05T13:02:15.807Z,,,,,,,,,,,,,,,,2,,,,,,,,,,,,,,314.67799999404815,,response,,,1,C,,,,,Space,keypress(Space),,,,instrumental,--- ---- ------ --- ------- ---------- ------- ----------<br>--- --------- --- ----------- ------- ----- ------- ---<br>--------- ---- -- --- ---- -- --------- -- ---- -------<br>of --------- ------ --- ----- ------ ---- --- --------- --<br>------ - ---- -- --- ----------- ------- ---- ----- -----<br>--- -------- - ------ ---- -- ----- ---- --- --- -----------<br>-- -------,171142.90000000596,171142.09999999404,170810.75,170814.59999999404,170827.422,171144.107,,26,of
screen,html.Screen,0_4_1_0_1_27,2021-11-05T13:02:16.591Z,,,,,,,,,,,,,,,,2,,,,,,,,,,,,,,781.7930000059714,,response,,,1,C,,,,,Space,keypress(Space),,,,instrumental,--- ---- ------ --- ------- ---------- ------- ----------<br>--- --------- --- ----------- ------- ----- ------- ---<br>--------- ---- -- --- ---- -- --------- -- ---- -------<br>-- intensely ------ --- ----- ------ ---- --- --------- --<br>------ - ---- -- --- ----------- ------- ---- ----- -----<br>--- -------- - ------ ---- -- ----- ---- --- --- -----------<br>-- -------,171926.70000000298,171925.90000000596,171127.437,171143.20000000298,171144.107,171944.125,,27,intensely
screen,html.Screen,0_4_1_0_1_28,2021-11-05T13:02:17.015Z,,,,,,,,,,,,,,,,2,,,,,,,,,,,,,,405.875,,response,,,1,C,,,,,Space,keypress(Space),,,,instrumental,--- ---- ------ --- ------- ---------- ------- ----------<br>--- --------- --- ----------- ------- ----- ------- ---<br>--------- ---- -- --- ---- -- --------- -- ---- -------<br>-- --------- bright --- ----- ------ ---- --- --------- --<br>------ - ---- -- --- ----------- ------- ---- ----- -----<br>--- -------- - ------ ---- -- ----- ---- --- --- -----------<br>-- -------,172350.79999999702,172350,171927.457,171926.90000000596,171944.125,172361.215,,28,bright
screen,html.Screen,0_4_1_0_1_29,2021-11-05T13:02:17.423Z,,,,,,,,,,,,,,,,2,,,,,,,,,,,,,,396.7850000000035,,response,,,1,C,,,,,Space,keypress(Space),,,,instrumental,--- ---- ------ --- ------- ---------- ------- ----------<br>--- --------- --- ----------- ------- ----- ------- ---<br>--------- ---- -- --- ---- -- --------- -- ---- -------<br>-- --------- ------ and ----- ------ ---- --- --------- --<br>------ - ---- -- --- ----------- ------- ---- ----- -----<br>--- -------- - ------ ---- -- ----- ---- --- --- -----------<br>-- -------,172759,172758,172344.542,172351.09999999404,172361.215,172761.109,,29,and
screen,html.Screen,0_4_1_0_1_30,2021-11-05T13:02:17.887Z,,,,,,,,,,,,,,,,2,,,,,,,,,,,,,,460.89100000000326,,response,,,1,C,,,,,Space,keypress(Space),,,,instrumental,--- ---- ------ --- ------- ---------- ------- ----------<br>--- --------- --- ----------- ------- ----- ------- ---<br>--------- ---- -- --- ---- -- --------- -- ---- -------<br>-- --------- ------ --- white ------ ---- --- --------- --<br>------ - ---- -- --- ----------- ------- ---- ----- -----<br>--- -------- - ------ ---- -- ----- ---- --- --- -----------<br>-- -------,173222.79999999702,173222,172744.44,172759.20000000298,172761.109,173227.924,,30,white
screen,html.Screen,0_4_1_0_1_31,2021-11-05T13:02:19.095Z,,,,,,,,,,,,,,,,2,,,,,,,,,,,,,,1202.076000000001,,response,,,1,C,,,,,Space,keypress(Space),,,,instrumental,"--- ---- ------ --- ------- ---------- ------- ----------<br>--- --------- --- ----------- ------- ----- ------- ---<br>--------- ---- -- --- ---- -- --------- -- ---- -------<br>-- --------- ------ --- ----- light"" ---- --- --------- --<br>------ - ---- -- --- ----------- ------- ---- ----- -----<br>--- -------- - ------ ---- -- ----- ---- --- --- -----------<br>-- -------",174430.79999999702,174430,173211.254,173223,173227.924,174444.966,,31,"light"""
screen,html.Screen,0_4_1_0_1_32,2021-11-05T13:02:19.607Z,,,,,,,,,,,,,,,,2,,,,,,,,,,,,,,496.93400000597467,,response,,,1,C,,,,,Space,keypress(Space),,,,instrumental,--- ---- ------ --- ------- ---------- ------- ----------<br>--- --------- --- ----------- ------- ----- ------- ---<br>--------- ---- -- --- ---- -- --------- -- ---- -------<br>-- --------- ------ --- ----- ------ over --- --------- --<br>------ - ---- -- --- ----------- ------- ---- ----- -----<br>--- -------- - ------ ---- -- ----- ---- --- --- -----------<br>-- -------,174942.70000000298,174941.90000000596,174428.295,174431,174444.966,174945.224,,32,over
screen,html.Screen,0_4_1_0_1_33,2021-11-05T13:02:19.951Z,,,,,,,,,,,,,,,,2,,,,,,,,,,,,,,340.4760000029928,,response,,,1,C,,,,,Space,keypress(Space),,,,instrumental,--- ---- ------ --- ------- ---------- ------- ----------<br>--- --------- --- ----------- ------- ----- ------- ---<br>--------- ---- -- --- ---- -- --------- -- ---- -------<br>-- --------- ------ --- ----- ------ ---- the --------- --<br>------ - ---- -- --- ----------- ------- ---- ----- -----<br>--- -------- - ------ ---- -- ----- ---- --- --- -----------<br>-- -------,175286.70000000298,175285.70000000298,174928.552,174943,174945.224,175295.253,,33,the
screen,html.Screen,0_4_1_0_1_34,2021-11-05T13:02:20.247Z,,,,,,,,,,,,,,,,2,,,,,,,,,,,,,,286.6470000059635,,response,,,1,C,,,,,Space,keypress(Space),,,,instrumental,--- ---- ------ --- ------- ---------- ------- ----------<br>--- --------- --- ----------- ------- ----- ------- ---<br>--------- ---- -- --- ---- -- --------- -- ---- -------<br>-- --------- ------ --- ----- ------ ---- --- sunspots. --<br>------ - ---- -- --- ----------- ------- ---- ----- -----<br>--- -------- - ------ ---- -- ----- ---- --- --- -----------<br>-- -------,175582.59999999404,175581.90000000596,175278.582,175286.79999999702,175295.253,175595.288,,34,sunspots.
screen,html.Screen,0_4_1_0_1_35,2021-11-05T13:02:20.687Z,,,,,,,,,,,,,,,,2,,,,,,,,,,,,,,426.5119999970193,,response,,,1,C,,,,,Space,keypress(Space),,,,instrumental,--- ---- ------ --- ------- ---------- ------- ----------<br>--- --------- --- ----------- ------- ----- ------- ---<br>--------- ---- -- --- ---- -- --------- -- ---- -------<br>-- --------- ------ --- ----- ------ ---- --- --------- He<br>------ - ---- -- --- ----------- ------- ---- ----- -----<br>--- -------- - ------ ---- -- ----- ---- --- --- -----------<br>-- -------,176022.5,176021.79999999702,175578.618,175582.90000000596,175595.288,176028.785,,35,He
screen,html.Screen,0_4_1_0_1_36,2021-11-05T13:02:21.039Z,,,,,,,,,,,,,,,,2,,,,,,,,,,,,,,345.0149999970163,,response,,,1,C,,,,,Space,keypress(Space),,,,instrumental,--- ---- ------ --- ------- ---------- ------- ----------<br>--- --------- --- ----------- ------- ----- ------- ---<br>--------- ---- -- --- ---- -- --------- -- ---- -------<br>-- --------- ------ --- ----- ------ ---- --- --------- --<br>jotted - ---- -- --- ----------- ------- ---- ----- -----<br>--- -------- - ------ ---- -- ----- ---- --- --- -----------<br>-- -------,176374.70000000298,176373.79999999702,176012.114,176022.70000000298,176028.785,176378.83,,36,jotted
screen,html.Screen,0_4_1_0_1_37,2021-11-05T13:02:21.407Z,,,,,,,,,,,,,,,,2,,,,,,,,,,,,,,362.9699999970326,,response,,,1,C,,,,,Space,keypress(Space),,,,instrumental,--- ---- ------ --- ------- ---------- ------- ----------<br>--- --------- --- ----------- ------- ----- ------- ---<br>--------- ---- -- --- ---- -- --------- -- ---- -------<br>-- --------- ------ --- ----- ------ ---- --- --------- --<br>------ a ---- -- --- ----------- ------- ---- ----- -----<br>--- -------- - ------ ---- -- ----- ---- --- --- -----------<br>-- -------,176742.70000000298,176741.79999999702,176362.16,176374.90000000596,176378.83,176745.634,,37,a
screen,html.Screen,0_4_1_0_1_38,2021-11-05T13:02:21.855Z,,,,,,,,,,,,,,,,2,,,,,,,,,,,,,,444.16599999702885,,response,,,1,C,,,,,Space,keypress(Space),,,,instrumental,--- ---- ------ --- ------- ---------- ------- ----------<br>--- --------- --- ----------- ------- ----- ------- ---<br>--------- ---- -- --- ---- -- --------- -- ---- -------<br>-- --------- ------ --- ----- ------ ---- --- --------- --<br>------ - note -- --- ----------- ------- ---- ----- -----<br>--- -------- - ------ ---- -- ----- ---- --- --- -----------<br>-- -------,177190.59999999404,177189.79999999702,176728.963,176742.90000000596,176745.634,177195.718,,38,note
screen,html.Screen,0_4_1_0_1_39,2021-11-05T13:02:22.207Z,,,,,,,,,,,,,,,,2,,,,,,,,,,,,,,346.182000005967,,response,,,1,C,,,,,Space,keypress(Space),,,,instrumental,--- ---- ------ --- ------- ---------- ------- ----------<br>--- --------- --- ----------- ------- ----- ------- ---<br>--------- ---- -- --- ---- -- --------- -- ---- -------<br>-- --------- ------ --- ----- ------ ---- --- --------- --<br>------ - ---- in --- ----------- ------- ---- ----- -----<br>--- -------- - ------ ---- -- ----- ---- --- --- -----------<br>-- -------,177542.59999999404,177541.90000000596,177179.048,177190.90000000596,177195.718,177545.843,,39,in
screen,html.Screen,0_4_1_0_1_40,2021-11-05T13:02:22.607Z,,,,,,,,,,,,,,,,2,,,,,,,,,,,,,,395.9569999970263,,response,,,1,C,,,,,Space,keypress(Space),,,,instrumental,--- ---- ------ --- ------- ---------- ------- ----------<br>--- --------- --- ----------- ------- ----- ------- ---<br>--------- ---- -- --- ---- -- --------- -- ---- -------<br>-- --------- ------ --- ----- ------ ---- --- --------- --<br>------ - ---- -- his ----------- ------- ---- ----- -----<br>--- -------- - ------ ---- -- ----- ---- --- --- -----------<br>-- -------,177942.59999999404,177941.79999999702,177529.172,177542.90000000596,177545.843,177945.976,,40,his
screen,html.Screen,0_4_1_0_1_41,2021-11-05T13:02:23.327Z,,,,,,,,,,,,,,,,2,,,,,,,,,,,,,,715.8239999970247,,response,,,1,C,,,,,Space,keypress(Space),,,,instrumental,--- ---- ------ --- ------- ---------- ------- ----------<br>--- --------- --- ----------- ------- ----- ------- ---<br>--------- ---- -- --- ---- -- --------- -- ---- -------<br>-- --------- ------ --- ----- ------ ---- --- --------- --<br>------ - ---- -- --- painstaking ------- ---- ----- -----<br>--- -------- - ------ ---- -- ----- ---- --- --- -----------<br>-- -------,178662.59999999404,178661.79999999702,177929.305,177942.90000000596,177945.976,178679.437,,41,painstaking
screen,html.Screen,0_4_1_0_1_42,2021-11-05T13:02:23.647Z,,,,,,,,,,,,,,,,2,,,,,,,,,,,,,,302.3629999970144,,response,,,1,C,,,,,Space,keypress(Space),,,,instrumental,--- ---- ------ --- ------- ---------- ------- ----------<br>--- --------- --- ----------- ------- ----- ------- ---<br>--------- ---- -- --- ---- -- --------- -- ---- -------<br>-- --------- ------ --- ----- ------ ---- --- --------- --<br>------ - ---- -- --- ----------- record. ---- ----- -----<br>--- -------- - ------ ---- -- ----- ---- --- --- -----------<br>-- -------,178982.5,178981.79999999702,178662.767,178662.79999999702,178679.437,178996.204,,42,record.
screen,html.Screen,0_4_1_0_1_43,2021-11-05T13:02:24.559Z,,,,,,,,,,,,,,,,2,,,,,,,,,,,,,,897.8959999940416,,response,,,1,C,,,,,Space,keypress(Space),,,,instrumental,--- ---- ------ --- ------- ---------- ------- ----------<br>--- --------- --- ----------- ------- ----- ------- ---<br>--------- ---- -- --- ---- -- --------- -- ---- -------<br>-- --------- ------ --- ----- ------ ---- --- --------- --<br>------ - ---- -- --- ----------- ------- That ----- -----<br>--- -------- - ------ ---- -- ----- ---- --- --- -----------<br>-- -------,179894.90000000596,179894.09999999404,178979.534,178982.79999999702,178996.204,179896.49,,43,That
screen,html.Screen,0_4_1_0_1_44,2021-11-05T13:02:24.951Z,,,,,,,,,,,,,,,,2,,,,,,,,,,,,,,389.0100000000093,,response,,,1,C,,,,,Space,keypress(Space),,,,instrumental,--- ---- ------ --- ------- ---------- ------- ----------<br>--- --------- --- ----------- ------- ----- ------- ---<br>--------- ---- -- --- ---- -- --------- -- ---- -------<br>-- --------- ------ --- ----- ------ ---- --- --------- --<br>------ - ---- -- --- ----------- ------- ---- night -----<br>--- -------- - ------ ---- -- ----- ---- --- --- -----------<br>-- -------,180286.29999999702,180285.5,179879.819,179895.09999999404,179896.49,180296.531,,44,night
screen,html.Screen,0_4_1_0_1_45,2021-11-05T13:02:25.436Z,,,,,,,,,,,,,,,,2,,,,,,,,,,,,,,477.1690000029921,,response,,,1,C,,,,,Space,keypress(Space),,,,instrumental,--- ---- ------ --- ------- ---------- ------- ----------<br>--- --------- --- ----------- ------- ----- ------- ---<br>--------- ---- -- --- ---- -- --------- -- ---- -------<br>-- --------- ------ --- ----- ------ ---- --- --------- --<br>------ - ---- -- --- ----------- ------- ---- ----- there<br>--- -------- - ------ ---- -- ----- ---- --- --- -----------<br>-- -------,180774.5,180773.70000000298,180279.861,180287.5,180296.531,180780.056,,45,there
screen,html.Screen,0_4_1_0_1_46,2021-11-05T13:02:25.900Z,,,,,,,,,,,,,,,,2,,,,,,,,,,,,,,457.5439999940281,,response,,,1,C,,,,,Space,keypress(Space),,,,instrumental,--- ---- ------ --- ------- ---------- ------- ----------<br>--- --------- --- ----------- ------- ----- ------- ---<br>--------- ---- -- --- ---- -- --------- -- ---- -------<br>-- --------- ------ --- ----- ------ ---- --- --------- --<br>------ - ---- -- --- ----------- ------- ---- ----- -----<br>was -------- - ------ ---- -- ----- ---- --- --- -----------<br>-- -------,181238.5,181237.59999999404,180763.385,180774.70000000298,180780.056,181246.791,,46,was
screen,html.Screen,0_4_1_0_1_47,2021-11-05T13:02:26.324Z,,,,,,,,,,,,,,,,2,,,,,,,,,,,,,,414.8089999940421,,response,,,1,C,,,,,Space,keypress(Space),,,,instrumental,--- ---- ------ --- ------- ---------- ------- ----------<br>--- --------- --- ----------- ------- ----- ------- ---<br>--------- ---- -- --- ---- -- --------- -- ---- -------<br>-- --------- ------ --- ----- ------ ---- --- --------- --<br>------ - ---- -- --- ----------- ------- ---- ----- -----<br>--- scarcely - ------ ---- -- ----- ---- --- --- -----------<br>-- -------,181662.40000000596,181661.59999999404,181230.121,181238.70000000298,181246.791,181663.473,,47,scarcely
screen,html.Screen,0_4_1_0_1_48,2021-11-05T13:02:26.924Z,,,,,,,,,,,,,,,,2,,,,,,,,,,,,,,598.1269999940414,,response,,,1,C,,,,,Space,keypress(Space),,,,instrumental,--- ---- ------ --- ------- ---------- ------- ----------<br>--- --------- --- ----------- ------- ----- ------- ---<br>--------- ---- -- --- ---- -- --------- -- ---- -------<br>-- --------- ------ --- ----- ------ ---- --- --------- --<br>------ - ---- -- --- ----------- ------- ---- ----- -----<br>--- -------- a ------ ---- -- ----- ---- --- --- -----------<br>-- -------,182262.40000000596,182261.59999999404,181646.804,181662.59999999404,181663.473,182263.866,,48,a
