sender,sender_type,sender_id,timestamp,meta,,Blues,Classical,Country,Dance,Electronic,Folk,Gospel,Hip-Hop,Jazz,Latin,Musical/Film,New-age,Pop,Provo_ID,R&B,Rap,Reggae,Religious,Rock,Soul,Swing,Traditional,age,artist_name,correct,correctResponse,distraction,duration,education,ended_on,familiarity,gender,item,list,music_frequency,offensiveness,pleasantness,preference,response,response_action,snippet_file,song_name,song_rating,sound,text,time_commit,time_end,time_render,time_run,time_show,time_switch,url,word,word_ID
Instructions,html.Page,0_0,2021-12-02T14:36:54.503Z,"{""labjs_version"":""20.2.3"",""labjs_build"":{""flavor"":""production"",""commit"":""7ea907d66ca8aeef8054924ca5d82ffbe11e34e5""},""location"":""https://run.pavlovia.org/mvasilev/lab_music_a/"",""userAgent"":""Mozilla/5.0 (Windows NT 6.1; Win64; x64) AppleWebKit/537.36 (KHTML, like Gecko) Chrome/96.0.4664.45 Safari/537.36"",""platform"":""Win32"",""language"":""en-US"",""locale"":""en-US"",""timeZone"":""Europe/London"",""timezoneOffset"":0,""screen_width"":1920,""screen_height"":1080,""scroll_width"":1920,""scroll_height"":959,""window_innerWidth"":1920,""window_innerHeight"":1007,""devicePixelRatio"":1}",,,,,,,,,,,,,,,,,,,,,,,,,,,,,30679.25800000149,,form submission,,,,,,,,,,,,,,,,43361.800000000745,43360.60000000149,12648.002,12667.60000000149,12681.342,43369.129,{},,
Headphones,html.Page,0_1,2021-12-02T14:36:57.640Z,,,,,,,,,,,,,,,,,,,,,,,,,,,,,,3129.6710000007442,,form submission,,,,,,,,,,,,,,,,46499.300000000745,46498.800000000745,43352.418,43362.5,43369.129,46507.259,,,
Holding screen,html.Screen,0_2_0_0,2021-12-02T14:37:07.640Z,,,,,,,,,,,,,,,,,,,,,,,,,,,,,,10002.711000000003,,timeout,,,,,,,,,,,,,,,,56499.20000000298,56493.3,46490.589,46499.70000000298,46507.259,56509.97,,,
screen,html.Screen,0_2_0_1_0,2021-12-02T14:37:08.960Z,,,,,,,,,,,,,,,,53,,,,,,,,,,,,,,1307.730000002979,,response,,,99,,,,,,Space,keypress(Space),,,,,When -- ----- -- ------ - ------- --- ----------<br>------------- ------ ------ ---- ---- ------- ----- -- ----<br>-------- ------- -- ---------- --- - --- ----- ----- ----<br>---- --- --- ----- --- ---- ---- ------- ----- ---- -------<br>--- --- -- ----- -- --- ---- -- --- ---- -- ------ ------<br>--- ----- -- ----,57819.10000000149,57817.70000000298,56493.3,56499.5,56509.97,57827.208,,0,When
screen,html.Screen,0_2_0_1_1,2021-12-02T14:37:09.655Z,,,,,,,,,,,,,,,,53,,,,,,,,,,,,,,685.9920000029815,,response,,,99,,,,,,Space,keypress(Space),,,,,---- it ----- -- ------ - ------- --- ----------<br>------------- ------ ------ ---- ---- ------- ----- -- ----<br>-------- ------- -- ---------- --- - --- ----- ----- ----<br>---- --- --- ----- --- ---- ---- ------- ----- ---- -------<br>--- --- -- ----- -- --- ---- -- --- ---- -- ------ ------<br>--- ----- -- ----,58514.20000000298,58513.20000000298,57810.537,57819.5,57827.208,58527.215,,1,it
screen,html.Screen,0_2_0_1_2,2021-12-02T14:37:10.287Z,,,,,,,,,,,,,,,,53,,,,,,,,,,,,,,617.8850000014936,,response,,,99,,,,,,Space,keypress(Space),,,,,---- -- comes -- ------ - ------- --- ----------<br>------------- ------ ------ ---- ---- ------- ----- -- ----<br>-------- ------- -- ---------- --- - --- ----- ----- ----<br>---- --- --- ----- --- ---- ---- ------- ----- ---- -------<br>--- --- -- ----- -- --- ---- -- --- ---- -- ------ ------<br>--- ----- -- ----,59146.10000000149,59145.10000000149,58510.545,58514.400000002235,58527.215,59160.769,,2,comes
screen,html.Screen,0_2_0_1_3,2021-12-02T14:37:10.839Z,,,,,,,,,,,,,,,,53,,,,,,,,,,,,,,536.3310000014899,,response,,,99,,,,,,Space,keypress(Space),,,,,---- -- ----- to ------ - ------- --- ----------<br>------------- ------ ------ ---- ---- ------- ----- -- ----<br>-------- ------- -- ---------- --- - --- ----- ----- ----<br>---- --- --- ----- --- ---- ---- ------- ----- ---- -------<br>--- --- -- ----- -- --- ---- -- --- ---- -- ------ ------<br>--- ----- -- ----,59698.10000000149,59697.10000000149,59144.099,59146.300000000745,59160.769,59711.027,,3,to
screen,html.Screen,0_2_0_1_4,2021-12-02T14:37:11.330Z,,,,,,,,,,,,,,,,53,,,,,,,,,,,,,,474.07300000148825,,response,,,99,,,,,,Space,keypress(Space),,,,,---- -- ----- -- having - ------- --- ----------<br>------------- ------ ------ ---- ---- ------- ----- -- ----<br>-------- ------- -- ---------- --- - --- ----- ----- ----<br>---- --- --- ----- --- ---- ---- ------- ----- ---- -------<br>--- --- -- ----- -- --- ---- -- --- ---- -- ------ ------<br>--- ----- -- ----,60186.20000000298,60185.10000000149,59694.356,59698.5,59711.027,60194.433,,4,having
screen,html.Screen,0_2_0_1_5,2021-12-02T14:37:11.842Z,,,,,,,,,,,,,,,,53,,,,,,,,,,,,,,502.66700000149285,,response,,,99,,,,,,Space,keypress(Space),,,,,---- -- ----- -- ------ a ------- --- ----------<br>------------- ------ ------ ---- ---- ------- ----- -- ----<br>-------- ------- -- ---------- --- - --- ----- ----- ----<br>---- --- --- ----- --- ---- ---- ------- ----- ---- -------<br>--- --- -- ----- -- --- ---- -- --- ---- -- ------ ------<br>--- ----- -- ----,60698,60697.10000000149,60177.763,60186.5,60194.433,60711.211,,5,a
screen,html.Screen,0_2_0_1_6,2021-12-02T14:37:12.346Z,,,,,,,,,,,,,,,,53,,,,,,,,,,,,,,490.38900000148715,,response,,,99,,,,,,Space,keypress(Space),,,,,---- -- ----- -- ------ - lasting --- ----------<br>------------- ------ ------ ---- ---- ------- ----- -- ----<br>-------- ------- -- ---------- --- - --- ----- ----- ----<br>---- --- --- ----- --- ---- ---- ------- ----- ---- -------<br>--- --- -- ----- -- --- ---- -- --- ---- -- ------ ------<br>--- ----- -- ----,61202.60000000149,61201.60000000149,60694.541,60698.5,60711.211,61211.422,,6,lasting
screen,html.Screen,0_2_0_1_7,2021-12-02T14:37:12.970Z,,,,,,,,,,,,,,,,53,,,,,,,,,,,,,,613.6780000014915,,response,,,99,,,,,,Space,keypress(Space),,,,,---- -- ----- -- ------ - ------- and ----------<br>------------- ------ ------ ---- ---- ------- ----- -- ----<br>-------- ------- -- ---------- --- - --- ----- ----- ----<br>---- --- --- ----- --- ---- ---- ------- ----- ---- -------<br>--- --- -- ----- -- --- ---- -- --- ---- -- ------ ------<br>--- ----- -- ----,61825.900000002235,61825.10000000149,61194.751,61202.800000000745,61211.422,61828.081,,7,and
screen,html.Screen,0_2_0_1_8,2021-12-02T14:37:13.882Z,,,,,,,,,,,,,,,,53,,,,,,,,,,,,,,908.9190000000017,,response,,,99,,,,,,Space,keypress(Space),,,,,---- -- ----- -- ------ - ------- --- fulfilling<br>------------- ------ ------ ---- ---- ------- ----- -- ----<br>-------- ------- -- ---------- --- - --- ----- ----- ----<br>---- --- --- ----- --- ---- ---- ------- ----- ---- -------<br>--- --- -- ----- -- --- ---- -- --- ---- -- ------ ------<br>--- ----- -- ----,62738.10000000149,62737,61811.412,61826.20000000298,61828.081,62745.179,,8,fulfilling
screen,html.Screen,0_2_0_1_9,2021-12-02T14:37:16.258Z,,,,,,,,,,,,,,,,53,,,,,,,,,,,,,,2367.7210000022387,,response,,,99,,,,,,Space,keypress(Space),,,,,"---- -- ----- -- ------ - ------- --- ----------<br>relationship, ------ ------ ---- ---- ------- ----- -- ----<br>-------- ------- -- ---------- --- - --- ----- ----- ----<br>---- --- --- ----- --- ---- ---- ------- ----- ---- -------<br>--- --- -- ----- -- --- ---- -- --- ---- -- ------ ------<br>--- ----- -- ----",65113.800000000745,65112.900000002235,62728.508,62738.300000000745,62745.179,65128.916,,9,"relationship,"
screen,html.Screen,0_2_0_1_10,2021-12-02T14:37:18.466Z,,,,,,,,,,,,,,,,53,,,,,,,,,,,,,,2191.784000002983,,response,,,99,,,,,,Space,keypress(Space),,,,,---- -- ----- -- ------ - ------- --- ----------<br>------------- common ------ ---- ---- ------- ----- -- ----<br>-------- ------- -- ---------- --- - --- ----- ----- ----<br>---- --- --- ----- --- ---- ---- ------- ----- ---- -------<br>--- --- -- ----- -- --- ---- -- --- ---- -- ------ ------<br>--- ----- -- ----,67321.80000000075,67320.70000000298,65112.246,65114.10000000149,65128.916,67329.535,,10,common
screen,html.Screen,0_2_0_1_11,2021-12-02T14:37:19.618Z,,,,,,,,,,,,,,,,53,,,,,,,,,,,,,,1143.5650000014866,,response,,,99,,,,,,Space,keypress(Space),,,,,---- -- ----- -- ------ - ------- --- ----------<br>------------- ------ wisdom ---- ---- ------- ----- -- ----<br>-------- ------- -- ---------- --- - --- ----- ----- ----<br>---- --- --- ----- --- ---- ---- ------- ----- ---- -------<br>--- --- -- ----- -- --- ---- -- --- ---- -- ------ ------<br>--- ----- -- ----,68474.10000000149,68473.10000000149,67312.865,67322,67329.535,68479.896,,11,wisdom
screen,html.Screen,0_2_0_1_12,2021-12-02T14:37:20.169Z,,,,,,,,,,,,,,,,53,,,,,,,,,,,,,,544.8040000029869,,response,,,99,,,,,,Space,keypress(Space),,,,,---- -- ----- -- ------ - ------- --- ----------<br>------------- ------ ------ says ---- ------- ----- -- ----<br>-------- ------- -- ---------- --- - --- ----- ----- ----<br>---- --- --- ----- --- ---- ---- ------- ----- ---- -------<br>--- --- -- ----- -- --- ---- -- --- ---- -- ------ ------<br>--- ----- -- ----,69025.60000000149,69024.70000000298,68463.226,68474.40000000224,68479.896,69030.017,,12,says
screen,html.Screen,0_2_0_1_13,2021-12-02T14:37:20.969Z,,,,,,,,,,,,,,,,53,,,,,,,,,,,,,,794.583000001483,,response,,,99,,,,,,Space,keypress(Space),,,,,---- -- ----- -- ------ - ------- --- ----------<br>------------- ------ ------ ---- that ------- ----- -- ----<br>-------- ------- -- ---------- --- - --- ----- ----- ----<br>---- --- --- ----- --- ---- ---- ------- ----- ---- -------<br>--- --- -- ----- -- --- ---- -- --- ---- -- ------ ------<br>--- ----- -- ----,69825.5,69824.60000000149,69013.347,69025.80000000075,69030.017,69830.369,,13,that
screen,html.Screen,0_2_0_1_14,2021-12-02T14:37:21.817Z,,,,,,,,,,,,,,,,53,,,,,,,,,,,,,,842.2310000014841,,response,,,99,,,,,,Space,keypress(Space),,,,,---- -- ----- -- ------ - ------- --- ----------<br>------------- ------ ------ ---- ---- feeling ----- -- ----<br>-------- ------- -- ---------- --- - --- ----- ----- ----<br>---- --- --- ----- --- ---- ---- ------- ----- ---- -------<br>--- --- -- ----- -- --- ---- -- --- ---- -- ------ ------<br>--- ----- -- ----,70673.5,70672.60000000149,69813.698,69825.80000000075,69830.369,70680.599,,14,feeling
screen,html.Screen,0_2_0_1_15,2021-12-02T14:37:22.345Z,,,,,,,,,,,,,,,,53,,,,,,,,,,,,,,519.900999999998,,response,,,99,,,,,,Space,keypress(Space),,,,,---- -- ----- -- ------ - ------- --- ----------<br>------------- ------ ------ ---- ---- ------- close -- ----<br>-------- ------- -- ---------- --- - --- ----- ----- ----<br>---- --- --- ----- --- ---- ---- ------- ----- ---- -------<br>--- --- -- ----- -- --- ---- -- --- ---- -- ------ ------<br>--- ----- -- ----,71201.40000000224,71200.5,70663.928,70673.80000000075,70680.599,71214.035,,15,close
screen,html.Screen,0_2_0_1_16,2021-12-02T14:37:22.785Z,,,,,,,,,,,,,,,,53,,,,,,,,,,,,,,426.5650000014866,,response,,,99,,,,,,Space,keypress(Space),,,,,---- -- ----- -- ------ - ------- --- ----------<br>------------- ------ ------ ---- ---- ------- ----- to ----<br>-------- ------- -- ---------- --- - --- ----- ----- ----<br>---- --- --- ----- --- ---- ---- ------- ----- ---- -------<br>--- --- -- ----- -- --- ---- -- --- ---- -- ------ ------<br>--- ----- -- ----,71641.30000000075,71640.60000000149,71197.365,71201.60000000149,71214.035,71647.475,,16,to
screen,html.Screen,0_2_0_1_17,2021-12-02T14:37:23.297Z,,,,,,,,,,,,,,,,53,,,,,,,,,,,,,,505.1250000014843,,response,,,99,,,,,,Space,keypress(Space),,,,,---- -- ----- -- ------ - ------- --- ----------<br>------------- ------ ------ ---- ---- ------- ----- -- your<br>-------- ------- -- ---------- --- - --- ----- ----- ----<br>---- --- --- ----- --- ---- ---- ------- ----- ---- -------<br>--- --- -- ----- -- --- ---- -- --- ---- -- ------ ------<br>--- ----- -- ----,72153.40000000224,72152.60000000149,71630.805,71641.70000000298,71647.475,72164.284,,17,your
screen,html.Screen,0_2_0_1_18,2021-12-02T14:37:23.865Z,,,,,,,,,,,,,,,,53,,,,,,,,,,,,,,556.3160000014905,,response,,,99,,,,,,Space,keypress(Space),,,,,---- -- ----- -- ------ - ------- --- ----------<br>------------- ------ ------ ---- ---- ------- ----- -- ----<br>romantic ------- -- ---------- --- - --- ----- ----- ----<br>---- --- --- ----- --- ---- ---- ------- ----- ---- -------<br>--- --- -- ----- -- --- ---- -- --- ---- -- ------ ------<br>--- ----- -- ----,72721.30000000075,72720.60000000149,72147.614,72153.70000000298,72164.284,72731.101,,18,romantic
screen,html.Screen,0_2_0_1_19,2021-12-02T14:37:24.353Z,,,,,,,,,,,,,,,,53,,,,,,,,,,,,,,477.3990000000049,,response,,,99,,,,,,Space,keypress(Space),,,,,---- -- ----- -- ------ - ------- --- ----------<br>------------- ------ ------ ---- ---- ------- ----- -- ----<br>-------- partner -- ---------- --- - --- ----- ----- ----<br>---- --- --- ----- --- ---- ---- ------- ----- ---- -------<br>--- --- -- ----- -- --- ---- -- --- ---- -- ------ ------<br>--- ----- -- ----,73209.30000000075,73208.5,72714.431,72721.60000000149,72731.101,73214.451,,19,partner
screen,html.Screen,0_2_0_1_20,2021-12-02T14:37:24.857Z,,,,,,,,,,,,,,,,53,,,,,,,,,,,,,,498.04899999999907,,response,,,99,,,,,,Space,keypress(Space),,,,,---- -- ----- -- ------ - ------- --- ----------<br>------------- ------ ------ ---- ---- ------- ----- -- ----<br>-------- ------- is ---------- --- - --- ----- ----- ----<br>---- --- --- ----- --- ---- ---- ------- ----- ---- -------<br>--- --- -- ----- -- --- ---- -- --- ---- -- ------ ------<br>--- ----- -- ----,73713.30000000075,73712.5,73197.782,73209.5,73214.451,73714.797,,20,is
screen,html.Screen,0_2_0_1_21,2021-12-02T14:37:25.353Z,,,,,,,,,,,,,,,,53,,,,,,,,,,,,,,493.60300000222924,,response,,,99,,,,,,Space,keypress(Space),,,,,---- -- ----- -- ------ - ------- --- ----------<br>------------- ------ ------ ---- ---- ------- ----- -- ----<br>-------- ------- -- paramount. --- - --- ----- ----- ----<br>---- --- --- ----- --- ---- ---- ------- ----- ---- -------<br>--- --- -- ----- -- --- ---- -- --- ---- -- ------ ------<br>--- ----- -- ----,74209.30000000075,74208.40000000224,73698.125,73713.60000000149,73714.797,74214.824,,21,paramount.
screen,html.Screen,0_2_0_1_22,2021-12-02T14:37:25.873Z,,,,,,,,,,,,,,,,53,,,,,,,,,,,,,,513.5760000022419,,response,,,99,,,,,,Space,keypress(Space),,,,,---- -- ----- -- ------ - ------- --- ----------<br>------------- ------ ------ ---- ---- ------- ----- -- ----<br>-------- ------- -- ---------- But - --- ----- ----- ----<br>---- --- --- ----- --- ---- ---- ------- ----- ---- -------<br>--- --- -- ----- -- --- ---- -- --- ---- -- ------ ------<br>--- ----- -- ----,74729.30000000075,74728.40000000224,74198.154,74209.70000000298,74214.824,74731.588,,22,But
screen,html.Screen,0_2_0_1_23,2021-12-02T14:37:26.337Z,,,,,,,,,,,,,,,,53,,,,,,,,,,,,,,460.8120000022318,,response,,,99,,,,,,Space,keypress(Space),,,,,---- -- ----- -- ------ - ------- --- ----------<br>------------- ------ ------ ---- ---- ------- ----- -- ----<br>-------- ------- -- ---------- --- a --- ----- ----- ----<br>---- --- --- ----- --- ---- ---- ------- ----- ---- -------<br>--- --- -- ----- -- --- ---- -- --- ---- -- ------ ------<br>--- ----- -- ----,75193.20000000298,75192.40000000224,74714.918,74729.5,74731.588,75198.469,,23,a
screen,html.Screen,0_2_0_1_24,2021-12-02T14:37:26.769Z,,,,,,,,,,,,,,,,53,,,,,,,,,,,,,,425.83100000074774,,response,,,99,,,,,,Space,keypress(Space),,,,,---- -- ----- -- ------ - ------- --- ----------<br>------------- ------ ------ ---- ---- ------- ----- -- ----<br>-------- ------- -- ---------- --- - new ----- ----- ----<br>---- --- --- ----- --- ---- ---- ------- ----- ---- -------<br>--- --- -- ----- -- --- ---- -- --- ---- -- ------ ------<br>--- ----- -- ----,75625.20000000298,75624.30000000075,75181.798,75193.5,75198.469,75631.766,,24,new
screen,html.Screen,0_2_0_1_25,2021-12-02T14:37:27.241Z,,,,,,,,,,,,,,,,53,,,,,,,,,,,,,,464.5340000007418,,response,,,99,,,,,,Space,keypress(Space),,,,,---- -- ----- -- ------ - ------- --- ----------<br>------------- ------ ------ ---- ---- ------- ----- -- ----<br>-------- ------- -- ---------- --- - --- study ----- ----<br>---- --- --- ----- --- ---- ---- ------- ----- ---- -------<br>--- --- -- ----- -- --- ---- -- --- ---- -- ------ ------<br>--- ----- -- ----,76097.20000000298,76096.30000000075,75615.097,75625.40000000224,75631.766,76098.768,,25,study
screen,html.Screen,0_2_0_1_26,2021-12-02T14:37:27.689Z,,,,,,,,,,,,,,,,53,,,,,,,,,,,,,,445.53200000074867,,response,,,99,,,,,,Space,keypress(Space),,,,,---- -- ----- -- ------ - ------- --- ----------<br>------------- ------ ------ ---- ---- ------- ----- -- ----<br>-------- ------- -- ---------- --- - --- ----- finds ----<br>---- --- --- ----- --- ---- ---- ------- ----- ---- -------<br>--- --- -- ----- -- --- ---- -- --- ---- -- ------ ------<br>--- ----- -- ----,76545.10000000149,76544.30000000075,76082.096,76097.5,76098.768,76548.779,,26,finds
screen,html.Screen,0_2_0_1_27,2021-12-02T14:37:28.209Z,,,,,,,,,,,,,,,,53,,,,,,,,,,,,,,515.5210000007501,,response,,,99,,,,,,Space,keypress(Space),,,,,---- -- ----- -- ------ - ------- --- ----------<br>------------- ------ ------ ---- ---- ------- ----- -- ----<br>-------- ------- -- ---------- --- - --- ----- ----- that<br>---- --- --- ----- --- ---- ---- ------- ----- ---- -------<br>--- --- -- ----- -- --- ---- -- --- ---- -- ------ ------<br>--- ----- -- ----,77065.10000000149,77064.30000000075,76532.109,76545.40000000224,76548.779,77082.132,,27,that
screen,html.Screen,0_2_0_1_28,2021-12-02T14:37:28.705Z,,,,,,,,,,,,,,,,53,,,,,,,,,,,,,,478.16800000074727,,response,,,99,,,,,,Space,keypress(Space),,,,,---- -- ----- -- ------ - ------- --- ----------<br>------------- ------ ------ ---- ---- ------- ----- -- ----<br>-------- ------- -- ---------- --- - --- ----- ----- ----<br>it's --- --- ----- --- ---- ---- ------- ----- ---- -------<br>--- --- -- ----- -- --- ---- -- --- ---- -- ------ ------<br>--- ----- -- ----,77561.20000000298,77560.30000000075,77065.463,77065.5,77082.132,77565.816,,28,it's
screen,html.Screen,0_2_0_1_29,2021-12-02T14:37:29.225Z,,,,,,,,,,,,,,,,53,,,,,,,,,,,,,,514.4840000007389,,response,,,99,,,,,,Space,keypress(Space),,,,,---- -- ----- -- ------ - ------- --- ----------<br>------------- ------ ------ ---- ---- ------- ----- -- ----<br>-------- ------- -- ---------- --- - --- ----- ----- ----<br>---- not --- ----- --- ---- ---- ------- ----- ---- -------<br>--- --- -- ----- -- --- ---- -- --- ---- -- ------ ------<br>--- ----- -- ----,78081.30000000075,78080.30000000075,77549.144,77561.40000000224,77565.816,78082.563,,29,not
screen,html.Screen,0_2_0_1_30,2021-12-02T14:37:29.682Z,,,,,,,,,,,,,,,,53,,,,,,,,,,,,,,454.1370000029856,,response,,,99,,,,,,Space,keypress(Space),,,,,---- -- ----- -- ------ - ------- --- ----------<br>------------- ------ ------ ---- ---- ------- ----- -- ----<br>-------- ------- -- ---------- --- - --- ----- ----- ----<br>---- --- how ----- --- ---- ---- ------- ----- ---- -------<br>--- --- -- ----- -- --- ---- -- --- ---- -- ------ ------<br>--- ----- -- ----,78537.60000000149,78536.70000000298,78065.892,78081.60000000149,78082.563,78549.191,,30,how
screen,html.Screen,0_2_0_1_31,2021-12-02T14:37:30.209Z,,,,,,,,,,,,,,,,53,,,,,,,,,,,,,,515.1090000007389,,response,,,99,,,,,,Space,keypress(Space),,,,,---- -- ----- -- ------ - ------- --- ----------<br>------------- ------ ------ ---- ---- ------- ----- -- ----<br>-------- ------- -- ---------- --- - --- ----- ----- ----<br>---- --- --- close --- ---- ---- ------- ----- ---- -------<br>--- --- -- ----- -- --- ---- -- --- ---- -- ------ ------<br>--- ----- -- ----,79065.10000000149,79064.30000000075,78532.522,78537.80000000075,78549.191,79066.22,,31,close
screen,html.Screen,0_2_0_1_32,2021-12-02T14:37:30.665Z,,,,,,,,,,,,,,,,53,,,,,,,,,,,,,,454.0800000007439,,response,,,99,,,,,,Space,keypress(Space),,,,,---- -- ----- -- ------ - ------- --- ----------<br>------------- ------ ------ ---- ---- ------- ----- -- ----<br>-------- ------- -- ---------- --- - --- ----- ----- ----<br>---- --- --- ----- you ---- ---- ------- ----- ---- -------<br>--- --- -- ----- -- --- ---- -- --- ---- -- ------ ------<br>--- ----- -- ----,79521.10000000149,79520.30000000075,79049.548,79065.30000000075,79066.22,79532.9,,32,you
screen,html.Screen,0_2_0_1_33,2021-12-02T14:37:31.153Z,,,,,,,,,,,,,,,,53,,,,,,,,,,,,,,475.30000000298605,,response,,,99,,,,,,Space,keypress(Space),,,,,---- -- ----- -- ------ - ------- --- ----------<br>------------- ------ ------ ---- ---- ------- ----- -- ----<br>-------- ------- -- ---------- --- - --- ----- ----- ----<br>---- --- --- ----- --- feel ---- ------- ----- ---- -------<br>--- --- -- ----- -- --- ---- -- --- ---- -- ------ ------<br>--- ----- -- ----,80009,80008.20000000298,79516.23,79521.20000000298,79532.9,80016.367,,33,feel
screen,html.Screen,0_2_0_1_34,2021-12-02T14:37:31.689Z,,,,,,,,,,,,,,,,53,,,,,,,,,,,,,,527.8330000029819,,response,,,99,,,,,,Space,keypress(Space),,,,,---- -- ----- -- ------ - ------- --- ----------<br>------------- ------ ------ ---- ---- ------- ----- -- ----<br>-------- ------- -- ---------- --- - --- ----- ----- ----<br>---- --- --- ----- --- ---- that ------- ----- ---- -------<br>--- --- -- ----- -- --- ---- -- --- ---- -- ------ ------<br>--- ----- -- ----,80544.90000000224,80544.20000000298,79999.697,80009.30000000075,80016.367,80549.809,,34,that
screen,html.Screen,0_2_0_1_35,2021-12-02T14:37:32.177Z,,,,,,,,,,,,,,,,53,,,,,,,,,,,,,,482.3910000029864,,response,,,99,,,,,,Space,keypress(Space),,,,,---- -- ----- -- ------ - ------- --- ----------<br>------------- ------ ------ ---- ---- ------- ----- -- ----<br>-------- ------- -- ---------- --- - --- ----- ----- ----<br>---- --- --- ----- --- ---- ---- matters ----- ---- -------<br>--- --- -- ----- -- --- ---- -- --- ---- -- ------ ------<br>--- ----- -- ----,81032.90000000224,81032.20000000298,80533.139,80545.10000000149,80549.809,81050.019,,35,matters
screen,html.Screen,0_2_0_1_36,2021-12-02T14:37:32.657Z,,,,,,,,,,,,,,,,53,,,,,,,,,,,,,,462.0810000014899,,response,,,99,,,,,,Space,keypress(Space),,,,,"---- -- ----- -- ------ - ------- --- ----------<br>------------- ------ ------ ---- ---- ------- ----- -- ----<br>-------- ------- -- ---------- --- - --- ----- ----- ----<br>---- --- --- ----- --- ---- ---- ------- most, ---- -------<br>--- --- -- ----- -- --- ---- -- --- ---- -- ------ ------<br>--- ----- -- ----",81513,81512.10000000149,81033.348,81033.10000000149,81050.019,81516.755,,36,"most,"
screen,html.Screen,0_2_0_1_37,2021-12-02T14:37:33.113Z,,,,,,,,,,,,,,,,53,,,,,,,,,,,,,,451.34500000148546,,response,,,99,,,,,,Space,keypress(Space),,,,,---- -- ----- -- ------ - ------- --- ----------<br>------------- ------ ------ ---- ---- ------- ----- -- ----<br>-------- ------- -- ---------- --- - --- ----- ----- ----<br>---- --- --- ----- --- ---- ---- ------- ----- it's -------<br>--- --- -- ----- -- --- ---- -- --- ---- -- ------ ------<br>--- ----- -- ----,81968.90000000224,81968.10000000149,81500.085,81513.30000000075,81516.755,81983.432,,37,it's
screen,html.Screen,0_2_0_1_38,2021-12-02T14:37:33.641Z,,,,,,,,,,,,,,,,53,,,,,,,,,,,,,,512.5679999999993,,response,,,99,,,,,,Space,keypress(Space),,,,,---- -- ----- -- ------ - ------- --- ----------<br>------------- ------ ------ ---- ---- ------- ----- -- ----<br>-------- ------- -- ---------- --- - --- ----- ----- ----<br>---- --- --- ----- --- ---- ---- ------- ----- ---- whether<br>--- --- -- ----- -- --- ---- -- --- ---- -- ------ ------<br>--- ----- -- ----,82496.80000000075,82496,81966.763,81969.10000000149,81983.432,82500.438,,38,whether
screen,html.Screen,0_2_0_1_39,2021-12-02T14:37:34.113Z,,,,,,,,,,,,,,,,53,,,,,,,,,,,,,,467.56200000000536,,response,,,99,,,,,,Space,keypress(Space),,,,,---- -- ----- -- ------ - ------- --- ----------<br>------------- ------ ------ ---- ---- ------- ----- -- ----<br>-------- ------- -- ---------- --- - --- ----- ----- ----<br>---- --- --- ----- --- ---- ---- ------- ----- ---- -------<br>you --- -- ----- -- --- ---- -- --- ---- -- ------ ------<br>--- ----- -- ----,82968.80000000075,82968,82483.766,82497,82500.438,82983.858,,39,you
screen,html.Screen,0_2_0_1_40,2021-12-02T14:37:34.521Z,,,,,,,,,,,,,,,,53,,,,,,,,,,,,,,392.2420000014972,,response,,,99,,,,,,Space,keypress(Space),,,,,---- -- ----- -- ------ - ------- --- ----------<br>------------- ------ ------ ---- ---- ------- ----- -- ----<br>-------- ------- -- ---------- --- - --- ----- ----- ----<br>---- --- --- ----- --- ---- ---- ------- ----- ---- -------<br>--- are -- ----- -- --- ---- -- --- ---- -- ------ ------<br>--- ----- -- ----,83376.80000000075,83376.10000000149,82967.187,82969.10000000149,82983.858,83383.977,,40,are
screen,html.Screen,0_2_0_1_41,2021-12-02T14:37:34.889Z,,,,,,,,,,,,,,,,53,,,,,,,,,,,,,,360.02300000000105,,response,,,99,,,,,,Space,keypress(Space),,,,,---- -- ----- -- ------ - ------- --- ----------<br>------------- ------ ------ ---- ---- ------- ----- -- ----<br>-------- ------- -- ---------- --- - --- ----- ----- ----<br>---- --- --- ----- --- ---- ---- ------- ----- ---- -------<br>--- --- as ----- -- --- ---- -- --- ---- -- ------ ------<br>--- ----- -- ----,83744.90000000224,83744,83367.306,83377.10000000149,83383.977,83750.682,,41,as
screen,html.Screen,0_2_0_1_42,2021-12-02T14:37:35.321Z,,,,,,,,,,,,,,,,53,,,,,,,,,,,,,,425.2180000022345,,response,,,99,,,,,,Space,keypress(Space),,,,,---- -- ----- -- ------ - ------- --- ----------<br>------------- ------ ------ ---- ---- ------- ----- -- ----<br>-------- ------- -- ---------- --- - --- ----- ----- ----<br>---- --- --- ----- --- ---- ---- ------- ----- ---- -------<br>--- --- -- close -- --- ---- -- --- ---- -- ------ ------<br>--- ----- -- ----,84176.80000000075,84175.90000000224,83734.012,83745.10000000149,83750.682,84184.151,,42,close
screen,html.Screen,0_2_0_1_43,2021-12-02T14:37:35.705Z,,,,,,,,,,,,,,,,53,,,,,,,,,,,,,,375.849000000002,,response,,,99,,,,,,Space,keypress(Space),,,,,---- -- ----- -- ------ - ------- --- ----------<br>------------- ------ ------ ---- ---- ------- ----- -- ----<br>-------- ------- -- ---------- --- - --- ----- ----- ----<br>---- --- --- ----- --- ---- ---- ------- ----- ---- -------<br>--- --- -- ----- as --- ---- -- --- ---- -- ------ ------<br>--- ----- -- ----,84560.80000000075,84560,84167.481,84177,84184.151,84567.55,,43,as
screen,html.Screen,0_2_0_1_44,2021-12-02T14:37:36.105Z,,,,,,,,,,,,,,,,53,,,,,,,,,,,,,,392.4499999999971,,response,,,99,,,,,,Space,keypress(Space),,,,,---- -- ----- -- ------ - ------- --- ----------<br>------------- ------ ------ ---- ---- ------- ----- -- ----<br>-------- ------- -- ---------- --- - --- ----- ----- ----<br>---- --- --- ----- --- ---- ---- ------- ----- ---- -------<br>--- --- -- ----- -- you ---- -- --- ---- -- ------ ------<br>--- ----- -- ----,84960.70000000298,84960,84550.88,84561,84567.55,84967.725,,44,you
screen,html.Screen,0_2_0_1_45,2021-12-02T14:37:36.521Z,,,,,,,,,,,,,,,,53,,,,,,,,,,,,,,408.2749999999942,,response,,,99,,,,,,Space,keypress(Space),,,,,---- -- ----- -- ------ - ------- --- ----------<br>------------- ------ ------ ---- ---- ------- ----- -- ----<br>-------- ------- -- ---------- --- - --- ----- ----- ----<br>---- --- --- ----- --- ---- ---- ------- ----- ---- -------<br>--- --- -- ----- -- --- want -- --- ---- -- ------ ------<br>--- ----- -- ----,85376.80000000075,85376,84951.054,84961,84967.725,85384.298,,45,want
screen,html.Screen,0_2_0_1_46,2021-12-02T14:37:36.921Z,,,,,,,,,,,,,,,,53,,,,,,,,,,,,,,391.7020000000048,,response,,,99,,,,,,Space,keypress(Space),,,,,---- -- ----- -- ------ - ------- --- ----------<br>------------- ------ ------ ---- ---- ------- ----- -- ----<br>-------- ------- -- ---------- --- - --- ----- ----- ----<br>---- --- --- ----- --- ---- ---- ------- ----- ---- -------<br>--- --- -- ----- -- --- ---- to --- ---- -- ------ ------<br>--- ----- -- ----,85776.70000000298,85776,85367.63,85377,85384.298,85784.696,,46,to
screen,html.Screen,0_2_0_1_47,2021-12-02T14:37:37.417Z,,,,,,,,,,,,,,,,53,,,,,,,,,,,,,,487.1040000007488,,response,,,99,,,,,,Space,keypress(Space),,,,,"---- -- ----- -- ------ - ------- --- ----------<br>------------- ------ ------ ---- ---- ------- ----- -- ----<br>-------- ------- -- ---------- --- - --- ----- ----- ----<br>---- --- --- ----- --- ---- ---- ------- ----- ---- -------<br>--- --- -- ----- -- --- ---- -- be, ---- -- ------ ------<br>--- ----- -- ----",86272.70000000298,86271.80000000075,85768.023,85777,85784.696,86284.681,,47,"be,"
screen,html.Screen,0_2_0_1_48,2021-12-02T14:37:38.041Z,,,,,,,,,,,,,,,,53,,,,,,,,,,,,,,611.1190000007482,,response,,,99,,,,,,Space,keypress(Space),,,,,---- -- ----- -- ------ - ------- --- ----------<br>------------- ------ ------ ---- ---- ------- ----- -- ----<br>-------- ------- -- ---------- --- - --- ----- ----- ----<br>---- --- --- ----- --- ---- ---- ------- ----- ---- -------<br>--- --- -- ----- -- --- ---- -- --- even -- ------ ------<br>--- ----- -- ----,86896.60000000149,86895.80000000075,86268.011,86272.80000000075,86284.681,86901.526,,48,even
screen,html.Screen,0_2_0_1_49,2021-12-02T14:37:38.569Z,,,,,,,,,,,,,,,,53,,,,,,,,,,,,,,522.274000000747,,response,,,99,,,,,,Space,keypress(Space),,,,,---- -- ----- -- ------ - ------- --- ----------<br>------------- ------ ------ ---- ---- ------- ----- -- ----<br>-------- ------- -- ---------- --- - --- ----- ----- ----<br>---- --- --- ----- --- ---- ---- ------- ----- ---- -------<br>--- --- -- ----- -- --- ---- -- --- ---- if ------ ------<br>--- ----- -- ----,87424.70000000298,87423.80000000075,86884.856,86896.90000000224,86901.526,87435.005,,49,if
screen,html.Screen,0_2_0_1_50,2021-12-02T14:37:39.064Z,,,,,,,,,,,,,,,,53,,,,,,,,,,,,,,484.7950000007404,,response,,,99,,,,,,Space,keypress(Space),,,,,---- -- ----- -- ------ - ------- --- ----------<br>------------- ------ ------ ---- ---- ------- ----- -- ----<br>-------- ------- -- ---------- --- - --- ----- ----- ----<br>---- --- --- ----- --- ---- ---- ------- ----- ---- -------<br>--- --- -- ----- -- --- ---- -- --- ---- -- that's ------<br>--- ----- -- ----,87920.60000000149,87919.80000000075,87418.335,87425,87435.005,87935.137,,50,that's
screen,html.Screen,0_2_0_1_51,2021-12-02T14:37:39.544Z,,,,,,,,,,,,,,,,53,,,,,,,,,,,,,,464.5630000029778,,response,,,99,,,,,,Space,keypress(Space),,,,,---- -- ----- -- ------ - ------- --- ----------<br>------------- ------ ------ ---- ---- ------- ----- -- ----<br>-------- ------- -- ---------- --- - --- ----- ----- ----<br>---- --- --- ----- --- ---- ---- ------- ----- ---- -------<br>--- --- -- ----- -- --- ---- -- --- ---- -- ------ really<br>--- ----- -- ----,88400.5,88399.70000000298,87918.467,87920.80000000075,87935.137,88401.973,,51,really
screen,html.Screen,0_2_0_1_52,2021-12-02T14:37:40.048Z,,,,,,,,,,,,,,,,53,,,,,,,,,,,,,,501.627000001492,,response,,,99,,,,,,Space,keypress(Space),,,,,---- -- ----- -- ------ - ------- --- ----------<br>------------- ------ ------ ---- ---- ------- ----- -- ----<br>-------- ------- -- ---------- --- - --- ----- ----- ----<br>---- --- --- ----- --- ---- ---- ------- ----- ---- -------<br>--- --- -- ----- -- --- ---- -- --- ---- -- ------ ------<br>not ----- -- ----,88904.10000000149,88903.60000000149,88385.302,88400.70000000298,88401.973,88918.735,,52,not
screen,html.Screen,0_2_0_1_53,2021-12-02T14:37:40.480Z,,,,,,,,,,,,,,,,53,,,,,,,,,,,,,,417.0650000007445,,response,,,99,,,,,,Space,keypress(Space),,,,,---- -- ----- -- ------ - ------- --- ----------<br>------------- ------ ------ ---- ---- ------- ----- -- ----<br>-------- ------- -- ---------- --- - --- ----- ----- ----<br>---- --- --- ----- --- ---- ---- ------- ----- ---- -------<br>--- --- -- ----- -- --- ---- -- --- ---- -- ------ ------<br>--- close -- ----,89336.5,89335.80000000075,88902.065,88904.30000000075,88918.735,89352.168,,53,close
screen,html.Screen,0_2_0_1_54,2021-12-02T14:37:40.920Z,,,,,,,,,,,,,,,,53,,,,,,,,,,,,,,423.5320000029751,,response,,,99,,,,,,Space,keypress(Space),,,,,---- -- ----- -- ------ - ------- --- ----------<br>------------- ------ ------ ---- ---- ------- ----- -- ----<br>-------- ------- -- ---------- --- - --- ----- ----- ----<br>---- --- --- ----- --- ---- ---- ------- ----- ---- -------<br>--- --- -- ----- -- --- ---- -- --- ---- -- ------ ------<br>--- ----- at ----,89776.5,89775.70000000298,89335.498,89336.80000000075,89352.168,89785.636,,54,at
screen,html.Screen,0_2_0_1_55,2021-12-02T14:37:41.728Z,,,,,,,,,,,,,,,,53,,,,,,,,,,,,,,798.0640000029816,,response,,,99,,,,,,Space,keypress(Space),,,,,---- -- ----- -- ------ - ------- --- ----------<br>------------- ------ ------ ---- ---- ------- ----- -- ----<br>-------- ------- -- ---------- --- - --- ----- ----- ----<br>---- --- --- ----- --- ---- ---- ------- ----- ---- -------<br>--- --- -- ----- -- --- ---- -- --- ---- -- ------ ------<br>--- ----- -- all.,90584.5,90583.70000000298,89768.966,89776.80000000075,89785.636,90602.359,,55,all.
Item 99,flow.Loop,0_2_0_1,2021-12-02T14:37:41.733Z,,,,,,,,,,,,,,,,,,,,,,,,,,,,,,34073.73000000298,,completion,,,,A,,,,,,,,,,silence,,90589,90583.70000000298,56493.3,56499.5,56509.97,90602.359,,,
Question 1,html.Screen,0_2_0_2,2021-12-02T14:37:48.441Z,,,,,,,,,,,,,,,,,,,,,,,,,,,false,FALSE,,6692.741000001493,,response,,,99,A,,,,,TRUE,click #choice-1,,,,silence,,97296.60000000149,97295.10000000149,90585.69,90589.30000000075,90602.359,97304.303,,,
Question 2,html.Screen,0_2_0_3,2021-12-02T14:37:52.672Z,,,,,,,,,,,,,,,,,,,,,,,,,,,false,TRUE,,4222.697,,response,,,99,A,,,,,FALSE,click #choice-2,,,,silence,,101528.10000000149,101527,97287.633,97296.80000000075,97304.303,101538.795,,,
Item 99,flow.Sequence,0_2_0,2021-12-02T14:37:52.672Z,,,,,,,,,,,,,,,,,,,,,,,,,,,,,,55019.741,,completion,,,,,,,,,,,,,,,,101528.5,101527,46490.589,46499.70000000298,46507.259,101538.795,,,
Holding screen,html.Screen,0_2_1_0,2021-12-02T14:38:02.670Z,,,,,,,,,,,,,,,,,,,,,,,,,,,,,,10002.472999999998,,timeout,,,,,,,,,,,,,,,,111526.20000000298,111524.598,101522.123,101528.90000000224,101538.795,111541.268,,,
screen,html.Screen,0_2_1_1_0,2021-12-02T14:38:03.632Z,,,,,,,,,,,,,,,,54,,,,,,,,,,,,,,945.8320000014937,,response,,,100,,,,,,Space,keypress(Space),,,,,At --- ---- --- ------ ----- ------- ---- -- --- ------- --<br>------- ---------- ------ -- ----- -- ----- -- ---- ------<br>--- ----- --- --- ------ -------- ----- --- ------ ----- --<br>----- ----- ---------- --- --- ------ ------ ---- -- ------<br>------- --- ------ ----- --- ---- ------- -- ---- --- --<br>------- ------,112487.90000000224,112487.10000000149,111524.598,111526.70000000298,111541.268,112491.74,,0,At
screen,html.Screen,0_2_1_1_1,2021-12-02T14:38:04.135Z,,,,,,,,,,,,,,,,54,,,,,,,,,,,,,,498.960000002975,,response,,,100,,,,,,Space,keypress(Space),,,,,-- the ---- --- ------ ----- ------- ---- -- --- ------- --<br>------- ---------- ------ -- ----- -- ----- -- ---- ------<br>--- ----- --- --- ------ -------- ----- --- ------ ----- --<br>----- ----- ---------- --- --- ------ ------ ---- -- ------<br>------- --- ------ ----- --- ---- ------- -- ---- --- --<br>------- ------,112991.5,112990.70000000298,112475.069,112488.30000000075,112491.74,113008.371,,1,the
screen,html.Screen,0_2_1_1_2,2021-12-02T14:38:04.567Z,,,,,,,,,,,,,,,,54,,,,,,,,,,,,,,414.32900000298105,,response,,,100,,,,,,Space,keypress(Space),,,,,-- --- time --- ------ ----- ------- ---- -- --- ------- --<br>------- ---------- ------ -- ----- -- ----- -- ---- ------<br>--- ----- --- --- ------ -------- ----- --- ------ ----- --<br>----- ----- ---------- --- --- ------ ------ ---- -- ------<br>------- --- ------ ----- --- ---- ------- -- ---- --- --<br>------- ------,113423.40000000224,113422.70000000298,112991.701,112991.70000000298,113008.371,113425.31,,2,time
screen,html.Screen,0_2_1_1_3,2021-12-02T14:38:04.935Z,,,,,,,,,,,,,,,,54,,,,,,,,,,,,,,365.39000000298256,,response,,,100,,,,,,Space,keypress(Space),,,,,-- --- ---- the ------ ----- ------- ---- -- --- ------- --<br>------- ---------- ------ -- ----- -- ----- -- ---- ------<br>--- ----- --- --- ------ -------- ----- --- ------ ----- --<br>----- ----- ---------- --- --- ------ ------ ---- -- ------<br>------- --- ------ ----- --- ---- ------- -- ---- --- --<br>------- ------,113791.40000000224,113790.70000000298,113408.639,113423.70000000298,113425.31,113808.698,,3,the
screen,html.Screen,0_2_1_1_4,2021-12-02T14:38:05.271Z,,,,,,,,,,,,,,,,54,,,,,,,,,,,,,,317.90200000148616,,response,,,100,,,,,,Space,keypress(Space),,,,,-- --- ---- --- French ----- ------- ---- -- --- ------- --<br>------- ---------- ------ -- ----- -- ----- -- ---- ------<br>--- ----- --- --- ------ -------- ----- --- ------ ----- --<br>----- ----- ---------- --- --- ------ ------ ---- -- ------<br>------- --- ------ ----- --- ---- ------- -- ---- --- --<br>------- ------,114127.40000000224,114126.60000000149,113792.028,113791.70000000298,113808.698,114142.125,,4,French
screen,html.Screen,0_2_1_1_5,2021-12-02T14:38:05.679Z,,,,,,,,,,,,,,,,54,,,,,,,,,,,,,,392.4750000014901,,response,,,100,,,,,,Space,keypress(Space),,,,,-- --- ---- --- ------ crown ------- ---- -- --- ------- --<br>------- ---------- ------ -- ----- -- ----- -- ---- ------<br>--- ----- --- --- ------ -------- ----- --- ------ ----- --<br>----- ----- ---------- --- --- ------ ------ ---- -- ------<br>------- --- ------ ----- --- ---- ------- -- ---- --- --<br>------- ------,114535.30000000075,114534.60000000149,114125.455,114127.70000000298,114142.125,114542.191,,5,crown
screen,html.Screen,0_2_1_1_6,2021-12-02T14:38:06.055Z,,,,,,,,,,,,,,,,54,,,,,,,,,,,,,,368.50900000297406,,response,,,100,,,,,,Space,keypress(Space),,,,,-- --- ---- --- ------ ----- secured ---- -- --- ------- --<br>------- ---------- ------ -- ----- -- ----- -- ---- ------<br>--- ----- --- --- ------ -------- ----- --- ------ ----- --<br>----- ----- ---------- --- --- ------ ------ ---- -- ------<br>------- --- ------ ----- --- ---- ------- -- ---- --- --<br>------- ------,114911.5,114910.70000000298,114525.521,114535.60000000149,114542.191,114925.51,,6,secured
screen,html.Screen,0_2_1_1_7,2021-12-02T14:38:06.479Z,,,,,,,,,,,,,,,,54,,,,,,,,,,,,,,409.09000000149535,,response,,,100,,,,,,Space,keypress(Space),,,,,-- --- ---- --- ------ ----- ------- much -- --- ------- --<br>------- ---------- ------ -- ----- -- ----- -- ---- ------<br>--- ----- --- --- ------ -------- ----- --- ------ ----- --<br>----- ----- ---------- --- --- ------ ------ ---- -- ------<br>------- --- ------ ----- --- ---- ------- -- ---- --- --<br>------- ------,115335.40000000224,115334.60000000149,114908.842,114911.70000000298,114925.51,115342.547,,7,much
screen,html.Screen,0_2_1_1_8,2021-12-02T14:38:06.895Z,,,,,,,,,,,,,,,,54,,,,,,,,,,,,,,408.1530000029743,,response,,,100,,,,,,Space,keypress(Space),,,,,-- --- ---- --- ------ ----- ------- ---- of --- ------- --<br>------- ---------- ------ -- ----- -- ----- -- ---- ------<br>--- ----- --- --- ------ -------- ----- --- ------ ----- --<br>----- ----- ---------- --- --- ------ ------ ---- -- ------<br>------- --- ------ ----- --- ---- ------- -- ---- --- --<br>------- ------,115751.40000000224,115750.70000000298,115325.874,115335.70000000298,115342.547,115759.187,,8,of
screen,html.Screen,0_2_1_1_9,2021-12-02T14:38:07.303Z,,,,,,,,,,,,,,,,54,,,,,,,,,,,,,,399.31299999999464,,response,,,100,,,,,,Space,keypress(Space),,,,,-- --- ---- --- ------ ----- ------- ---- -- its ------- --<br>------- ---------- ------ -- ----- -- ----- -- ---- ------<br>--- ----- --- --- ------ -------- ----- --- ------ ----- --<br>----- ----- ---------- --- --- ------ ------ ---- -- ------<br>------- --- ------ ----- --- ---- ------- -- ---- --- --<br>------- ------,116159.30000000075,116158.5,115742.517,115751.70000000298,115759.187,116175.967,,9,its
screen,html.Screen,0_2_1_1_10,2021-12-02T14:38:07.759Z,,,,,,,,,,,,,,,,54,,,,,,,,,,,,,,438.5329999999958,,response,,,100,,,,,,Space,keypress(Space),,,,,-- --- ---- --- ------ ----- ------- ---- -- --- revenue --<br>------- ---------- ------ -- ----- -- ----- -- ---- ------<br>--- ----- --- --- ------ -------- ----- --- ------ ----- --<br>----- ----- ---------- --- --- ------ ------ ---- -- ------<br>------- --- ------ ----- --- ---- ------- -- ---- --- --<br>------- ------,116615.20000000298,116614.5,116159.297,116159.5,116175.967,116626.083,,10,revenue
screen,html.Screen,0_2_1_1_11,2021-12-02T14:38:08.391Z,,,,,,,,,,,,,,,,54,,,,,,,,,,,,,,620.3170000022365,,response,,,100,,,,,,Space,keypress(Space),,,,,-- --- ---- --- ------ ----- ------- ---- -- --- ------- by<br>------- ---------- ------ -- ----- -- ----- -- ---- ------<br>--- ----- --- --- ------ -------- ----- --- ------ ----- --<br>----- ----- ---------- --- --- ------ ------ ---- -- ------<br>------- --- ------ ----- --- ---- ------- -- ---- --- --<br>------- ------,117247.20000000298,117246.40000000224,116609.413,116615.5,116626.083,117259.588,,11,by
screen,html.Screen,0_2_1_1_12,2021-12-02T14:38:08.895Z,,,,,,,,,,,,,,,,54,,,,,,,,,,,,,,490.8120000022318,,response,,,100,,,,,,Space,keypress(Space),,,,,-- --- ---- --- ------ ----- ------- ---- -- --- ------- --<br>issuing ---------- ------ -- ----- -- ----- -- ---- ------<br>--- ----- --- --- ------ -------- ----- --- ------ ----- --<br>----- ----- ---------- --- --- ------ ------ ---- -- ------<br>------- --- ------ ----- --- ---- ------- -- ---- --- --<br>------- ------,117751.20000000298,117750.40000000224,117242.918,117247.40000000224,117259.588,117759.729,,12,issuing
screen,html.Screen,0_2_1_1_13,2021-12-02T14:38:10.031Z,,,,,,,,,,,,,,,,54,,,,,,,,,,,,,,1126.6710000022285,,response,,,100,,,,,,Space,keypress(Space),,,,,-- --- ---- --- ------ ----- ------- ---- -- --- ------- --<br>------- government ------ -- ----- -- ----- -- ---- ------<br>--- ----- --- --- ------ -------- ----- --- ------ ----- --<br>----- ----- ---------- --- --- ------ ------ ---- -- ------<br>------- --- ------ ----- --- ---- ------- -- ---- --- --<br>------- ------,118887.10000000149,118886.40000000224,117743.059,117751.40000000224,117759.729,118893.405,,13,government
screen,html.Screen,0_2_1_1_14,2021-12-02T14:38:10.535Z,,,,,,,,,,,,,,,,54,,,,,,,,,,,,,,496.99500000223634,,response,,,100,,,,,,Space,keypress(Space),,,,,-- --- ---- --- ------ ----- ------- ---- -- --- ------- --<br>------- ---------- bonds. -- ----- -- ----- -- ---- ------<br>--- ----- --- --- ------ -------- ----- --- ------ ----- --<br>----- ----- ---------- --- --- ------ ------ ---- -- ------<br>------- --- ------ ----- --- ---- ------- -- ---- --- --<br>------- ------,119391.10000000149,119390.40000000224,118876.734,118887.5,118893.405,119393.457,,14,bonds.
screen,html.Screen,0_2_1_1_15,2021-12-02T14:38:11.015Z,,,,,,,,,,,,,,,,54,,,,,,,,,,,,,,476.8430000007502,,response,,,100,,,,,,Space,keypress(Space),,,,,-- --- ---- --- ------ ----- ------- ---- -- --- ------- --<br>------- ---------- ------ In ----- -- ----- -- ---- ------<br>--- ----- --- --- ------ -------- ----- --- ------ ----- --<br>----- ----- ---------- --- --- ------ ------ ---- -- ------<br>------- --- ------ ----- --- ---- ------- -- ---- --- --<br>------- ------,119871,119870.30000000075,119376.787,119391.30000000075,119393.457,119876.97,,15,In
screen,html.Screen,0_2_1_1_16,2021-12-02T14:38:12.234Z,,,,,,,,,,,,,,,,54,,,,,,,,,,,,,,1209.330000000744,,response,,,100,,,,,,Space,keypress(Space),,,,,"-- --- ---- --- ------ ----- ------- ---- -- --- ------- --<br>------- ---------- ------ -- 1727, -- ----- -- ---- ------<br>--- ----- --- --- ------ -------- ----- --- ------ ----- --<br>----- ----- ---------- --- --- ------ ------ ---- -- ------<br>------- --- ------ ----- --- ---- ------- -- ---- --- --<br>------- ------",121087,121086.30000000075,119860.3,119871.30000000075,119876.97,121093.909,,16,"1727,"
screen,html.Screen,0_2_1_1_17,2021-12-02T14:38:12.690Z,,,,,,,,,,,,,,,,54,,,,,,,,,,,,,,448.2910000029806,,response,,,100,,,,,,Space,keypress(Space),,,,,-- --- ---- --- ------ ----- ------- ---- -- --- ------- --<br>------- ---------- ------ -- ----- in ----- -- ---- ------<br>--- ----- --- --- ------ -------- ----- --- ------ ----- --<br>----- ----- ---------- --- --- ------ ------ ---- -- ------<br>------- --- ------ ----- --- ---- ------- -- ---- --- --<br>------- ------,121543,121542.20000000298,121077.239,121087.30000000075,121093.909,121544.133,,17,in
screen,html.Screen,0_2_1_1_18,2021-12-02T14:38:13.106Z,,,,,,,,,,,,,,,,54,,,,,,,,,,,,,,414.1670000007434,,response,,,100,,,,,,Space,keypress(Space),,,,,-- --- ---- --- ------ ----- ------- ---- -- --- ------- --<br>------- ---------- ------ -- ----- -- order -- ---- ------<br>--- ----- --- --- ------ -------- ----- --- ------ ----- --<br>----- ----- ---------- --- --- ------ ------ ---- -- ------<br>------- --- ------ ----- --- ---- ------- -- ---- --- --<br>------- ------,121959,121958.30000000075,121527.462,121543.20000000298,121544.133,121960.849,,18,order
screen,html.Screen,0_2_1_1_19,2021-12-02T14:38:13.626Z,,,,,,,,,,,,,,,,54,,,,,,,,,,,,,,517.2510000014881,,response,,,100,,,,,,Space,keypress(Space),,,,,-- --- ---- --- ------ ----- ------- ---- -- --- ------- --<br>------- ---------- ------ -- ----- -- ----- to ---- ------<br>--- ----- --- --- ------ -------- ----- --- ------ ----- --<br>----- ----- ---------- --- --- ------ ------ ---- -- ------<br>------- --- ------ ----- --- ---- ------- -- ---- --- --<br>------- ------,122479,122478.10000000149,121944.179,121959.30000000075,121960.849,122494.282,,19,to
screen,html.Screen,0_2_1_1_20,2021-12-02T14:38:14.026Z,,,,,,,,,,,,,,,,54,,,,,,,,,,,,,,384.2179999999935,,response,,,100,,,,,,Space,keypress(Space),,,,,-- --- ---- --- ------ ----- ------- ---- -- --- ------- --<br>------- ---------- ------ -- ----- -- ----- -- save ------<br>--- ----- --- --- ------ -------- ----- --- ------ ----- --<br>----- ----- ---------- --- --- ------ ------ ---- -- ------<br>------- --- ------ ----- --- ---- ------- -- ---- --- --<br>------- ------,122879.40000000224,122878.5,122477.612,122479.20000000298,122494.282,122894.494,,20,save
screen,html.Screen,0_2_1_1_21,2021-12-02T14:38:14.609Z,,,,,,,,,,,,,,,,54,,,,,,,,,,,,,,567.4060000022291,,response,,,100,,,,,,Space,keypress(Space),,,,,"-- --- ---- --- ------ ----- ------- ---- -- --- ------- --<br>------- ---------- ------ -- ----- -- ----- -- ---- money,<br>--- ----- --- --- ------ -------- ----- --- ------ ----- --<br>----- ----- ---------- --- --- ------ ------ ---- -- ------<br>------- --- ------ ----- --- ---- ------- -- ---- --- --<br>------- ------",123462.30000000075,123461.90000000224,122877.823,122879.5,122894.494,123477.892,,21,"money,"
screen,html.Screen,0_2_1_1_22,2021-12-02T14:38:15.049Z,,,,,,,,,,,,,,,,54,,,,,,,,,,,,,,424.208000001483,,response,,,100,,,,,,Space,keypress(Space),,,,,-- --- ---- --- ------ ----- ------- ---- -- --- ------- --<br>------- ---------- ------ -- ----- -- ----- -- ---- ------<br>the ----- --- --- ------ -------- ----- --- ------ ----- --<br>----- ----- ---------- --- --- ------ ------ ---- -- ------<br>------- --- ------ ----- --- ---- ------- -- ---- --- --<br>------- ------,123902.90000000224,123902.10000000149,123461.222,123462.40000000224,123477.892,123911.37,,22,the
screen,html.Screen,0_2_1_1_23,2021-12-02T14:38:15.529Z,,,,,,,,,,,,,,,,54,,,,,,,,,,,,,,470.7300000014948,,response,,,100,,,,,,Space,keypress(Space),,,,,-- --- ---- --- ------ ----- ------- ---- -- --- ------- --<br>------- ---------- ------ -- ----- -- ----- -- ---- ------<br>--- state --- --- ------ -------- ----- --- ------ ----- --<br>----- ----- ---------- --- --- ------ ------ ---- -- ------<br>------- --- ------ ----- --- ---- ------- -- ---- --- --<br>------- ------,124382.80000000075,124382.10000000149,123894.7,123903,123911.37,124394.71,,23,state
screen,html.Screen,0_2_1_1_24,2021-12-02T14:38:16.026Z,,,,,,,,,,,,,,,,54,,,,,,,,,,,,,,483.3900000014837,,response,,,100,,,,,,Space,keypress(Space),,,,,-- --- ---- --- ------ ----- ------- ---- -- --- ------- --<br>------- ---------- ------ -- ----- -- ----- -- ---- ------<br>--- ----- cut --- ------ -------- ----- --- ------ ----- --<br>----- ----- ---------- --- --- ------ ------ ---- -- ------<br>------- --- ------ ----- --- ---- ------- -- ---- --- --<br>------- ------,124879,124878.10000000149,124378.041,124383,124394.71,124895.047,,24,cut
screen,html.Screen,0_2_1_1_25,2021-12-02T14:38:16.441Z,,,,,,,,,,,,,,,,54,,,,,,,,,,,,,,399.0530000014842,,response,,,100,,,,,,Space,keypress(Space),,,,,-- --- ---- --- ------ ----- ------- ---- -- --- ------- --<br>------- ---------- ------ -- ----- -- ----- -- ---- ------<br>--- ----- --- the ------ -------- ----- --- ------ ----- --<br>----- ----- ---------- --- --- ------ ------ ---- -- ------<br>------- --- ------ ----- --- ---- ------- -- ---- --- --<br>------- ------,125294.80000000075,125294.10000000149,124878.375,124879.20000000298,124895.047,125311.644,,25,the
screen,html.Screen,0_2_1_1_26,2021-12-02T14:38:16.945Z,,,,,,,,,,,,,,,,54,,,,,,,,,,,,,,486.4560000014899,,response,,,100,,,,,,Space,keypress(Space),,,,,-- --- ---- --- ------ ----- ------- ---- -- --- ------- --<br>------- ---------- ------ -- ----- -- ----- -- ---- ------<br>--- ----- --- --- bonds' -------- ----- --- ------ ----- --<br>----- ----- ---------- --- --- ------ ------ ---- -- ------<br>------- --- ------ ----- --- ---- ------- -- ---- --- --<br>------- ------,125798.80000000075,125798.10000000149,125294.975,125295.10000000149,125311.644,125811.959,,26,bonds'
screen,html.Screen,0_2_1_1_27,2021-12-02T14:38:17.425Z,,,,,,,,,,,,,,,,54,,,,,,,,,,,,,,466.04099999999744,,response,,,100,,,,,,Space,keypress(Space),,,,,-- --- ---- --- ------ ----- ------- ---- -- --- ------- --<br>------- ---------- ------ -- ----- -- ----- -- ---- ------<br>--- ----- --- --- ------ interest ----- --- ------ ----- --<br>----- ----- ---------- --- --- ------ ------ ---- -- ------<br>------- --- ------ ----- --- ---- ------- -- ---- --- --<br>------- ------,126278.90000000224,126278,125795.287,125799.10000000149,125811.959,126295.382,,27,interest
screen,html.Screen,0_2_1_1_28,2021-12-02T14:38:17.897Z,,,,,,,,,,,,,,,,54,,,,,,,,,,,,,,454.6180000000022,,response,,,100,,,,,,Space,keypress(Space),,,,,-- --- ---- --- ------ ----- ------- ---- -- --- ------- --<br>------- ---------- ------ -- ----- -- ----- -- ---- ------<br>--- ----- --- --- ------ -------- rate. --- ------ ----- --<br>----- ----- ---------- --- --- ------ ------ ---- -- ------<br>------- --- ------ ----- --- ---- ------- -- ---- --- --<br>------- ------,126751,126750,126278.711,126279,126295.382,126762.024,,28,rate.
screen,html.Screen,0_2_1_1_29,2021-12-02T14:38:18.353Z,,,,,,,,,,,,,,,,54,,,,,,,,,,,,,,443.9759999999951,,response,,,100,,,,,,Space,keypress(Space),,,,,-- --- ---- --- ------ ----- ------- ---- -- --- ------- --<br>------- ---------- ------ -- ----- -- ----- -- ---- ------<br>--- ----- --- --- ------ -------- ----- The ------ ----- --<br>----- ----- ---------- --- --- ------ ------ ---- -- ------<br>------- --- ------ ----- --- ---- ------- -- ---- --- --<br>------- ------,127206.80000000075,127206,126745.355,126751.20000000298,126762.024,127212.338,,29,The
screen,html.Screen,0_2_1_1_30,2021-12-02T14:38:18.769Z,,,,,,,,,,,,,,,,54,,,,,,,,,,,,,,409.5620000022318,,response,,,100,,,,,,Space,keypress(Space),,,,,-- --- ---- --- ------ ----- ------- ---- -- --- ------- --<br>------- ---------- ------ -- ----- -- ----- -- ---- ------<br>--- ----- --- --- ------ -------- ----- --- market ----- --<br>----- ----- ---------- --- --- ------ ------ ---- -- ------<br>------- --- ------ ----- --- ---- ------- -- ---- --- --<br>------- ------,127622.70000000298,127621.90000000224,127195.666,127207,127212.338,127629.019,,30,market
screen,html.Screen,0_2_1_1_31,2021-12-02T14:38:19.201Z,,,,,,,,,,,,,,,,54,,,,,,,,,,,,,,424.88100000223494,,response,,,100,,,,,,Space,keypress(Space),,,,,-- --- ---- --- ------ ----- ------- ---- -- --- ------- --<br>------- ---------- ------ -- ----- -- ----- -- ---- ------<br>--- ----- --- --- ------ -------- ----- --- ------ value --<br>----- ----- ---------- --- --- ------ ------ ---- -- ------<br>------- --- ------ ----- --- ---- ------- -- ---- --- --<br>------- ------,128054.80000000075,128053.90000000224,127612.349,127623,127629.019,128062.462,,31,value
screen,html.Screen,0_2_1_1_32,2021-12-02T14:38:19.633Z,,,,,,,,,,,,,,,,54,,,,,,,,,,,,,,423.43800000223564,,response,,,100,,,,,,Space,keypress(Space),,,,,-- --- ---- --- ------ ----- ------- ---- -- --- ------- --<br>------- ---------- ------ -- ----- -- ----- -- ---- ------<br>--- ----- --- --- ------ -------- ----- --- ------ ----- of<br>----- ----- ---------- --- --- ------ ------ ---- -- ------<br>------- --- ------ ----- --- ---- ------- -- ---- --- --<br>------- ------,128486.80000000075,128485.90000000224,128045.792,128055.10000000149,128062.462,128495.95,,32,of
screen,html.Screen,0_2_1_1_33,2021-12-02T14:38:20.097Z,,,,,,,,,,,,,,,,54,,,,,,,,,,,,,,453.9500000022381,,response,,,100,,,,,,Space,keypress(Space),,,,,-- --- ---- --- ------ ----- ------- ---- -- --- ------- --<br>------- ---------- ------ -- ----- -- ----- -- ---- ------<br>--- ----- --- --- ------ -------- ----- --- ------ ----- --<br>these ----- ---------- --- --- ------ ------ ---- -- ------<br>------- --- ------ ----- --- ---- ------- -- ---- --- --<br>------- ------,128950.90000000224,128949.90000000224,128479.279,128486.90000000224,128495.95,128962.713,,33,these
screen,html.Screen,0_2_1_1_34,2021-12-02T14:38:20.537Z,,,,,,,,,,,,,,,,54,,,,,,,,,,,,,,427.1870000022318,,response,,,100,,,,,,Space,keypress(Space),,,,,-- --- ---- --- ------ ----- ------- ---- -- --- ------- --<br>------- ---------- ------ -- ----- -- ----- -- ---- ------<br>--- ----- --- --- ------ -------- ----- --- ------ ----- --<br>----- bonds ---------- --- --- ------ ------ ---- -- ------<br>------- --- ------ ----- --- ---- ------- -- ---- --- --<br>------- ------,129390.70000000298,129389.90000000224,128946.043,128951,128962.713,129396.147,,34,bonds
screen,html.Screen,0_2_1_1_35,2021-12-02T14:38:21.049Z,,,,,,,,,,,,,,,,54,,,,,,,,,,,,,,505.65300000074785,,response,,,100,,,,,,Space,keypress(Space),,,,,"-- --- ---- --- ------ ----- ------- ---- -- --- ------- --<br>------- ---------- ------ -- ----- -- ----- -- ---- ------<br>--- ----- --- --- ------ -------- ----- --- ------ ----- --<br>----- ----- plummeted, --- --- ------ ------ ---- -- ------<br>------- --- ------ ----- --- ---- ------- -- ---- --- --<br>------- ------",129902.70000000298,129901.80000000075,129379.477,129390.90000000224,129396.147,129913.021,,35,"plummeted,"
screen,html.Screen,0_2_1_1_36,2021-12-02T14:38:21.553Z,,,,,,,,,,,,,,,,54,,,,,,,,,,,,,,492.7790000007517,,response,,,100,,,,,,Space,keypress(Space),,,,,-- --- ---- --- ------ ----- ------- ---- -- --- ------- --<br>------- ---------- ------ -- ----- -- ----- -- ---- ------<br>--- ----- --- --- ------ -------- ----- --- ------ ----- --<br>----- ----- ---------- and --- ------ ------ ---- -- ------<br>------- --- ------ ----- --- ---- ------- -- ---- --- --<br>------- ------,130406.70000000298,130405.80000000075,129896.35,129902.90000000224,129913.021,130412.983,,36,and
screen,html.Screen,0_2_1_1_37,2021-12-02T14:38:21.985Z,,,,,,,,,,,,,,,,54,,,,,,,,,,,,,,424.81700000075216,,response,,,100,,,,,,Space,keypress(Space),,,,,-- --- ---- --- ------ ----- ------- ---- -- --- ------- --<br>------- ---------- ------ -- ----- -- ----- -- ---- ------<br>--- ----- --- --- ------ -------- ----- --- ------ ----- --<br>----- ----- ---------- --- the ------ ------ ---- -- ------<br>------- --- ------ ----- --- ---- ------- -- ---- --- --<br>------- ------,130838.60000000149,130837.80000000075,130396.314,130407,130412.983,130846.577,,37,the
screen,html.Screen,0_2_1_1_38,2021-12-02T14:38:22.481Z,,,,,,,,,,,,,,,,54,,,,,,,,,,,,,,487.2230000007403,,response,,,100,,,,,,Space,keypress(Space),,,,,-- --- ---- --- ------ ----- ------- ---- -- --- ------- --<br>------- ---------- ------ -- ----- -- ----- -- ---- ------<br>--- ----- --- --- ------ -------- ----- --- ------ ----- --<br>----- ----- ---------- --- --- market ------ ---- -- ------<br>------- --- ------ ----- --- ---- ------- -- ---- --- --<br>------- ------,131334.5,131333.80000000075,130829.906,130838.90000000224,130846.577,131346.715,,38,market
screen,html.Screen,0_2_1_1_39,2021-12-02T14:38:22.937Z,,,,,,,,,,,,,,,,54,,,,,,,,,,,,,,443.08500000074855,,response,,,100,,,,,,Space,keypress(Space),,,,,-- --- ---- --- ------ ----- ------- ---- -- --- ------- --<br>------- ---------- ------ -- ----- -- ----- -- ---- ------<br>--- ----- --- --- ------ -------- ----- --- ------ ----- --<br>----- ----- ---------- --- --- ------ became ---- -- ------<br>------- --- ------ ----- --- ---- ------- -- ---- --- --<br>------- ------,131790.70000000298,131789.80000000075,131330.044,131334.80000000075,131346.715,131796.805,,39,became
screen,html.Screen,0_2_1_1_40,2021-12-02T14:38:23.425Z,,,,,,,,,,,,,,,,54,,,,,,,,,,,,,,480.99500000075204,,response,,,100,,,,,,Space,keypress(Space),,,,,-- --- ---- --- ------ ----- ------- ---- -- --- ------- --<br>------- ---------- ------ -- ----- -- ----- -- ---- ------<br>--- ----- --- --- ------ -------- ----- --- ------ ----- --<br>----- ----- ---------- --- --- ------ ------ wary -- ------<br>------- --- ------ ----- --- ---- ------- -- ---- --- --<br>------- ------,132278.5,132277.80000000075,131780.135,131790.90000000224,131796.805,132280.236,,40,wary
screen,html.Screen,0_2_1_1_41,2021-12-02T14:38:23.889Z,,,,,,,,,,,,,,,,54,,,,,,,,,,,,,,461.4640000029758,,response,,,100,,,,,,Space,keypress(Space),,,,,-- --- ---- --- ------ ----- ------- ---- -- --- ------- --<br>------- ---------- ------ -- ----- -- ----- -- ---- ------<br>--- ----- --- --- ------ -------- ----- --- ------ ----- --<br>----- ----- ---------- --- --- ------ ------ ---- of ------<br>------- --- ------ ----- --- ---- ------- -- ---- --- --<br>------- ------,132742.6000000015,132741.70000000298,132263.566,132278.80000000075,132280.236,132747.059,,41,of
screen,html.Screen,0_2_1_1_42,2021-12-02T14:38:24.345Z,,,,,,,,,,,,,,,,54,,,,,,,,,,,,,,451.14100000297185,,response,,,100,,,,,,Space,keypress(Space),,,,,-- --- ---- --- ------ ----- ------- ---- -- --- ------- --<br>------- ---------- ------ -- ----- -- ----- -- ---- ------<br>--- ----- --- --- ------ -------- ----- --- ------ ----- --<br>----- ----- ---------- --- --- ------ ------ ---- -- French<br>------- --- ------ ----- --- ---- ------- -- ---- --- --<br>------- ------,133198.90000000224,133198.20000000298,132730.389,132742.80000000075,132747.059,133213.805,,42,French
screen,html.Screen,0_2_1_1_43,2021-12-02T14:38:24.809Z,,,,,,,,,,,,,,,,54,,,,,,,,,,,,,,447.7950000014971,,response,,,100,,,,,,Space,keypress(Space),,,,,-- --- ---- --- ------ ----- ------- ---- -- --- ------- --<br>------- ---------- ------ -- ----- -- ----- -- ---- ------<br>--- ----- --- --- ------ -------- ----- --- ------ ----- --<br>----- ----- ---------- --- --- ------ ------ ---- -- ------<br>credit. --- ------ ----- --- ---- ------- -- ---- --- --<br>------- ------,133662.5,133661.6000000015,133197.135,133199.20000000298,133213.805,133664.021,,43,credit.
screen,html.Screen,0_2_1_1_44,2021-12-02T14:38:25.321Z,,,,,,,,,,,,,,,,54,,,,,,,,,,,,,,509.6790000029723,,response,,,100,,,,,,Space,keypress(Space),,,,,-- --- ---- --- ------ ----- ------- ---- -- --- ------- --<br>------- ---------- ------ -- ----- -- ----- -- ---- ------<br>--- ----- --- --- ------ -------- ----- --- ------ ----- --<br>----- ----- ---------- --- --- ------ ------ ---- -- ------<br>------- The ------ ----- --- ---- ------- -- ---- --- --<br>------- ------,134174.40000000224,134173.70000000298,133647.35,133662.70000000298,133664.021,134180.755,,44,The
screen,html.Screen,0_2_1_1_45,2021-12-02T14:38:25.777Z,,,,,,,,,,,,,,,,54,,,,,,,,,,,,,,448.9450000029756,,response,,,100,,,,,,Space,keypress(Space),,,,,-- --- ---- --- ------ ----- ------- ---- -- --- ------- --<br>------- ---------- ------ -- ----- -- ----- -- ---- ------<br>--- ----- --- --- ------ -------- ----- --- ------ ----- --<br>----- ----- ---------- --- --- ------ ------ ---- -- ------<br>------- --- French ----- --- ---- ------- -- ---- --- --<br>------- ------,134630.40000000224,134629.70000000298,134164.085,134174.70000000298,134180.755,134647.558,,45,French
screen,html.Screen,0_2_1_1_46,2021-12-02T14:38:26.193Z,,,,,,,,,,,,,,,,54,,,,,,,,,,,,,,398.0420000015001,,response,,,100,,,,,,Space,keypress(Space),,,,,-- --- ---- --- ------ ----- ------- ---- -- --- ------- --<br>------- ---------- ------ -- ----- -- ----- -- ---- ------<br>--- ----- --- --- ------ -------- ----- --- ------ ----- --<br>----- ----- ---------- --- --- ------ ------ ---- -- ------<br>------- --- ------ state --- ---- ------- -- ---- --- --<br>------- ------,135046.40000000224,135045.6000000015,134630.888,134630.70000000298,134647.558,135047.666,,46,state
screen,html.Screen,0_2_1_1_47,2021-12-02T14:38:26.633Z,,,,,,,,,,,,,,,,54,,,,,,,,,,,,,,437.9340000014927,,response,,,100,,,,,,Space,keypress(Space),,,,,-- --- ---- --- ------ ----- ------- ---- -- --- ------- --<br>------- ---------- ------ -- ----- -- ----- -- ---- ------<br>--- ----- --- --- ------ -------- ----- --- ------ ----- --<br>----- ----- ---------- --- --- ------ ------ ---- -- ------<br>------- --- ------ ----- was ---- ------- -- ---- --- --<br>------- ------,135486.40000000224,135485.6000000015,135030.996,135046.6000000015,135047.666,135497.783,,47,was
screen,html.Screen,0_2_1_1_48,2021-12-02T14:38:27.097Z,,,,,,,,,,,,,,,,54,,,,,,,,,,,,,,451.8170000014943,,response,,,100,,,,,,Space,keypress(Space),,,,,-- --- ---- --- ------ ----- ------- ---- -- --- ------- --<br>------- ---------- ------ -- ----- -- ----- -- ---- ------<br>--- ----- --- --- ------ -------- ----- --- ------ ----- --<br>----- ----- ---------- --- --- ------ ------ ---- -- ------<br>------- --- ------ ----- --- left ------- -- ---- --- --<br>------- ------,135950.30000000075,135949.6000000015,135481.113,135486.70000000298,135497.783,135964.618,,48,left
screen,html.Screen,0_2_1_1_49,2021-12-02T14:38:27.561Z,,,,,,,,,,,,,,,,54,,,,,,,,,,,,,,448.98200000150246,,response,,,100,,,,,,Space,keypress(Space),,,,,-- --- ---- --- ------ ----- ------- ---- -- --- ------- --<br>------- ---------- ------ -- ----- -- ----- -- ---- ------<br>--- ----- --- --- ------ -------- ----- --- ------ ----- --<br>----- ----- ---------- --- --- ------ ------ ---- -- ------<br>------- --- ------ ----- --- ---- without -- ---- --- --<br>------- ------,136414.40000000224,136413.6000000015,135947.947,135950.6000000015,135964.618,136431.361,,49,without
screen,html.Screen,0_2_1_1_50,2021-12-02T14:38:27.977Z,,,,,,,,,,,,,,,,54,,,,,,,,,,,,,,398.2390000014857,,response,,,100,,,,,,Space,keypress(Space),,,,,-- --- ---- --- ------ ----- ------- ---- -- --- ------- --<br>------- ---------- ------ -- ----- -- ----- -- ---- ------<br>--- ----- --- --- ------ -------- ----- --- ------ ----- --<br>----- ----- ---------- --- --- ------ ------ ---- -- ------<br>------- --- ------ ----- --- ---- ------- an ---- --- --<br>------- ------,136830.40000000224,136829.6000000015,136414.691,136414.6000000015,136431.361,136831.485,,50,an
screen,html.Screen,0_2_1_1_51,2021-12-02T14:38:28.433Z,,,,,,,,,,,,,,,,54,,,,,,,,,,,,,,453.91500000224914,,response,,,100,,,,,,Space,keypress(Space),,,,,-- --- ---- --- ------ ----- ------- ---- -- --- ------- --<br>------- ---------- ------ -- ----- -- ----- -- ---- ------<br>--- ----- --- --- ------ -------- ----- --- ------ ----- --<br>----- ----- ---------- --- --- ------ ------ ---- -- ------<br>------- --- ------ ----- --- ---- ------- -- easy --- --<br>------- ------,137286.20000000298,137285.40000000224,136814.815,136830.6000000015,136831.485,137298.26,,51,easy
screen,html.Screen,0_2_1_1_52,2021-12-02T14:38:28.833Z,,,,,,,,,,,,,,,,54,,,,,,,,,,,,,,387.14000000222586,,response,,,100,,,,,,Space,keypress(Space),,,,,-- --- ---- --- ------ ----- ------- ---- -- --- ------- --<br>------- ---------- ------ -- ----- -- ----- -- ---- ------<br>--- ----- --- --- ------ -------- ----- --- ------ ----- --<br>----- ----- ---------- --- --- ------ ------ ---- -- ------<br>------- --- ------ ----- --- ---- ------- -- ---- way --<br>------- ------,137686.40000000224,137685.40000000224,137281.59,137286.5,137298.26,137698.334,,52,way
screen,html.Screen,0_2_1_1_53,2021-12-02T14:38:29.265Z,,,,,,,,,,,,,,,,54,,,,,,,,,,,,,,419.16599999999744,,response,,,100,,,,,,Space,keypress(Space),,,,,-- --- ---- --- ------ ----- ------- ---- -- --- ------- --<br>------- ---------- ------ -- ----- -- ----- -- ---- ------<br>--- ----- --- --- ------ -------- ----- --- ------ ----- --<br>----- ----- ---------- --- --- ------ ------ ---- -- ------<br>------- --- ------ ----- --- ---- ------- -- ---- --- of<br>------- ------,138118.30000000075,138117.5,137681.664,137686.6000000015,137698.334,138131.856,,53,of
screen,html.Screen,0_2_1_1_54,2021-12-02T14:38:29.697Z,,,,,,,,,,,,,,,,54,,,,,,,,,,,,,,417.5440000022354,,response,,,100,,,,,,Space,keypress(Space),,,,,-- --- ---- --- ------ ----- ------- ---- -- --- ------- --<br>------- ---------- ------ -- ----- -- ----- -- ---- ------<br>--- ----- --- --- ------ -------- ----- --- ------ ----- --<br>----- ----- ---------- --- --- ------ ------ ---- -- ------<br>------- --- ------ ----- --- ---- ------- -- ---- --- --<br>raising ------,138550.30000000075,138549.40000000224,138115.185,138118.6000000015,138131.856,138565.267,,54,raising
screen,html.Screen,0_2_1_1_55,2021-12-02T14:38:30.313Z,,,,,,,,,,,,,,,,54,,,,,,,,,,,,,,600.1330000022426,,response,,,100,,,,,,Space,keypress(Space),,,,,-- --- ---- --- ------ ----- ------- ---- -- --- ------- --<br>------- ---------- ------ -- ----- -- ----- -- ---- ------<br>--- ----- --- --- ------ -------- ----- --- ------ ----- --<br>----- ----- ---------- --- --- ------ ------ ---- -- ------<br>------- --- ------ ----- --- ---- ------- -- ---- --- --<br>------- money.,139166.20000000298,139165.40000000224,138548.597,138550.5,138565.267,139182.135,,55,money.
Item 100,flow.Loop,0_2_1_1,2021-12-02T14:38:30.313Z,,,,,,,,,,,,,,,,,,,,,,,,,,,,,,27624.13200000224,,completion,,,,A,,,,,,,,,,silence,,139166.70000000298,139165.40000000224,111524.598,111526.5,111541.268,139182.135,,,
Question 1,html.Screen,0_2_1_2,2021-12-02T14:38:34.017Z,,,,,,,,,,,,,,,,,,,,,,,,,,,true,TRUE,,3686.965000001481,,response,,,100,A,,,,,TRUE,click #choice-1,,,,silence,,142870.20000000298,142869.1000000015,139165.464,139166.80000000075,139182.135,142883.04,,,
Question 2,html.Screen,0_2_1_3,2021-12-02T14:38:37.473Z,,,,,,,,,,,,,,,,,,,,,,,,,,,true,FALSE,,3441.760000000737,,response,,,100,A,,,,,FALSE,click #choice-2,,,,silence,,146326,146324.80000000075,142866.371,142870.5,142883.04,146334.037,,,
Item 100,flow.Sequence,0_2_1,2021-12-02T14:38:37.473Z,,,,,,,,,,,,,,,,,,,,,,,,,,,,,,44786.00500000075,,completion,,,,,,,,,,,,,,,,146326.40000000224,146324.80000000075,101522.123,101528.70000000298,101538.795,146334.037,,,
End of Practice,html.Page,0_2_2,2021-12-02T14:38:43.537Z,,,,,,,,,,,,,,,,,,,,,,,,,,,,,,6056.163000002969,,form submission,,,,,,,,,,,,,,,,152390.80000000075,152390.20000000298,146317.366,146326.6000000015,146334.037,152402.216,,,
Practice,flow.Sequence,0_2,2021-12-02T14:38:43.538Z,,,,,,,,,,,,,,,,,,,,,,,,,,,,,,105882.94100000299,,completion,,,,,,,,,,,,,,,,152391.30000000075,152390.20000000298,46490.589,46499.60000000149,46507.259,152402.216,,,
Trap_instruction,html.Page,0_3_0,2021-12-02T14:38:47.697Z,,,,,,,,,,,,,,,,,,,,,,,,,,,,,,4147.584000000759,,form submission,,,,,,,,,,,,,,,,156550.20000000298,156549.80000000075,152385.546,152391.6000000015,152402.216,156572.056,,,
trap_trial,html.Screen,0_3_1,2021-12-02T14:38:51.568Z,,,,,,,,,,,,,,,,,,,,,,,,,,,true,1,,3848.144000002969,,response,,,,,,,,,1,click #choice-1,,,,,,160421.40000000224,160420.20000000298,156538.698,156550.5,156572.056,160421.25,,,
end of trap trial,html.Page,0_3_2,2021-12-02T14:38:54.049Z,,,,,,,,,,,,,,,,,,,,,,,,,,,,,,2480.35000000149,,form submission,,,,,,,,,,,,,,,,162902.1000000015,162901.6000000015,160404.578,160421.70000000298,160421.25,162904.954,,,
Trap 1,flow.Sequence,0_3,2021-12-02T14:38:54.049Z,,,,,,,,,,,,,,,,,,,,,,,,,,,,,,10499.384000001504,,completion,,,,,,,,,,,,,,,,162902.40000000224,162901.6000000015,152385.546,152391.5,152402.216,162904.954,,,
Standby,html.Page,0_4_0,2021-12-02T14:39:02.038Z,,,,,,,,,,,,,,,,,,,,,,,,,,,,,,8002.246000000014,,timeout,,,,,,,,,,,,,,,,170891.70000000298,170890.529,162888.284,162902.70000000298,162904.954,170907.2,,,
Holding screen,html.Screen,0_4_1_0_0,2021-12-02T14:39:09.040Z,,,,,,,,,,,,,,,,,,,,,,,,,,,,,,7001.755999999994,,timeout,,,,,,,,,,,,,,,,177893.70000000298,177892.286,170890.529,170892,170907.2,177908.956,,,
screen,html.Screen,0_4_1_0_1_0,2021-12-02T14:39:11.712Z,,,,,,,,,,,,,,,,15,,,,,,,,,,,,,,2655.1440000014845,,response,,,7,A,,,,,Space,keypress(Space),,,,silence,Greg --------- ---------- - --- ------- -- --- ------------<br>----- -- -------- ------- ---- ------ - -------- ---- -----<br>--- ------- ---- -- --- -------- --- - ----- ------ ---- --<br>-------- --- -------- -------- --- -------- ---- -- ----- -<br>-------- ---- --- ---------- --------- -- ------- ------ -<br>--------- ----- -----,180564.90000000224,180564.1000000015,177892.286,177894.20000000298,177908.956,180576.269,,0,Greg
screen,html.Screen,0_4_1_0_1_1,2021-12-02T14:39:12.754Z,,,,,,,,,,,,,,,,15,,,,,,,,,,,,,,1027.131000002235,,response,,,7,A,,,,,Space,keypress(Space),,,,silence,"---- Anderson, ---------- - --- ------- -- --- ------------<br>----- -- -------- ------- ---- ------ - -------- ---- -----<br>--- ------- ---- -- --- -------- --- - ----- ------ ---- --<br>-------- --- -------- -------- --- -------- ---- -- ----- -<br>-------- ---- --- ---------- --------- -- ------- ------ -<br>--------- ----- -----",181604.30000000075,181603.40000000224,180559.599,180565.20000000298,180576.269,181609.68,,1,"Anderson,"
screen,html.Screen,0_4_1_0_1_2,2021-12-02T14:39:13.418Z,,,,,,,,,,,,,,,,15,,,,,,,,,,,,,,657.7200000022422,,response,,,7,A,,,,,Space,keypress(Space),,,,silence,---- --------- considered - --- ------- -- --- ------------<br>----- -- -------- ------- ---- ------ - -------- ---- -----<br>--- ------- ---- -- --- -------- --- - ----- ------ ---- --<br>-------- --- -------- -------- --- -------- ---- -- ----- -<br>-------- ---- --- ---------- --------- -- ------- ------ -<br>--------- ----- -----,182268.20000000298,182267.40000000224,181593.011,181604.5,181609.68,182276.816,,2,considered
screen,html.Screen,0_4_1_0_1_3,2021-12-02T14:39:14.074Z,,,,,,,,,,,,,,,,15,,,,,,,,,,,,,,646.4840000007534,,response,,,7,A,,,,,Space,keypress(Space),,,,silence,---- --------- ---------- a --- ------- -- --- ------------<br>----- -- -------- ------- ---- ------ - -------- ---- -----<br>--- ------- ---- -- --- -------- --- - ----- ------ ---- --<br>-------- --- -------- -------- --- -------- ---- -- ----- -<br>-------- ---- --- ---------- --------- -- ------- ------ -<br>--------- ----- -----,182924.20000000298,182923.30000000075,182260.146,182268.5,182276.816,182926.962,,3,a
screen,html.Screen,0_4_1_0_1_4,2021-12-02T14:39:15.354Z,,,,,,,,,,,,,,,,15,,,,,,,,,,,,,,1276.3380000007455,,response,,,7,A,,,,,Space,keypress(Space),,,,silence,---- --------- ---------- - key ------- -- --- ------------<br>----- -- -------- ------- ---- ------ - -------- ---- -----<br>--- ------- ---- -- --- -------- --- - ----- ------ ---- --<br>-------- --- -------- -------- --- -------- ---- -- ----- -<br>-------- ---- --- ---------- --------- -- ------- ------ -<br>--------- ----- -----,184204.1000000015,184203.30000000075,182910.292,182924.5,182926.962,184210.878,,4,key
screen,html.Screen,0_4_1_0_1_5,2021-12-02T14:39:15.970Z,,,,,,,,,,,,,,,,15,,,,,,,,,,,,,,608.4220000007481,,response,,,7,A,,,,,Space,keypress(Space),,,,silence,---- --------- ---------- - --- witness -- --- ------------<br>----- -- -------- ------- ---- ------ - -------- ---- -----<br>--- ------- ---- -- --- -------- --- - ----- ------ ---- --<br>-------- --- -------- -------- --- -------- ---- -- ----- -<br>-------- ---- --- ---------- --------- -- ------- ------ -<br>--------- ----- -----,184820.1000000015,184819.30000000075,184194.206,184204.40000000224,184210.878,184827.479,,5,witness
screen,html.Screen,0_4_1_0_1_6,2021-12-02T14:39:17.282Z,,,,,,,,,,,,,,,,15,,,,,,,,,,,,,,1303.7210000029881,,response,,,7,A,,,,,Space,keypress(Space),,,,silence,---- --------- ---------- - --- ------- by --- ------------<br>----- -- -------- ------- ---- ------ - -------- ---- -----<br>--- ------- ---- -- --- -------- --- - ----- ------ ---- --<br>-------- --- -------- -------- --- -------- ---- -- ----- -<br>-------- ---- --- ---------- --------- -- ------- ------ -<br>--------- ----- -----,186132,186131.20000000298,184810.809,184820.30000000075,184827.479,186144.444,,6,by
screen,html.Screen,0_4_1_0_1_7,2021-12-02T14:39:17.738Z,,,,,,,,,,,,,,,,15,,,,,,,,,,,,,,442.75600000299164,,response,,,7,A,,,,,Space,keypress(Space),,,,silence,---- --------- ---------- - --- ------- -- the ------------<br>----- -- -------- ------- ---- ------ - -------- ---- -----<br>--- ------- ---- -- --- -------- --- - ----- ------ ---- --<br>-------- --- -------- -------- --- -------- ---- -- ----- -<br>-------- ---- --- ---------- --------- -- ------- ------ -<br>--------- ----- -----,186588,186587.20000000298,186127.774,186132.30000000075,186144.444,186594.809,,7,the
screen,html.Screen,0_4_1_0_1_8,2021-12-02T14:39:18.298Z,,,,,,,,,,,,,,,,15,,,,,,,,,,,,,,552.2910000014817,,response,,,7,A,,,,,Space,keypress(Space),,,,silence,"---- --------- ---------- - --- ------- -- --- prosecution,<br>----- -- -------- ------- ---- ------ - -------- ---- -----<br>--- ------- ---- -- --- -------- --- - ----- ------ ---- --<br>-------- --- -------- -------- --- -------- ---- -- ----- -<br>-------- ---- --- ---------- --------- -- ------- ------ -<br>--------- ----- -----",187148,187147.1000000015,186578.137,186588.30000000075,186594.809,187161.498,,8,"prosecution,"
screen,html.Screen,0_4_1_0_1_9,2021-12-02T14:39:18.914Z,,,,,,,,,,,,,,,,15,,,,,,,,,,,,,,601.7020000029879,,response,,,7,A,,,,,Space,keypress(Space),,,,silence,---- --------- ---------- - --- ------- -- --- ------------<br>vowed -- -------- ------- ---- ------ - -------- ---- -----<br>--- ------- ---- -- --- -------- --- - ----- ------ ---- --<br>-------- --- -------- -------- --- -------- ---- -- ----- -<br>-------- ---- --- ---------- --------- -- ------- ------ -<br>--------- ----- -----,187764,187763.20000000298,187144.828,187148.30000000075,187161.498,187778.329,,9,vowed
screen,html.Screen,0_4_1_0_1_10,2021-12-02T14:39:19.370Z,,,,,,,,,,,,,,,,15,,,,,,,,,,,,,,440.8710000029823,,response,,,7,A,,,,,Space,keypress(Space),,,,silence,---- --------- ---------- - --- ------- -- --- ------------<br>----- he -------- ------- ---- ------ - -------- ---- -----<br>--- ------- ---- -- --- -------- --- - ----- ------ ---- --<br>-------- --- -------- -------- --- -------- ---- -- ----- -<br>-------- ---- --- ---------- --------- -- ------- ------ -<br>--------- ----- -----,188219.90000000224,188219.20000000298,187761.659,187764.30000000075,187778.329,188228.458,,10,he
screen,html.Screen,0_4_1_0_1_11,2021-12-02T14:39:19.882Z,,,,,,,,,,,,,,,,15,,,,,,,,,,,,,,502.64200000147684,,response,,,7,A,,,,,Space,keypress(Space),,,,silence,---- --------- ---------- - --- ------- -- --- ------------<br>----- -- wouldn't ------- ---- ------ - -------- ---- -----<br>--- ------- ---- -- --- -------- --- - ----- ------ ---- --<br>-------- --- -------- -------- --- -------- ---- -- ----- -<br>-------- ---- --- ---------- --------- -- ------- ------ -<br>--------- ----- -----,188732,188731.1000000015,188211.788,188220.1000000015,188228.458,188745.308,,11,wouldn't
screen,html.Screen,0_4_1_0_1_12,2021-12-02T14:39:20.290Z,,,,,,,,,,,,,,,,15,,,,,,,,,,,,,,393.7920000015001,,response,,,7,A,,,,,Space,keypress(Space),,,,silence,---- --------- ---------- - --- ------- -- --- ------------<br>----- -- -------- testify ---- ------ - -------- ---- -----<br>--- ------- ---- -- --- -------- --- - ----- ------ ---- --<br>-------- --- -------- -------- --- -------- ---- -- ----- -<br>-------- ---- --- ---------- --------- -- ------- ------ -<br>--------- ----- -----,189139.80000000075,189139.1000000015,188728.637,188732.20000000298,188745.308,189145.376,,12,testify
screen,html.Screen,0_4_1_0_1_13,2021-12-02T14:39:20.682Z,,,,,,,,,,,,,,,,15,,,,,,,,,,,,,,385.7240000015008,,response,,,7,A,,,,,Space,keypress(Space),,,,silence,---- --------- ---------- - --- ------- -- --- ------------<br>----- -- -------- ------- when ------ - -------- ---- -----<br>--- ------- ---- -- --- -------- --- - ----- ------ ---- --<br>-------- --- -------- -------- --- -------- ---- -- ----- -<br>-------- ---- --- ---------- --------- -- ------- ------ -<br>--------- ----- -----,189531.90000000224,189531.1000000015,189128.706,189140.1000000015,189145.376,189545.465,,13,when
screen,html.Screen,0_4_1_0_1_14,2021-12-02T14:39:21.050Z,,,,,,,,,,,,,,,,15,,,,,,,,,,,,,,353.5350000000035,,response,,,7,A,,,,,Space,keypress(Space),,,,silence,---- --------- ---------- - --- ------- -- --- ------------<br>----- -- -------- ------- ---- served - -------- ---- -----<br>--- ------- ---- -- --- -------- --- - ----- ------ ---- --<br>-------- --- -------- -------- --- -------- ---- -- ----- -<br>-------- ---- --- ---------- --------- -- ------- ------ -<br>--------- ----- -----,189899.80000000075,189899,189528.795,189532.1000000015,189545.465,189912.293,,14,served
screen,html.Screen,0_4_1_0_1_15,2021-12-02T14:39:21.426Z,,,,,,,,,,,,,,,,15,,,,,,,,,,,,,,362.7069999999949,,response,,,7,A,,,,,Space,keypress(Space),,,,silence,---- --------- ---------- - --- ------- -- --- ------------<br>----- -- -------- ------- ---- ------ a -------- ---- -----<br>--- ------- ---- -- --- -------- --- - ----- ------ ---- --<br>-------- --- -------- -------- --- -------- ---- -- ----- -<br>-------- ---- --- ---------- --------- -- ------- ------ -<br>--------- ----- -----,190275.90000000224,190275,189895.622,189900.1000000015,189912.293,190278.882,,15,a
screen,html.Screen,0_4_1_0_1_16,2021-12-02T14:39:22.890Z,,,,,,,,,,,,,,,,15,,,,,,,,,,,,,,1460.4180000007327,,response,,,7,A,,,,,Space,keypress(Space),,,,silence,---- --------- ---------- - --- ------- -- --- ------------<br>----- -- -------- ------- ---- ------ - subpoena ---- -----<br>--- ------- ---- -- --- -------- --- - ----- ------ ---- --<br>-------- --- -------- -------- --- -------- ---- -- ----- -<br>-------- ---- --- ---------- --------- -- ------- ------ -<br>--------- ----- -----,191740.1000000015,191739.30000000075,190262.214,190276.1000000015,190278.882,191746.32,,16,subpoena
screen,html.Screen,0_4_1_0_1_17,2021-12-02T14:39:23.841Z,,,,,,,,,,,,,,,,15,,,,,,,,,,,,,,944.4800000007381,,response,,,7,A,,,,,Space,keypress(Space),,,,silence,---- --------- ---------- - --- ------- -- --- ------------<br>----- -- -------- ------- ---- ------ - -------- last -----<br>--- ------- ---- -- --- -------- --- - ----- ------ ---- --<br>-------- --- -------- -------- --- -------- ---- -- ----- -<br>-------- ---- --- ---------- --------- -- ------- ------ -<br>--------- ----- -----,192691.6000000015,192690.80000000075,191729.647,191740.40000000224,191746.32,192696.23,,17,last
screen,html.Screen,0_4_1_0_1_18,2021-12-02T14:39:25.577Z,,,,,,,,,,,,,,,,15,,,,,,,,,,,,,,1730.6700000022247,,response,,,7,A,,,,,Space,keypress(Space),,,,silence,---- --------- ---------- - --- ------- -- --- ------------<br>----- -- -------- ------- ---- ------ - -------- ---- week.<br>--- ------- ---- -- --- -------- --- - ----- ------ ---- --<br>-------- --- -------- -------- --- -------- ---- -- ----- -<br>-------- ---- --- ---------- --------- -- ------- ------ -<br>--------- ----- -----,194427.70000000298,194426.90000000224,192679.56,192691.80000000075,192696.23,194430.035,,18,week.
screen,html.Screen,0_4_1_0_1_19,2021-12-02T14:39:26.057Z,,,,,,,,,,,,,,,,15,,,,,,,,,,,,,,476.76500000074157,,response,,,7,A,,,,,Space,keypress(Space),,,,silence,---- --------- ---------- - --- ------- -- --- ------------<br>----- -- -------- ------- ---- ------ - -------- ---- -----<br>His ------- ---- -- --- -------- --- - ----- ------ ---- --<br>-------- --- -------- -------- --- -------- ---- -- ----- -<br>-------- ---- --- ---------- --------- -- ------- ------ -<br>--------- ----- -----,194907.5,194906.80000000075,194413.365,194427.80000000075,194430.035,194913.536,,19,His
screen,html.Screen,0_4_1_0_1_20,2021-12-02T14:39:26.697Z,,,,,,,,,,,,,,,,15,,,,,,,,,,,,,,633.2640000007523,,response,,,7,A,,,,,Space,keypress(Space),,,,silence,---- --------- ---------- - --- ------- -- --- ------------<br>----- -- -------- ------- ---- ------ - -------- ---- -----<br>--- lawyers ---- -- --- -------- --- - ----- ------ ---- --<br>-------- --- -------- -------- --- -------- ---- -- ----- -<br>-------- ---- --- ---------- --------- -- ------- ------ -<br>--------- ----- -----,195547.6000000015,195546.80000000075,194896.866,194907.80000000075,194913.536,195563.746,,20,lawyers
screen,html.Screen,0_4_1_0_1_21,2021-12-02T14:39:27.153Z,,,,,,,,,,,,,,,,15,,,,,,,,,,,,,,439.0540000007313,,response,,,7,A,,,,,Space,keypress(Space),,,,silence,---- --------- ---------- - --- ------- -- --- ------------<br>----- -- -------- ------- ---- ------ - -------- ---- -----<br>--- ------- said -- --- -------- --- - ----- ------ ---- --<br>-------- --- -------- -------- --- -------- ---- -- ----- -<br>-------- ---- --- ---------- --------- -- ------- ------ -<br>--------- ----- -----,196003.6000000015,196002.80000000075,195547.076,195547.80000000075,195563.746,196013.858,,21,said
screen,html.Screen,0_4_1_0_1_22,2021-12-02T14:39:27.657Z,,,,,,,,,,,,,,,,15,,,,,,,,,,,,,,492.9420000007376,,response,,,7,A,,,,,Space,keypress(Space),,,,silence,---- --------- ---------- - --- ------- -- --- ------------<br>----- -- -------- ------- ---- ------ - -------- ---- -----<br>--- ------- ---- he --- -------- --- - ----- ------ ---- --<br>-------- --- -------- -------- --- -------- ---- -- ----- -<br>-------- ---- --- ---------- --------- -- ------- ------ -<br>--------- ----- -----,196507.6000000015,196506.80000000075,195997.188,196003.80000000075,196013.858,196514.046,,22,he
screen,html.Screen,0_4_1_0_1_23,2021-12-02T14:39:28.129Z,,,,,,,,,,,,,,,,15,,,,,,,,,,,,,,464.65400000297814,,response,,,7,A,,,,,Space,keypress(Space),,,,silence,---- --------- ---------- - --- ------- -- --- ------------<br>----- -- -------- ------- ---- ------ - -------- ---- -----<br>--- ------- ---- -- was -------- --- - ----- ------ ---- --<br>-------- --- -------- -------- --- -------- ---- -- ----- -<br>-------- ---- --- ---------- --------- -- ------- ------ -<br>--------- ----- -----,196979.5,196978.70000000298,196497.375,196507.90000000224,196514.046,196980.79,,23,was
screen,html.Screen,0_4_1_0_1_24,2021-12-02T14:39:28.738Z,,,,,,,,,,,,,,,,15,,,,,,,,,,,,,,605.9100000029721,,response,,,7,A,,,,,Space,keypress(Space),,,,silence,---- --------- ---------- - --- ------- -- --- ------------<br>----- -- -------- ------- ---- ------ - -------- ---- -----<br>--- ------- ---- -- --- prepared --- - ----- ------ ---- --<br>-------- --- -------- -------- --- -------- ---- -- ----- -<br>-------- ---- --- ---------- --------- -- ------- ------ -<br>--------- ----- -----,197587.70000000298,197586.70000000298,196964.12,196979.80000000075,196980.79,197597.604,,24,prepared
screen,html.Screen,0_4_1_0_1_25,2021-12-02T14:39:29.281Z,,,,,,,,,,,,,,,,15,,,,,,,,,,,,,,533.0960000029881,,response,,,7,A,,,,,Space,keypress(Space),,,,silence,---- --------- ---------- - --- ------- -- --- ------------<br>----- -- -------- ------- ---- ------ - -------- ---- -----<br>--- ------- ---- -- --- -------- for - ----- ------ ---- --<br>-------- --- -------- -------- --- -------- ---- -- ----- -<br>-------- ---- --- ---------- --------- -- ------- ------ -<br>--------- ----- -----,198131.40000000224,198130.70000000298,197580.934,197587.90000000224,197597.604,198147.721,,25,for
screen,html.Screen,0_4_1_0_1_26,2021-12-02T14:39:29.753Z,,,,,,,,,,,,,,,,15,,,,,,,,,,,,,,454.87900000149966,,response,,,7,A,,,,,Space,keypress(Space),,,,silence,---- --------- ---------- - --- ------- -- --- ------------<br>----- -- -------- ------- ---- ------ - -------- ---- -----<br>--- ------- ---- -- --- -------- --- a ----- ------ ---- --<br>-------- --- -------- -------- --- -------- ---- -- ----- -<br>-------- ---- --- ---------- --------- -- ------- ------ -<br>--------- ----- -----,198603.40000000224,198602.6000000015,198131.051,198131.70000000298,198147.721,198614.498,,26,a
screen,html.Screen,0_4_1_0_1_27,2021-12-02T14:39:30.297Z,,,,,,,,,,,,,,,,15,,,,,,,,,,,,,,532.1020000014978,,response,,,7,A,,,,,Space,keypress(Space),,,,silence,---- --------- ---------- - --- ------- -- --- ------------<br>----- -- -------- ------- ---- ------ - -------- ---- -----<br>--- ------- ---- -- --- -------- --- - third ------ ---- --<br>-------- --- -------- -------- --- -------- ---- -- ----- -<br>-------- ---- --- ---------- --------- -- ------- ------ -<br>--------- ----- -----,199147.5,199146.6000000015,198597.828,198603.70000000298,198614.498,199164.658,,27,third
screen,html.Screen,0_4_1_0_1_28,2021-12-02T14:39:30.841Z,,,,,,,,,,,,,,,,15,,,,,,,,,,,,,,525.9420000014943,,response,,,7,A,,,,,Space,keypress(Space),,,,silence,---- --------- ---------- - --- ------- -- --- ------------<br>----- -- -------- ------- ---- ------ - -------- ---- -----<br>--- ------- ---- -- --- -------- --- - ----- prison ---- --<br>-------- --- -------- -------- --- -------- ---- -- ----- -<br>-------- ---- --- ---------- --------- -- ------- ------ -<br>--------- ----- -----,199691.5,199690.6000000015,199147.988,199147.70000000298,199164.658,199698.326,,28,prison
screen,html.Screen,0_4_1_0_1_29,2021-12-02T14:39:31.313Z,,,,,,,,,,,,,,,,15,,,,,,,,,,,,,,464.2740000014892,,response,,,7,A,,,,,Space,keypress(Space),,,,silence,---- --------- ---------- - --- ------- -- --- ------------<br>----- -- -------- ------- ---- ------ - -------- ---- -----<br>--- ------- ---- -- --- -------- --- - ----- ------ stay --<br>-------- --- -------- -------- --- -------- ---- -- ----- -<br>-------- ---- --- ---------- --------- -- ------- ------ -<br>--------- ----- -----,200163.40000000224,200162.6000000015,199681.653,199691.70000000298,199698.326,200164.876,,29,stay
screen,html.Screen,0_4_1_0_1_30,2021-12-02T14:39:31.849Z,,,,,,,,,,,,,,,,15,,,,,,,,,,,,,,533.7240000015008,,response,,,7,A,,,,,Space,keypress(Space),,,,silence,---- --------- ---------- - --- ------- -- --- ------------<br>----- -- -------- ------- ---- ------ - -------- ---- -----<br>--- ------- ---- -- --- -------- --- - ----- ------ ---- to<br>-------- --- -------- -------- --- -------- ---- -- ----- -<br>-------- ---- --- ---------- --------- -- ------- ------ -<br>--------- ----- -----,200699.40000000224,200698.6000000015,200148.207,200163.70000000298,200164.876,200715.156,,30,to
screen,html.Screen,0_4_1_0_1_31,2021-12-02T14:39:32.401Z,,,,,,,,,,,,,,,,15,,,,,,,,,,,,,,535.3440000000119,,response,,,7,A,,,,,Space,keypress(Space),,,,silence,---- --------- ---------- - --- ------- -- --- ------------<br>----- -- -------- ------- ---- ------ - -------- ---- -----<br>--- ------- ---- -- --- -------- --- - ----- ------ ---- --<br>maintain --- -------- -------- --- -------- ---- -- ----- -<br>-------- ---- --- ---------- --------- -- ------- ------ -<br>--------- ----- -----,201251.30000000075,201250.5,200698.485,200699.6000000015,200715.156,201265.321,,31,maintain
screen,html.Screen,0_4_1_0_1_32,2021-12-02T14:39:32.922Z,,,,,,,,,,,,,,,,15,,,,,,,,,,,,,,505.5790000022389,,response,,,7,A,,,,,Space,keypress(Space),,,,silence,---- --------- ---------- - --- ------- -- --- ------------<br>----- -- -------- ------- ---- ------ - -------- ---- -----<br>--- ------- ---- -- --- -------- --- - ----- ------ ---- --<br>-------- his -------- -------- --- -------- ---- -- ----- -<br>-------- ---- --- ---------- --------- -- ------- ------ -<br>--------- ----- -----,201771.70000000298,201770.90000000224,201248.65,201251.6000000015,201265.321,201782.03,,32,his
screen,html.Screen,0_4_1_0_1_33,2021-12-02T14:39:33.417Z,,,,,,,,,,,,,,,,15,,,,,,,,,,,,,,484.47000000000116,,response,,,7,A,,,,,Space,keypress(Space),,,,silence,---- --------- ---------- - --- ------- -- --- ------------<br>----- -- -------- ------- ---- ------ - -------- ---- -----<br>--- ------- ---- -- --- -------- --- - ----- ------ ---- --<br>-------- --- silence. -------- --- -------- ---- -- ----- -<br>-------- ---- --- ---------- --------- -- ------- ------ -<br>--------- ----- -----,202267.30000000075,202266.5,201765.36,201771.90000000224,201782.03,202282.242,,33,silence.
screen,html.Screen,0_4_1_0_1_34,2021-12-02T14:39:33.881Z,,,,,,,,,,,,,,,,15,,,,,,,,,,,,,,448.25800000000163,,response,,,7,A,,,,,Space,keypress(Space),,,,silence,---- --------- ---------- - --- ------- -- --- ------------<br>----- -- -------- ------- ---- ------ - -------- ---- -----<br>--- ------- ---- -- --- -------- --- - ----- ------ ---- --<br>-------- --- -------- Anderson --- -------- ---- -- ----- -<br>-------- ---- --- ---------- --------- -- ------- ------ -<br>--------- ----- -----,202731.30000000075,202730.5,202265.571,202267.6000000015,202282.242,202732.324,,34,Anderson
screen,html.Screen,0_4_1_0_1_35,2021-12-02T14:39:34.449Z,,,,,,,,,,,,,,,,15,,,,,,,,,,,,,,566.0760000022419,,response,,,7,A,,,,,Space,keypress(Space),,,,silence,---- --------- ---------- - --- ------- -- --- ------------<br>----- -- -------- ------- ---- ------ - -------- ---- -----<br>--- ------- ---- -- --- -------- --- - ----- ------ ---- --<br>-------- --- -------- -------- was -------- ---- -- ----- -<br>-------- ---- --- ---------- --------- -- ------- ------ -<br>--------- ----- -----,203299.30000000075,203298.40000000224,202715.654,202731.5,202732.324,203315.81,,35,was
screen,html.Screen,0_4_1_0_1_36,2021-12-02T14:39:34.937Z,,,,,,,,,,,,,,,,15,,,,,,,,,,,,,,470.5900000022375,,response,,,7,A,,,,,Space,keypress(Space),,,,silence,---- --------- ---------- - --- ------- -- --- ------------<br>----- -- -------- ------- ---- ------ - -------- ---- -----<br>--- ------- ---- -- --- -------- --- - ----- ------ ---- --<br>-------- --- -------- -------- --- released ---- -- ----- -<br>-------- ---- --- ---------- --------- -- ------- ------ -<br>--------- ----- -----,203787.30000000075,203786.40000000224,203299.14,203299.5,203315.81,203799.262,,36,released
screen,html.Screen,0_4_1_0_1_37,2021-12-02T14:39:35.473Z,,,,,,,,,,,,,,,,15,,,,,,,,,,,,,,523.1380000022473,,response,,,7,A,,,,,Space,keypress(Space),,,,silence,---- --------- ---------- - --- ------- -- --- ------------<br>----- -- -------- ------- ---- ------ - -------- ---- -----<br>--- ------- ---- -- --- -------- --- - ----- ------ ---- --<br>-------- --- -------- -------- --- -------- July -- ----- -<br>-------- ---- --- ---------- --------- -- ------- ------ -<br>--------- ----- -----,204323.20000000298,204322.40000000224,203782.592,203787.5,203799.262,204332.713,,37,July
screen,html.Screen,0_4_1_0_1_38,2021-12-02T14:39:35.929Z,,,,,,,,,,,,,,,,15,,,,,,,,,,,,,,445.68700000224635,,response,,,7,A,,,,,Space,keypress(Space),,,,silence,---- --------- ---------- - --- ------- -- --- ------------<br>----- -- -------- ------- ---- ------ - -------- ---- -----<br>--- ------- ---- -- --- -------- --- - ----- ------ ---- --<br>-------- --- -------- -------- --- -------- ---- 20 ----- -<br>-------- ---- --- ---------- --------- -- ------- ------ -<br>--------- ----- -----,204779.20000000298,204778.40000000224,204316.043,204323.5,204332.713,204782.916,,38,20
screen,html.Screen,0_4_1_0_1_39,2021-12-02T14:39:36.737Z,,,,,,,,,,,,,,,,15,,,,,,,,,,,,,,803.3840000007476,,response,,,7,A,,,,,Space,keypress(Space),,,,silence,---- --------- ---------- - --- ------- -- --- ------------<br>----- -- -------- ------- ---- ------ - -------- ---- -----<br>--- ------- ---- -- --- -------- --- - ----- ------ ---- --<br>-------- --- -------- -------- --- -------- ---- -- after -<br>-------- ---- --- ---------- --------- -- ------- ------ -<br>--------- ----- -----,205587.30000000075,205586.30000000075,204766.245,204779.40000000224,204782.916,205599.696,,39,after
screen,html.Screen,0_4_1_0_1_40,2021-12-02T14:39:37.305Z,,,,,,,,,,,,,,,,15,,,,,,,,,,,,,,554.6040000007488,,response,,,7,A,,,,,Space,keypress(Space),,,,silence,---- --------- ---------- - --- ------- -- --- ------------<br>----- -- -------- ------- ---- ------ - -------- ---- -----<br>--- ------- ---- -- --- -------- --- - ----- ------ ---- --<br>-------- --- -------- -------- --- -------- ---- -- ----- a<br>-------- ---- --- ---------- --------- -- ------- ------ -<br>--------- ----- -----,206155.1000000015,206154.30000000075,205583.026,205587.5,205599.696,206166.643,,40,a
screen,html.Screen,0_4_1_0_1_41,2021-12-02T14:39:37.881Z,,,,,,,,,,,,,,,,15,,,,,,,,,,,,,,563.5570000029693,,response,,,7,A,,,,,Space,keypress(Space),,,,silence,---- --------- ---------- - --- ------- -- --- ------------<br>----- -- -------- ------- ---- ------ - -------- ---- -----<br>--- ------- ---- -- --- -------- --- - ----- ------ ---- --<br>-------- --- -------- -------- --- -------- ---- -- ----- -<br>two-week ---- --- ---------- --------- -- ------- ------ -<br>--------- ----- -----,206731,206730.20000000298,206149.972,206155.30000000075,206166.643,206733.367,,41,two-week
screen,html.Screen,0_4_1_0_1_42,2021-12-02T14:39:38.385Z,,,,,,,,,,,,,,,,15,,,,,,,,,,,,,,500.83300000298186,,response,,,7,A,,,,,Space,keypress(Space),,,,silence,---- --------- ---------- - --- ------- -- --- ------------<br>----- -- -------- ------- ---- ------ - -------- ---- -----<br>--- ------- ---- -- --- -------- --- - ----- ------ ---- --<br>-------- --- -------- -------- --- -------- ---- -- ----- -<br>-------- stay --- ---------- --------- -- ------- ------ -<br>--------- ----- -----,207235,207234.20000000298,206716.697,206731.20000000298,206733.367,207250.187,,42,stay
screen,html.Screen,0_4_1_0_1_43,2021-12-02T14:39:38.897Z,,,,,,,,,,,,,,,,15,,,,,,,,,,,,,,496.0130000029749,,response,,,7,A,,,,,Space,keypress(Space),,,,silence,---- --------- ---------- - --- ------- -- --- ------------<br>----- -- -------- ------- ---- ------ - -------- ---- -----<br>--- ------- ---- -- --- -------- --- - ----- ------ ---- --<br>-------- --- -------- -------- --- -------- ---- -- ----- -<br>-------- ---- for ---------- --------- -- ------- ------ -<br>--------- ----- -----,207747,207746.20000000298,207233.517,207235.20000000298,207250.187,207750.319,,43,for
screen,html.Screen,0_4_1_0_1_44,2021-12-02T14:39:39.393Z,,,,,,,,,,,,,,,,15,,,,,,,,,,,,,,491.88100000299164,,response,,,7,A,,,,,Space,keypress(Space),,,,silence,---- --------- ---------- - --- ------- -- --- ------------<br>----- -- -------- ------- ---- ------ - -------- ---- -----<br>--- ------- ---- -- --- -------- --- - ----- ------ ---- --<br>-------- --- -------- -------- --- -------- ---- -- ----- -<br>-------- ---- --- previously --------- -- ------- ------ -<br>--------- ----- -----,208243,208242.20000000298,207733.649,207747.20000000298,207750.319,208250.458,,44,previously
screen,html.Screen,0_4_1_0_1_45,2021-12-02T14:39:39.841Z,,,,,,,,,,,,,,,,15,,,,,,,,,,,,,,439.64200000147684,,response,,,7,A,,,,,Space,keypress(Space),,,,silence,---- --------- ---------- - --- ------- -- --- ------------<br>----- -- -------- ------- ---- ------ - -------- ---- -----<br>--- ------- ---- -- --- -------- --- - ----- ------ ---- --<br>-------- --- -------- -------- --- -------- ---- -- ----- -<br>-------- ---- --- ---------- declining -- ------- ------ -<br>--------- ----- -----,208690.90000000224,208690.1000000015,208233.788,208243.20000000298,208250.458,208700.564,,45,declining
screen,html.Screen,0_4_1_0_1_46,2021-12-02T14:39:40.257Z,,,,,,,,,,,,,,,,15,,,,,,,,,,,,,,405.6360000029672,,response,,,7,A,,,,,Space,keypress(Space),,,,silence,---- --------- ---------- - --- ------- -- --- ------------<br>----- -- -------- ------- ---- ------ - -------- ---- -----<br>--- ------- ---- -- --- -------- --- - ----- ------ ---- --<br>-------- --- -------- -------- --- -------- ---- -- ----- -<br>-------- ---- --- ---------- --------- to ------- ------ -<br>--------- ----- -----,209107,209106.20000000298,208683.894,208691.1000000015,208700.564,209117.353,,46,to
screen,html.Screen,0_4_1_0_1_47,2021-12-02T14:39:40.681Z,,,,,,,,,,,,,,,,15,,,,,,,,,,,,,,412.7470000014873,,response,,,7,A,,,,,Space,keypress(Space),,,,silence,---- --------- ---------- - --- ------- -- --- ------------<br>----- -- -------- ------- ---- ------ - -------- ---- -----<br>--- ------- ---- -- --- -------- --- - ----- ------ ---- --<br>-------- --- -------- -------- --- -------- ---- -- ----- -<br>-------- ---- --- ---------- --------- -- testify ------ -<br>--------- ----- -----,209530.90000000224,209530.1000000015,209100.683,209107.20000000298,209117.353,209534.183,,47,testify
screen,html.Screen,0_4_1_0_1_48,2021-12-02T14:39:41.105Z,,,,,,,,,,,,,,,,15,,,,,,,,,,,,,,419.9170000015001,,response,,,7,A,,,,,Space,keypress(Space),,,,silence,---- --------- ---------- - --- ------- -- --- ------------<br>----- -- -------- ------- ---- ------ - -------- ---- -----<br>--- ------- ---- -- --- -------- --- - ----- ------ ---- --<br>-------- --- -------- -------- --- -------- ---- -- ----- -<br>-------- ---- --- ---------- --------- -- ------- before -<br>--------- ----- -----,209955,209954.1000000015,209517.512,209531.1000000015,209534.183,209967.566,,48,before
screen,html.Screen,0_4_1_0_1_49,2021-12-02T14:39:41.769Z,,,,,,,,,,,,,,,,15,,,,,,,,,,,,,,650.5340000014985,,response,,,7,A,,,,,Space,keypress(Space),,,,silence,---- --------- ---------- - --- ------- -- --- ------------<br>----- -- -------- ------- ---- ------ - -------- ---- -----<br>--- ------- ---- -- --- -------- --- - ----- ------ ---- --<br>-------- --- -------- -------- --- -------- ---- -- ----- -<br>-------- ---- --- ---------- --------- -- ------- ------ a<br>--------- ----- -----,210618.90000000224,210618.1000000015,209950.896,209955.20000000298,209967.566,210634.392,,49,a
screen,html.Screen,0_4_1_0_1_50,2021-12-02T14:39:42.185Z,,,,,,,,,,,,,,,,15,,,,,,,,,,,,,,399.70800000149757,,response,,,7,A,,,,,Space,keypress(Space),,,,silence,---- --------- ---------- - --- ------- -- --- ------------<br>----- -- -------- ------- ---- ------ - -------- ---- -----<br>--- ------- ---- -- --- -------- --- - ----- ------ ---- --<br>-------- --- -------- -------- --- -------- ---- -- ----- -<br>-------- ---- --- ---------- --------- -- ------- ------ -<br>different ----- -----,211034.90000000224,211034.1000000015,210617.722,210619.1000000015,210634.392,211051.238,,50,different
screen,html.Screen,0_4_1_0_1_51,2021-12-02T14:39:42.585Z,,,,,,,,,,,,,,,,15,,,,,,,,,,,,,,382.862000001478,,response,,,7,A,,,,,Space,keypress(Space),,,,silence,---- --------- ---------- - --- ------- -- --- ------------<br>----- -- -------- ------- ---- ------ - -------- ---- -----<br>--- ------- ---- -- --- -------- --- - ----- ------ ---- --<br>-------- --- -------- -------- --- -------- ---- -- ----- -<br>-------- ---- --- ---------- --------- -- ------- ------ -<br>--------- grand -----,211434.90000000224,211434.1000000015,211034.567,211035.20000000298,211051.238,211451.316,,51,grand
screen,html.Screen,0_4_1_0_1_52,2021-12-02T14:39:43.553Z,,,,,,,,,,,,,,,,15,,,,,,,,,,,,,,951.0840000022436,,response,,,7,A,,,,,Space,keypress(Space),,,,silence,---- --------- ---------- - --- ------- -- --- ------------<br>----- -- -------- ------- ---- ------ - -------- ---- -----<br>--- ------- ---- -- --- -------- --- - ----- ------ ---- --<br>-------- --- -------- -------- --- -------- ---- -- ----- -<br>-------- ---- --- ---------- --------- -- ------- ------ -<br>--------- ----- jury.,212403.1000000015,212402.40000000224,211434.646,211435.1000000015,211451.316,212418.207,,52,jury.
Item 7,flow.Loop,0_4_1_0_1,2021-12-02T14:39:43.553Z,,,,,,,,,,,,,,,,,,,,,,,,,,,,,,34493.44400000223,,completion,,,,,,,,,,,,,,,,212403.6000000015,212402.40000000224,177892.286,177894,177908.956,212418.207,,,
