sender,sender_type,sender_id,timestamp,meta,,Blues,Classical,Country,Dance,Electronic,Folk,Gospel,Hip-Hop,Jazz,Latin,Musical/Film,New-age,Pop,Provo_ID,R&B,Rap,Reggae,Religious,Rock,Soul,Swing,Traditional,age,artist_name,correct,correctResponse,distraction,duration,education,ended_on,familiarity,gender,item,list,music_frequency,offensiveness,pleasantness,preference,response,response_action,snippet_file,song_name,song_rating,sound,text,time_commit,time_end,time_render,time_run,time_show,time_switch,url,word,word_ID
Instructions,html.Page,0_0,2021-11-04T12:37:48.934Z,"{""labjs_version"":""20.2.3"",""labjs_build"":{""flavor"":""production"",""commit"":""7ea907d66ca8aeef8054924ca5d82ffbe11e34e5""},""location"":""https://run.pavlovia.org/mvasilev/lab_music_b/"",""userAgent"":""Mozilla/5.0 (Windows NT 6.1; Win64; x64) AppleWebKit/537.36 (KHTML, like Gecko) Chrome/95.0.4638.54 Safari/537.36"",""platform"":""Win32"",""language"":""en-US"",""locale"":""en-US"",""timeZone"":""Europe/London"",""timezoneOffset"":0,""screen_width"":1920,""screen_height"":1080,""scroll_width"":1920,""scroll_height"":959,""window_innerWidth"":1920,""window_innerHeight"":1007,""devicePixelRatio"":1}",,,,,,,,,,,,,,,,,,,,,,,,,,,,,17906.398999999998,,form submission,,,,,,,,,,,,,,,,28996.799999998882,28995.5,11055.737,11074.099999999627,11089.101,28991.392,{},,
Headphones,html.Page,0_1,2021-11-04T12:37:49.214Z,,,,,,,,,,,,,,,,,,,,,,,,,,,,,,285.3079999992551,,form submission,,,,,,,,,,,,,,,,29277.099999999627,29276.699999999255,28974.765,28997.5,28991.392,29276.893,,,
Holding screen,html.Screen,0_2_0_0,2021-11-04T12:37:59.207Z,,,,,,,,,,,,,,,,,,,,,,,,,,,,,,10002.280999999999,,timeout,,,,,,,,,,,,,,,,39269.39999999851,39262.504,29260.213,29277.699999999255,29276.893,39279.174,,,
screen,html.Screen,0_2_0_1_0,2021-11-04T12:38:00.627Z,,,,,,,,,,,,,,,,53,,,,,,,,,,,,,,1409.5259999992559,,response,,,99,,,,,,Space,keypress(Space),,,,,When -- ----- -- ------ - ------- --- ----------<br>------------- ------ ------ ---- ---- ------- ----- -- ----<br>-------- ------- -- ---------- --- - --- ----- ----- ----<br>---- --- --- ----- --- ---- ---- ------- ----- ---- -------<br>--- --- -- ----- -- --- ---- -- --- ---- -- ------ ------<br>--- ----- -- ----,40690.09999999963,40688.699999999255,39262.504,39269.89999999851,39279.174,40696.381,,0,When
screen,html.Screen,0_2_0_1_1,2021-11-04T12:38:01.418Z,,,,,,,,,,,,,,,,53,,,,,,,,,,,,,,783.7189999996262,,response,,,99,,,,,,Space,keypress(Space),,,,,---- it ----- -- ------ - ------- --- ----------<br>------------- ------ ------ ---- ---- ------- ----- -- ----<br>-------- ------- -- ---------- --- - --- ----- ----- ----<br>---- --- --- ----- --- ---- ---- ------- ----- ---- -------<br>--- --- -- ----- -- --- ---- -- --- ---- -- ------ ------<br>--- ----- -- ----,41481,41480.09999999963,40679.71,40690.59999999963,40696.381,41496.504,,1,it
screen,html.Screen,0_2_0_1_2,2021-11-04T12:38:02.354Z,,,,,,,,,,,,,,,,53,,,,,,,,,,,,,,919.5959999996267,,response,,,99,,,,,,Space,keypress(Space),,,,,---- -- comes -- ------ - ------- --- ----------<br>------------- ------ ------ ---- ---- ------- ----- -- ----<br>-------- ------- -- ---------- --- - --- ----- ----- ----<br>---- --- --- ----- --- ---- ---- ------- ----- ---- -------<br>--- --- -- ----- -- --- ---- -- --- ---- -- ------ ------<br>--- ----- -- ----,42417.09999999963,42416.09999999963,41479.834,41481.29999999888,41496.504,42430.01,,2,comes
screen,html.Screen,0_2_0_1_3,2021-11-04T12:38:02.906Z,,,,,,,,,,,,,,,,53,,,,,,,,,,,,,,537.989999999998,,response,,,99,,,,,,Space,keypress(Space),,,,,---- -- ----- to ------ - ------- --- ----------<br>------------- ------ ------ ---- ---- ------- ----- -- ----<br>-------- ------- -- ---------- --- - --- ----- ----- ----<br>---- --- --- ----- --- ---- ---- ------- ----- ---- -------<br>--- --- -- ----- -- --- ---- -- --- ---- -- ------ ------<br>--- ----- -- ----,42969,42968,42413.34,42417.29999999888,42430.01,42980.361,,3,to
screen,html.Screen,0_2_0_1_4,2021-11-04T12:38:03.570Z,,,,,,,,,,,,,,,,53,,,,,,,,,,,,,,651.6390000000029,,response,,,99,,,,,,Space,keypress(Space),,,,,---- -- ----- -- having - ------- --- ----------<br>------------- ------ ------ ---- ---- ------- ----- -- ----<br>-------- ------- -- ---------- --- - --- ----- ----- ----<br>---- --- --- ----- --- ---- ---- ------- ----- ---- -------<br>--- --- -- ----- -- --- ---- -- --- ---- -- ------ ------<br>--- ----- -- ----,43633.199999999255,43632,42963.689,42969.59999999963,42980.361,43647.065,,4,having
screen,html.Screen,0_2_0_1_5,2021-11-04T12:38:03.970Z,,,,,,,,,,,,,,,,53,,,,,,,,,,,,,,384.83499999850756,,response,,,99,,,,,,Space,keypress(Space),,,,,---- -- ----- -- ------ a ------- --- ----------<br>------------- ------ ------ ---- ---- ------- ----- -- ----<br>-------- ------- -- ---------- --- - --- ----- ----- ----<br>---- --- --- ----- --- ---- ---- ------- ----- ---- -------<br>--- --- -- ----- -- --- ---- -- --- ---- -- ------ ------<br>--- ----- -- ----,44032.89999999851,44031.89999999851,43630.395,43633.59999999963,43647.065,44047.196,,5,a
screen,html.Screen,0_2_0_1_6,2021-11-04T12:38:04.890Z,,,,,,,,,,,,,,,,53,,,,,,,,,,,,,,904.7039999985063,,response,,,99,,,,,,Space,keypress(Space),,,,,---- -- ----- -- ------ - lasting --- ----------<br>------------- ------ ------ ---- ---- ------- ----- -- ----<br>-------- ------- -- ---------- --- - --- ----- ----- ----<br>---- --- --- ----- --- ---- ---- ------- ----- ---- -------<br>--- --- -- ----- -- --- ---- -- --- ---- -- ------ ------<br>--- ----- -- ----,44952.79999999888,44951.89999999851,44030.526,44033.5,44047.196,44964.072,,6,lasting
screen,html.Screen,0_2_0_1_7,2021-11-04T12:38:05.298Z,,,,,,,,,,,,,,,,53,,,,,,,,,,,,,,395.82799999850977,,response,,,99,,,,,,Space,keypress(Space),,,,,---- -- ----- -- ------ - ------- and ----------<br>------------- ------ ------ ---- ---- ------- ----- -- ----<br>-------- ------- -- ---------- --- - --- ----- ----- ----<br>---- --- --- ----- --- ---- ---- ------- ----- ---- -------<br>--- --- -- ----- -- --- ---- -- --- ---- -- ------ ------<br>--- ----- -- ----,45360.89999999851,45359.89999999851,44947.402,44953.199999999255,44964.072,45363.996,,7,and
screen,html.Screen,0_2_0_1_8,2021-11-04T12:38:06.019Z,,,,,,,,,,,,,,,,53,,,,,,,,,,,,,,715.9039999985107,,response,,,99,,,,,,Space,keypress(Space),,,,,---- -- ----- -- ------ - ------- --- fulfilling<br>------------- ------ ------ ---- ---- ------- ----- -- ----<br>-------- ------- -- ---------- --- - --- ----- ----- ----<br>---- --- --- ----- --- ---- ---- ------- ----- ---- -------<br>--- --- -- ----- -- --- ---- -- --- ---- -- ------ ------<br>--- ----- -- ----,46081.29999999888,46079.89999999851,45347.328,45361.199999999255,45363.996,46097.776,,8,fulfilling
screen,html.Screen,0_2_0_1_9,2021-11-04T12:38:07.074Z,,,,,,,,,,,,,,,,53,,,,,,,,,,,,,,1038.0239999988844,,response,,,99,,,,,,Space,keypress(Space),,,,,"---- -- ----- -- ------ - ------- --- ----------<br>relationship, ------ ------ ---- ---- ------- ----- -- ----<br>-------- ------- -- ---------- --- - --- ----- ----- ----<br>---- --- --- ----- --- ---- ---- ------- ----- ---- -------<br>--- --- -- ----- -- --- ---- -- --- ---- -- ------ ------<br>--- ----- -- ----",47136.79999999888,47135.79999999888,46081.105,46081.59999999963,46097.776,47147.781,,9,"relationship,"
screen,html.Screen,0_2_0_1_10,2021-11-04T12:38:07.490Z,,,,,,,,,,,,,,,,53,,,,,,,,,,,,,,404.01899999887974,,response,,,99,,,,,,Space,keypress(Space),,,,,---- -- ----- -- ------ - ------- --- ----------<br>------------- common ------ ---- ---- ------- ----- -- ----<br>-------- ------- -- ---------- --- - --- ----- ----- ----<br>---- --- --- ----- --- ---- ---- ------- ----- ---- -------<br>--- --- -- ----- -- --- ---- -- --- ---- -- ------ ------<br>--- ----- -- ----,47552.79999999888,47551.79999999888,47131.112,47137.09999999963,47147.781,47564.811,,10,common
screen,html.Screen,0_2_0_1_11,2021-11-04T12:38:07.922Z,,,,,,,,,,,,,,,,53,,,,,,,,,,,,,,418.9889999988809,,response,,,99,,,,,,Space,keypress(Space),,,,,---- -- ----- -- ------ - ------- --- ----------<br>------------- ------ wisdom ---- ---- ------- ----- -- ----<br>-------- ------- -- ---------- --- - --- ----- ----- ----<br>---- --- --- ----- --- ---- ---- ------- ----- ---- -------<br>--- --- -- ----- -- --- ---- -- --- ---- -- ------ ------<br>--- ----- -- ----,47984.699999999255,47983.79999999888,47548.14,47553,47564.811,47998.248,,11,wisdom
screen,html.Screen,0_2_0_1_12,2021-11-04T12:38:08.346Z,,,,,,,,,,,,,,,,53,,,,,,,,,,,,,,409.45199999925535,,response,,,99,,,,,,Space,keypress(Space),,,,,---- -- ----- -- ------ - ------- --- ----------<br>------------- ------ ------ says ---- ------- ----- -- ----<br>-------- ------- -- ---------- --- - --- ----- ----- ----<br>---- --- --- ----- --- ---- ---- ------- ----- ---- -------<br>--- --- -- ----- -- --- ---- -- --- ---- -- ------ ------<br>--- ----- -- ----,48408.699999999255,48407.699999999255,47981.577,47985.09999999963,47998.248,48414.841,,12,says
screen,html.Screen,0_2_0_1_13,2021-11-04T12:38:08.770Z,,,,,,,,,,,,,,,,53,,,,,,,,,,,,,,416.8589999992546,,response,,,99,,,,,,Space,keypress(Space),,,,,---- -- ----- -- ------ - ------- --- ----------<br>------------- ------ ------ ---- that ------- ----- -- ----<br>-------- ------- -- ---------- --- - --- ----- ----- ----<br>---- --- --- ----- --- ---- ---- ------- ----- ---- -------<br>--- --- -- ----- -- --- ---- -- --- ---- -- ------ ------<br>--- ----- -- ----,48832.699999999255,48831.699999999255,48398.173,48408.89999999851,48414.841,48848.527,,13,that
screen,html.Screen,0_2_0_1_14,2021-11-04T12:38:09.210Z,,,,,,,,,,,,,,,,53,,,,,,,,,,,,,,423.1729999992531,,response,,,99,,,,,,Space,keypress(Space),,,,,---- -- ----- -- ------ - ------- --- ----------<br>------------- ------ ------ ---- ---- feeling ----- -- ----<br>-------- ------- -- ---------- --- - --- ----- ----- ----<br>---- --- --- ----- --- ---- ---- ------- ----- ---- -------<br>--- --- -- ----- -- --- ---- -- --- ---- -- ------ ------<br>--- ----- -- ----,49272.5,49271.699999999255,48831.855,48832.89999999851,48848.527,49281.798,,14,feeling
screen,html.Screen,0_2_0_1_15,2021-11-04T12:38:09.602Z,,,,,,,,,,,,,,,,53,,,,,,,,,,,,,,381.90199999925244,,response,,,99,,,,,,Space,keypress(Space),,,,,---- -- ----- -- ------ - ------- --- ----------<br>------------- ------ ------ ---- ---- ------- close -- ----<br>-------- ------- -- ---------- --- - --- ----- ----- ----<br>---- --- --- ----- --- ---- ---- ------- ----- ---- -------<br>--- --- -- ----- -- --- ---- -- --- ---- -- ------ ------<br>--- ----- -- ----,49664.59999999963,49663.699999999255,49265.129,49272.79999999888,49281.798,49682.029,,15,close
screen,html.Screen,0_2_0_1_16,2021-11-04T12:38:09.962Z,,,,,,,,,,,,,,,,53,,,,,,,,,,,,,,341.6709999992527,,response,,,99,,,,,,Space,keypress(Space),,,,,---- -- ----- -- ------ - ------- --- ----------<br>------------- ------ ------ ---- ---- ------- ----- to ----<br>-------- ------- -- ---------- --- - --- ----- ----- ----<br>---- --- --- ----- --- ---- ---- ------- ----- ---- -------<br>--- --- -- ----- -- --- ---- -- --- ---- -- ------ ------<br>--- ----- -- ----,50024.59999999963,50023.699999999255,49665.358,49664.79999999888,49682.029,50032.076,,16,to
screen,html.Screen,0_2_0_1_17,2021-11-04T12:38:10.338Z,,,,,,,,,,,,,,,,53,,,,,,,,,,,,,,367.52399999962654,,response,,,99,,,,,,Space,keypress(Space),,,,,---- -- ----- -- ------ - ------- --- ----------<br>------------- ------ ------ ---- ---- ------- ----- -- your<br>-------- ------- -- ---------- --- - --- ----- ----- ----<br>---- --- --- ----- --- ---- ---- ------- ----- ---- -------<br>--- --- -- ----- -- --- ---- -- --- ---- -- ------ ------<br>--- ----- -- ----,50400.39999999851,50399.59999999963,50015.406,50024.79999999888,50032.076,50415.495,,17,your
screen,html.Screen,0_2_0_1_18,2021-11-04T12:38:10.698Z,,,,,,,,,,,,,,,,53,,,,,,,,,,,,,,344.60499999962485,,response,,,99,,,,,,Space,keypress(Space),,,,,---- -- ----- -- ------ - ------- --- ----------<br>------------- ------ ------ ---- ---- ------- ----- -- ----<br>romantic ------- -- ---------- --- - --- ----- ----- ----<br>---- --- --- ----- --- ---- ---- ------- ----- ---- -------<br>--- --- -- ----- -- --- ---- -- --- ---- -- ------ ------<br>--- ----- -- ----,50760.89999999851,50760.09999999963,50398.825,50400.699999999255,50415.495,50765.494,,18,romantic
screen,html.Screen,0_2_0_1_19,2021-11-04T12:38:11.066Z,,,,,,,,,,,,,,,,53,,,,,,,,,,,,,,362.20599999925616,,response,,,99,,,,,,Space,keypress(Space),,,,,---- -- ----- -- ------ - ------- --- ----------<br>------------- ------ ------ ---- ---- ------- ----- -- ----<br>-------- partner -- ---------- --- - --- ----- ----- ----<br>---- --- --- ----- --- ---- ---- ------- ----- ---- -------<br>--- --- -- ----- -- --- ---- -- --- ---- -- ------ ------<br>--- ----- -- ----,51128.39999999851,51127.699999999255,50748.825,50761.199999999255,50765.494,51132.476,,19,partner
screen,html.Screen,0_2_0_1_20,2021-11-04T12:38:11.586Z,,,,,,,,,,,,,,,,53,,,,,,,,,,,,,,515.1239999996251,,response,,,99,,,,,,Space,keypress(Space),,,,,---- -- ----- -- ------ - ------- --- ----------<br>------------- ------ ------ ---- ---- ------- ----- -- ----<br>-------- ------- is ---------- --- - --- ----- ----- ----<br>---- --- --- ----- --- ---- ---- ------- ----- ---- -------<br>--- --- -- ----- -- --- ---- -- --- ---- -- ------ ------<br>--- ----- -- ----,51648.39999999851,51647.59999999963,51115.803,51128.699999999255,51132.476,51665.815,,20,is
screen,html.Screen,0_2_0_1_21,2021-11-04T12:38:12.946Z,,,,,,,,,,,,,,,,53,,,,,,,,,,,,,,1341.7849999996251,,response,,,99,,,,,,Space,keypress(Space),,,,,---- -- ----- -- ------ - ------- --- ----------<br>------------- ------ ------ ---- ---- ------- ----- -- ----<br>-------- ------- -- paramount. --- - --- ----- ----- ----<br>---- --- --- ----- --- ---- ---- ------- ----- ---- -------<br>--- --- -- ----- -- --- ---- -- --- ---- -- ------ ------<br>--- ----- -- ----,53008.39999999851,53007.59999999963,51649.145,51648.699999999255,51665.815,53016.103,,21,paramount.
screen,html.Screen,0_2_0_1_22,2021-11-04T12:38:13.290Z,,,,,,,,,,,,,,,,53,,,,,,,,,,,,,,335.3969999999972,,response,,,99,,,,,,Space,keypress(Space),,,,,---- -- ----- -- ------ - ------- --- ----------<br>------------- ------ ------ ---- ---- ------- ----- -- ----<br>-------- ------- -- ---------- But - --- ----- ----- ----<br>---- --- --- ----- --- ---- ---- ------- ----- ---- -------<br>--- --- -- ----- -- --- ---- -- --- ---- -- ------ ------<br>--- ----- -- ----,53352.29999999888,53351.5,52999.433,53008.89999999851,53016.103,53366.256,,22,But
screen,html.Screen,0_2_0_1_23,2021-11-04T12:38:13.610Z,,,,,,,,,,,,,,,,53,,,,,,,,,,,,,,305.2439999999988,,response,,,99,,,,,,Space,keypress(Space),,,,,---- -- ----- -- ------ - ------- --- ----------<br>------------- ------ ------ ---- ---- ------- ----- -- ----<br>-------- ------- -- ---------- --- a --- ----- ----- ----<br>---- --- --- ----- --- ---- ---- ------- ----- ---- -------<br>--- --- -- ----- -- --- ---- -- --- ---- -- ------ ------<br>--- ----- -- ----,53672.29999999888,53671.5,53349.586,53352.5,53366.256,53683.011,,23,a
screen,html.Screen,0_2_0_1_24,2021-11-04T12:38:14.050Z,,,,,,,,,,,,,,,,53,,,,,,,,,,,,,,428.4890000000014,,response,,,99,,,,,,Space,keypress(Space),,,,,---- -- ----- -- ------ - ------- --- ----------<br>------------- ------ ------ ---- ---- ------- ----- -- ----<br>-------- ------- -- ---------- --- - new ----- ----- ----<br>---- --- --- ----- --- ---- ---- ------- ----- ---- -------<br>--- --- -- ----- -- --- ---- -- --- ---- -- ------ ------<br>--- ----- -- ----,54112.29999999888,54111.5,53666.341,53672.59999999963,53683.011,54116.488,,24,new
screen,html.Screen,0_2_0_1_25,2021-11-04T12:38:14.474Z,,,,,,,,,,,,,,,,53,,,,,,,,,,,,,,419.01200000000244,,response,,,99,,,,,,Space,keypress(Space),,,,,---- -- ----- -- ------ - ------- --- ----------<br>------------- ------ ------ ---- ---- ------- ----- -- ----<br>-------- ------- -- ---------- --- - --- study ----- ----<br>---- --- --- ----- --- ---- ---- ------- ----- ---- -------<br>--- --- -- ----- -- --- ---- -- --- ---- -- ------ ------<br>--- ----- -- ----,54536.29999999888,54535.5,54099.817,54112.5,54116.488,54549.888,,25,study
screen,html.Screen,0_2_0_1_26,2021-11-04T12:38:15.065Z,,,,,,,,,,,,,,,,53,,,,,,,,,,,,,,577.5119999985109,,response,,,99,,,,,,Space,keypress(Space),,,,,---- -- ----- -- ------ - ------- --- ----------<br>------------- ------ ------ ---- ---- ------- ----- -- ----<br>-------- ------- -- ---------- --- - --- ----- finds ----<br>---- --- --- ----- --- ---- ---- ------- ----- ---- -------<br>--- --- -- ----- -- --- ---- -- --- ---- -- ------ ------<br>--- ----- -- ----,55128.199999999255,55127.39999999851,54533.218,54536.5,54549.888,55133.374,,26,finds
screen,html.Screen,0_2_0_1_27,2021-11-04T12:38:15.465Z,,,,,,,,,,,,,,,,53,,,,,,,,,,,,,,394.02599999850645,,response,,,99,,,,,,Space,keypress(Space),,,,,---- -- ----- -- ------ - ------- --- ----------<br>------------- ------ ------ ---- ---- ------- ----- -- ----<br>-------- ------- -- ---------- --- - --- ----- ----- that<br>---- --- --- ----- --- ---- ---- ------- ----- ---- -------<br>--- --- -- ----- -- --- ---- -- --- ---- -- ------ ------<br>--- ----- -- ----,55528.199999999255,55527.39999999851,55116.704,55128.5,55133.374,55533.491,,27,that
screen,html.Screen,0_2_0_1_28,2021-11-04T12:38:15.937Z,,,,,,,,,,,,,,,,53,,,,,,,,,,,,,,465.8089999988806,,response,,,99,,,,,,Space,keypress(Space),,,,,---- -- ----- -- ------ - ------- --- ----------<br>------------- ------ ------ ---- ---- ------- ----- -- ----<br>-------- ------- -- ---------- --- - --- ----- ----- ----<br>it's --- --- ----- --- ---- ---- ------- ----- ---- -------<br>--- --- -- ----- -- --- ---- -- --- ---- -- ------ ------<br>--- ----- -- ----,56000.09999999963,55999.29999999888,55516.821,55528.5,55533.491,56016.931,,28,it's
screen,html.Screen,0_2_0_1_29,2021-11-04T12:38:16.241Z,,,,,,,,,,,,,,,,53,,,,,,,,,,,,,,286.468999998513,,response,,,99,,,,,,Space,keypress(Space),,,,,---- -- ----- -- ------ - ------- --- ----------<br>------------- ------ ------ ---- ---- ------- ----- -- ----<br>-------- ------- -- ---------- --- - --- ----- ----- ----<br>---- not --- ----- --- ---- ---- ------- ----- ---- -------<br>--- --- -- ----- -- --- ---- -- --- ---- -- ------ ------<br>--- ----- -- ----,56304.09999999963,56303.39999999851,56000.261,56000.39999999851,56016.931,56317.057,,29,not
screen,html.Screen,0_2_0_1_30,2021-11-04T12:38:16.625Z,,,,,,,,,,,,,,,,53,,,,,,,,,,,,,,370.2429999988817,,response,,,99,,,,,,Space,keypress(Space),,,,,---- -- ----- -- ------ - ------- --- ----------<br>------------- ------ ------ ---- ---- ------- ----- -- ----<br>-------- ------- -- ---------- --- - --- ----- ----- ----<br>---- --- how ----- --- ---- ---- ------- ----- ---- -------<br>--- --- -- ----- -- --- ---- -- --- ---- -- ------ ------<br>--- ----- -- ----,56688.09999999963,56687.29999999888,56300.386,56304.39999999851,56317.057,56700.461,,30,how
screen,html.Screen,0_2_0_1_31,2021-11-04T12:38:16.937Z,,,,,,,,,,,,,,,,53,,,,,,,,,,,,,,298.83899999887944,,response,,,99,,,,,,Space,keypress(Space),,,,,---- -- ----- -- ------ - ------- --- ----------<br>------------- ------ ------ ---- ---- ------- ----- -- ----<br>-------- ------- -- ---------- --- - --- ----- ----- ----<br>---- --- --- close --- ---- ---- ------- ----- ---- -------<br>--- --- -- ----- -- --- ---- -- --- ---- -- ------ ------<br>--- ----- -- ----,57000.09999999963,56999.29999999888,56683.791,56688.39999999851,56700.461,57017.212,,31,close
screen,html.Screen,0_2_0_1_32,2021-11-04T12:38:18.073Z,,,,,,,,,,,,,,,,53,,,,,,,,,,,,,,1118.0879999988829,,response,,,99,,,,,,Space,keypress(Space),,,,,---- -- ----- -- ------ - ------- --- ----------<br>------------- ------ ------ ---- ---- ------- ----- -- ----<br>-------- ------- -- ---------- --- - --- ----- ----- ----<br>---- --- --- ----- you ---- ---- ------- ----- ---- -------<br>--- --- -- ----- -- --- ---- -- --- ---- -- ------ ------<br>--- ----- -- ----,58136,58135.29999999888,57000.542,57000.39999999851,57017.212,58150.869,,32,you
screen,html.Screen,0_2_0_1_33,2021-11-04T12:38:18.457Z,,,,,,,,,,,,,,,,53,,,,,,,,,,,,,,368.43099999888364,,response,,,99,,,,,,Space,keypress(Space),,,,,---- -- ----- -- ------ - ------- --- ----------<br>------------- ------ ------ ---- ---- ------- ----- -- ----<br>-------- ------- -- ---------- --- - --- ----- ----- ----<br>---- --- --- ----- --- feel ---- ------- ----- ---- -------<br>--- --- -- ----- -- --- ---- -- --- ---- -- ------ ------<br>--- ----- -- ----,58520,58519.29999999888,58134.198,58136.39999999851,58150.869,58534.169,,33,feel
screen,html.Screen,0_2_0_1_34,2021-11-04T12:38:19.025Z,,,,,,,,,,,,,,,,53,,,,,,,,,,,,,,553.0309999992533,,response,,,99,,,,,,Space,keypress(Space),,,,,---- -- ----- -- ------ - ------- --- ----------<br>------------- ------ ------ ---- ---- ------- ----- -- ----<br>-------- ------- -- ---------- --- - --- ----- ----- ----<br>---- --- --- ----- --- ---- that ------- ----- ---- -------<br>--- --- -- ----- -- --- ---- -- --- ---- -- ------ ------<br>--- ----- -- ----,59087.89999999851,59087.199999999255,58517.5,58520.29999999888,58534.169,59101.066,,34,that
screen,html.Screen,0_2_0_1_35,2021-11-04T12:38:19.418Z,,,,,,,,,,,,,,,,53,,,,,,,,,,,,,,378.0339999996286,,response,,,99,,,,,,Space,keypress(Space),,,,,---- -- ----- -- ------ - ------- --- ----------<br>------------- ------ ------ ---- ---- ------- ----- -- ----<br>-------- ------- -- ---------- --- - --- ----- ----- ----<br>---- --- --- ----- --- ---- ---- matters ----- ---- -------<br>--- --- -- ----- -- --- ---- -- --- ---- -- ------ ------<br>--- ----- -- ----,59480.39999999851,59479.09999999963,59084.396,59090.59999999963,59101.066,59484.508,,35,matters
screen,html.Screen,0_2_0_1_36,2021-11-04T12:38:20.020Z,,,,,,,,,,,,,,,,53,,,,,,,,,,,,,,594.5919999996258,,response,,,99,,,,,,Space,keypress(Space),,,,,"---- -- ----- -- ------ - ------- --- ----------<br>------------- ------ ------ ---- ---- ------- ----- -- ----<br>-------- ------- -- ---------- --- - --- ----- ----- ----<br>---- --- --- ----- --- ---- ---- ------- most, ---- -------<br>--- --- -- ----- -- --- ---- -- --- ---- -- ------ ------<br>--- ----- -- ----",60079.89999999851,60079.09999999963,59467.838,59480.59999999963,59484.508,60084.641,,36,"most,"
screen,html.Screen,0_2_0_1_37,2021-11-04T12:38:20.524Z,,,,,,,,,,,,,,,,53,,,,,,,,,,,,,,498.35899999999674,,response,,,99,,,,,,Space,keypress(Space),,,,,---- -- ----- -- ------ - ------- --- ----------<br>------------- ------ ------ ---- ---- ------- ----- -- ----<br>-------- ------- -- ---------- --- - --- ----- ----- ----<br>---- --- --- ----- --- ---- ---- ------- ----- it's -------<br>--- --- -- ----- -- --- ---- -- --- ---- -- ------ ------<br>--- ----- -- ----,60583.89999999851,60583,60067.971,60080.09999999963,60084.641,60584.783,,37,it's
screen,html.Screen,0_2_0_1_38,2021-11-04T12:38:20.956Z,,,,,,,,,,,,,,,,53,,,,,,,,,,,,,,430.7169999999969,,response,,,99,,,,,,Space,keypress(Space),,,,,---- -- ----- -- ------ - ------- --- ----------<br>------------- ------ ------ ---- ---- ------- ----- -- ----<br>-------- ------- -- ---------- --- - --- ----- ----- ----<br>---- --- --- ----- --- ---- ---- ------- ----- ---- whether<br>--- --- -- ----- -- --- ---- -- --- ---- -- ------ ------<br>--- ----- -- ----,61016.29999999888,61015.5,60568.113,60584.09999999963,60584.783,61018.234,,38,whether
screen,html.Screen,0_2_0_1_39,2021-11-04T12:38:21.340Z,,,,,,,,,,,,,,,,53,,,,,,,,,,,,,,380.76600000000326,,response,,,99,,,,,,Space,keypress(Space),,,,,---- -- ----- -- ------ - ------- --- ----------<br>------------- ------ ------ ---- ---- ------- ----- -- ----<br>-------- ------- -- ---------- --- - --- ----- ----- ----<br>---- --- --- ----- --- ---- ---- ------- ----- ---- -------<br>you --- -- ----- -- --- ---- -- --- ---- -- ------ ------<br>--- ----- -- ----,61399.79999999888,61399,61001.564,61016.5,61018.234,61401.671,,39,you
screen,html.Screen,0_2_0_1_40,2021-11-04T12:38:21.700Z,,,,,,,,,,,,,,,,53,,,,,,,,,,,,,,357.3289999999979,,response,,,99,,,,,,Space,keypress(Space),,,,,---- -- ----- -- ------ - ------- --- ----------<br>------------- ------ ------ ---- ---- ------- ----- -- ----<br>-------- ------- -- ---------- --- - --- ----- ----- ----<br>---- --- --- ----- --- ---- ---- ------- ----- ---- -------<br>--- are -- ----- -- --- ---- -- --- ---- -- ------ ------<br>--- ----- -- ----,61759.79999999888,61759,61385.001,61400,61401.671,61768.37,,40,are
screen,html.Screen,0_2_0_1_41,2021-11-04T12:38:22.012Z,,,,,,,,,,,,,,,,53,,,,,,,,,,,,,,302.6299999999974,,response,,,99,,,,,,Space,keypress(Space),,,,,---- -- ----- -- ------ - ------- --- ----------<br>------------- ------ ------ ---- ---- ------- ----- -- ----<br>-------- ------- -- ---------- --- - --- ----- ----- ----<br>---- --- --- ----- --- ---- ---- ------- ----- ---- -------<br>--- --- as ----- -- --- ---- -- --- ---- -- ------ ------<br>--- ----- -- ----,62071.79999999888,62071,61751.701,61760,61768.37,62085.207,,41,as
screen,html.Screen,0_2_0_1_42,2021-11-04T12:38:22.276Z,,,,,,,,,,,,,,,,53,,,,,,,,,,,,,,249.79299999999785,,response,,,99,,,,,,Space,keypress(Space),,,,,---- -- ----- -- ------ - ------- --- ----------<br>------------- ------ ------ ---- ---- ------- ----- -- ----<br>-------- ------- -- ---------- --- - --- ----- ----- ----<br>---- --- --- ----- --- ---- ---- ------- ----- ---- -------<br>--- --- -- close -- --- ---- -- --- ---- -- ------ ------<br>--- ----- -- ----,62335.89999999851,62335,62068.536,62072,62085.207,62351.917,,42,close
screen,html.Screen,0_2_0_1_43,2021-11-04T12:38:22.636Z,,,,,,,,,,,,,,,,53,,,,,,,,,,,,,,342.9829999985086,,response,,,99,,,,,,Space,keypress(Space),,,,,---- -- ----- -- ------ - ------- --- ----------<br>------------- ------ ------ ---- ---- ------- ----- -- ----<br>-------- ------- -- ---------- --- - --- ----- ----- ----<br>---- --- --- ----- --- ---- ---- ------- ----- ---- -------<br>--- --- -- ----- as --- ---- -- --- ---- -- ------ ------<br>--- ----- -- ----,62695.699999999255,62694.89999999851,62335.247,62336.09999999963,62351.917,62701.996,,43,as
screen,html.Screen,0_2_0_1_44,2021-11-04T12:38:23.148Z,,,,,,,,,,,,,,,,53,,,,,,,,,,,,,,505.0040000000008,,response,,,99,,,,,,Space,keypress(Space),,,,,---- -- ----- -- ------ - ------- --- ----------<br>------------- ------ ------ ---- ---- ------- ----- -- ----<br>-------- ------- -- ---------- --- - --- ----- ----- ----<br>---- --- --- ----- --- ---- ---- ------- ----- ---- -------<br>--- --- -- ----- -- you ---- -- --- ---- -- ------ ------<br>--- ----- -- ----,63207.79999999888,63207,62685.326,62696,62701.996,63218.782,,44,you
screen,html.Screen,0_2_0_1_45,2021-11-04T12:38:23.532Z,,,,,,,,,,,,,,,,53,,,,,,,,,,,,,,372.11799999851064,,response,,,99,,,,,,Space,keypress(Space),,,,,---- -- ----- -- ------ - ------- --- ----------<br>------------- ------ ------ ---- ---- ------- ----- -- ----<br>-------- ------- -- ---------- --- - --- ----- ----- ----<br>---- --- --- ----- --- ---- ---- ------- ----- ---- -------<br>--- --- -- ----- -- --- want -- --- ---- -- ------ ------<br>--- ----- -- ----,63591.699999999255,63590.89999999851,63202.112,63208,63218.782,63602.144,,45,want
screen,html.Screen,0_2_0_1_46,2021-11-04T12:38:23.868Z,,,,,,,,,,,,,,,,53,,,,,,,,,,,,,,324.75599999850965,,response,,,99,,,,,,Space,keypress(Space),,,,,---- -- ----- -- ------ - ------- --- ----------<br>------------- ------ ------ ---- ---- ------- ----- -- ----<br>-------- ------- -- ---------- --- - --- ----- ----- ----<br>---- --- --- ----- --- ---- ---- ------- ----- ---- -------<br>--- --- -- ----- -- --- ---- to --- ---- -- ------ ------<br>--- ----- -- ----,63927.699999999255,63926.89999999851,63585.475,63592,63602.144,63935.687,,46,to
screen,html.Screen,0_2_0_1_47,2021-11-04T12:38:24.292Z,,,,,,,,,,,,,,,,53,,,,,,,,,,,,,,415.2129999985118,,response,,,99,,,,,,Space,keypress(Space),,,,,"---- -- ----- -- ------ - ------- --- ----------<br>------------- ------ ------ ---- ---- ------- ----- -- ----<br>-------- ------- -- ---------- --- - --- ----- ----- ----<br>---- --- --- ----- --- ---- ---- ------- ----- ---- -------<br>--- --- -- ----- -- --- ---- -- be, ---- -- ------ ------<br>--- ----- -- ----",64351.699999999255,64350.89999999851,63919.016,63928,63935.687,64369.091,,47,"be,"
screen,html.Screen,0_2_0_1_48,2021-11-04T12:38:24.692Z,,,,,,,,,,,,,,,,53,,,,,,,,,,,,,,381.70899999888206,,response,,,99,,,,,,Space,keypress(Space),,,,,---- -- ----- -- ------ - ------- --- ----------<br>------------- ------ ------ ---- ---- ------- ----- -- ----<br>-------- ------- -- ---------- --- - --- ----- ----- ----<br>---- --- --- ----- --- ---- ---- ------- ----- ---- -------<br>--- --- -- ----- -- --- ---- -- --- even -- ------ ------<br>--- ----- -- ----,64751.699999999255,64750.79999999888,64352.421,64352,64369.091,64769.185,,48,even
screen,html.Screen,0_2_0_1_49,2021-11-04T12:38:25.028Z,,,,,,,,,,,,,,,,53,,,,,,,,,,,,,,317.61499999888474,,response,,,99,,,,,,Space,keypress(Space),,,,,---- -- ----- -- ------ - ------- --- ----------<br>------------- ------ ------ ---- ---- ------- ----- -- ----<br>-------- ------- -- ---------- --- - --- ----- ----- ----<br>---- --- --- ----- --- ---- ---- ------- ----- ---- -------<br>--- --- -- ----- -- --- ---- -- --- ---- if ------ ------<br>--- ----- -- ----,65087.5,65086.79999999888,64752.515,64751.89999999851,64769.185,65102.616,,49,if
screen,html.Screen,0_2_0_1_50,2021-11-04T12:38:25.396Z,,,,,,,,,,,,,,,,53,,,,,,,,,,,,,,352.1839999988806,,response,,,99,,,,,,Space,keypress(Space),,,,,---- -- ----- -- ------ - ------- --- ----------<br>------------- ------ ------ ---- ---- ------- ----- -- ----<br>-------- ------- -- ---------- --- - --- ----- ----- ----<br>---- --- --- ----- --- ---- ---- ------- ----- ---- -------<br>--- --- -- ----- -- --- ---- -- --- ---- -- that's ------<br>--- ----- -- ----,65456.199999999255,65454.79999999888,65085.946,65087.79999999888,65102.616,65469.375,,50,that's
screen,html.Screen,0_2_0_1_51,2021-11-04T12:38:25.780Z,,,,,,,,,,,,,,,,53,,,,,,,,,,,,,,369.4249999988824,,response,,,99,,,,,,Space,keypress(Space),,,,,---- -- ----- -- ------ - ------- --- ----------<br>------------- ------ ------ ---- ---- ------- ----- -- ----<br>-------- ------- -- ---------- --- - --- ----- ----- ----<br>---- --- --- ----- --- ---- ---- ------- ----- ---- -------<br>--- --- -- ----- -- --- ---- -- --- ---- -- ------ really<br>--- ----- -- ----,65839.59999999963,65838.79999999888,65452.705,65456.39999999851,65469.375,65852.734,,51,really
screen,html.Screen,0_2_0_1_52,2021-11-04T12:38:26.212Z,,,,,,,,,,,,,,,,53,,,,,,,,,,,,,,418.0659999988857,,response,,,99,,,,,,Space,keypress(Space),,,,,---- -- ----- -- ------ - ------- --- ----------<br>------------- ------ ------ ---- ---- ------- ----- -- ----<br>-------- ------- -- ---------- --- - --- ----- ----- ----<br>---- --- --- ----- --- ---- ---- ------- ----- ---- -------<br>--- --- -- ----- -- --- ---- -- --- ---- -- ------ ------<br>not ----- -- ----,66271.59999999963,66270.79999999888,65836.065,65839.89999999851,65852.734,66286.352,,52,not
screen,html.Screen,0_2_0_1_53,2021-11-04T12:38:26.564Z,,,,,,,,,,,,,,,,53,,,,,,,,,,,,,,336.347999999256,,response,,,99,,,,,,Space,keypress(Space),,,,,---- -- ----- -- ------ - ------- --- ----------<br>------------- ------ ------ ---- ---- ------- ----- -- ----<br>-------- ------- -- ---------- --- - --- ----- ----- ----<br>---- --- --- ----- --- ---- ---- ------- ----- ---- -------<br>--- --- -- ----- -- --- ---- -- --- ---- -- ------ ------<br>--- close -- ----,66623.5,66622.69999999925,66269.68,66271.79999999888,66286.352,66636.327,,53,close
screen,html.Screen,0_2_0_1_54,2021-11-04T12:38:26.932Z,,,,,,,,,,,,,,,,53,,,,,,,,,,,,,,354.37299999925017,,response,,,99,,,,,,Space,keypress(Space),,,,,---- -- ----- -- ------ - ------- --- ----------<br>------------- ------ ------ ---- ---- ------- ----- -- ----<br>-------- ------- -- ---------- --- - --- ----- ----- ----<br>---- --- --- ----- --- ---- ---- ------- ----- ---- -------<br>--- --- -- ----- -- --- ---- -- --- ---- -- ------ ------<br>--- ----- at ----,66991.5,66990.69999999925,66619.657,66623.79999999888,66636.327,67003.103,,54,at
screen,html.Screen,0_2_0_1_55,2021-11-04T12:38:27.412Z,,,,,,,,,,,,,,,,53,,,,,,,,,,,,,,467.4969999996247,,response,,,99,,,,,,Space,keypress(Space),,,,,---- -- ----- -- ------ - ------- --- ----------<br>------------- ------ ------ ---- ---- ------- ----- -- ----<br>-------- ------- -- ---------- --- - --- ----- ----- ----<br>---- --- --- ----- --- ---- ---- ------- ----- ---- -------<br>--- --- -- ----- -- --- ---- -- --- ---- -- ------ ------<br>--- ----- -- all.,67471.39999999851,67470.59999999963,66986.433,66991.69999999925,67003.103,67486.556,,55,all.
Item 99,flow.Loop,0_2_0_1,2021-11-04T12:38:27.416Z,,,,,,,,,,,,,,,,,,,,,,,,,,,,,,28191.42599999963,,completion,,,,B,,,,,,,,,,silence,,67476.09999999963,67470.59999999963,39262.504,39269.79999999888,39279.174,67486.556,,,
Question 1,html.Screen,0_2_0_2,2021-11-04T12:38:32.718Z,,,,,,,,,,,,,,,,,,,,,,,,,,,true,FALSE,,5290.043999999631,,response,,,99,B,,,,,FALSE,click #choice-2,,,,silence,,72778,72776.59999999963,67469.886,67476.39999999851,67486.556,72787.926,,,
Question 2,html.Screen,0_2_0_3,2021-11-04T12:38:40.235Z,,,,,,,,,,,,,,,,,,,,,,,,,,,true,TRUE,,7505.673999999621,,response,,,99,B,,,,,TRUE,click #choice-1,,,,silence,,80294.79999999888,80293.59999999963,72771.256,72778.29999999888,72787.926,80306.442,,,
Item 99,flow.Sequence,0_2_0,2021-11-04T12:38:40.235Z,,,,,,,,,,,,,,,,,,,,,,,,,,,,,,51016.70699999963,,completion,,,,,,,,,,,,,,,,80295.29999999888,80293.59999999963,29260.213,29277.5,29276.893,80306.442,,,
Holding screen,html.Screen,0_2_1_0,2021-11-04T12:38:50.233Z,,,,,,,,,,,,,,,,,,,,,,,,,,,,,,10002.562000000005,,timeout,,,,,,,,,,,,,,,,90293.19999999925,90292.334,80289.773,80295.89999999851,80306.442,90309.004,,,
screen,html.Screen,0_2_1_1_0,2021-11-04T12:38:51.067Z,,,,,,,,,,,,,,,,54,,,,,,,,,,,,,,816.8959999985091,,response,,,100,,,,,,Space,keypress(Space),,,,,At --- ---- --- ------ ----- ------- ---- -- --- ------- --<br>------- ---------- ------ -- ----- -- ----- -- ---- ------<br>--- ----- --- --- ------ -------- ----- --- ------ ----- --<br>----- ----- ---------- --- --- ------ ------ ---- -- ------<br>------- --- ------ ----- --- ---- ------- -- ---- --- --<br>------- ------,91126.89999999851,91125.89999999851,90292.334,90293.5,90309.004,91142.699,,0,At
screen,html.Screen,0_2_1_1_1,2021-11-04T12:38:51.418Z,,,,,,,,,,,,,,,,54,,,,,,,,,,,,,,334.70099999851664,,response,,,100,,,,,,Space,keypress(Space),,,,,-- the ---- --- ------ ----- ------- ---- -- --- ------- --<br>------- ---------- ------ -- ----- -- ----- -- ---- ------<br>--- ----- --- --- ------ -------- ----- --- ------ ----- --<br>----- ----- ---------- --- --- ------ ------ ---- -- ------<br>------- --- ------ ----- --- ---- ------- -- ---- --- --<br>------- ------,91478.19999999925,91477.39999999851,91126.028,91127.09999999963,91142.699,91492.734,,1,the
screen,html.Screen,0_2_1_1_2,2021-11-04T12:38:51.730Z,,,,,,,,,,,,,,,,54,,,,,,,,,,,,,,296.66599999851314,,response,,,100,,,,,,Space,keypress(Space),,,,,-- --- time --- ------ ----- ------- ---- -- --- ------- --<br>------- ---------- ------ -- ----- -- ----- -- ---- ------<br>--- ----- --- --- ------ -------- ----- --- ------ ----- --<br>----- ----- ---------- --- --- ------ ------ ---- -- ------<br>------- --- ------ ----- --- ---- ------- -- ---- --- --<br>------- ------,91790.19999999925,91789.39999999851,91476.064,91478.5,91492.734,91792.854,,2,time
screen,html.Screen,0_2_1_1_3,2021-11-04T12:38:52.090Z,,,,,,,,,,,,,,,,54,,,,,,,,,,,,,,356.4459999988758,,response,,,100,,,,,,Space,keypress(Space),,,,,-- --- ---- the ------ ----- ------- ---- -- --- ------- --<br>------- ---------- ------ -- ----- -- ----- -- ---- ------<br>--- ----- --- --- ------ -------- ----- --- ------ ----- --<br>----- ----- ---------- --- --- ------ ------ ---- -- ------<br>------- --- ------ ----- --- ---- ------- -- ---- --- --<br>------- ------,92150.09999999963,92149.29999999888,91776.183,91790.5,91792.854,92159.464,,3,the
screen,html.Screen,0_2_1_1_4,2021-11-04T12:38:52.458Z,,,,,,,,,,,,,,,,54,,,,,,,,,,,,,,357.93599999850267,,response,,,100,,,,,,Space,keypress(Space),,,,,-- --- ---- --- French ----- ------- ---- -- --- ------- --<br>------- ---------- ------ -- ----- -- ----- -- ---- ------<br>--- ----- --- --- ------ -------- ----- --- ------ ----- --<br>----- ----- ---------- --- --- ------ ------ ---- -- ------<br>------- --- ------ ----- --- ---- ------- -- ---- --- --<br>------- ------,92518.19999999925,92517.39999999851,92142.796,92152.09999999963,92159.464,92526.429,,4,French
screen,html.Screen,0_2_1_1_5,2021-11-04T12:38:52.930Z,,,,,,,,,,,,,,,,54,,,,,,,,,,,,,,462.8709999988787,,response,,,100,,,,,,Space,keypress(Space),,,,,-- --- ---- --- ------ crown ------- ---- -- --- ------- --<br>------- ---------- ------ -- ----- -- ----- -- ---- ------<br>--- ----- --- --- ------ -------- ----- --- ------ ----- --<br>----- ----- ---------- --- --- ------ ------ ---- -- ------<br>------- --- ------ ----- --- ---- ------- -- ---- --- --<br>------- ------,92990.09999999963,92989.29999999888,92509.757,92518.39999999851,92526.429,92993.112,,5,crown
screen,html.Screen,0_2_1_1_6,2021-11-04T12:38:55.650Z,,,,,,,,,,,,,,,,54,,,,,,,,,,,,,,2716.0879999992612,,response,,,100,,,,,,Space,keypress(Space),,,,,-- --- ---- --- ------ ----- secured ---- -- --- ------- --<br>------- ---------- ------ -- ----- -- ----- -- ---- ------<br>--- ----- --- --- ------ -------- ----- --- ------ ----- --<br>----- ----- ---------- --- --- ------ ------ ---- -- ------<br>------- --- ------ ----- --- ---- ------- -- ---- --- --<br>------- ------,95710,95709.19999999925,92976.442,92990.29999999888,92993.112,95727.028,,6,secured
screen,html.Screen,0_2_1_1_7,2021-11-04T12:38:55.938Z,,,,,,,,,,,,,,,,54,,,,,,,,,,,,,,270.07199999962177,,response,,,100,,,,,,Space,keypress(Space),,,,,-- --- ---- --- ------ ----- ------- much -- --- ------- --<br>------- ---------- ------ -- ----- -- ----- -- ---- ------<br>--- ----- --- --- ------ -------- ----- --- ------ ----- --<br>----- ----- ---------- --- --- ------ ------ ---- -- ------<br>------- --- ------ ----- --- ---- ------- -- ---- --- --<br>------- ------,95997.89999999851,95997.09999999963,95710.358,95710.19999999925,95727.028,96010.45,,7,much
screen,html.Screen,0_2_1_1_8,2021-11-04T12:38:56.330Z,,,,,,,,,,,,,,,,54,,,,,,,,,,,,,,378.6499999996304,,response,,,100,,,,,,Space,keypress(Space),,,,,-- --- ---- --- ------ ----- ------- ---- of --- ------- --<br>------- ---------- ------ -- ----- -- ----- -- ---- ------<br>--- ----- --- --- ------ -------- ----- --- ------ ----- --<br>----- ----- ---------- --- --- ------ ------ ---- -- ------<br>------- --- ------ ----- --- ---- ------- -- ---- --- --<br>------- ------,96389.89999999851,96389.09999999963,95993.78,95998.19999999925,96010.45,96393.943,,8,of
screen,html.Screen,0_2_1_1_9,2021-11-04T12:38:56.618Z,,,,,,,,,,,,,,,,54,,,,,,,,,,,,,,283.15699999962817,,response,,,100,,,,,,Space,keypress(Space),,,,,-- --- ---- --- ------ ----- ------- ---- -- its ------- --<br>------- ---------- ------ -- ----- -- ----- -- ---- ------<br>--- ----- --- --- ------ -------- ----- --- ------ ----- --<br>----- ----- ---------- --- --- ------ ------ ---- -- ------<br>------- --- ------ ----- --- ---- ------- -- ---- --- --<br>------- ------,96677.89999999851,96677.09999999963,96377.273,96390.19999999925,96393.943,96694.229,,9,its
screen,html.Screen,0_2_1_1_10,2021-11-04T12:38:56.922Z,,,,,,,,,,,,,,,,54,,,,,,,,,,,,,,286.77099999999336,,response,,,100,,,,,,Space,keypress(Space),,,,,-- --- ---- --- ------ ----- ------- ---- -- --- revenue --<br>------- ---------- ------ -- ----- -- ----- -- ---- ------<br>--- ----- --- --- ------ -------- ----- --- ------ ----- --<br>----- ----- ---------- --- --- ------ ------ ---- -- ------<br>------- --- ------ ----- --- ---- ------- -- ---- --- --<br>------- ------,96981.89999999851,96981,96677.554,96678.29999999888,96694.229,96994.163,,10,revenue
screen,html.Screen,0_2_1_1_11,2021-11-04T12:38:57.298Z,,,,,,,,,,,,,,,,54,,,,,,,,,,,,,,362.83699999999953,,response,,,100,,,,,,Space,keypress(Space),,,,,-- --- ---- --- ------ ----- ------- ---- -- --- ------- by<br>------- ---------- ------ -- ----- -- ----- -- ---- ------<br>--- ----- --- --- ------ -------- ----- --- ------ ----- --<br>----- ----- ---------- --- --- ------ ------ ---- -- ------<br>------- --- ------ ----- --- ---- ------- -- ---- --- --<br>------- ------,97357.79999999888,97357,96977.493,96982.09999999963,96994.163,97360.951,,11,by
screen,html.Screen,0_2_1_1_12,2021-11-04T12:38:57.706Z,,,,,,,,,,,,,,,,54,,,,,,,,,,,,,,404.04899999999907,,response,,,100,,,,,,Space,keypress(Space),,,,,-- --- ---- --- ------ ----- ------- ---- -- --- ------- --<br>issuing ---------- ------ -- ----- -- ----- -- ---- ------<br>--- ----- --- --- ------ -------- ----- --- ------ ----- --<br>----- ----- ---------- --- --- ------ ------ ---- -- ------<br>------- --- ------ ----- --- ---- ------- -- ---- --- --<br>------- ------,97765.89999999851,97765,97344.28,97358,97360.951,97777.694,,12,issuing
screen,html.Screen,0_2_1_1_13,2021-11-04T12:38:58.082Z,,,,,,,,,,,,,,,,54,,,,,,,,,,,,,,363.30599999999686,,response,,,100,,,,,,Space,keypress(Space),,,,,-- --- ---- --- ------ ----- ------- ---- -- --- ------- --<br>------- government ------ -- ----- -- ----- -- ---- ------<br>--- ----- --- --- ------ -------- ----- --- ------ ----- --<br>----- ----- ---------- --- --- ------ ------ ---- -- ------<br>------- --- ------ ----- --- ---- ------- -- ---- --- --<br>------- ------,98141.79999999888,98141,97761.024,97766.19999999925,97777.694,98144.458,,13,government
screen,html.Screen,0_2_1_1_14,2021-11-04T12:38:59.762Z,,,,,,,,,,,,,,,,54,,,,,,,,,,,,,,1676.4419999985112,,response,,,100,,,,,,Space,keypress(Space),,,,,-- --- ---- --- ------ ----- ------- ---- -- --- ------- --<br>------- ---------- bonds. -- ----- -- ----- -- ---- ------<br>--- ----- --- --- ------ -------- ----- --- ------ ----- --<br>----- ----- ---------- --- --- ------ ------ ---- -- ------<br>------- --- ------ ----- --- ---- ------- -- ---- --- --<br>------- ------,99821.79999999888,99820.89999999851,98127.788,98142.09999999963,98144.458,99828.008,,14,bonds.
screen,html.Screen,0_2_1_1_15,2021-11-04T12:39:00.065Z,,,,,,,,,,,,,,,,54,,,,,,,,,,,,,,296.6919999992533,,response,,,100,,,,,,Space,keypress(Space),,,,,-- --- ---- --- ------ ----- ------- ---- -- --- ------- --<br>------- ---------- ------ In ----- -- ----- -- ---- ------<br>--- ----- --- --- ------ -------- ----- --- ------ ----- --<br>----- ----- ---------- --- --- ------ ------ ---- -- ------<br>------- --- ------ ----- --- ---- ------- -- ---- --- --<br>------- ------,100125,100124.69999999925,99811.339,99822,99828.008,100128.364,,15,In
screen,html.Screen,0_2_1_1_16,2021-11-04T12:39:00.402Z,,,,,,,,,,,,,,,,54,,,,,,,,,,,,,,332.5359999985085,,response,,,100,,,,,,Space,keypress(Space),,,,,"-- --- ---- --- ------ ----- ------- ---- -- --- ------- --<br>------- ---------- ------ -- 1727, -- ----- -- ---- ------<br>--- ----- --- --- ------ -------- ----- --- ------ ----- --<br>----- ----- ---------- --- --- ------ ------ ---- -- ------<br>------- --- ------ ----- --- ---- ------- -- ---- --- --<br>------- ------",100461.79999999888,100460.89999999851,100111.693,100125.09999999963,100128.364,100478.34,,16,"1727,"
screen,html.Screen,0_2_1_1_17,2021-11-04T12:39:02.242Z,,,,,,,,,,,,,,,,54,,,,,,,,,,,,,,1822.959999998886,,response,,,100,,,,,,Space,keypress(Space),,,,,-- --- ---- --- ------ ----- ------- ---- -- --- ------- --<br>------- ---------- ------ -- ----- in ----- -- ---- ------<br>--- ----- --- --- ------ -------- ----- --- ------ ----- --<br>----- ----- ---------- --- --- ------ ------ ---- -- ------<br>------- --- ------ ----- --- ---- ------- -- ---- --- --<br>------- ------,102302.09999999963,102301.29999999888,100461.67,100462,100478.34,102312.34,,17,in
screen,html.Screen,0_2_1_1_18,2021-11-04T12:39:02.738Z,,,,,,,,,,,,,,,,54,,,,,,,,,,,,,,484.4599999988859,,response,,,100,,,,,,Space,keypress(Space),,,,,-- --- ---- --- ------ ----- ------- ---- -- --- ------- --<br>------- ---------- ------ -- ----- -- order -- ---- ------<br>--- ----- --- --- ------ -------- ----- --- ------ ----- --<br>----- ----- ---------- --- --- ------ ------ ---- -- ------<br>------- --- ------ ----- --- ---- ------- -- ---- --- --<br>------- ------,102797.59999999963,102796.79999999888,102295.668,102302.29999999888,102312.34,102812.313,,18,order
screen,html.Screen,0_2_1_1_19,2021-11-04T12:39:03.458Z,,,,,,,,,,,,,,,,54,,,,,,,,,,,,,,704.4869999988878,,response,,,100,,,,,,Space,keypress(Space),,,,,-- --- ---- --- ------ ----- ------- ---- -- --- ------- --<br>------- ---------- ------ -- ----- -- ----- to ---- ------<br>--- ----- --- --- ------ -------- ----- --- ------ ----- --<br>----- ----- ---------- --- --- ------ ------ ---- -- ------<br>------- --- ------ ----- --- ---- ------- -- ---- --- --<br>------- ------,103517.5,103516.79999999888,102795.642,102797.89999999851,102812.313,103529.066,,19,to
screen,html.Screen,0_2_1_1_20,2021-11-04T12:39:03.842Z,,,,,,,,,,,,,,,,54,,,,,,,,,,,,,,371.6339999992488,,response,,,100,,,,,,Space,keypress(Space),,,,,-- --- ---- --- ------ ----- ------- ---- -- --- ------- --<br>------- ---------- ------ -- ----- -- ----- -- save ------<br>--- ----- --- --- ------ -------- ----- --- ------ ----- --<br>----- ----- ---------- --- --- ------ ------ ---- -- ------<br>------- --- ------ ----- --- ---- ------- -- ---- --- --<br>------- ------,103901.5,103900.69999999925,103512.396,103517.79999999888,103529.066,103912.734,,20,save
screen,html.Screen,0_2_1_1_21,2021-11-04T12:39:04.202Z,,,,,,,,,,,,,,,,54,,,,,,,,,,,,,,347.9659999992582,,response,,,100,,,,,,Space,keypress(Space),,,,,"-- --- ---- --- ------ ----- ------- ---- -- --- ------- --<br>------- ---------- ------ -- ----- -- ----- -- ---- money,<br>--- ----- --- --- ------ -------- ----- --- ------ ----- --<br>----- ----- ---------- --- --- ------ ------ ---- -- ------<br>------- --- ------ ----- --- ---- ------- -- ---- --- --<br>------- ------",104261.5,104260.69999999925,103896.061,103901.79999999888,103912.734,104262.692,,21,"money,"
screen,html.Screen,0_2_1_1_22,2021-11-04T12:39:04.666Z,,,,,,,,,,,,,,,,54,,,,,,,,,,,,,,461.907999999632,,response,,,100,,,,,,Space,keypress(Space),,,,,-- --- ---- --- ------ ----- ------- ---- -- --- ------- --<br>------- ---------- ------ -- ----- -- ----- -- ---- ------<br>the ----- --- --- ------ -------- ----- --- ------ ----- --<br>----- ----- ---------- --- --- ------ ------ ---- -- ------<br>------- --- ------ ----- --- ---- ------- -- ---- --- --<br>------- ------,104725.5,104724.59999999963,104246.022,104261.69999999925,104262.692,104729.472,,22,the
screen,html.Screen,0_2_1_1_23,2021-11-04T12:39:05.090Z,,,,,,,,,,,,,,,,54,,,,,,,,,,,,,,419.22799999926065,,response,,,100,,,,,,Space,keypress(Space),,,,,-- --- ---- --- ------ ----- ------- ---- -- --- ------- --<br>------- ---------- ------ -- ----- -- ----- -- ---- ------<br>--- state --- --- ------ -------- ----- --- ------ ----- --<br>----- ----- ---------- --- --- ------ ------ ---- -- ------<br>------- --- ------ ----- --- ---- ------- -- ---- --- --<br>------- ------,105149.5,105148.69999999925,104712.802,104725.79999999888,104729.472,105162.96,,23,state
screen,html.Screen,0_2_1_1_24,2021-11-04T12:39:05.442Z,,,,,,,,,,,,,,,,54,,,,,,,,,,,,,,337.63999999962107,,response,,,100,,,,,,Space,keypress(Space),,,,,-- --- ---- --- ------ ----- ------- ---- -- --- ------- --<br>------- ---------- ------ -- ----- -- ----- -- ---- ------<br>--- ----- cut --- ------ -------- ----- --- ------ ----- --<br>----- ----- ---------- --- --- ------ ------ ---- -- ------<br>------- --- ------ ----- --- ---- ------- -- ---- --- --<br>------- ------,105501.39999999851,105500.59999999963,105146.289,105149.79999999888,105162.96,105513.004,,24,cut
screen,html.Screen,0_2_1_1_25,2021-11-04T12:39:05.785Z,,,,,,,,,,,,,,,,54,,,,,,,,,,,,,,331.59599999962666,,response,,,100,,,,,,Space,keypress(Space),,,,,-- --- ---- --- ------ ----- ------- ---- -- --- ------- --<br>------- ---------- ------ -- ----- -- ----- -- ---- ------<br>--- ----- --- the ------ -------- ----- --- ------ ----- --<br>----- ----- ---------- --- --- ------ ------ ---- -- ------<br>------- --- ------ ----- --- ---- ------- -- ---- --- --<br>------- ------,105845.39999999851,105844.59999999963,105496.334,105501.69999999925,105513.004,105846.376,,25,the
screen,html.Screen,0_2_1_1_26,2021-11-04T12:39:06.322Z,,,,,,,,,,,,,,,,54,,,,,,,,,,,,,,534.2239999996236,,response,,,100,,,,,,Space,keypress(Space),,,,,-- --- ---- --- ------ ----- ------- ---- -- --- ------- --<br>------- ---------- ------ -- ----- -- ----- -- ---- ------<br>--- ----- --- --- bonds' -------- ----- --- ------ ----- --<br>----- ----- ---------- --- --- ------ ------ ---- -- ------<br>------- --- ------ ----- --- ---- ------- -- ---- --- --<br>------- ------,106381.59999999963,106380.59999999963,105829.707,105845.69999999925,105846.376,106396.587,,26,bonds'
screen,html.Screen,0_2_1_1_27,2021-11-04T12:39:06.681Z,,,,,,,,,,,,,,,,54,,,,,,,,,,,,,,343.91300000000047,,response,,,100,,,,,,Space,keypress(Space),,,,,-- --- ---- --- ------ ----- ------- ---- -- --- ------- --<br>------- ---------- ------ -- ----- -- ----- -- ---- ------<br>--- ----- --- --- ------ interest ----- --- ------ ----- --<br>----- ----- ---------- --- --- ------ ------ ---- -- ------<br>------- --- ------ ----- --- ---- ------- -- ---- --- --<br>------- ------,106741.39999999851,106740.5,106379.916,106381.79999999888,106396.587,106746.699,,27,interest
screen,html.Screen,0_2_1_1_28,2021-11-04T12:39:07.233Z,,,,,,,,,,,,,,,,54,,,,,,,,,,,,,,545.7009999985166,,response,,,100,,,,,,Space,keypress(Space),,,,,-- --- ---- --- ------ ----- ------- ---- -- --- ------- --<br>------- ---------- ------ -- ----- -- ----- -- ---- ------<br>--- ----- --- --- ------ -------- rate. --- ------ ----- --<br>----- ----- ---------- --- --- ------ ------ ---- -- ------<br>------- --- ------ ----- --- ---- ------- -- ---- --- --<br>------- ------,107293.29999999888,107292.39999999851,106730.028,106741.79999999888,106746.699,107296.794,,28,rate.
screen,html.Screen,0_2_1_1_29,2021-11-04T12:39:07.713Z,,,,,,,,,,,,,,,,54,,,,,,,,,,,,,,475.6059999985155,,response,,,100,,,,,,Space,keypress(Space),,,,,-- --- ---- --- ------ ----- ------- ---- -- --- ------- --<br>------- ---------- ------ -- ----- -- ----- -- ---- ------<br>--- ----- --- --- ------ -------- ----- The ------ ----- --<br>----- ----- ---------- --- --- ------ ------ ---- -- ------<br>------- --- ------ ----- --- ---- ------- -- ---- --- --<br>------- ------,107773.29999999888,107772.39999999851,107280.124,107293.5,107296.794,107780.257,,29,The
screen,html.Screen,0_2_1_1_30,2021-11-04T12:39:08.081Z,,,,,,,,,,,,,,,,54,,,,,,,,,,,,,,360.2430000000022,,response,,,100,,,,,,Space,keypress(Space),,,,,-- --- ---- --- ------ ----- ------- ---- -- --- ------- --<br>------- ---------- ------ -- ----- -- ----- -- ---- ------<br>--- ----- --- --- ------ -------- ----- --- market ----- --<br>----- ----- ---------- --- --- ------ ------ ---- -- ------<br>------- --- ------ ----- --- ---- ------- -- ---- --- --<br>------- ------,108141.29999999888,108140.5,107763.587,107773.69999999925,107780.257,108147.026,,30,market
screen,html.Screen,0_2_1_1_31,2021-11-04T12:39:08.545Z,,,,,,,,,,,,,,,,54,,,,,,,,,,,,,,457.37399999851186,,response,,,100,,,,,,Space,keypress(Space),,,,,-- --- ---- --- ------ ----- ------- ---- -- --- ------- --<br>------- ---------- ------ -- ----- -- ----- -- ---- ------<br>--- ----- --- --- ------ -------- ----- --- ------ value --<br>----- ----- ---------- --- --- ------ ------ ---- -- ------<br>------- --- ------ ----- --- ---- ------- -- ---- --- --<br>------- ------,108605.29999999888,108604.39999999851,108130.356,108141.59999999963,108147.026,108613.739,,31,value
screen,html.Screen,0_2_1_1_32,2021-11-04T12:39:08.945Z,,,,,,,,,,,,,,,,54,,,,,,,,,,,,,,390.6609999985085,,response,,,100,,,,,,Space,keypress(Space),,,,,-- --- ---- --- ------ ----- ------- ---- -- --- ------- --<br>------- ---------- ------ -- ----- -- ----- -- ---- ------<br>--- ----- --- --- ------ -------- ----- --- ------ ----- of<br>----- ----- ---------- --- --- ------ ------ ---- -- ------<br>------- --- ------ ----- --- ---- ------- -- ---- --- --<br>------- ------,109005.29999999888,109004.39999999851,108597.07,108605.5,108613.739,109013.993,,32,of
screen,html.Screen,0_2_1_1_33,2021-11-04T12:39:09.401Z,,,,,,,,,,,,,,,,54,,,,,,,,,,,,,,446.4069999985077,,response,,,100,,,,,,Space,keypress(Space),,,,,-- --- ---- --- ------ ----- ------- ---- -- --- ------- --<br>------- ---------- ------ -- ----- -- ----- -- ---- ------<br>--- ----- --- --- ------ -------- ----- --- ------ ----- --<br>these ----- ---------- --- --- ------ ------ ---- -- ------<br>------- --- ------ ----- --- ---- ------- -- ---- --- --<br>------- ------,109461.29999999888,109460.39999999851,108997.321,109005.69999999925,109013.993,109464.018,,33,these
screen,html.Screen,0_2_1_1_34,2021-11-04T12:39:09.793Z,,,,,,,,,,,,,,,,54,,,,,,,,,,,,,,388.3819999985135,,response,,,100,,,,,,Space,keypress(Space),,,,,-- --- ---- --- ------ ----- ------- ---- -- --- ------- --<br>------- ---------- ------ -- ----- -- ----- -- ---- ------<br>--- ----- --- --- ------ -------- ----- --- ------ ----- --<br>----- bonds ---------- --- --- ------ ------ ---- -- ------<br>------- --- ------ ----- --- ---- ------- -- ---- --- --<br>------- ------,109853.09999999963,109852.39999999851,109447.348,109461.59999999963,109464.018,109864.132,,34,bonds
screen,html.Screen,0_2_1_1_35,2021-11-04T12:39:10.825Z,,,,,,,,,,,,,,,,54,,,,,,,,,,,,,,1020.1679999988846,,response,,,100,,,,,,Space,keypress(Space),,,,,"-- --- ---- --- ------ ----- ------- ---- -- --- ------- --<br>------- ---------- ------ -- ----- -- ----- -- ---- ------<br>--- ----- --- --- ------ -------- ----- --- ------ ----- --<br>----- ----- plummeted, --- --- ------ ------ ---- -- ------<br>------- --- ------ ----- --- ---- ------- -- ---- --- --<br>------- ------",110885.09999999963,110884.29999999888,109847.462,109853.39999999851,109864.132,110897.774,,35,"plummeted,"
screen,html.Screen,0_2_1_1_36,2021-11-04T12:39:11.265Z,,,,,,,,,,,,,,,,54,,,,,,,,,,,,,,426.42599999925005,,response,,,100,,,,,,Space,keypress(Space),,,,,-- --- ---- --- ------ ----- ------- ---- -- --- ------- --<br>------- ---------- ------ -- ----- -- ----- -- ---- ------<br>--- ----- --- --- ------ -------- ----- --- ------ ----- --<br>----- ----- ---------- and --- ------ ------ ---- -- ------<br>------- --- ------ ----- --- ---- ------- -- ---- --- --<br>------- ------,111325,111324.19999999925,110881.103,110885.39999999851,110897.774,111331.157,,36,and
screen,html.Screen,0_2_1_1_37,2021-11-04T12:39:11.713Z,,,,,,,,,,,,,,,,54,,,,,,,,,,,,,,440.94299999962095,,response,,,100,,,,,,Space,keypress(Space),,,,,-- --- ---- --- ------ ----- ------- ---- -- --- ------- --<br>------- ---------- ------ -- ----- -- ----- -- ---- ------<br>--- ----- --- --- ------ -------- ----- --- ------ ----- --<br>----- ----- ---------- --- the ------ ------ ---- -- ------<br>------- --- ------ ----- --- ---- ------- -- ---- --- --<br>------- ------,111772.89999999851,111772.09999999963,111314.487,111325.29999999888,111331.157,111781.28,,37,the
screen,html.Screen,0_2_1_1_38,2021-11-04T12:39:12.145Z,,,,,,,,,,,,,,,,54,,,,,,,,,,,,,,422.9199999992561,,response,,,100,,,,,,Space,keypress(Space),,,,,-- --- ---- --- ------ ----- ------- ---- -- --- ------- --<br>------- ---------- ------ -- ----- -- ----- -- ---- ------<br>--- ----- --- --- ------ -------- ----- --- ------ ----- --<br>----- ----- ---------- --- --- market ------ ---- -- ------<br>------- --- ------ ----- --- ---- ------- -- ---- --- --<br>------- ------,112205,112204.19999999925,111764.61,111773.29999999888,111781.28,112214.786,,38,market
screen,html.Screen,0_2_1_1_39,2021-11-04T12:39:12.618Z,,,,,,,,,,,,,,,,54,,,,,,,,,,,,,,461.91399999926216,,response,,,100,,,,,,Space,keypress(Space),,,,,-- --- ---- --- ------ ----- ------- ---- -- --- ------- --<br>------- ---------- ------ -- ----- -- ----- -- ---- ------<br>--- ----- --- --- ------ -------- ----- --- ------ ----- --<br>----- ----- ---------- --- --- ------ became ---- -- ------<br>------- --- ------ ----- --- ---- ------- -- ---- --- --<br>------- ------,112677.39999999851,112676.69999999925,112198.115,112205.39999999851,112214.786,112681.373,,39,became
screen,html.Screen,0_2_1_1_40,2021-11-04T12:39:13.057Z,,,,,,,,,,,,,,,,54,,,,,,,,,,,,,,434.8269999992481,,response,,,100,,,,,,Space,keypress(Space),,,,,-- --- ---- --- ------ ----- ------- ---- -- --- ------- --<br>------- ---------- ------ -- ----- -- ----- -- ---- ------<br>--- ----- --- --- ------ -------- ----- --- ------ ----- --<br>----- ----- ---------- --- --- ------ ------ wary -- ------<br>------- --- ------ ----- --- ---- ------- -- ---- --- --<br>------- ------,113117,113116.19999999925,112664.705,112677.69999999925,112681.373,113131.739,,40,wary
screen,html.Screen,0_2_1_1_41,2021-11-04T12:39:13.425Z,,,,,,,,,,,,,,,,54,,,,,,,,,,,,,,352.46099999925354,,response,,,100,,,,,,Space,keypress(Space),,,,,-- --- ---- --- ------ ----- ------- ---- -- --- ------- --<br>------- ---------- ------ -- ----- -- ----- -- ---- ------<br>--- ----- --- --- ------ -------- ----- --- ------ ----- --<br>----- ----- ---------- --- --- ------ ------ ---- of ------<br>------- --- ------ ----- --- ---- ------- -- ---- --- --<br>------- ------,113485,113484.19999999925,113115.067,113117.29999999888,113131.739,113498.391,,41,of
screen,html.Screen,0_2_1_1_42,2021-11-04T12:39:13.801Z,,,,,,,,,,,,,,,,54,,,,,,,,,,,,,,361.8089999992517,,response,,,100,,,,,,Space,keypress(Space),,,,,-- --- ---- --- ------ ----- ------- ---- -- --- ------- --<br>------- ---------- ------ -- ----- -- ----- -- ---- ------<br>--- ----- --- --- ------ -------- ----- --- ------ ----- --<br>----- ----- ---------- --- --- ------ ------ ---- -- French<br>------- --- ------ ----- --- ---- ------- -- ---- --- --<br>------- ------,113860.89999999851,113860.19999999925,113481.721,113485.19999999925,113498.391,113865.165,,42,French
screen,html.Screen,0_2_1_1_43,2021-11-04T12:39:14.217Z,,,,,,,,,,,,,,,,54,,,,,,,,,,,,,,410.9349999996339,,response,,,100,,,,,,Space,keypress(Space),,,,,-- --- ---- --- ------ ----- ------- ---- -- --- ------- --<br>------- ---------- ------ -- ----- -- ----- -- ---- ------<br>--- ----- --- --- ------ -------- ----- --- ------ ----- --<br>----- ----- ---------- --- --- ------ ------ ---- -- ------<br>credit. --- ------ ----- --- ---- ------- -- ---- --- --<br>------- ------,114277,114276.09999999963,113848.495,113861.29999999888,113865.165,114281.936,,43,credit.
screen,html.Screen,0_2_1_1_44,2021-11-04T12:39:14.625Z,,,,,,,,,,,,,,,,54,,,,,,,,,,,,,,402.16399999962596,,response,,,100,,,,,,Space,keypress(Space),,,,,-- --- ---- --- ------ ----- ------- ---- -- --- ------- --<br>------- ---------- ------ -- ----- -- ----- -- ---- ------<br>--- ----- --- --- ------ -------- ----- --- ------ ----- --<br>----- ----- ---------- --- --- ------ ------ ---- -- ------<br>------- The ------ ----- --- ---- ------- -- ---- --- --<br>------- ------,114684.89999999851,114684.09999999963,114265.266,114277.19999999925,114281.936,114698.751,,44,The
screen,html.Screen,0_2_1_1_45,2021-11-04T12:39:14.993Z,,,,,,,,,,,,,,,,54,,,,,,,,,,,,,,353.34899999962363,,response,,,100,,,,,,Space,keypress(Space),,,,,-- --- ---- --- ------ ----- ------- ---- -- --- ------- --<br>------- ---------- ------ -- ----- -- ----- -- ---- ------<br>--- ----- --- --- ------ -------- ----- --- ------ ----- --<br>----- ----- ---------- --- --- ------ ------ ---- -- ------<br>------- --- French ----- --- ---- ------- -- ---- --- --<br>------- ------,115052.79999999888,115052.09999999963,114682.08,114685.09999999963,114698.751,115065.454,,45,French
screen,html.Screen,0_2_1_1_46,2021-11-04T12:39:15.377Z,,,,,,,,,,,,,,,,54,,,,,,,,,,,,,,370.64599999962957,,response,,,100,,,,,,Space,keypress(Space),,,,,-- --- ---- --- ------ ----- ------- ---- -- --- ------- --<br>------- ---------- ------ -- ----- -- ----- -- ---- ------<br>--- ----- --- --- ------ -------- ----- --- ------ ----- --<br>----- ----- ---------- --- --- ------ ------ ---- -- ------<br>------- --- ------ state --- ---- ------- -- ---- --- --<br>------- ------,115436.79999999888,115436.09999999963,115048.784,115053.09999999963,115065.454,115448.938,,46,state
screen,html.Screen,0_2_1_1_47,2021-11-04T12:39:15.825Z,,,,,,,,,,,,,,,,54,,,,,,,,,,,,,,435.1619999996328,,response,,,100,,,,,,Space,keypress(Space),,,,,-- --- ---- --- ------ ----- ------- ---- -- --- ------- --<br>------- ---------- ------ -- ----- -- ----- -- ---- ------<br>--- ----- --- --- ------ -------- ----- --- ------ ----- --<br>----- ----- ---------- --- --- ------ ------ ---- -- ------<br>------- --- ------ ----- was ---- ------- -- ---- --- --<br>------- ------,115884.89999999851,115884.09999999963,115432.267,115437.09999999963,115448.938,115899.011,,47,was
screen,html.Screen,0_2_1_1_48,2021-11-04T12:39:16.233Z,,,,,,,,,,,,,,,,54,,,,,,,,,,,,,,393.08899999962887,,response,,,100,,,,,,Space,keypress(Space),,,,,-- --- ---- --- ------ ----- ------- ---- -- --- ------- --<br>------- ---------- ------ -- ----- -- ----- -- ---- ------<br>--- ----- --- --- ------ -------- ----- --- ------ ----- --<br>----- ----- ---------- --- --- ------ ------ ---- -- ------<br>------- --- ------ ----- --- left ------- -- ---- --- --<br>------- ------,116292.79999999888,116292.09999999963,115882.341,115885.19999999925,115899.011,116299.059,,48,left
screen,html.Screen,0_2_1_1_49,2021-11-04T12:39:16.657Z,,,,,,,,,,,,,,,,54,,,,,,,,,,,,,,417.04099999963364,,response,,,100,,,,,,Space,keypress(Space),,,,,-- --- ---- --- ------ ----- ------- ---- -- --- ------- --<br>------- ---------- ------ -- ----- -- ----- -- ---- ------<br>--- ----- --- --- ------ -------- ----- --- ------ ----- --<br>----- ----- ---------- --- --- ------ ------ ---- -- ------<br>------- --- ------ ----- --- ---- without -- ---- --- --<br>------- ------,116716.79999999888,116716.09999999963,116282.39,116293.09999999963,116299.059,116732.549,,49,without
screen,html.Screen,0_2_1_1_50,2021-11-04T12:39:17.025Z,,,,,,,,,,,,,,,,54,,,,,,,,,,,,,,351.45100000000093,,response,,,100,,,,,,Space,keypress(Space),,,,,-- --- ---- --- ------ ----- ------- ---- -- --- ------- --<br>------- ---------- ------ -- ----- -- ----- -- ---- ------<br>--- ----- --- --- ------ -------- ----- --- ------ ----- --<br>----- ----- ---------- --- --- ------ ------ ---- -- ------<br>------- --- ------ ----- --- ---- ------- an ---- --- --<br>------- ------,117084.79999999888,117084,116715.879,116717.09999999963,116732.549,117099.364,,50,an
screen,html.Screen,0_2_1_1_51,2021-11-04T12:39:17.369Z,,,,,,,,,,,,,,,,54,,,,,,,,,,,,,,328.6359999999986,,response,,,100,,,,,,Space,keypress(Space),,,,,-- --- ---- --- ------ ----- ------- ---- -- --- ------- --<br>------- ---------- ------ -- ----- -- ----- -- ---- ------<br>--- ----- --- --- ------ -------- ----- --- ------ ----- --<br>----- ----- ---------- --- --- ------ ------ ---- -- ------<br>------- --- ------ ----- --- ---- ------- -- easy --- --<br>------- ------,117428.79999999888,117428,117082.693,117085,117099.364,117432.65,,51,easy
screen,html.Screen,0_2_1_1_52,2021-11-04T12:39:17.745Z,,,,,,,,,,,,,,,,54,,,,,,,,,,,,,,371.3500000000058,,response,,,100,,,,,,Space,keypress(Space),,,,,-- --- ---- --- ------ ----- ------- ---- -- --- ------- --<br>------- ---------- ------ -- ----- -- ----- -- ---- ------<br>--- ----- --- --- ------ -------- ----- --- ------ ----- --<br>----- ----- ---------- --- --- ------ ------ ---- -- ------<br>------- --- ------ ----- --- ---- ------- -- ---- way --<br>------- ------,117804.79999999888,117804,117415.981,117429.09999999963,117432.65,117816.269,,52,way
screen,html.Screen,0_2_1_1_53,2021-11-04T12:39:18.065Z,,,,,,,,,,,,,,,,54,,,,,,,,,,,,,,307.63099999850965,,response,,,100,,,,,,Space,keypress(Space),,,,,-- --- ---- --- ------ ----- ------- ---- -- --- ------- --<br>------- ---------- ------ -- ----- -- ----- -- ---- ------<br>--- ----- --- --- ------ -------- ----- --- ------ ----- --<br>----- ----- ---------- --- --- ------ ------ ---- -- ------<br>------- --- ------ ----- --- ---- ------- -- ---- --- of<br>------- ------,118124.69999999925,118123.89999999851,117799.597,117805,117816.269,118132.799,,53,of
screen,html.Screen,0_2_1_1_54,2021-11-04T12:39:18.569Z,,,,,,,,,,,,,,,,54,,,,,,,,,,,,,,495.1009999985108,,response,,,100,,,,,,Space,keypress(Space),,,,,-- --- ---- --- ------ ----- ------- ---- -- --- ------- --<br>------- ---------- ------ -- ----- -- ----- -- ---- ------<br>--- ----- --- --- ------ -------- ----- --- ------ ----- --<br>----- ----- ---------- --- --- ------ ------ ---- -- ------<br>------- --- ------ ----- --- ---- ------- -- ---- --- --<br>raising ------,118628.69999999925,118627.89999999851,118116.131,118125,118132.799,118633.138,,54,raising
screen,html.Screen,0_2_1_1_55,2021-11-04T12:39:19.065Z,,,,,,,,,,,,,,,,54,,,,,,,,,,,,,,490.7619999985036,,response,,,100,,,,,,Space,keypress(Space),,,,,-- --- ---- --- ------ ----- ------- ---- -- --- ------- --<br>------- ---------- ------ -- ----- -- ----- -- ---- ------<br>--- ----- --- --- ------ -------- ----- --- ------ ----- --<br>----- ----- ---------- --- --- ------ ------ ---- -- ------<br>------- --- ------ ----- --- ---- ------- -- ---- --- --<br>------- money.,119124.69999999925,119123.89999999851,118616.466,118628.89999999851,118633.138,119133.236,,55,money.
Item 100,flow.Loop,0_2_1_1,2021-11-04T12:39:19.065Z,,,,,,,,,,,,,,,,,,,,,,,,,,,,,,28814.89599999851,,completion,,,,B,,,,,,,,,,silence,,119125.09999999963,119123.89999999851,90292.334,90293.5,90309.004,119133.236,,,
Question 1,html.Screen,0_2_1_2,2021-11-04T12:39:22.531Z,,,,,,,,,,,,,,,,,,,,,,,,,,,false,TRUE,,3452.563999998878,,response,,,100,B,,,,,FALSE,click #choice-2,,,,silence,,122587,122585.79999999888,119116.565,119125.29999999888,119133.236,122600.479,,,
Question 2,html.Screen,0_2_1_3,2021-11-04T12:39:26.579Z,,,,,,,,,,,,,,,,,,,,,,,,,,,true,FALSE,,4033.820999998876,,response,,,100,B,,,,,FALSE,click #choice-2,,,,silence,,126635.5,126634.29999999888,122583.814,122587.29999999888,122600.479,126635.189,,,
Item 100,flow.Sequence,0_2_1,2021-11-04T12:39:26.579Z,,,,,,,,,,,,,,,,,,,,,,,,,,,,,,46327.85799999889,,completion,,,,,,,,,,,,,,,,126635.89999999851,126634.29999999888,80289.773,80295.69999999925,80306.442,126635.189,,,
End of Practice,html.Page,0_2_2,2021-11-04T12:39:30.413Z,,,,,,,,,,,,,,,,,,,,,,,,,,,,,,3833.910999999629,,form submission,,,,,,,,,,,,,,,,130469.69999999925,130469.09999999963,126618.159,126636.09999999963,126635.189,130469.811,,,
Practice,flow.Sequence,0_2,2021-11-04T12:39:30.414Z,,,,,,,,,,,,,,,,,,,,,,,,,,,,,,101192.20699999963,,completion,,,,,,,,,,,,,,,,130470.19999999925,130469.09999999963,29260.213,29277.5,29276.893,130469.811,,,
Trap_instruction,html.Page,0_3_0,2021-11-04T12:39:33.080Z,,,,,,,,,,,,,,,,,,,,,,,,,,,,,,2665.788999999626,,form submission,,,,,,,,,,,,,,,,133136,133135.59999999963,130453.124,130470.5,130469.811,133169.937,,,
trap_trial,html.Screen,0_3_1,2021-11-04T12:39:37.193Z,,,,,,,,,,,,,,,,,,,,,,,,,,,true,1,,4077.662999999622,,response,,,,,,,,,1,click #choice-1,,,,,,137249,137247.59999999963,133119.927,133136.29999999888,133169.937,137254.259,,,
end of trap trial,html.Page,0_3_2,2021-11-04T12:39:39.572Z,,,,,,,,,,,,,,,,,,,,,,,,,,,,,,2373.940999999264,,form submission,,,,,,,,,,,,,,,,139628.69999999925,139628.19999999925,137237.589,137249.29999999888,137254.259,139638.373,,,
Trap 1,flow.Sequence,0_3,2021-11-04T12:39:39.573Z,,,,,,,,,,,,,,,,,,,,,,,,,,,,,,9158.388999999253,,completion,,,,,,,,,,,,,,,,139629.09999999963,139628.19999999925,130453.124,130470.5,130469.811,139638.373,,,
Standby,html.Page,0_4_0,2021-11-04T12:39:47.569Z,,,,,,,,,,,,,,,,,,,,,,,,,,,,,,8001.656000000017,,timeout,,,,,,,,,,,,,,,,147625.29999999888,147623.359,139621.703,139629.29999999888,139638.373,147640.029,,,
Holding screen,html.Screen,0_4_1_0_0,2021-11-04T12:39:54.570Z,,,,,,,,,,,,,,,,,,,,,,,,,,,,,,7002.231999999989,,timeout,,,,,,,,,,,,,,,,154626.69999999925,154625.591,147623.359,147625.59999999963,147640.029,154642.261,,,
screen,html.Screen,0_4_1_0_1_0,2021-11-04T12:39:56.754Z,,,,,,,,,,,,,,,,2,,,,,,,,,,,,,,2167.4389999992563,,response,,,1,B,,,,,Space,keypress(Space),,,,lyrical,Two ---- ------ --- ------- ---------- ------- ----------<br>--- --------- --- ----------- ------- ----- ------- ---<br>--------- ---- -- --- ---- -- --------- -- ---- -------<br>-- --------- ------ --- ----- ------ ---- --- --------- --<br>------ - ---- -- --- ----------- ------- ---- ----- -----<br>--- -------- - ------ ---- -- ----- ---- --- --- -----------<br>-- -------,156810.69999999925,156809.69999999925,154625.591,154627.19999999925,154642.261,156825.869,,0,Two
screen,html.Screen,0_4_1_0_1_1,2021-11-04T12:39:57.874Z,,,,,,,,,,,,,,,,2,,,,,,,,,,,,,,1103.830999999249,,response,,,1,B,,,,,Space,keypress(Space),,,,lyrical,--- days ------ --- ------- ---------- ------- ----------<br>--- --------- --- ----------- ------- ----- ------- ---<br>--------- ---- -- --- ---- -- --------- -- ---- -------<br>-- --------- ------ --- ----- ------ ---- --- --------- --<br>------ - ---- -- --- ----------- ------- ---- ----- -----<br>--- -------- - ------ ---- -- ----- ---- --- --- -----------<br>-- -------,157930.59999999963,157929.69999999925,156809.2,156811,156825.869,157943.171,,1,days
screen,html.Screen,0_4_1_0_1_2,2021-11-04T12:39:59.154Z,,,,,,,,,,,,,,,,2,,,,,,,,,,,,,,1266.4289999996254,,response,,,1,B,,,,,Space,keypress(Space),,,,lyrical,"--- ---- later, --- ------- ---------- ------- ----------<br>--- --------- --- ----------- ------- ----- ------- ---<br>--------- ---- -- --- ---- -- --------- -- ---- -------<br>-- --------- ------ --- ----- ------ ---- --- --------- --<br>------ - ---- -- --- ----------- ------- ---- ----- -----<br>--- -------- - ------ ---- -- ----- ---- --- --- -----------<br>-- -------",159210.5,159209.59999999963,157926.5,157930.8999999985,157943.171,159226.707,,2,"later,"
screen,html.Screen,0_4_1_0_1_3,2021-11-04T12:39:59.594Z,,,,,,,,,,,,,,,,2,,,,,,,,,,,,,,422.8929999996326,,response,,,1,B,,,,,Space,keypress(Space),,,,lyrical,--- ---- ------ the ------- ---------- ------- ----------<br>--- --------- --- ----------- ------- ----- ------- ---<br>--------- ---- -- --- ---- -- --------- -- ---- -------<br>-- --------- ------ --- ----- ------ ---- --- --------- --<br>------ - ---- -- --- ----------- ------- ---- ----- -----<br>--- -------- - ------ ---- -- ----- ---- --- --- -----------<br>-- -------,159650.3999999985,159649.59999999963,159210.037,159210.79999999888,159226.707,159660.227,,3,the
screen,html.Screen,0_4_1_0_1_4,2021-11-04T12:40:00.690Z,,,,,,,,,,,,,,,,2,,,,,,,,,,,,,,1085.4729999992414,,response,,,1,B,,,,,Space,keypress(Space),,,,lyrical,--- ---- ------ --- British ---------- ------- ----------<br>--- --------- --- ----------- ------- ----- ------- ---<br>--------- ---- -- --- ---- -- --------- -- ---- -------<br>-- --------- ------ --- ----- ------ ---- --- --------- --<br>------ - ---- -- --- ----------- ------- ---- ----- -----<br>--- -------- - ------ ---- -- ----- ---- --- --- -----------<br>-- -------,160746.79999999888,160745.69999999925,159643.557,159650.59999999963,159660.227,160760.602,,4,British
screen,html.Screen,0_4_1_0_1_5,2021-11-04T12:40:02.634Z,,,,,,,,,,,,,,,,2,,,,,,,,,,,,,,1929.2979999984964,,response,,,1,B,,,,,Space,keypress(Space),,,,lyrical,--- ---- ------ --- ------- astronomer ------- ----------<br>--- --------- --- ----------- ------- ----- ------- ---<br>--------- ---- -- --- ---- -- --------- -- ---- -------<br>-- --------- ------ --- ----- ------ ---- --- --------- --<br>------ - ---- -- --- ----------- ------- ---- ----- -----<br>--- -------- - ------ ---- -- ----- ---- --- --- -----------<br>-- -------,162690.69999999925,162689.8999999985,160743.931,160747,160760.602,162694.302,,5,astronomer
screen,html.Screen,0_4_1_0_1_6,2021-11-04T12:40:03.242Z,,,,,,,,,,,,,,,,2,,,,,,,,,,,,,,603.0979999985138,,response,,,1,B,,,,,Space,keypress(Space),,,,lyrical,--- ---- ------ --- ------- ---------- Richard ----------<br>--- --------- --- ----------- ------- ----- ------- ---<br>--------- ---- -- --- ---- -- --------- -- ---- -------<br>-- --------- ------ --- ----- ------ ---- --- --------- --<br>------ - ---- -- --- ----------- ------- ---- ----- -----<br>--- -------- - ------ ---- -- ----- ---- --- --- -----------<br>-- -------,163298.29999999888,163297.3999999985,162677.632,162691,162694.302,163311.193,,6,Richard
screen,html.Screen,0_4_1_0_1_7,2021-11-04T12:40:03.674Z,,,,,,,,,,,,,,,,2,,,,,,,,,,,,,,418.2069999985106,,response,,,1,B,,,,,Space,keypress(Space),,,,lyrical,--- ---- ------ --- ------- ---------- ------- Carrington<br>--- --------- --- ----------- ------- ----- ------- ---<br>--------- ---- -- --- ---- -- --------- -- ---- -------<br>-- --------- ------ --- ----- ------ ---- --- --------- --<br>------ - ---- -- --- ----------- ------- ---- ----- -----<br>--- -------- - ------ ---- -- ----- ---- --- --- -----------<br>-- -------,163730.09999999963,163729.3999999985,163294.523,163298.5,163311.193,163744.618,,7,Carrington
screen,html.Screen,0_4_1_0_1_8,2021-11-04T12:40:04.610Z,,,,,,,,,,,,,,,,2,,,,,,,,,,,,,,920.6819999988948,,response,,,1,B,,,,,Space,keypress(Space),,,,lyrical,--- ---- ------ --- ------- ---------- ------- ----------<br>was --------- --- ----------- ------- ----- ------- ---<br>--------- ---- -- --- ---- -- --------- -- ---- -------<br>-- --------- ------ --- ----- ------ ---- --- --------- --<br>------ - ---- -- --- ----------- ------- ---- ----- -----<br>--- -------- - ------ ---- -- ----- ---- --- --- -----------<br>-- -------,164666.09999999963,164665.29999999888,163727.948,163730.3999999985,163744.618,164678.272,,8,was
screen,html.Screen,0_4_1_0_1_9,2021-11-04T12:40:08.122Z,,,,,,,,,,,,,,,,2,,,,,,,,,,,,,,3498.9279999992577,,response,,,1,B,,,,,Space,keypress(Space),,,,lyrical,--- ---- ------ --- ------- ---------- ------- ----------<br>--- observing --- ----------- ------- ----- ------- ---<br>--------- ---- -- --- ---- -- --------- -- ---- -------<br>-- --------- ------ --- ----- ------ ---- --- --------- --<br>------ - ---- -- --- ----------- ------- ---- ----- -----<br>--- -------- - ------ ---- -- ----- ---- --- --- -----------<br>-- -------,168178,168177.19999999925,164661.601,164666.3999999985,164678.272,168195.861,,9,observing
screen,html.Screen,0_4_1_0_1_10,2021-11-04T12:40:08.626Z,,,,,,,,,,,,,,,,2,,,,,,,,,,,,,,485.23899999962305,,response,,,1,B,,,,,Space,keypress(Space),,,,lyrical,--- ---- ------ --- ------- ---------- ------- ----------<br>--- --------- the ----------- ------- ----- ------- ---<br>--------- ---- -- --- ---- -- --------- -- ---- -------<br>-- --------- ------ --- ----- ------ ---- --- --------- --<br>------ - ---- -- --- ----------- ------- ---- ----- -----<br>--- -------- - ------ ---- -- ----- ---- --- --- -----------<br>-- -------,168682,168681.09999999963,168179.19,168178.29999999888,168195.861,168695.849,,10,the
screen,html.Screen,0_4_1_0_1_11,2021-11-04T12:40:09.409Z,,,,,,,,,,,,,,,,2,,,,,,,,,,,,,,769.25099999964,,response,,,1,B,,,,,Space,keypress(Space),,,,lyrical,--- ---- ------ --- ------- ---------- ------- ----------<br>--- --------- --- interesting ------- ----- ------- ---<br>--------- ---- -- --- ---- -- --------- -- ---- -------<br>-- --------- ------ --- ----- ------ ---- --- --------- --<br>------ - ---- -- --- ----------- ------- ---- ----- -----<br>--- -------- - ------ ---- -- ----- ---- --- --- -----------<br>-- -------,169465.8999999985,169465.09999999963,168679.179,168682.3999999985,168695.849,169479.387,,11,interesting
screen,html.Screen,0_4_1_0_1_12,2021-11-04T12:40:10.257Z,,,,,,,,,,,,,,,,2,,,,,,,,,,,,,,833.7129999996396,,response,,,1,B,,,,,Space,keypress(Space),,,,lyrical,--- ---- ------ --- ------- ---------- ------- ----------<br>--- --------- --- ----------- sunspot ----- ------- ---<br>--------- ---- -- --- ---- -- --------- -- ---- -------<br>-- --------- ------ --- ----- ------ ---- --- --------- --<br>------ - ---- -- --- ----------- ------- ---- ----- -----<br>--- -------- - ------ ---- -- ----- ---- --- --- -----------<br>-- -------,170314,170313.09999999963,169462.717,169466.09999999963,169479.387,170329.805,,12,sunspot
screen,html.Screen,0_4_1_0_1_13,2021-11-04T12:40:10.689Z,,,,,,,,,,,,,,,,2,,,,,,,,,,,,,,415.09499999851687,,response,,,1,B,,,,,Space,keypress(Space),,,,lyrical,--- ---- ------ --- ------- ---------- ------- ----------<br>--- --------- --- ----------- ------- group ------- ---<br>--------- ---- -- --- ---- -- --------- -- ---- -------<br>-- --------- ------ --- ----- ------ ---- --- --------- --<br>------ - ---- -- --- ----------- ------- ---- ----- -----<br>--- -------- - ------ ---- -- ----- ---- --- --- -----------<br>-- -------,170745.69999999925,170744.8999999985,170313.133,170314.29999999888,170329.805,170763.015,,13,group
screen,html.Screen,0_4_1_0_1_14,2021-11-04T12:40:11.185Z,,,,,,,,,,,,,,,,2,,,,,,,,,,,,,,477.98499999998603,,response,,,1,B,,,,,Space,keypress(Space),,,,lyrical,--- ---- ------ --- ------- ---------- ------- ----------<br>--- --------- --- ----------- ------- ----- through ---<br>--------- ---- -- --- ---- -- --------- -- ---- -------<br>-- --------- ------ --- ----- ------ ---- --- --------- --<br>------ - ---- -- --- ----------- ------- ---- ----- -----<br>--- -------- - ------ ---- -- ----- ---- --- --- -----------<br>-- -------,171241.79999999888,171241,170746.346,170746,170763.015,171246.642,,14,through
screen,html.Screen,0_4_1_0_1_15,2021-11-04T12:40:11.657Z,,,,,,,,,,,,,,,,2,,,,,,,,,,,,,,466.25799999851733,,response,,,1,B,,,,,Space,keypress(Space),,,,lyrical,--- ---- ------ --- ------- ---------- ------- ----------<br>--- --------- --- ----------- ------- ----- ------- his<br>--------- ---- -- --- ---- -- --------- -- ---- -------<br>-- --------- ------ --- ----- ------ ---- --- --------- --<br>------ - ---- -- --- ----------- ------- ---- ----- -----<br>--- -------- - ------ ---- -- ----- ---- --- --- -----------<br>-- -------,171713.8999999985,171712.8999999985,171229.971,171242.09999999963,171246.642,171730.034,,15,his
screen,html.Screen,0_4_1_0_1_16,2021-11-04T12:40:18.660Z,,,,,,,,,,,,,,,,2,,,,,,,,,,,,,,7001.433999999979,,timeout,,,1,B,,,,,,,,,,lyrical,--- ---- ------ --- ------- ---------- ------- ----------<br>--- --------- --- ----------- ------- ----- ------- ---<br>telescope ---- -- --- ---- -- --------- -- ---- -------<br>-- --------- ------ --- ----- ------ ---- --- --------- --<br>------ - ---- -- --- ----------- ------- ---- ----- -----<br>--- -------- - ------ ---- -- ----- ---- --- --- -----------<br>-- -------,178716.69999999925,178714.798,171713.364,171714.19999999925,171730.034,178731.468,,16,telescope
screen,html.Screen,0_4_1_0_1_17,2021-11-04T12:40:18.937Z,,,,,,,,,,,,,,,,2,,,,,,,,,,,,,,261.5320000000065,,response,,,1,B,,,,,Space,keypress(Space),,,,lyrical,--- ---- ------ --- ------- ---------- ------- ----------<br>--- --------- --- ----------- ------- ----- ------- ---<br>--------- when -- --- ---- -- --------- -- ---- -------<br>-- --------- ------ --- ----- ------ ---- --- --------- --<br>------ - ---- -- --- ----------- ------- ---- ----- -----<br>--- -------- - ------ ---- -- ----- ---- --- --- -----------<br>-- -------,178993.79999999888,178993,178714.798,178717,178731.468,178998.539,,17,when
screen,html.Screen,0_4_1_0_1_18,2021-11-04T12:40:19.577Z,,,,,,,,,,,,,,,,2,,,,,,,,,,,,,,634.0609999996377,,response,,,1,B,,,,,Space,keypress(Space),,,,lyrical,--- ---- ------ --- ------- ---------- ------- ----------<br>--- --------- --- ----------- ------- ----- ------- ---<br>--------- ---- he --- ---- -- --------- -- ---- -------<br>-- --------- ------ --- ----- ------ ---- --- --------- --<br>------ - ---- -- --- ----------- ------- ---- ----- -----<br>--- -------- - ------ ---- -- ----- ---- --- --- -----------<br>-- -------,179633.3999999985,179632.59999999963,178981.869,178994.09999999963,178998.539,179648.775,,18,he
screen,html.Screen,0_4_1_0_1_19,2021-11-04T12:40:20.229Z,,,,,,,,,,,,,,,,2,,,,,,,,,,,,,,639.7250000000058,,response,,,1,B,,,,,Space,keypress(Space),,,,lyrical,--- ---- ------ --- ------- ---------- ------- ----------<br>--- --------- --- ----------- ------- ----- ------- ---<br>--------- ---- -- saw ---- -- --------- -- ---- -------<br>-- --------- ------ --- ----- ------ ---- --- --------- --<br>------ - ---- -- --- ----------- ------- ---- ----- -----<br>--- -------- - ------ ---- -- ----- ---- --- --- -----------<br>-- -------,180289.19999999925,180288.5,179632.104,179633.69999999925,179648.775,180298.879,,19,saw
screen,html.Screen,0_4_1_0_1_20,2021-11-04T12:40:20.637Z,,,,,,,,,,,,,,,,2,,,,,,,,,,,,,,397.62100000001374,,response,,,1,B,,,,,Space,keypress(Space),,,,lyrical,--- ---- ------ --- ------- ---------- ------- ----------<br>--- --------- --- ----------- ------- ----- ------- ---<br>--------- ---- -- --- what -- --------- -- ---- -------<br>-- --------- ------ --- ----- ------ ---- --- --------- --<br>------ - ---- -- --- ----------- ------- ---- ----- -----<br>--- -------- - ------ ---- -- ----- ---- --- --- -----------<br>-- -------,180697.29999999888,180696.5,180282.209,180289.3999999985,180298.879,180699.076,,20,what
screen,html.Screen,0_4_1_0_1_21,2021-11-04T12:40:21.029Z,,,,,,,,,,,,,,,,2,,,,,,,,,,,,,,389.32399999850895,,response,,,1,B,,,,,Space,keypress(Space),,,,lyrical,--- ---- ------ --- ------- ---------- ------- ----------<br>--- --------- --- ----------- ------- ----- ------- ---<br>--------- ---- -- --- ---- he --------- -- ---- -------<br>-- --------- ------ --- ----- ------ ---- --- --------- --<br>------ - ---- -- --- ----------- ------- ---- ----- -----<br>--- -------- - ------ ---- -- ----- ---- --- --- -----------<br>-- -------,181089.19999999925,181088.3999999985,180682.405,180697.5,180699.076,181099.137,,21,he
screen,html.Screen,0_4_1_0_1_22,2021-11-04T12:40:21.821Z,,,,,,,,,,,,,,,,2,,,,,,,,,,,,,,781.262999998522,,response,,,1,B,,,,,Space,keypress(Space),,,,lyrical,--- ---- ------ --- ------- ---------- ------- ----------<br>--- --------- --- ----------- ------- ----- ------- ---<br>--------- ---- -- --- ---- -- described -- ---- -------<br>-- --------- ------ --- ----- ------ ---- --- --------- --<br>------ - ---- -- --- ----------- ------- ---- ----- -----<br>--- -------- - ------ ---- -- ----- ---- --- --- -----------<br>-- -------,181881.19999999925,181880.3999999985,181082.467,181089.3999999985,181099.137,181882.652,,22,described
screen,html.Screen,0_4_1_0_1_23,2021-11-04T12:40:22.229Z,,,,,,,,,,,,,,,,2,,,,,,,,,,,,,,405.64799999888055,,response,,,1,B,,,,,Space,keypress(Space),,,,lyrical,--- ---- ------ --- ------- ---------- ------- ----------<br>--- --------- --- ----------- ------- ----- ------- ---<br>--------- ---- -- --- ---- -- --------- as ---- -------<br>-- --------- ------ --- ----- ------ ---- --- --------- --<br>------ - ---- -- --- ----------- ------- ---- ----- -----<br>--- -------- - ------ ---- -- ----- ---- --- --- -----------<br>-- -------,182289.29999999888,182288.29999999888,181865.982,181881.5,181882.652,182299.404,,23,as
screen,html.Screen,0_4_1_0_1_24,2021-11-04T12:40:22.589Z,,,,,,,,,,,,,,,,2,,,,,,,,,,,,,,348.89599999887287,,response,,,1,B,,,,,Space,keypress(Space),,,,lyrical,"--- ---- ------ --- ------- ---------- ------- ----------<br>--- --------- --- ----------- ------- ----- ------- ---<br>--------- ---- -- --- ---- -- --------- -- ""two -------<br>-- --------- ------ --- ----- ------ ---- --- --------- --<br>------ - ---- -- --- ----------- ------- ---- ----- -----<br>--- -------- - ------ ---- -- ----- ---- --- --- -----------<br>-- -------",182649.19999999925,182648.29999999888,182282.734,182289.3999999985,182299.404,182666.196,,24,"""two"
screen,html.Screen,0_4_1_0_1_25,2021-11-04T12:40:23.157Z,,,,,,,,,,,,,,,,2,,,,,,,,,,,,,,550.2039999985136,,response,,,1,B,,,,,Space,keypress(Space),,,,lyrical,--- ---- ------ --- ------- ---------- ------- ----------<br>--- --------- --- ----------- ------- ----- ------- ---<br>--------- ---- -- --- ---- -- --------- -- ---- patches<br>-- --------- ------ --- ----- ------ ---- --- --------- --<br>------ - ---- -- --- ----------- ------- ---- ----- -----<br>--- -------- - ------ ---- -- ----- ---- --- --- -----------<br>-- -------,183217.19999999925,183216.3999999985,182649.526,182649.5,182666.196,183232.998,,25,patches
screen,html.Screen,0_4_1_0_1_26,2021-11-04T12:40:23.541Z,,,,,,,,,,,,,,,,2,,,,,,,,,,,,,,367.3019999988901,,response,,,1,B,,,,,Space,keypress(Space),,,,lyrical,--- ---- ------ --- ------- ---------- ------- ----------<br>--- --------- --- ----------- ------- ----- ------- ---<br>--------- ---- -- --- ---- -- --------- -- ---- -------<br>of --------- ------ --- ----- ------ ---- --- --------- --<br>------ - ---- -- --- ----------- ------- ---- ----- -----<br>--- -------- - ------ ---- -- ----- ---- --- --- -----------<br>-- -------,183601.09999999963,183600.29999999888,183216.328,183217.3999999985,183232.998,183616.438,,26,of
screen,html.Screen,0_4_1_0_1_27,2021-11-04T12:40:23.877Z,,,,,,,,,,,,,,,,2,,,,,,,,,,,,,,319.86199999888777,,response,,,1,B,,,,,Space,keypress(Space),,,,lyrical,--- ---- ------ --- ------- ---------- ------- ----------<br>--- --------- --- ----------- ------- ----- ------- ---<br>--------- ---- -- --- ---- -- --------- -- ---- -------<br>-- intensely ------ --- ----- ------ ---- --- --------- --<br>------ - ---- -- --- ----------- ------- ---- ----- -----<br>--- -------- - ------ ---- -- ----- ---- --- --- -----------<br>-- -------,183937.09999999963,183936.29999999888,183599.768,183601.3999999985,183616.438,183949.861,,27,intensely
screen,html.Screen,0_4_1_0_1_28,2021-11-04T12:40:24.213Z,,,,,,,,,,,,,,,,2,,,,,,,,,,,,,,322.3389999992505,,response,,,1,B,,,,,Space,keypress(Space),,,,lyrical,--- ---- ------ --- ------- ---------- ------- ----------<br>--- --------- --- ----------- ------- ----- ------- ---<br>--------- ---- -- --- ---- -- --------- -- ---- -------<br>-- --------- bright --- ----- ------ ---- --- --------- --<br>------ - ---- -- --- ----------- ------- ---- ----- -----<br>--- -------- - ------ ---- -- ----- ---- --- --- -----------<br>-- -------,184273.19999999925,184272.19999999925,183933.191,183937.29999999888,183949.861,184283.323,,28,bright
screen,html.Screen,0_4_1_0_1_29,2021-11-04T12:40:24.573Z,,,,,,,,,,,,,,,,2,,,,,,,,,,,,,,348.876999999251,,response,,,1,B,,,,,Space,keypress(Space),,,,lyrical,--- ---- ------ --- ------- ---------- ------- ----------<br>--- --------- --- ----------- ------- ----- ------- ---<br>--------- ---- -- --- ---- -- --------- -- ---- -------<br>-- --------- ------ and ----- ------ ---- --- --------- --<br>------ - ---- -- --- ----------- ------- ---- ----- -----<br>--- -------- - ------ ---- -- ----- ---- --- --- -----------<br>-- -------,184633.09999999963,184632.19999999925,184266.652,184273.3999999985,184283.323,184649.986,,29,and
screen,html.Screen,0_4_1_0_1_30,2021-11-04T12:40:24.989Z,,,,,,,,,,,,,,,,2,,,,,,,,,,,,,,398.2139999992505,,response,,,1,B,,,,,Space,keypress(Space),,,,lyrical,--- ---- ------ --- ------- ---------- ------- ----------<br>--- --------- --- ----------- ------- ----- ------- ---<br>--------- ---- -- --- ---- -- --------- -- ---- -------<br>-- --------- ------ --- white ------ ---- --- --------- --<br>------ - ---- -- --- ----------- ------- ---- ----- -----<br>--- -------- - ------ ---- -- ----- ---- --- --- -----------<br>-- -------,185049,185048.19999999925,184633.317,184633.3999999985,184649.986,185050.194,,30,white
screen,html.Screen,0_4_1_0_1_31,2021-11-04T12:40:25.357Z,,,,,,,,,,,,,,,,2,,,,,,,,,,,,,,366.00599999926635,,response,,,1,B,,,,,Space,keypress(Space),,,,lyrical,"--- ---- ------ --- ------- ---------- ------- ----------<br>--- --------- --- ----------- ------- ----- ------- ---<br>--------- ---- -- --- ---- -- --------- -- ---- -------<br>-- --------- ------ --- ----- light"" ---- --- --------- --<br>------ - ---- -- --- ----------- ------- ---- ----- -----<br>--- -------- - ------ ---- -- ----- ---- --- --- -----------<br>-- -------",185417.09999999963,185416.19999999925,185033.523,185049.19999999925,185050.194,185433.434,,31,"light"""
screen,html.Screen,0_4_1_0_1_32,2021-11-04T12:40:25.797Z,,,,,,,,,,,,,,,,2,,,,,,,,,,,,,,422.76599999924656,,response,,,1,B,,,,,Space,keypress(Space),,,,lyrical,--- ---- ------ --- ------- ---------- ------- ----------<br>--- --------- --- ----------- ------- ----- ------- ---<br>--------- ---- -- --- ---- -- --------- -- ---- -------<br>-- --------- ------ --- ----- ------ over --- --------- --<br>------ - ---- -- --- ----------- ------- ---- ----- -----<br>--- -------- - ------ ---- -- ----- ---- --- --- -----------<br>-- -------,185857,185856.19999999925,185416.766,185417.29999999888,185433.434,185867.032,,32,over
screen,html.Screen,0_4_1_0_1_33,2021-11-04T12:40:26.149Z,,,,,,,,,,,,,,,,2,,,,,,,,,,,,,,341.06799999962095,,response,,,1,B,,,,,Space,keypress(Space),,,,lyrical,--- ---- ------ --- ------- ---------- ------- ----------<br>--- --------- --- ----------- ------- ----- ------- ---<br>--------- ---- -- --- ---- -- --------- -- ---- -------<br>-- --------- ------ --- ----- ------ ---- the --------- --<br>------ - ---- -- --- ----------- ------- ---- ----- -----<br>--- -------- - ------ ---- -- ----- ---- --- --- -----------<br>-- -------,186208.8999999985,186208.09999999963,185850.361,185857.29999999888,185867.032,186217.202,,33,the
screen,html.Screen,0_4_1_0_1_34,2021-11-04T12:40:26.709Z,,,,,,,,,,,,,,,,2,,,,,,,,,,,,,,550.7980000000098,,response,,,1,B,,,,,Space,keypress(Space),,,,lyrical,--- ---- ------ --- ------- ---------- ------- ----------<br>--- --------- --- ----------- ------- ----- ------- ---<br>--------- ---- -- --- ---- -- --------- -- ---- -------<br>-- --------- ------ --- ----- ------ ---- --- sunspots. --<br>------ - ---- -- --- ----------- ------- ---- ----- -----<br>--- -------- - ------ ---- -- ----- ---- --- --- -----------<br>-- -------,186769,186768,186200.53,186209.09999999963,186217.202,186783.969,,34,sunspots.
screen,html.Screen,0_4_1_0_1_35,2021-11-04T12:40:27.381Z,,,,,,,,,,,,,,,,2,,,,,,,,,,,,,,656.1309999996156,,response,,,1,B,,,,,Space,keypress(Space),,,,lyrical,--- ---- ------ --- ------- ---------- ------- ----------<br>--- --------- --- ----------- ------- ----- ------- ---<br>--------- ---- -- --- ---- -- --------- -- ---- -------<br>-- --------- ------ --- ----- ------ ---- --- --------- He<br>------ - ---- -- --- ----------- ------- ---- ----- -----<br>--- -------- - ------ ---- -- ----- ---- --- --- -----------<br>-- -------,187440.8999999985,187440.09999999963,186767.298,186769.09999999963,186783.969,187450.643,,35,He
screen,html.Screen,0_4_1_0_1_36,2021-11-04T12:40:27.845Z,,,,,,,,,,,,,,,,2,,,,,,,,,,,,,,453.35699999998906,,response,,,1,B,,,,,Space,keypress(Space),,,,lyrical,--- ---- ------ --- ------- ---------- ------- ----------<br>--- --------- --- ----------- ------- ----- ------- ---<br>--------- ---- -- --- ---- -- --------- -- ---- -------<br>-- --------- ------ --- ----- ------ ---- --- --------- --<br>jotted - ---- -- --- ----------- ------- ---- ----- -----<br>--- -------- - ------ ---- -- ----- ---- --- --- -----------<br>-- -------,187904.79999999888,187904,187433.974,187441.19999999925,187450.643,187917.58,,36,jotted
screen,html.Screen,0_4_1_0_1_37,2021-11-04T12:40:28.261Z,,,,,,,,,,,,,,,,2,,,,,,,,,,,,,,402.4200000000128,,response,,,1,B,,,,,Space,keypress(Space),,,,lyrical,--- ---- ------ --- ------- ---------- ------- ----------<br>--- --------- --- ----------- ------- ----- ------- ---<br>--------- ---- -- --- ---- -- --------- -- ---- -------<br>-- --------- ------ --- ----- ------ ---- --- --------- --<br>------ a ---- -- --- ----------- ------- ---- ----- -----<br>--- -------- - ------ ---- -- ----- ---- --- --- -----------<br>-- -------,188320.79999999888,188320,187900.909,187905.09999999963,187917.58,188334.32,,37,a
screen,html.Screen,0_4_1_0_1_38,2021-11-04T12:40:28.693Z,,,,,,,,,,,,,,,,2,,,,,,,,,,,,,,417.5799999985029,,response,,,1,B,,,,,Space,keypress(Space),,,,lyrical,--- ---- ------ --- ------- ---------- ------- ----------<br>--- --------- --- ----------- ------- ----- ------- ---<br>--------- ---- -- --- ---- -- --------- -- ---- -------<br>-- --------- ------ --- ----- ------ ---- --- --------- --<br>------ - note -- --- ----------- ------- ---- ----- -----<br>--- -------- - ------ ---- -- ----- ---- --- --- -----------<br>-- -------,188752.69999999925,188751.8999999985,188317.65,188321.09999999963,188334.32,188767.809,,38,note
screen,html.Screen,0_4_1_0_1_39,2021-11-04T12:40:29.117Z,,,,,,,,,,,,,,,,2,,,,,,,,,,,,,,408.6909999999916,,response,,,1,B,,,,,Space,keypress(Space),,,,lyrical,--- ---- ------ --- ------- ---------- ------- ----------<br>--- --------- --- ----------- ------- ----- ------- ---<br>--------- ---- -- --- ---- -- --------- -- ---- -------<br>-- --------- ------ --- ----- ------ ---- --- --------- --<br>------ - ---- in --- ----------- ------- ---- ----- -----<br>--- -------- - ------ ---- -- ----- ---- --- --- -----------<br>-- -------,189177.29999999888,189176.5,188751.138,188753,188767.809,189184.525,,39,in
screen,html.Screen,0_4_1_0_1_40,2021-11-04T12:40:29.589Z,,,,,,,,,,,,,,,,2,,,,,,,,,,,,,,463.3749999985157,,response,,,1,B,,,,,Space,keypress(Space),,,,lyrical,--- ---- ------ --- ------- ---------- ------- ----------<br>--- --------- --- ----------- ------- ----- ------- ---<br>--------- ---- -- --- ---- -- --------- -- ---- -------<br>-- --------- ------ --- ----- ------ ---- --- --------- --<br>------ - ---- -- his ----------- ------- ---- ----- -----<br>--- -------- - ------ ---- -- ----- ---- --- --- -----------<br>-- -------,189648.69999999925,189647.8999999985,189167.855,189177.59999999963,189184.525,189651.312,,40,his
screen,html.Screen,0_4_1_0_1_41,2021-11-04T12:40:30.437Z,,,,,,,,,,,,,,,,2,,,,,,,,,,,,,,844.5879999985045,,response,,,1,B,,,,,Space,keypress(Space),,,,lyrical,--- ---- ------ --- ------- ---------- ------- ----------<br>--- --------- --- ----------- ------- ----- ------- ---<br>--------- ---- -- --- ---- -- --------- -- ---- -------<br>-- --------- ------ --- ----- ------ ---- --- --------- --<br>------ - ---- -- --- painstaking ------- ---- ----- -----<br>--- -------- - ------ ---- -- ----- ---- --- --- -----------<br>-- -------,190496.69999999925,190495.8999999985,189634.642,189648.8999999985,189651.312,190501.389,,41,painstaking
screen,html.Screen,0_4_1_0_1_42,2021-11-04T12:40:30.805Z,,,,,,,,,,,,,,,,2,,,,,,,,,,,,,,362.5109999985143,,response,,,1,B,,,,,Space,keypress(Space),,,,lyrical,--- ---- ------ --- ------- ---------- ------- ----------<br>--- --------- --- ----------- ------- ----- ------- ---<br>--------- ---- -- --- ---- -- --------- -- ---- -------<br>-- --------- ------ --- ----- ------ ---- --- --------- --<br>------ - ---- -- --- ----------- record. ---- ----- -----<br>--- -------- - ------ ---- -- ----- ---- --- --- -----------<br>-- -------,190864.79999999888,190863.8999999985,190484.72,190497,190501.389,190868.396,,42,record.
screen,html.Screen,0_4_1_0_1_43,2021-11-04T12:40:31.252Z,,,,,,,,,,,,,,,,2,,,,,,,,,,,,,,443.4039999988745,,response,,,1,B,,,,,Space,keypress(Space),,,,lyrical,--- ---- ------ --- ------- ---------- ------- ----------<br>--- --------- --- ----------- ------- ----- ------- ---<br>--------- ---- -- --- ---- -- --------- -- ---- -------<br>-- --------- ------ --- ----- ------ ---- --- --------- --<br>------ - ---- -- --- ----------- ------- That ----- -----<br>--- -------- - ------ ---- -- ----- ---- --- --- -----------<br>-- -------,191312.59999999963,191311.79999999888,190851.724,190865,190868.396,191318.42,,43,That
screen,html.Screen,0_4_1_0_1_44,2021-11-04T12:40:31.709Z,,,,,,,,,,,,,,,,2,,,,,,,,,,,,,,449.3799999988696,,response,,,1,B,,,,,Space,keypress(Space),,,,lyrical,--- ---- ------ --- ------- ---------- ------- ----------<br>--- --------- --- ----------- ------- ----- ------- ---<br>--------- ---- -- --- ---- -- --------- -- ---- -------<br>-- --------- ------ --- ----- ------ ---- --- --------- --<br>------ - ---- -- --- ----------- ------- ---- night -----<br>--- -------- - ------ ---- -- ----- ---- --- --- -----------<br>-- -------,191768.69999999925,191767.79999999888,191301.75,191312.8999999985,191318.42,191785.245,,44,night
screen,html.Screen,0_4_1_0_1_45,2021-11-04T12:40:32.108Z,,,,,,,,,,,,,,,,2,,,,,,,,,,,,,,382.55499999888707,,response,,,1,B,,,,,Space,keypress(Space),,,,lyrical,--- ---- ------ --- ------- ---------- ------- ----------<br>--- --------- --- ----------- ------- ----- ------- ---<br>--------- ---- -- --- ---- -- --------- -- ---- -------<br>-- --------- ------ --- ----- ------ ---- --- --------- --<br>------ - ---- -- --- ----------- ------- ---- ----- there<br>--- -------- - ------ ---- -- ----- ---- --- --- -----------<br>-- -------,192168.59999999963,192167.79999999888,191768.574,191768.8999999985,191785.245,192185.303,,45,there
screen,html.Screen,0_4_1_0_1_46,2021-11-04T12:40:32.484Z,,,,,,,,,,,,,,,,2,,,,,,,,,,,,,,358.496999998868,,response,,,1,B,,,,,Space,keypress(Space),,,,lyrical,--- ---- ------ --- ------- ---------- ------- ----------<br>--- --------- --- ----------- ------- ----- ------- ---<br>--------- ---- -- --- ---- -- --------- -- ---- -------<br>-- --------- ------ --- ----- ------ ---- --- --------- --<br>------ - ---- -- --- ----------- ------- ---- ----- -----<br>was -------- - ------ ---- -- ----- ---- --- --- -----------<br>-- -------,192544.59999999963,192543.79999999888,192168.633,192168.8999999985,192185.303,192552.078,,46,was
screen,html.Screen,0_4_1_0_1_47,2021-11-04T12:40:32.877Z,,,,,,,,,,,,,,,,2,,,,,,,,,,,,,,383.82199999850127,,response,,,1,B,,,,,Space,keypress(Space),,,,lyrical,--- ---- ------ --- ------- ---------- ------- ----------<br>--- --------- --- ----------- ------- ----- ------- ---<br>--------- ---- -- --- ---- -- --------- -- ---- -------<br>-- --------- ------ --- ----- ------ ---- --- --------- --<br>------ - ---- -- --- ----------- ------- ---- ----- -----<br>--- scarcely - ------ ---- -- ----- ---- --- --- -----------<br>-- -------,192936.69999999925,192935.8999999985,192535.408,192544.8999999985,192552.078,192952.152,,47,scarcely
screen,html.Screen,0_4_1_0_1_48,2021-11-04T12:40:33.340Z,,,,,,,,,,,,,,,,2,,,,,,,,,,,,,,447.5479999992531,,response,,,1,B,,,,,Space,keypress(Space),,,,lyrical,--- ---- ------ --- ------- ---------- ------- ----------<br>--- --------- --- ----------- ------- ----- ------- ---<br>--------- ---- -- --- ---- -- --------- -- ---- -------<br>-- --------- ------ --- ----- ------ ---- --- --------- --<br>------ - ---- -- --- ----------- ------- ---- ----- -----<br>--- -------- a ------ ---- -- ----- ---- --- --- -----------<br>-- -------,193400.59999999963,193399.69999999925,192935.482,192938.09999999963,192952.152,193402.333,,48,a
screen,html.Screen,0_4_1_0_1_49,2021-11-04T12:40:33.772Z,,,,,,,,,,,,,,,,2,,,,,,,,,,,,,,429.36699999924167,,response,,,1,B,,,,,Space,keypress(Space),,,,lyrical,--- ---- ------ --- ------- ---------- ------- ----------<br>--- --------- --- ----------- ------- ----- ------- ---<br>--------- ---- -- --- ---- -- --------- -- ---- -------<br>-- --------- ------ --- ----- ------ ---- --- --------- --<br>------ - ---- -- --- ----------- ------- ---- ----- -----<br>--- -------- - square ---- -- ----- ---- --- --- -----------<br>-- -------,193832.59999999963,193831.69999999925,193385.662,193400.8999999985,193402.333,193835.738,,49,square
