sender,sender_type,sender_id,timestamp,meta,,Blues,Classical,Country,Dance,Electronic,Folk,Gospel,Hip-Hop,Jazz,Latin,Musical/Film,New-age,Pop,Provo_ID,R&B,Rap,Reggae,Religious,Rock,Soul,Swing,Traditional,age,artist_name,correct,correctResponse,distraction,duration,education,ended_on,familiarity,gender,item,list,music_frequency,offensiveness,pleasantness,preference,response,response_action,snippet_file,song_name,song_rating,sound,text,time_commit,time_end,time_render,time_run,time_show,time_switch,url,word,word_ID
Instructions,html.Page,0_0,2021-11-12T15:25:29.839Z,"{""labjs_version"":""20.2.3"",""labjs_build"":{""flavor"":""production"",""commit"":""7ea907d66ca8aeef8054924ca5d82ffbe11e34e5""},""location"":""https://run.pavlovia.org/mvasilev/lab_music_b/"",""userAgent"":""Mozilla/5.0 (Windows NT 6.1; Win64; x64) AppleWebKit/537.36 (KHTML, like Gecko) Chrome/95.0.4638.69 Safari/537.36"",""platform"":""Win32"",""language"":""en-US"",""locale"":""en-US"",""timeZone"":""Europe/London"",""timezoneOffset"":0,""screen_width"":1920,""screen_height"":1080,""scroll_width"":1920,""scroll_height"":959,""window_innerWidth"":1920,""window_innerHeight"":1007,""devicePixelRatio"":1}",,,,,,,,,,,,,,,,,,,,,,,,,,,,,4869.787000047684,,form submission,,,,,,,,,,,,,,,,12639.5,12638.700000047684,7735.583,7746.300000011921,7768.913,12634.906,{},,
Headphones,html.Page,0_1,2021-11-12T15:25:31.660Z,,,,,,,,,,,,,,,,,,,,,,,,,,,,,,1825.694000023841,,form submission,,,,,,,,,,,,,,,,14461,14460.600000023842,12618.262,12639.900000035763,12634.906,14468.337,,,
Holding screen,html.Screen,0_2_0_0,2021-11-12T15:25:41.655Z,,,,,,,,,,,,,,,,,,,,,,,,,,,,,,9999.779999999999,,timeout,,,,,,,,,,,,,,,,24455.900000035763,24451.451,14451.675,14461.300000011921,14468.337,24468.117,,,
screen,html.Screen,0_2_0_1_0,2021-11-12T15:25:42.868Z,,,,,,,,,,,,,,,,53,,,,,,,,,,,,,,1198.8830000000016,,response,,,99,,,,,,Space,keypress(Space),,,,,When -- ----- -- ------ - ------- --- ----------<br>------------- ------ ------ ---- ---- ------- ----- -- ----<br>-------- ------- -- ---------- --- - --- ----- ----- ----<br>---- --- --- ----- --- ---- ---- ------- ----- ---- -------<br>--- --- -- ----- -- --- ---- -- --- ---- -- ------ ------<br>--- ----- -- ----,25668,25667,24451.451,24456.200000047684,24468.117,25684.64,,0,When
screen,html.Screen,0_2_0_1_1,2021-11-12T15:25:43.723Z,,,,,,,,,,,,,,,,53,,,,,,,,,,,,,,837.9600000238424,,response,,,99,,,,,,Space,keypress(Space),,,,,---- it ----- -- ------ - ------- --- ----------<br>------------- ------ ------ ---- ---- ------- ----- -- ----<br>-------- ------- -- ---------- --- - --- ----- ----- ----<br>---- --- --- ----- --- ---- ---- ------- ----- ---- -------<br>--- --- -- ----- -- --- ---- -- --- ---- -- ------ ------<br>--- ----- -- ----,26523.30000001192,26522.600000023842,25667.975,25668.30000001192,25684.64,26534.574,,1,it
screen,html.Screen,0_2_0_1_2,2021-11-12T15:25:44.419Z,,,,,,,,,,,,,,,,53,,,,,,,,,,,,,,684.0260000238413,,response,,,99,,,,,,Space,keypress(Space),,,,,---- -- comes -- ------ - ------- --- ----------<br>------------- ------ ------ ---- ---- ------- ----- -- ----<br>-------- ------- -- ---------- --- - --- ----- ----- ----<br>---- --- --- ----- --- ---- ---- ------- ----- ---- -------<br>--- --- -- ----- -- --- ---- -- --- ---- -- ------ ------<br>--- ----- -- ----,27219.30000001192,27218.600000023842,26517.909,26523.5,26534.574,27234.543,,2,comes
screen,html.Screen,0_2_0_1_3,2021-11-12T15:25:44.923Z,,,,,,,,,,,,,,,,53,,,,,,,,,,,,,,488.0570000238404,,response,,,99,,,,,,Space,keypress(Space),,,,,---- -- ----- to ------ - ------- --- ----------<br>------------- ------ ------ ---- ---- ------- ----- -- ----<br>-------- ------- -- ---------- --- - --- ----- ----- ----<br>---- --- --- ----- --- ---- ---- ------- ----- ---- -------<br>--- --- -- ----- -- --- ---- -- --- ---- -- ------ ------<br>--- ----- -- ----,27723.400000035763,27722.600000023842,27217.878,27219.5,27234.543,27734.537,,3,to
screen,html.Screen,0_2_0_1_4,2021-11-12T15:25:45.419Z,,,,,,,,,,,,,,,,53,,,,,,,,,,,,,,483.96299999999974,,response,,,99,,,,,,Space,keypress(Space),,,,,---- -- ----- -- having - ------- --- ----------<br>------------- ------ ------ ---- ---- ------- ----- -- ----<br>-------- ------- -- ---------- --- - --- ----- ----- ----<br>---- --- --- ----- --- ---- ---- ------- ----- ---- -------<br>--- --- -- ----- -- --- ---- -- --- ---- -- ------ ------<br>--- ----- -- ----,28219.5,28218.5,27717.872,27723.700000047684,27734.537,28234.498,,4,having
screen,html.Screen,0_2_0_1_5,2021-11-12T15:25:45.843Z,,,,,,,,,,,,,,,,53,,,,,,,,,,,,,,408.0020000000004,,response,,,99,,,,,,Space,keypress(Space),,,,,---- -- ----- -- ------ a ------- --- ----------<br>------------- ------ ------ ---- ---- ------- ----- -- ----<br>-------- ------- -- ---------- --- - --- ----- ----- ----<br>---- --- --- ----- --- ---- ---- ------- ----- ---- -------<br>--- --- -- ----- -- --- ---- -- --- ---- -- ------ ------<br>--- ----- -- ----,28643.30000001192,28642.5,28217.833,28219.600000023842,28234.498,28651.138,,5,a
screen,html.Screen,0_2_0_1_6,2021-11-12T15:25:46.275Z,,,,,,,,,,,,,,,,53,,,,,,,,,,,,,,423.362000000001,,response,,,99,,,,,,Space,keypress(Space),,,,,---- -- ----- -- ------ - lasting --- ----------<br>------------- ------ ------ ---- ---- ------- ----- -- ----<br>-------- ------- -- ---------- --- - --- ----- ----- ----<br>---- --- --- ----- --- ---- ---- ------- ----- ---- -------<br>--- --- -- ----- -- --- ---- -- --- ---- -- ------ ------<br>--- ----- -- ----,29075.30000001192,29074.5,28634.473,28643.5,28651.138,29084.456,,6,lasting
screen,html.Screen,0_2_0_1_7,2021-11-12T15:25:46.803Z,,,,,,,,,,,,,,,,53,,,,,,,,,,,,,,517.9440000357645,,response,,,99,,,,,,Space,keypress(Space),,,,,---- -- ----- -- ------ - ------- and ----------<br>------------- ------ ------ ---- ---- ------- ----- -- ----<br>-------- ------- -- ---------- --- - --- ----- ----- ----<br>---- --- --- ----- --- ---- ---- ------- ----- ---- -------<br>--- --- -- ----- -- --- ---- -- --- ---- -- ------ ------<br>--- ----- -- ----,29603.100000023842,29602.400000035763,29067.791,29075.5,29084.456,29617.667,,7,and
screen,html.Screen,0_2_0_1_8,2021-11-12T15:25:47.323Z,,,,,,,,,,,,,,,,53,,,,,,,,,,,,,,504.7330000357615,,response,,,99,,,,,,Space,keypress(Space),,,,,---- -- ----- -- ------ - ------- --- fulfilling<br>------------- ------ ------ ---- ---- ------- ----- -- ----<br>-------- ------- -- ---------- --- - --- ----- ----- ----<br>---- --- --- ----- --- ---- ---- ------- ----- ---- -------<br>--- --- -- ----- -- --- ---- -- --- ---- -- ------ ------<br>--- ----- -- ----,30123.30000001192,30122.400000035763,29601.003,29603.400000035763,29617.667,30134.436,,8,fulfilling
screen,html.Screen,0_2_0_1_9,2021-11-12T15:25:47.851Z,,,,,,,,,,,,,,,,53,,,,,,,,,,,,,,515.9640000357613,,response,,,99,,,,,,Space,keypress(Space),,,,,"---- -- ----- -- ------ - ------- --- ----------<br>relationship, ------ ------ ---- ---- ------- ----- -- ----<br>-------- ------- -- ---------- --- - --- ----- ----- ----<br>---- --- --- ----- --- ---- ---- ------- ----- ---- -------<br>--- --- -- ----- -- --- ---- -- --- ---- -- ------ ------<br>--- ----- -- ----",30651.200000047684,30650.400000035763,30117.77,30123.5,30134.436,30667.691,,9,"relationship,"
screen,html.Screen,0_2_0_1_10,2021-11-12T15:25:48.323Z,,,,,,,,,,,,,,,,53,,,,,,,,,,,,,,454.60900001192203,,response,,,99,,,,,,Space,keypress(Space),,,,,---- -- ----- -- ------ - ------- --- ----------<br>------------- common ------ ---- ---- ------- ----- -- ----<br>-------- ------- -- ---------- --- - --- ----- ----- ----<br>---- --- --- ----- --- ---- ---- ------- ----- ---- -------<br>--- --- -- ----- -- --- ---- -- --- ---- -- ------ ------<br>--- ----- -- ----,31123.100000023842,31122.30000001192,30651.026,30651.400000035763,30667.691,31134.319,,10,common
screen,html.Screen,0_2_0_1_11,2021-11-12T15:25:48.787Z,,,,,,,,,,,,,,,,53,,,,,,,,,,,,,,451.9810000119214,,response,,,99,,,,,,Space,keypress(Space),,,,,---- -- ----- -- ------ - ------- --- ----------<br>------------- ------ wisdom ---- ---- ------- ----- -- ----<br>-------- ------- -- ---------- --- - --- ----- ----- ----<br>---- --- --- ----- --- ---- ---- ------- ----- ---- -------<br>--- --- -- ----- -- --- ---- -- --- ---- -- ------ ------<br>--- ----- -- ----,31587.100000023842,31586.30000001192,31117.654,31123.400000035763,31134.319,31600.937,,11,wisdom
screen,html.Screen,0_2_0_1_12,2021-11-12T15:25:49.210Z,,,,,,,,,,,,,,,,53,,,,,,,,,,,,,,409.3630000119192,,response,,,99,,,,,,Space,keypress(Space),,,,,---- -- ----- -- ------ - ------- --- ----------<br>------------- ------ ------ says ---- ------- ----- -- ----<br>-------- ------- -- ---------- --- - --- ----- ----- ----<br>---- --- --- ----- --- ---- ---- ------- ----- ---- -------<br>--- --- -- ----- -- --- ---- -- --- ---- -- ------ ------<br>--- ----- -- ----,32010.900000035763,32010.30000001192,31584.272,31587.30000001192,31600.937,32017.585,,12,says
screen,html.Screen,0_2_0_1_13,2021-11-12T15:25:49.627Z,,,,,,,,,,,,,,,,53,,,,,,,,,,,,,,408.7150000119218,,response,,,99,,,,,,Space,keypress(Space),,,,,---- -- ----- -- ------ - ------- --- ----------<br>------------- ------ ------ ---- that ------- ----- -- ----<br>-------- ------- -- ---------- --- - --- ----- ----- ----<br>---- --- --- ----- --- ---- ---- ------- ----- ---- -------<br>--- --- -- ----- -- --- ---- -- --- ---- -- ------ ------<br>--- ----- -- ----,32427,32426.30000001192,32000.92,32011.100000023842,32017.585,32434.211,,13,that
screen,html.Screen,0_2_0_1_14,2021-11-12T15:25:50.106Z,,,,,,,,,,,,,,,,53,,,,,,,,,,,,,,472.0890000119216,,response,,,99,,,,,,Space,keypress(Space),,,,,---- -- ----- -- ------ - ------- --- ----------<br>------------- ------ ------ ---- ---- feeling ----- -- ----<br>-------- ------- -- ---------- --- - --- ----- ----- ----<br>---- --- --- ----- --- ---- ---- ------- ----- ---- -------<br>--- --- -- ----- -- --- ---- -- --- ---- -- ------ ------<br>--- ----- -- ----,32906.90000003576,32906.30000001192,32417.546,32427.200000047684,32434.211,32917.532,,14,feeling
screen,html.Screen,0_2_0_1_15,2021-11-12T15:25:50.571Z,,,,,,,,,,,,,,,,53,,,,,,,,,,,,,,452.6680000476845,,response,,,99,,,,,,Space,keypress(Space),,,,,---- -- ----- -- ------ - ------- --- ----------<br>------------- ------ ------ ---- ---- ------- close -- ----<br>-------- ------- -- ---------- --- - --- ----- ----- ----<br>---- --- --- ----- --- ---- ---- ------- ----- ---- -------<br>--- --- -- ----- -- --- ---- -- --- ---- -- ------ ------<br>--- ----- -- ----,33371.10000002384,33370.200000047684,32900.867,32907.10000002384,32917.532,33384.159,,15,close
screen,html.Screen,0_2_0_1_16,2021-11-12T15:25:50.994Z,,,,,,,,,,,,,,,,53,,,,,,,,,,,,,,409.9410000238422,,response,,,99,,,,,,Space,keypress(Space),,,,,---- -- ----- -- ------ - ------- --- ----------<br>------------- ------ ------ ---- ---- ------- ----- to ----<br>-------- ------- -- ---------- --- - --- ----- ----- ----<br>---- --- --- ----- --- ---- ---- ------- ----- ---- -------<br>--- --- -- ----- -- --- ---- -- --- ---- -- ------ ------<br>--- ----- -- ----,33794.700000047684,33794.10000002384,33367.494,33371.30000001192,33384.159,33800.859,,16,to
screen,html.Screen,0_2_0_1_17,2021-11-12T15:25:51.442Z,,,,,,,,,,,,,,,,53,,,,,,,,,,,,,,441.341000047687,,response,,,99,,,,,,Space,keypress(Space),,,,,---- -- ----- -- ------ - ------- --- ----------<br>------------- ------ ------ ---- ---- ------- ----- -- your<br>-------- ------- -- ---------- --- - --- ----- ----- ----<br>---- --- --- ----- --- ---- ---- ------- ----- ---- -------<br>--- --- -- ----- -- --- ---- -- --- ---- -- ------ ------<br>--- ----- -- ----,34242.80000001192,34242.200000047684,33784.193,33795,33800.859,34250.771,,17,your
screen,html.Screen,0_2_0_1_18,2021-11-12T15:25:51.922Z,,,,,,,,,,,,,,,,53,,,,,,,,,,,,,,471.3290000238412,,response,,,99,,,,,,Space,keypress(Space),,,,,---- -- ----- -- ------ - ------- --- ----------<br>------------- ------ ------ ---- ---- ------- ----- -- ----<br>romantic ------- -- ---------- --- - --- ----- ----- ----<br>---- --- --- ----- --- ---- ---- ------- ----- ---- -------<br>--- --- -- ----- -- --- ---- -- --- ---- -- ------ ------<br>--- ----- -- ----,34722.700000047684,34722.10000002384,34234.106,34242.90000003576,34250.771,34733.984,,18,romantic
screen,html.Screen,0_2_0_1_19,2021-11-12T15:25:52.362Z,,,,,,,,,,,,,,,,53,,,,,,,,,,,,,,428.1160000238451,,response,,,99,,,,,,Space,keypress(Space),,,,,---- -- ----- -- ------ - ------- --- ----------<br>------------- ------ ------ ---- ---- ------- ----- -- ----<br>-------- partner -- ---------- --- - --- ----- ----- ----<br>---- --- --- ----- --- ---- ---- ------- ----- ---- -------<br>--- --- -- ----- -- --- ---- -- --- ---- -- ------ ------<br>--- ----- -- ----,35162.700000047684,35162.10000002384,34717.32,34722.90000003576,34733.984,35167.447,,19,partner
screen,html.Screen,0_2_0_1_20,2021-11-12T15:25:52.754Z,,,,,,,,,,,,,,,,53,,,,,,,,,,,,,,386.65300002384174,,response,,,99,,,,,,Space,keypress(Space),,,,,---- -- ----- -- ------ - ------- --- ----------<br>------------- ------ ------ ---- ---- ------- ----- -- ----<br>-------- ------- is ---------- --- - --- ----- ----- ----<br>---- --- --- ----- --- ---- ---- ------- ----- ---- -------<br>--- --- -- ----- -- --- ---- -- --- ---- -- ------ ------<br>--- ----- -- ----,35554.80000001192,35554.10000002384,35150.781,35163,35167.447,35567.363,,20,is
screen,html.Screen,0_2_0_1_21,2021-11-12T15:25:53.274Z,,,,,,,,,,,,,,,,53,,,,,,,,,,,,,,506.9370000119234,,response,,,99,,,,,,Space,keypress(Space),,,,,---- -- ----- -- ------ - ------- --- ----------<br>------------- ------ ------ ---- ---- ------- ----- -- ----<br>-------- ------- -- paramount. --- - --- ----- ----- ----<br>---- --- --- ----- --- ---- ---- ------- ----- ---- -------<br>--- --- -- ----- -- --- ---- -- --- ---- -- ------ ------<br>--- ----- -- ----,36074.90000003576,36074.30000001192,35550.698,35555,35567.363,36084.055,,21,paramount.
screen,html.Screen,0_2_0_1_22,2021-11-12T15:25:53.810Z,,,,,,,,,,,,,,,,53,,,,,,,,,,,,,,526.0450000238416,,response,,,99,,,,,,Space,keypress(Space),,,,,---- -- ----- -- ------ - ------- --- ----------<br>------------- ------ ------ ---- ---- ------- ----- -- ----<br>-------- ------- -- ---------- But - --- ----- ----- ----<br>---- --- --- ----- --- ---- ---- ------- ----- ---- -------<br>--- --- -- ----- -- --- ---- -- --- ---- -- ------ ------<br>--- ----- -- ----,36610.60000002384,36610.10000002384,36067.389,36075.30000001192,36084.055,36617.322,,22,But
screen,html.Screen,0_2_0_1_23,2021-11-12T15:25:54.210Z,,,,,,,,,,,,,,,,53,,,,,,,,,,,,,,392.6779999999999,,response,,,99,,,,,,Space,keypress(Space),,,,,---- -- ----- -- ------ - ------- --- ----------<br>------------- ------ ------ ---- ---- ------- ----- -- ----<br>-------- ------- -- ---------- --- a --- ----- ----- ----<br>---- --- --- ----- --- ---- ---- ------- ----- ---- -------<br>--- --- -- ----- -- --- ---- -- --- ---- -- ------ ------<br>--- ----- -- ----,37010.60000002384,37010,36600.657,36610.80000001192,36617.322,37017.223,,23,a
screen,html.Screen,0_2_0_1_24,2021-11-12T15:25:54.602Z,,,,,,,,,,,,,,,,53,,,,,,,,,,,,,,384.77700000000186,,response,,,99,,,,,,Space,keypress(Space),,,,,---- -- ----- -- ------ - ------- --- ----------<br>------------- ------ ------ ---- ---- ------- ----- -- ----<br>-------- ------- -- ---------- --- - new ----- ----- ----<br>---- --- --- ----- --- ---- ---- ------- ----- ---- -------<br>--- --- -- ----- -- --- ---- -- --- ---- -- ------ ------<br>--- ----- -- ----,37402.60000002384,37402,37000.559,37010.700000047684,37017.223,37417.309,,24,new
screen,html.Screen,0_2_0_1_25,2021-11-12T15:25:55.042Z,,,,,,,,,,,,,,,,53,,,,,,,,,,,,,,424.6909999999989,,response,,,99,,,,,,Space,keypress(Space),,,,,---- -- ----- -- ------ - ------- --- ----------<br>------------- ------ ------ ---- ---- ------- ----- -- ----<br>-------- ------- -- ---------- --- - --- study ----- ----<br>---- --- --- ----- --- ---- ---- ------- ----- ---- -------<br>--- --- -- ----- -- --- ---- -- --- ---- -- ------ ------<br>--- ----- -- ----,37842.60000002384,37842,37400.643,37402.80000001192,37417.309,37850.571,,25,study
screen,html.Screen,0_2_0_1_26,2021-11-12T15:25:55.426Z,,,,,,,,,,,,,,,,53,,,,,,,,,,,,,,375.32900003575924,,response,,,99,,,,,,Space,keypress(Space),,,,,---- -- ----- -- ------ - ------- --- ----------<br>------------- ------ ------ ---- ---- ------- ----- -- ----<br>-------- ------- -- ---------- --- - --- ----- finds ----<br>---- --- --- ----- --- ---- ---- ------- ----- ---- -------<br>--- --- -- ----- -- --- ---- -- --- ---- -- ------ ------<br>--- ----- -- ----,38226.5,38225.90000003576,37833.906,37842.80000001192,37850.571,38233.894,,26,finds
screen,html.Screen,0_2_0_1_27,2021-11-12T15:25:55.882Z,,,,,,,,,,,,,,,,53,,,,,,,,,,,,,,447.9060000119207,,response,,,99,,,,,,Space,keypress(Space),,,,,---- -- ----- -- ------ - ------- --- ----------<br>------------- ------ ------ ---- ---- ------- ----- -- ----<br>-------- ------- -- ---------- --- - --- ----- ----- that<br>---- --- --- ----- --- ---- ---- ------- ----- ---- -------<br>--- --- -- ----- -- --- ---- -- --- ---- -- ------ ------<br>--- ----- -- ----,38682.5,38681.80000001192,38217.229,38226.700000047684,38233.894,38683.796,,27,that
screen,html.Screen,0_2_0_1_28,2021-11-12T15:25:56.330Z,,,,,,,,,,,,,,,,53,,,,,,,,,,,,,,446.00400001191883,,response,,,99,,,,,,Space,keypress(Space),,,,,---- -- ----- -- ------ - ------- --- ----------<br>------------- ------ ------ ---- ---- ------- ----- -- ----<br>-------- ------- -- ---------- --- - --- ----- ----- ----<br>it's --- --- ----- --- ---- ---- ------- ----- ---- -------<br>--- --- -- ----- -- --- ---- -- --- ---- -- ------ ------<br>--- ----- -- ----,39130.5,39129.80000001192,38667.132,38682.700000047684,38683.796,39133.821,,28,it's
screen,html.Screen,0_2_0_1_29,2021-11-12T15:25:56.738Z,,,,,,,,,,,,,,,,53,,,,,,,,,,,,,,403.9790000119174,,response,,,99,,,,,,Space,keypress(Space),,,,,---- -- ----- -- ------ - ------- --- ----------<br>------------- ------ ------ ---- ---- ------- ----- -- ----<br>-------- ------- -- ---------- --- - --- ----- ----- ----<br>---- not --- ----- --- ---- ---- ------- ----- ---- -------<br>--- --- -- ----- -- --- ---- -- --- ---- -- ------ ------<br>--- ----- -- ----,39538.40000003576,39537.80000001192,39117.156,39130.60000002384,39133.821,39550.362,,29,not
screen,html.Screen,0_2_0_1_30,2021-11-12T15:25:57.186Z,,,,,,,,,,,,,,,,53,,,,,,,,,,,,,,435.43800001191994,,response,,,99,,,,,,Space,keypress(Space),,,,,---- -- ----- -- ------ - ------- --- ----------<br>------------- ------ ------ ---- ---- ------- ----- -- ----<br>-------- ------- -- ---------- --- - --- ----- ----- ----<br>---- --- how ----- --- ---- ---- ------- ----- ---- -------<br>--- --- -- ----- -- --- ---- -- --- ---- -- ------ ------<br>--- ----- -- ----,39986.5,39985.80000001192,39533.698,39538.60000002384,39550.362,40000.48,,30,how
screen,html.Screen,0_2_0_1_31,2021-11-12T15:25:57.690Z,,,,,,,,,,,,,,,,53,,,,,,,,,,,,,,489.2200000476805,,response,,,99,,,,,,Space,keypress(Space),,,,,---- -- ----- -- ------ - ------- --- ----------<br>------------- ------ ------ ---- ---- ------- ----- -- ----<br>-------- ------- -- ---------- --- - --- ----- ----- ----<br>---- --- --- close --- ---- ---- ------- ----- ---- -------<br>--- --- -- ----- -- --- ---- -- --- ---- -- ------ ------<br>--- ----- -- ----,40490.30000001192,40489.700000047684,39983.814,39986.60000002384,40000.48,40500.389,,31,close
screen,html.Screen,0_2_0_1_32,2021-11-12T15:25:58.138Z,,,,,,,,,,,,,,,,53,,,,,,,,,,,,,,437.31100004768086,,response,,,99,,,,,,Space,keypress(Space),,,,,---- -- ----- -- ------ - ------- --- ----------<br>------------- ------ ------ ---- ---- ------- ----- -- ----<br>-------- ------- -- ---------- --- - --- ----- ----- ----<br>---- --- --- ----- you ---- ---- ------- ----- ---- -------<br>--- --- -- ----- -- --- ---- -- --- ---- -- ------ ------<br>--- ----- -- ----,40938.30000001192,40937.700000047684,40483.724,40490.40000003576,40500.389,40950.364,,32,you
screen,html.Screen,0_2_0_1_33,2021-11-12T15:25:58.642Z,,,,,,,,,,,,,,,,53,,,,,,,,,,,,,,491.3360000476823,,response,,,99,,,,,,Space,keypress(Space),,,,,---- -- ----- -- ------ - ------- --- ----------<br>------------- ------ ------ ---- ---- ------- ----- -- ----<br>-------- ------- -- ---------- --- - --- ----- ----- ----<br>---- --- --- ----- --- feel ---- ------- ----- ---- -------<br>--- --- -- ----- -- --- ---- -- --- ---- -- ------ ------<br>--- ----- -- ----,41442.30000001192,41441.700000047684,40933.699,40938.40000003576,40950.364,41450.33,,33,feel
screen,html.Screen,0_2_0_1_34,2021-11-12T15:25:59.082Z,,,,,,,,,,,,,,,,53,,,,,,,,,,,,,,431.37000004768197,,response,,,99,,,,,,Space,keypress(Space),,,,,---- -- ----- -- ------ - ------- --- ----------<br>------------- ------ ------ ---- ---- ------- ----- -- ----<br>-------- ------- -- ---------- --- - --- ----- ----- ----<br>---- --- --- ----- --- ---- that ------- ----- ---- -------<br>--- --- -- ----- -- --- ---- -- --- ---- -- ------ ------<br>--- ----- -- ----,41882.30000001192,41881.700000047684,41433.665,41442.5,41450.33,41883.639,,34,that
screen,html.Screen,0_2_0_1_35,2021-11-12T15:25:59.578Z,,,,,,,,,,,,,,,,53,,,,,,,,,,,,,,493.961000023839,,response,,,99,,,,,,Space,keypress(Space),,,,,---- -- ----- -- ------ - ------- --- ----------<br>------------- ------ ------ ---- ---- ------- ----- -- ----<br>-------- ------- -- ---------- --- - --- ----- ----- ----<br>---- --- --- ----- --- ---- ---- matters ----- ---- -------<br>--- --- -- ----- -- --- ---- -- --- ---- -- ------ ------<br>--- ----- -- ----,42378.30000001192,42377.60000002384,41866.974,41882.40000003576,41883.639,42383.607,,35,matters
screen,html.Screen,0_2_0_1_36,2021-11-12T15:26:00.042Z,,,,,,,,,,,,,,,,53,,,,,,,,,,,,,,457.99300002383825,,response,,,99,,,,,,Space,keypress(Space),,,,,"---- -- ----- -- ------ - ------- --- ----------<br>------------- ------ ------ ---- ---- ------- ----- -- ----<br>-------- ------- -- ---------- --- - --- ----- ----- ----<br>---- --- --- ----- --- ---- ---- ------- most, ---- -------<br>--- --- -- ----- -- --- ---- -- --- ---- -- ------ ------<br>--- ----- -- ----",42842.40000003576,42841.60000002384,42366.942,42378.5,42383.607,42850.292,,36,"most,"
screen,html.Screen,0_2_0_1_37,2021-11-12T15:26:00.586Z,,,,,,,,,,,,,,,,53,,,,,,,,,,,,,,535.3080000238406,,response,,,99,,,,,,Space,keypress(Space),,,,,---- -- ----- -- ------ - ------- --- ----------<br>------------- ------ ------ ---- ---- ------- ----- -- ----<br>-------- ------- -- ---------- --- - --- ----- ----- ----<br>---- --- --- ----- --- ---- ---- ------- ----- it's -------<br>--- --- -- ----- -- --- ---- -- --- ---- -- ------ ------<br>--- ----- -- ----,43386.200000047684,43385.60000002384,42833.626,42842.60000002384,42850.292,43400.14,,37,it's
screen,html.Screen,0_2_0_1_38,2021-11-12T15:26:01.203Z,,,,,,,,,,,,,,,,53,,,,,,,,,,,,,,601.3600000000006,,response,,,99,,,,,,Space,keypress(Space),,,,,---- -- ----- -- ------ - ------- --- ----------<br>------------- ------ ------ ---- ---- ------- ----- -- ----<br>-------- ------- -- ---------- --- - --- ----- ----- ----<br>---- --- --- ----- --- ---- ---- ------- ----- ---- whether<br>--- --- -- ----- -- --- ---- -- --- ---- -- ------ ------<br>--- ----- -- ----,44003.40000003576,44001.5,43383.476,43386.40000003576,43400.14,44016.892,,38,whether
screen,html.Screen,0_2_0_1_39,2021-11-12T15:26:01.666Z,,,,,,,,,,,,,,,,53,,,,,,,,,,,,,,448.70800002384203,,response,,,99,,,,,,Space,keypress(Space),,,,,---- -- ----- -- ------ - ------- --- ----------<br>------------- ------ ------ ---- ---- ------- ----- -- ----<br>-------- ------- -- ---------- --- - --- ----- ----- ----<br>---- --- --- ----- --- ---- ---- ------- ----- ---- -------<br>you --- -- ----- -- --- ---- -- --- ---- -- ------ ------<br>--- ----- -- ----,44466.200000047684,44465.60000002384,44000.226,44003.60000002384,44016.892,44466.827,,39,you
screen,html.Screen,0_2_0_1_40,2021-11-12T15:26:02.090Z,,,,,,,,,,,,,,,,53,,,,,,,,,,,,,,422.6730000000025,,response,,,99,,,,,,Space,keypress(Space),,,,,---- -- ----- -- ------ - ------- --- ----------<br>------------- ------ ------ ---- ---- ------- ----- -- ----<br>-------- ------- -- ---------- --- - --- ----- ----- ----<br>---- --- --- ----- --- ---- ---- ------- ----- ---- -------<br>--- are -- ----- -- --- ---- -- --- ---- -- ------ ------<br>--- ----- -- ----,44890,44889.5,44450.162,44466.30000001192,44466.827,44900.104,,40,are
screen,html.Screen,0_2_0_1_41,2021-11-12T15:26:02.498Z,,,,,,,,,,,,,,,,53,,,,,,,,,,,,,,397.2960000357634,,response,,,99,,,,,,Space,keypress(Space),,,,,---- -- ----- -- ------ - ------- --- ----------<br>------------- ------ ------ ---- ---- ------- ----- -- ----<br>-------- ------- -- ---------- --- - --- ----- ----- ----<br>---- --- --- ----- --- ---- ---- ------- ----- ---- -------<br>--- --- as ----- -- --- ---- -- --- ---- -- ------ ------<br>--- ----- -- ----,45298,45297.40000003576,44883.439,44890.200000047684,44900.104,45300.101,,41,as
screen,html.Screen,0_2_0_1_42,2021-11-12T15:26:03.034Z,,,,,,,,,,,,,,,,53,,,,,,,,,,,,,,533.2990000357604,,response,,,99,,,,,,Space,keypress(Space),,,,,---- -- ----- -- ------ - ------- --- ----------<br>------------- ------ ------ ---- ---- ------- ----- -- ----<br>-------- ------- -- ---------- --- - --- ----- ----- ----<br>---- --- --- ----- --- ---- ---- ------- ----- ---- -------<br>--- --- -- close -- --- ---- -- --- ---- -- ------ ------<br>--- ----- -- ----,45834,45833.40000003576,45283.436,45298.200000047684,45300.101,45850.067,,42,close
screen,html.Screen,0_2_0_1_43,2021-11-12T15:26:03.514Z,,,,,,,,,,,,,,,,53,,,,,,,,,,,,,,463.633000047681,,response,,,99,,,,,,Space,keypress(Space),,,,,---- -- ----- -- ------ - ------- --- ----------<br>------------- ------ ------ ---- ---- ------- ----- -- ----<br>-------- ------- -- ---------- --- - --- ----- ----- ----<br>---- --- --- ----- --- ---- ---- ------- ----- ---- -------<br>--- --- -- ----- as --- ---- -- --- ---- -- ------ ------<br>--- ----- -- ----,46314.200000047684,46313.700000047684,45833.402,45834.200000047684,45850.067,46316.698,,43,as
screen,html.Screen,0_2_0_1_44,2021-11-12T15:26:03.977Z,,,,,,,,,,,,,,,,53,,,,,,,,,,,,,,460.7020000357661,,response,,,99,,,,,,Space,keypress(Space),,,,,---- -- ----- -- ------ - ------- --- ----------<br>------------- ------ ------ ---- ---- ------- ----- -- ----<br>-------- ------- -- ---------- --- - --- ----- ----- ----<br>---- --- --- ----- --- ---- ---- ------- ----- ---- -------<br>--- --- -- ----- -- you ---- -- --- ---- -- ------ ------<br>--- ----- -- ----,46777.90000003576,46777.40000003576,46300.033,46314.40000003576,46316.698,46783.338,,44,you
screen,html.Screen,0_2_0_1_45,2021-11-12T15:26:04.473Z,,,,,,,,,,,,,,,,53,,,,,,,,,,,,,,490.0620000357594,,response,,,99,,,,,,Space,keypress(Space),,,,,---- -- ----- -- ------ - ------- --- ----------<br>------------- ------ ------ ---- ---- ------- ----- -- ----<br>-------- ------- -- ---------- --- - --- ----- ----- ----<br>---- --- --- ----- --- ---- ---- ------- ----- ---- -------<br>--- --- -- ----- -- --- want -- --- ---- -- ------ ------<br>--- ----- -- ----,47273.90000003576,47273.40000003576,46766.673,46778.200000047684,46783.338,47283.365,,45,want
screen,html.Screen,0_2_0_1_46,2021-11-12T15:26:04.921Z,,,,,,,,,,,,,,,,53,,,,,,,,,,,,,,438.0350000357648,,response,,,99,,,,,,Space,keypress(Space),,,,,---- -- ----- -- ------ - ------- --- ----------<br>------------- ------ ------ ---- ---- ------- ----- -- ----<br>-------- ------- -- ---------- --- - --- ----- ----- ----<br>---- --- --- ----- --- ---- ---- ------- ----- ---- -------<br>--- --- -- ----- -- --- ---- to --- ---- -- ------ ------<br>--- ----- -- ----,47721.90000003576,47721.40000003576,47266.699,47274.10000002384,47283.365,47733.168,,46,to
screen,html.Screen,0_2_0_1_47,2021-11-12T15:26:05.409Z,,,,,,,,,,,,,,,,53,,,,,,,,,,,,,,476.1320000119231,,response,,,99,,,,,,Space,keypress(Space),,,,,"---- -- ----- -- ------ - ------- --- ----------<br>------------- ------ ------ ---- ---- ------- ----- -- ----<br>-------- ------- -- ---------- --- - --- ----- ----- ----<br>---- --- --- ----- --- ---- ---- ------- ----- ---- -------<br>--- --- -- ----- -- --- ---- -- be, ---- -- ------ ------<br>--- ----- -- ----",48209.90000003576,48209.30000001192,47716.505,47722.10000002384,47733.168,48216.624,,47,"be,"
screen,html.Screen,0_2_0_1_48,2021-11-12T15:26:05.889Z,,,,,,,,,,,,,,,,53,,,,,,,,,,,,,,472.6760000119175,,response,,,99,,,,,,Space,keypress(Space),,,,,---- -- ----- -- ------ - ------- --- ----------<br>------------- ------ ------ ---- ---- ------- ----- -- ----<br>-------- ------- -- ---------- --- - --- ----- ----- ----<br>---- --- --- ----- --- ---- ---- ------- ----- ---- -------<br>--- --- -- ----- -- --- ---- -- --- even -- ------ ------<br>--- ----- -- ----,48689.90000003576,48689.30000001192,48199.958,48210.10000002384,48216.624,48699.81,,48,even
screen,html.Screen,0_2_0_1_49,2021-11-12T15:26:06.425Z,,,,,,,,,,,,,,,,53,,,,,,,,,,,,,,525.390000047686,,response,,,99,,,,,,Space,keypress(Space),,,,,---- -- ----- -- ------ - ------- --- ----------<br>------------- ------ ------ ---- ---- ------- ----- -- ----<br>-------- ------- -- ---------- --- - --- ----- ----- ----<br>---- --- --- ----- --- ---- ---- ------- ----- ---- -------<br>--- --- -- ----- -- --- ---- -- --- ---- if ------ ------<br>--- ----- -- ----,49225.80000001192,49225.200000047684,48683.146,48690,48699.81,49233.231,,49,if
screen,html.Screen,0_2_0_1_50,2021-11-12T15:26:06.929Z,,,,,,,,,,,,,,,,53,,,,,,,,,,,,,,495.96900004768395,,response,,,99,,,,,,Space,keypress(Space),,,,,---- -- ----- -- ------ - ------- --- ----------<br>------------- ------ ------ ---- ---- ------- ----- -- ----<br>-------- ------- -- ---------- --- - --- ----- ----- ----<br>---- --- --- ----- --- ---- ---- ------- ----- ---- -------<br>--- --- -- ----- -- --- ---- -- --- ---- -- that's ------<br>--- ----- -- ----,49729.80000001192,49729.200000047684,49216.565,49226.10000002384,49233.231,49733.094,,50,that's
screen,html.Screen,0_2_0_1_51,2021-11-12T15:26:07.417Z,,,,,,,,,,,,,,,,53,,,,,,,,,,,,,,484.00600002384454,,response,,,99,,,,,,Space,keypress(Space),,,,,---- -- ----- -- ------ - ------- --- ----------<br>------------- ------ ------ ---- ---- ------- ----- -- ----<br>-------- ------- -- ---------- --- - --- ----- ----- ----<br>---- --- --- ----- --- ---- ---- ------- ----- ---- -------<br>--- --- -- ----- -- --- ---- -- --- ---- -- ------ really<br>--- ----- -- ----,50217.90000003576,50217.10000002384,49716.43,49730,49733.094,50233.135,,51,really
screen,html.Screen,0_2_0_1_52,2021-11-12T15:26:07.905Z,,,,,,,,,,,,,,,,53,,,,,,,,,,,,,,472.0650000476817,,response,,,99,,,,,,Space,keypress(Space),,,,,---- -- ----- -- ------ - ------- --- ----------<br>------------- ------ ------ ---- ---- ------- ----- -- ----<br>-------- ------- -- ---------- --- - --- ----- ----- ----<br>---- --- --- ----- --- ---- ---- ------- ----- ---- -------<br>--- --- -- ----- -- --- ---- -- --- ---- -- ------ ------<br>not ----- -- ----,50705.80000001192,50705.200000047684,50216.47,50218,50233.135,50716.429,,52,not
screen,html.Screen,0_2_0_1_53,2021-11-12T15:26:08.393Z,,,,,,,,,,,,,,,,53,,,,,,,,,,,,,,476.6710000238454,,response,,,99,,,,,,Space,keypress(Space),,,,,---- -- ----- -- ------ - ------- --- ----------<br>------------- ------ ------ ---- ---- ------- ----- -- ----<br>-------- ------- -- ---------- --- - --- ----- ----- ----<br>---- --- --- ----- --- ---- ---- ------- ----- ---- -------<br>--- --- -- ----- -- --- ---- -- --- ---- -- ------ ------<br>--- close -- ----,51193.700000047684,51193.10000002384,50699.764,50705.90000003576,50716.429,51199.733,,53,close
screen,html.Screen,0_2_0_1_54,2021-11-12T15:26:08.793Z,,,,,,,,,,,,,,,,53,,,,,,,,,,,,,,393.3670000238417,,response,,,99,,,,,,Space,keypress(Space),,,,,---- -- ----- -- ------ - ------- --- ----------<br>------------- ------ ------ ---- ---- ------- ----- -- ----<br>-------- ------- -- ---------- --- - --- ----- ----- ----<br>---- --- --- ----- --- ---- ---- ------- ----- ---- -------<br>--- --- -- ----- -- --- ---- -- --- ---- -- ------ ------<br>--- ----- at ----,51593.80000001192,51593.10000002384,51183.068,51193.90000003576,51199.733,51599.779,,54,at
screen,html.Screen,0_2_0_1_55,2021-11-12T15:26:09.257Z,,,,,,,,,,,,,,,,53,,,,,,,,,,,,,,457.22099999999773,,response,,,99,,,,,,Space,keypress(Space),,,,,---- -- ----- -- ------ - ------- --- ----------<br>------------- ------ ------ ---- ---- ------- ----- -- ----<br>-------- ------- -- ---------- --- - --- ----- ----- ----<br>---- --- --- ----- --- ---- ---- ------- ----- ---- -------<br>--- --- -- ----- -- --- ---- -- --- ---- -- ------ ------<br>--- ----- -- all.,52057.700000047684,52057,51583.113,51593.90000003576,51599.779,52066.307,,55,all.
Item 99,flow.Loop,0_2_0_1,2021-11-12T15:26:09.260Z,,,,,,,,,,,,,,,,,,,,,,,,,,,,,,27588.883,,completion,,,,B,,,,,,,,,,silence,,52060.40000003576,52057,24451.451,24456.200000047684,24468.117,52066.307,,,
Question 1,html.Screen,0_2_0_2,2021-11-12T15:26:13.230Z,,,,,,,,,,,,,,,,,,,,,,,,,,,false,FALSE,,3962.9930000119202,,response,,,99,B,,,,,TRUE,click #choice-1,,,,silence,,56030.40000003576,56029.30000001192,52049.643,52060.700000047684,52066.307,56032.884,,,
Question 2,html.Screen,0_2_0_3,2021-11-12T15:26:23.811Z,,,,,,,,,,,,,,,,,,,,,,,,,,,true,TRUE,,10574.216000023844,,response,,,99,B,,,,,TRUE,click #choice-1,,,,silence,,66607.80000001192,66607.10000002384,56016.217,56030.700000047684,56032.884,66615.212,,,
Item 99,flow.Sequence,0_2_0,2021-11-12T15:26:23.811Z,,,,,,,,,,,,,,,,,,,,,,,,,,,,,,52138.76300002384,,completion,,,,,,,,,,,,,,,,66608.10000002384,66607.10000002384,14451.675,14461.300000011921,14468.337,66615.212,,,
Holding screen,html.Screen,0_2_1_0,2021-11-12T15:26:33.802Z,,,,,,,,,,,,,,,,,,,,,,,,,,,,,,9999.621,,timeout,,,,,,,,,,,,,,,,76598.90000003576,76598.168,66598.551,66608.40000003576,66615.212,76614.833,,,
screen,html.Screen,0_2_1_1_0,2021-11-12T15:26:34.563Z,,,,,,,,,,,,,,,,54,,,,,,,,,,,,,,744.9670000119222,,response,,,100,,,,,,Space,keypress(Space),,,,,At --- ---- --- ------ ----- ------- ---- -- --- ------- --<br>------- ---------- ------ -- ----- -- ----- -- ---- ------<br>--- ----- --- --- ------ -------- ----- --- ------ ----- --<br>----- ----- ---------- --- --- ------ ------ ---- -- ------<br>------- --- ------ ----- --- ---- ------- -- ---- --- --<br>------- ------,77360.40000003576,77359.80000001192,76598.168,76599.10000002384,76614.833,77364.81,,0,At
screen,html.Screen,0_2_1_1_1,2021-11-12T15:26:34.995Z,,,,,,,,,,,,,,,,54,,,,,,,,,,,,,,426.5900000357651,,response,,,100,,,,,,Space,keypress(Space),,,,,-- the ---- --- ------ ----- ------- ---- -- --- ------- --<br>------- ---------- ------ -- ----- -- ----- -- ---- ------<br>--- ----- --- --- ------ -------- ----- --- ------ ----- --<br>----- ----- ---------- --- --- ------ ------ ---- -- ------<br>------- --- ------ ----- --- ---- ------- -- ---- --- --<br>------- ------,77792,77791.40000003576,77348.145,77360.70000004768,77364.81,77798.126,,1,the
screen,html.Screen,0_2_1_1_2,2021-11-12T15:26:35.323Z,,,,,,,,,,,,,,,,54,,,,,,,,,,,,,,321.27400003575895,,response,,,100,,,,,,Space,keypress(Space),,,,,-- --- time --- ------ ----- ------- ---- -- --- ------- --<br>------- ---------- ------ -- ----- -- ----- -- ---- ------<br>--- ----- --- --- ------ -------- ----- --- ------ ----- --<br>----- ----- ---------- --- --- ------ ------ ---- -- ------<br>------- --- ------ ----- --- ---- ------- -- ---- --- --<br>------- ------,78120,78119.40000003576,77781.461,77792.20000004768,77798.126,78131.417,,2,time
screen,html.Screen,0_2_1_1_3,2021-11-12T15:26:35.627Z,,,,,,,,,,,,,,,,54,,,,,,,,,,,,,,291.9830000357615,,response,,,100,,,,,,Space,keypress(Space),,,,,-- --- ---- the ------ ----- ------- ---- -- --- ------- --<br>------- ---------- ------ -- ----- -- ----- -- ---- ------<br>--- ----- --- --- ------ -------- ----- --- ------ ----- --<br>----- ----- ---------- --- --- ------ ------ ---- -- ------<br>------- --- ------ ----- --- ---- ------- -- ---- --- --<br>------- ------,78424,78423.40000003576,78114.752,78120.20000004768,78131.417,78431.407,,3,the
screen,html.Screen,0_2_1_1_4,2021-11-12T15:26:35.931Z,,,,,,,,,,,,,,,,54,,,,,,,,,,,,,,295.99300003575627,,response,,,100,,,,,,Space,keypress(Space),,,,,-- --- ---- --- French ----- ------- ---- -- --- ------- --<br>------- ---------- ------ -- ----- -- ----- -- ---- ------<br>--- ----- --- --- ------ -------- ----- --- ------ ----- --<br>----- ----- ---------- --- --- ------ ------ ---- -- ------<br>------- --- ------ ----- --- ---- ------- -- ---- --- --<br>------- ------,78728,78727.40000003576,78414.742,78424.10000002384,78431.407,78731.439,,4,French
screen,html.Screen,0_2_1_1_5,2021-11-12T15:26:36.355Z,,,,,,,,,,,,,,,,54,,,,,,,,,,,,,,419.9610000357643,,response,,,100,,,,,,Space,keypress(Space),,,,,-- --- ---- --- ------ crown ------- ---- -- --- ------- --<br>------- ---------- ------ -- ----- -- ----- -- ---- ------<br>--- ----- --- --- ------ -------- ----- --- ------ ----- --<br>----- ----- ---------- --- --- ------ ------ ---- -- ------<br>------- --- ------ ----- --- ---- ------- -- ---- --- --<br>------- ------,79151.90000003576,79151.40000003576,78714.773,78728.20000004768,78731.439,79164.711,,5,crown
screen,html.Screen,0_2_1_1_6,2021-11-12T15:26:36.747Z,,,,,,,,,,,,,,,,54,,,,,,,,,,,,,,378.6890000357671,,response,,,100,,,,,,Space,keypress(Space),,,,,-- --- ---- --- ------ ----- secured ---- -- --- ------- --<br>------- ---------- ------ -- ----- -- ----- -- ---- ------<br>--- ----- --- --- ------ -------- ----- --- ------ ----- --<br>----- ----- ---------- --- --- ------ ------ ---- -- ------<br>------- --- ------ ----- --- ---- ------- -- ---- --- --<br>------- ------,79543.90000003576,79543.40000003576,79148.046,79152.20000004768,79164.711,79548.024,,6,secured
screen,html.Screen,0_2_1_1_7,2021-11-12T15:26:37.131Z,,,,,,,,,,,,,,,,54,,,,,,,,,,,,,,379.27600001191604,,response,,,100,,,,,,Space,keypress(Space),,,,,-- --- ---- --- ------ ----- ------- much -- --- ------- --<br>------- ---------- ------ -- ----- -- ----- -- ---- ------<br>--- ----- --- --- ------ -------- ----- --- ------ ----- --<br>----- ----- ---------- --- --- ------ ------ ---- -- ------<br>------- --- ------ ----- --- ---- ------- -- ---- --- --<br>------- ------,79928.80000001192,79927.30000001192,79531.359,79544.10000002384,79548.024,79931.317,,7,much
screen,html.Screen,0_2_1_1_8,2021-11-12T15:26:37.499Z,,,,,,,,,,,,,,,,54,,,,,,,,,,,,,,363.88300004768826,,response,,,100,,,,,,Space,keypress(Space),,,,,-- --- ---- --- ------ ----- ------- ---- of --- ------- --<br>------- ---------- ------ -- ----- -- ----- -- ---- ------<br>--- ----- --- --- ------ -------- ----- --- ------ ----- --<br>----- ----- ---------- --- --- ------ ------ ---- -- ------<br>------- --- ------ ----- --- ---- ------- -- ---- --- --<br>------- ------,80296,80295.20000004768,79914.652,79928.90000003576,79931.317,80297.905,,8,of
screen,html.Screen,0_2_1_1_9,2021-11-12T15:26:37.883Z,,,,,,,,,,,,,,,,54,,,,,,,,,,,,,,381.3950000119221,,response,,,100,,,,,,Space,keypress(Space),,,,,-- --- ---- --- ------ ----- ------- ---- -- its ------- --<br>------- ---------- ------ -- ----- -- ----- -- ---- ------<br>--- ----- --- --- ------ -------- ----- --- ------ ----- --<br>----- ----- ---------- --- --- ------ ------ ---- -- ------<br>------- --- ------ ----- --- ---- ------- -- ---- --- --<br>------- ------,80679.90000003576,80679.30000001192,80281.241,80296.20000004768,80297.905,80681.302,,9,its
screen,html.Screen,0_2_1_1_10,2021-11-12T15:26:38.267Z,,,,,,,,,,,,,,,,54,,,,,,,,,,,,,,381.9980000119249,,response,,,100,,,,,,Space,keypress(Space),,,,,-- --- ---- --- ------ ----- ------- ---- -- --- revenue --<br>------- ---------- ------ -- ----- -- ----- -- ---- ------<br>--- ----- --- --- ------ -------- ----- --- ------ ----- --<br>----- ----- ---------- --- --- ------ ------ ---- -- ------<br>------- --- ------ ----- --- ---- ------- -- ---- --- --<br>------- ------,81063.90000003576,81063.30000001192,80664.636,80680,80681.302,81081.124,,10,revenue
screen,html.Screen,0_2_1_1_11,2021-11-12T15:26:38.643Z,,,,,,,,,,,,,,,,54,,,,,,,,,,,,,,358.07600004768756,,response,,,100,,,,,,Space,keypress(Space),,,,,-- --- ---- --- ------ ----- ------- ---- -- --- ------- by<br>------- ---------- ------ -- ----- -- ----- -- ---- ------<br>--- ----- --- --- ------ -------- ----- --- ------ ----- --<br>----- ----- ---------- --- --- ------ ------ ---- -- ------<br>------- --- ------ ----- --- ---- ------- -- ---- --- --<br>------- ------,81439.80000001192,81439.20000004768,81064.461,81064.10000002384,81081.124,81447.911,,11,by
screen,html.Screen,0_2_1_1_12,2021-11-12T15:26:39.067Z,,,,,,,,,,,,,,,,54,,,,,,,,,,,,,,415.28900004769093,,response,,,100,,,,,,Space,keypress(Space),,,,,-- --- ---- --- ------ ----- ------- ---- -- --- ------- --<br>issuing ---------- ------ -- ----- -- ----- -- ---- ------<br>--- ----- --- --- ------ -------- ----- --- ------ ----- --<br>----- ----- ---------- --- --- ------ ------ ---- -- ------<br>------- --- ------ ----- --- ---- ------- -- ---- --- --<br>------- ------,81863.90000003576,81863.20000004768,81431.245,81439.90000003576,81447.911,81864.57,,12,issuing
screen,html.Screen,0_2_1_1_13,2021-11-12T15:26:39.411Z,,,,,,,,,,,,,,,,54,,,,,,,,,,,,,,342.63000004767673,,response,,,100,,,,,,Space,keypress(Space),,,,,-- --- ---- --- ------ ----- ------- ---- -- --- ------- --<br>------- government ------ -- ----- -- ----- -- ---- ------<br>--- ----- --- --- ------ -------- ----- --- ------ ----- --<br>----- ----- ---------- --- --- ------ ------ ---- -- ------<br>------- --- ------ ----- --- ---- ------- -- ---- --- --<br>------- ------,82207.80000001192,82207.20000004768,81847.904,81864,81864.57,82214.504,,13,government
screen,html.Screen,0_2_1_1_14,2021-11-12T15:26:39.819Z,,,,,,,,,,,,,,,,54,,,,,,,,,,,,,,400.6960000476829,,response,,,100,,,,,,Space,keypress(Space),,,,,-- --- ---- --- ------ ----- ------- ---- -- --- ------- --<br>------- ---------- bonds. -- ----- -- ----- -- ---- ------<br>--- ----- --- --- ------ -------- ----- --- ------ ----- --<br>----- ----- ---------- --- --- ------ ------ ---- -- ------<br>------- --- ------ ----- --- ---- ------- -- ---- --- --<br>------- ------,82615.70000004768,82615.20000004768,82197.839,82207.90000003576,82214.504,82631.197,,14,bonds.
screen,html.Screen,0_2_1_1_15,2021-11-12T15:26:40.387Z,,,,,,,,,,,,,,,,54,,,,,,,,,,,,,,551.9030000238417,,response,,,100,,,,,,Space,keypress(Space),,,,,-- --- ---- --- ------ ----- ------- ---- -- --- ------- --<br>------- ---------- ------ In ----- -- ----- -- ---- ------<br>--- ----- --- --- ------ -------- ----- --- ------ ----- --<br>----- ----- ---------- --- --- ------ ------ ---- -- ------<br>------- --- ------ ----- --- ---- ------- -- ---- --- --<br>------- ------,83183.70000004768,83183.10000002384,82614.531,82615.90000003576,82631.197,83197.781,,15,In
screen,html.Screen,0_2_1_1_16,2021-11-12T15:26:40.602Z,,,,,,,,,,,,,,,,54,,,,,,,,,,,,,,201.31900002383918,,response,,,100,,,,,,Space,keypress(Space),,,,,"-- --- ---- --- ------ ----- ------- ---- -- --- ------- --<br>------- ---------- ------ -- 1727, -- ----- -- ---- ------<br>--- ----- --- --- ------ -------- ----- --- ------ ----- --<br>----- ----- ---------- --- --- ------ ------ ---- -- ------<br>------- --- ------ ----- --- ---- ------- -- ---- --- --<br>------- ------",83399.70000004768,83399.10000002384,83181.116,83183.90000003576,83197.781,83414.425,,16,"1727,"
screen,html.Screen,0_2_1_1_17,2021-11-12T15:26:42.074Z,,,,,,,,,,,,,,,,54,,,,,,,,,,,,,,1456.675000023839,,response,,,100,,,,,,Space,keypress(Space),,,,,-- --- ---- --- ------ ----- ------- ---- -- --- ------- --<br>------- ---------- ------ -- ----- in ----- -- ---- ------<br>--- ----- --- --- ------ -------- ----- --- ------ ----- --<br>----- ----- ---------- --- --- ------ ------ ---- -- ------<br>------- --- ------ ----- --- ---- ------- -- ---- --- --<br>------- ------,84871.70000004768,84871.10000002384,83397.76,83399.90000003576,83414.425,84880.97,,17,in
screen,html.Screen,0_2_1_1_18,2021-11-12T15:26:42.538Z,,,,,,,,,,,,,,,,54,,,,,,,,,,,,,,454.02999999999884,,response,,,100,,,,,,Space,keypress(Space),,,,,-- --- ---- --- ------ ----- ------- ---- -- --- ------- --<br>------- ---------- ------ -- ----- -- order -- ---- ------<br>--- ----- --- --- ------ -------- ----- --- ------ ----- --<br>----- ----- ---------- --- --- ------ ------ ---- -- ------<br>------- --- ------ ----- --- ---- ------- -- ---- --- --<br>------- ------,85335.60000002384,85335,84864.305,84871.90000003576,84880.97,85347.721,,18,order
screen,html.Screen,0_2_1_1_19,2021-11-12T15:26:43.218Z,,,,,,,,,,,,,,,,54,,,,,,,,,,,,,,667.278999999995,,response,,,100,,,,,,Space,keypress(Space),,,,,-- --- ---- --- ------ ----- ------- ---- -- --- ------- --<br>------- ---------- ------ -- ----- -- ----- to ---- ------<br>--- ----- --- --- ------ -------- ----- --- ------ ----- --<br>----- ----- ---------- --- --- ------ ------ ---- -- ------<br>------- --- ------ ----- --- ---- ------- -- ---- --- --<br>------- ------,86015.60000002384,86015,85331.055,85335.70000004768,85347.721,86030.906,,19,to
screen,html.Screen,0_2_1_1_20,2021-11-12T15:26:43.578Z,,,,,,,,,,,,,,,,54,,,,,,,,,,,,,,344.0939999999973,,response,,,100,,,,,,Space,keypress(Space),,,,,-- --- ---- --- ------ ----- ------- ---- -- --- ------- --<br>------- ---------- ------ -- ----- -- ----- -- save ------<br>--- ----- --- --- ------ -------- ----- --- ------ ----- --<br>----- ----- ---------- --- --- ------ ------ ---- -- ------<br>------- --- ------ ----- --- ---- ------- -- ---- --- --<br>------- ------,86375.70000004768,86375,86014.241,86015.80000001192,86030.906,86380.922,,20,save
screen,html.Screen,0_2_1_1_21,2021-11-12T15:26:43.866Z,,,,,,,,,,,,,,,,54,,,,,,,,,,,,,,281.97800003575685,,response,,,100,,,,,,Space,keypress(Space),,,,,"-- --- ---- --- ------ ----- ------- ---- -- --- ------- --<br>------- ---------- ------ -- ----- -- ----- -- ---- money,<br>--- ----- --- --- ------ -------- ----- --- ------ ----- --<br>----- ----- ---------- --- --- ------ ------ ---- -- ------<br>------- --- ------ ----- --- ---- ------- -- ---- --- --<br>------- ------",86663.5,86662.90000003576,86364.257,86375.80000001192,86380.922,86664.28,,21,"money,"
screen,html.Screen,0_2_1_1_22,2021-11-12T15:26:44.338Z,,,,,,,,,,,,,,,,54,,,,,,,,,,,,,,470.62000003576395,,response,,,100,,,,,,Space,keypress(Space),,,,,-- --- ---- --- ------ ----- ------- ---- -- --- ------- --<br>------- ---------- ------ -- ----- -- ----- -- ---- ------<br>the ----- --- --- ------ -------- ----- --- ------ ----- --<br>----- ----- ---------- --- --- ------ ------ ---- -- ------<br>------- --- ------ ----- --- ---- ------- -- ---- --- --<br>------- ------,87135.40000003576,87134.90000003576,86647.614,86663.70000004768,86664.28,87147.497,,22,the
screen,html.Screen,0_2_1_1_23,2021-11-12T15:26:44.602Z,,,,,,,,,,,,,,,,54,,,,,,,,,,,,,,251.60300002383883,,response,,,100,,,,,,Space,keypress(Space),,,,,-- --- ---- --- ------ ----- ------- ---- -- --- ------- --<br>------- ---------- ------ -- ----- -- ----- -- ---- ------<br>--- state --- --- ------ -------- ----- --- ------ ----- --<br>----- ----- ---------- --- --- ------ ------ ---- -- ------<br>------- --- ------ ----- --- ---- ------- -- ---- --- --<br>------- ------,87399.70000004768,87399.10000002384,87130.833,87135.60000002384,87147.497,87414.188,,23,state
screen,html.Screen,0_2_1_1_24,2021-11-12T15:26:44.930Z,,,,,,,,,,,,,,,,54,,,,,,,,,,,,,,312.71200003576814,,response,,,100,,,,,,Space,keypress(Space),,,,,-- --- ---- --- ------ ----- ------- ---- -- --- ------- --<br>------- ---------- ------ -- ----- -- ----- -- ---- ------<br>--- ----- cut --- ------ -------- ----- --- ------ ----- --<br>----- ----- ---------- --- --- ------ ------ ---- -- ------<br>------- --- ------ ----- --- ---- ------- -- ---- --- --<br>------- ------,87727.5,87726.90000003576,87397.523,87399.80000001192,87414.188,87730.834,,24,cut
screen,html.Screen,0_2_1_1_25,2021-11-12T15:26:45.354Z,,,,,,,,,,,,,,,,54,,,,,,,,,,,,,,419.96600001191837,,response,,,100,,,,,,Space,keypress(Space),,,,,-- --- ---- --- ------ ----- ------- ---- -- --- ------- --<br>------- ---------- ------ -- ----- -- ----- -- ---- ------<br>--- ----- --- the ------ -------- ----- --- ------ ----- --<br>----- ----- ---------- --- --- ------ ------ ---- -- ------<br>------- --- ------ ----- --- ---- ------- -- ---- --- --<br>------- ------,88151.40000003576,88150.80000001192,87714.169,87727.5,87730.834,88164.124,,25,the
screen,html.Screen,0_2_1_1_26,2021-11-12T15:26:45.730Z,,,,,,,,,,,,,,,,54,,,,,,,,,,,,,,362.67600001192477,,response,,,100,,,,,,Space,keypress(Space),,,,,-- --- ---- --- ------ ----- ------- ---- -- --- ------- --<br>------- ---------- ------ -- ----- -- ----- -- ---- ------<br>--- ----- --- --- bonds' -------- ----- --- ------ ----- --<br>----- ----- ---------- --- --- ------ ------ ---- -- ------<br>------- --- ------ ----- --- ---- ------- -- ---- --- --<br>------- ------,88527.30000001192,88526.80000001192,88147.459,88151.60000002384,88164.124,88530.813,,26,bonds'
screen,html.Screen,0_2_1_1_27,2021-11-12T15:26:46.178Z,,,,,,,,,,,,,,,,54,,,,,,,,,,,,,,443.9870000119263,,response,,,100,,,,,,Space,keypress(Space),,,,,-- --- ---- --- ------ ----- ------- ---- -- --- ------- --<br>------- ---------- ------ -- ----- -- ----- -- ---- ------<br>--- ----- --- --- ------ interest ----- --- ------ ----- --<br>----- ----- ---------- --- --- ------ ------ ---- -- ------<br>------- --- ------ ----- --- ---- ------- -- ---- --- --<br>------- ------,88975.5,88974.80000001192,88514.147,88527.5,88530.813,88980.686,,27,interest
screen,html.Screen,0_2_1_1_28,2021-11-12T15:26:46.554Z,,,,,,,,,,,,,,,,54,,,,,,,,,,,,,,370.0140000476822,,response,,,100,,,,,,Space,keypress(Space),,,,,-- --- ---- --- ------ ----- ------- ---- -- --- ------- --<br>------- ---------- ------ -- ----- -- ----- -- ---- ------<br>--- ----- --- --- ------ -------- rate. --- ------ ----- --<br>----- ----- ---------- --- --- ------ ------ ---- -- ------<br>------- --- ------ ----- --- ---- ------- -- ---- --- --<br>------- ------,89351.30000001192,89350.70000004768,88964.022,88975.70000004768,88980.686,89364.113,,28,rate.
screen,html.Screen,0_2_1_1_29,2021-11-12T15:26:47.066Z,,,,,,,,,,,,,,,,54,,,,,,,,,,,,,,498.58700004768616,,response,,,100,,,,,,Space,keypress(Space),,,,,-- --- ---- --- ------ ----- ------- ---- -- --- ------- --<br>------- ---------- ------ -- ----- -- ----- -- ---- ------<br>--- ----- --- --- ------ -------- ----- The ------ ----- --<br>----- ----- ---------- --- --- ------ ------ ---- -- ------<br>------- --- ------ ----- --- ---- ------- -- ---- --- --<br>------- ------,89863.30000001192,89862.70000004768,89347.447,89351.5,89364.113,89863.984,,29,The
screen,html.Screen,0_2_1_1_30,2021-11-12T15:26:47.506Z,,,,,,,,,,,,,,,,54,,,,,,,,,,,,,,438.716000047687,,response,,,100,,,,,,Space,keypress(Space),,,,,-- --- ---- --- ------ ----- ------- ---- -- --- ------- --<br>------- ---------- ------ -- ----- -- ----- -- ---- ------<br>--- ----- --- --- ------ -------- ----- --- market ----- --<br>----- ----- ---------- --- --- ------ ------ ---- -- ------<br>------- --- ------ ----- --- ---- ------- -- ---- --- --<br>------- ------,90303.30000001192,90302.70000004768,89847.32,89863.5,89863.984,90313.905,,30,market
screen,html.Screen,0_2_1_1_31,2021-11-12T15:26:48.002Z,,,,,,,,,,,,,,,,54,,,,,,,,,,,,,,484.7950000476849,,response,,,100,,,,,,Space,keypress(Space),,,,,-- --- ---- --- ------ ----- ------- ---- -- --- ------- --<br>------- ---------- ------ -- ----- -- ----- -- ---- ------<br>--- ----- --- --- ------ -------- ----- --- ------ value --<br>----- ----- ---------- --- --- ------ ------ ---- -- ------<br>------- --- ------ ----- --- ---- ------- -- ---- --- --<br>------- ------,90799.30000001192,90798.70000004768,90297.241,90303.5,90313.905,90814.029,,31,value
screen,html.Screen,0_2_1_1_32,2021-11-12T15:26:48.386Z,,,,,,,,,,,,,,,,54,,,,,,,,,,,,,,368.6710000476887,,response,,,100,,,,,,Space,keypress(Space),,,,,-- --- ---- --- ------ ----- ------- ---- -- --- ------- --<br>------- ---------- ------ -- ----- -- ----- -- ---- ------<br>--- ----- --- --- ------ -------- ----- --- ------ ----- of<br>----- ----- ---------- --- --- ------ ------ ---- -- ------<br>------- --- ------ ----- --- ---- ------- -- ---- --- --<br>------- ------,91183.40000003576,91182.70000004768,90797.363,90799.60000002384,90814.029,91197.206,,32,of
screen,html.Screen,0_2_1_1_33,2021-11-12T15:26:48.802Z,,,,,,,,,,,,,,,,54,,,,,,,,,,,,,,401.4940000476781,,response,,,100,,,,,,Space,keypress(Space),,,,,-- --- ---- --- ------ ----- ------- ---- -- --- ------- --<br>------- ---------- ------ -- ----- -- ----- -- ---- ------<br>--- ----- --- --- ------ -------- ----- --- ------ ----- --<br>these ----- ---------- --- --- ------ ------ ---- -- ------<br>------- --- ------ ----- --- ---- ------- -- ---- --- --<br>------- ------,91599.20000004768,91598.70000004768,91180.542,91183.5,91197.206,91613.964,,33,these
screen,html.Screen,0_2_1_1_34,2021-11-12T15:26:49.122Z,,,,,,,,,,,,,,,,54,,,,,,,,,,,,,,304.63600002383464,,response,,,100,,,,,,Space,keypress(Space),,,,,-- --- ---- --- ------ ----- ------- ---- -- --- ------- --<br>------- ---------- ------ -- ----- -- ----- -- ---- ------<br>--- ----- --- --- ------ -------- ----- --- ------ ----- --<br>----- bonds ---------- --- --- ------ ------ ---- -- ------<br>------- --- ------ ----- --- ---- ------- -- ---- --- --<br>------- ------,91919.20000004768,91918.60000002384,91597.298,91599.40000003576,91613.964,91930.58,,34,bonds
screen,html.Screen,0_2_1_1_35,2021-11-12T15:26:49.410Z,,,,,,,,,,,,,,,,54,,,,,,,,,,,,,,276.0200000238401,,response,,,100,,,,,,Space,keypress(Space),,,,,"-- --- ---- --- ------ ----- ------- ---- -- --- ------- --<br>------- ---------- ------ -- ----- -- ----- -- ---- ------<br>--- ----- --- --- ------ -------- ----- --- ------ ----- --<br>----- ----- plummeted, --- --- ------ ------ ---- -- ------<br>------- --- ------ ----- --- ---- ------- -- ---- --- --<br>------- ------",92207.20000004768,92206.60000002384,91913.915,91919.5,91930.58,92213.939,,35,"plummeted,"
screen,html.Screen,0_2_1_1_36,2021-11-12T15:26:49.874Z,,,,,,,,,,,,,,,,54,,,,,,,,,,,,,,456.66100002384337,,response,,,100,,,,,,Space,keypress(Space),,,,,-- --- ---- --- ------ ----- ------- ---- -- --- ------- --<br>------- ---------- ------ -- ----- -- ----- -- ---- ------<br>--- ----- --- --- ------ -------- ----- --- ------ ----- --<br>----- ----- ---------- and --- ------ ------ ---- -- ------<br>------- --- ------ ----- --- ---- ------- -- ---- --- --<br>------- ------,92671.30000001192,92670.60000002384,92197.273,92207.40000003576,92213.939,92680.544,,36,and
screen,html.Screen,0_2_1_1_37,2021-11-12T15:26:50.218Z,,,,,,,,,,,,,,,,54,,,,,,,,,,,,,,334.05600002384745,,response,,,100,,,,,,Space,keypress(Space),,,,,-- --- ---- --- ------ ----- ------- ---- -- --- ------- --<br>------- ---------- ------ -- ----- -- ----- -- ---- ------<br>--- ----- --- --- ------ -------- ----- --- ------ ----- --<br>----- ----- ---------- --- the ------ ------ ---- -- ------<br>------- --- ------ ----- --- ---- ------- -- ---- --- --<br>------- ------,93015.10000002384,93014.60000002384,92663.879,92671.5,92680.544,93030.557,,37,the
screen,html.Screen,0_2_1_1_38,2021-11-12T15:26:50.450Z,,,,,,,,,,,,,,,,54,,,,,,,,,,,,,,215.9429999999993,,response,,,100,,,,,,Space,keypress(Space),,,,,-- --- ---- --- ------ ----- ------- ---- -- --- ------- --<br>------- ---------- ------ -- ----- -- ----- -- ---- ------<br>--- ----- --- --- ------ -------- ----- --- ------ ----- --<br>----- ----- ---------- --- --- market ------ ---- -- ------<br>------- --- ------ ----- --- ---- ------- -- ---- --- --<br>------- ------,93247.20000004768,93246.5,93013.891,93015.40000003576,93030.557,93263.841,,38,market
screen,html.Screen,0_2_1_1_39,2021-11-12T15:26:50.954Z,,,,,,,,,,,,,,,,54,,,,,,,,,,,,,,486.7590000238415,,response,,,100,,,,,,Space,keypress(Space),,,,,-- --- ---- --- ------ ----- ------- ---- -- --- ------- --<br>------- ---------- ------ -- ----- -- ----- -- ---- ------<br>--- ----- --- --- ------ -------- ----- --- ------ ----- --<br>----- ----- ---------- --- --- ------ became ---- -- ------<br>------- --- ------ ----- --- ---- ------- -- ---- --- --<br>------- ------,93751.10000002384,93750.60000002384,93247.176,93247.30000001192,93263.841,93763.81,,39,became
screen,html.Screen,0_2_1_1_40,2021-11-12T15:26:51.354Z,,,,,,,,,,,,,,,,54,,,,,,,,,,,,,,386.6900000000023,,response,,,100,,,,,,Space,keypress(Space),,,,,-- --- ---- --- ------ ----- ------- ---- -- --- ------- --<br>------- ---------- ------ -- ----- -- ----- -- ---- ------<br>--- ----- --- --- ------ -------- ----- --- ------ ----- --<br>----- ----- ---------- --- --- ------ ------ wary -- ------<br>------- --- ------ ----- --- ---- ------- -- ---- --- --<br>------- ------,94151,94150.5,93747.145,93751.20000004768,93763.81,94163.596,,40,wary
screen,html.Screen,0_2_1_1_41,2021-11-12T15:26:51.730Z,,,,,,,,,,,,,,,,54,,,,,,,,,,,,,,362.8040000357578,,response,,,100,,,,,,Space,keypress(Space),,,,,-- --- ---- --- ------ ----- ------- ---- -- --- ------- --<br>------- ---------- ------ -- ----- -- ----- -- ---- ------<br>--- ----- --- --- ------ -------- ----- --- ------ ----- --<br>----- ----- ---------- --- --- ------ ------ ---- of ------<br>------- --- ------ ----- --- ---- ------- -- ---- --- --<br>------- ------,94527,94526.40000003576,94146.934,94151.20000004768,94163.596,94530.413,,41,of
screen,html.Screen,0_2_1_1_42,2021-11-12T15:26:52.138Z,,,,,,,,,,,,,,,,54,,,,,,,,,,,,,,404.08699999999953,,response,,,100,,,,,,Space,keypress(Space),,,,,-- --- ---- --- ------ ----- ------- ---- -- --- ------- --<br>------- ---------- ------ -- ----- -- ----- -- ---- ------<br>--- ----- --- --- ------ -------- ----- --- ------ ----- --<br>----- ----- ---------- --- --- ------ ------ ---- -- French<br>------- --- ------ ----- --- ---- ------- -- ---- --- --<br>------- ------,94935.10000002384,94934.5,94513.748,94527.20000004768,94530.413,94947.094,,42,French
screen,html.Screen,0_2_1_1_43,2021-11-12T15:26:52.546Z,,,,,,,,,,,,,,,,54,,,,,,,,,,,,,,395.30600003576546,,response,,,100,,,,,,Space,keypress(Space),,,,,-- --- ---- --- ------ ----- ------- ---- -- --- ------- --<br>------- ---------- ------ -- ----- -- ----- -- ---- ------<br>--- ----- --- --- ------ -------- ----- --- ------ ----- --<br>----- ----- ---------- --- --- ------ ------ ---- -- ------<br>credit. --- ------ ----- --- ---- ------- -- ---- --- --<br>------- ------,95343,95342.40000003576,94930.428,94935.20000004768,94947.094,95347.089,,43,credit.
screen,html.Screen,0_2_1_1_44,2021-11-12T15:26:52.954Z,,,,,,,,,,,,,,,,54,,,,,,,,,,,,,,403.31100003575557,,response,,,100,,,,,,Space,keypress(Space),,,,,-- --- ---- --- ------ ----- ------- ---- -- --- ------- --<br>------- ---------- ------ -- ----- -- ----- -- ---- ------<br>--- ----- --- --- ------ -------- ----- --- ------ ----- --<br>----- ----- ---------- --- --- ------ ------ ---- -- ------<br>------- The ------ ----- --- ---- ------- -- ---- --- --<br>------- ------,95750.90000003576,95750.40000003576,95330.423,95343.10000002384,95347.089,95763.567,,44,The
screen,html.Screen,0_2_1_1_45,2021-11-12T15:26:53.386Z,,,,,,,,,,,,,,,,54,,,,,,,,,,,,,,418.8330000357673,,response,,,100,,,,,,Space,keypress(Space),,,,,-- --- ---- --- ------ ----- ------- ---- -- --- ------- --<br>------- ---------- ------ -- ----- -- ----- -- ---- ------<br>--- ----- --- --- ------ -------- ----- --- ------ ----- --<br>----- ----- ---------- --- --- ------ ------ ---- -- ------<br>------- --- French ----- --- ---- ------- -- ---- --- --<br>------- ------,96183,96182.40000003576,95746.904,95751.80000001192,95763.567,96197.016,,45,French
screen,html.Screen,0_2_1_1_46,2021-11-12T15:26:53.818Z,,,,,,,,,,,,,,,,54,,,,,,,,,,,,,,417.3840000357595,,response,,,100,,,,,,Space,keypress(Space),,,,,-- --- ---- --- ------ ----- ------- ---- -- --- ------- --<br>------- ---------- ------ -- ----- -- ----- -- ---- ------<br>--- ----- --- --- ------ -------- ----- --- ------ ----- --<br>----- ----- ---------- --- --- ------ ------ ---- -- ------<br>------- --- ------ state --- ---- ------- -- ---- --- --<br>------- ------,96615.10000002384,96614.40000003576,96180.35,96183.10000002384,96197.016,96630.274,,46,state
screen,html.Screen,0_2_1_1_47,2021-11-12T15:26:54.210Z,,,,,,,,,,,,,,,,54,,,,,,,,,,,,,,376.02600001191604,,response,,,100,,,,,,Space,keypress(Space),,,,,-- --- ---- --- ------ ----- ------- ---- -- --- ------- --<br>------- ---------- ------ -- ----- -- ----- -- ---- ------<br>--- ----- --- --- ------ -------- ----- --- ------ ----- --<br>----- ----- ---------- --- --- ------ ------ ---- -- ------<br>------- --- ------ ----- was ---- ------- -- ---- --- --<br>------- ------,97006.90000003576,97006.30000001192,96613.609,96615.20000004768,96630.274,97013.602,,47,was
screen,html.Screen,0_2_1_1_48,2021-11-12T15:26:54.586Z,,,,,,,,,,,,,,,,54,,,,,,,,,,,,,,368.698000011922,,response,,,100,,,,,,Space,keypress(Space),,,,,-- --- ---- --- ------ ----- ------- ---- -- --- ------- --<br>------- ---------- ------ -- ----- -- ----- -- ---- ------<br>--- ----- --- --- ------ -------- ----- --- ------ ----- --<br>----- ----- ---------- --- --- ------ ------ ---- -- ------<br>------- --- ------ ----- --- left ------- -- ---- --- --<br>------- ------,97382.90000003576,97382.30000001192,96996.937,97007,97013.602,97396.903,,48,left
screen,html.Screen,0_2_1_1_49,2021-11-12T15:26:54.946Z,,,,,,,,,,,,,,,,54,,,,,,,,,,,,,,345.5969999999943,,response,,,100,,,,,,Space,keypress(Space),,,,,-- --- ---- --- ------ ----- ------- ---- -- --- ------- --<br>------- ---------- ------ -- ----- -- ----- -- ---- ------<br>--- ----- --- --- ------ -------- ----- --- ------ ----- --<br>----- ----- ---------- --- --- ------ ------ ---- -- ------<br>------- --- ------ ----- --- ---- without -- ---- --- --<br>------- ------,97743,97742.5,97380.238,97383,97396.903,97746.944,,49,without
screen,html.Screen,0_2_1_1_50,2021-11-12T15:26:55.306Z,,,,,,,,,,,,,,,,54,,,,,,,,,,,,,,355.2560000476806,,response,,,100,,,,,,Space,keypress(Space),,,,,-- --- ---- --- ------ ----- ------- ---- -- --- ------- --<br>------- ---------- ------ -- ----- -- ----- -- ---- ------<br>--- ----- --- --- ------ -------- ----- --- ------ ----- --<br>----- ----- ---------- --- --- ------ ------ ---- -- ------<br>------- --- ------ ----- --- ---- ------- an ---- --- --<br>------- ------,98102.70000004768,98102.20000004768,97730.278,97743.20000004768,97746.944,98113.486,,50,an
screen,html.Screen,0_2_1_1_51,2021-11-12T15:26:55.618Z,,,,,,,,,,,,,,,,54,,,,,,,,,,,,,,300.7140000476793,,response,,,100,,,,,,Space,keypress(Space),,,,,-- --- ---- --- ------ ----- ------- ---- -- --- ------- --<br>------- ---------- ------ -- ----- -- ----- -- ---- ------<br>--- ----- --- --- ------ -------- ----- --- ------ ----- --<br>----- ----- ---------- --- --- ------ ------ ---- -- ------<br>------- --- ------ ----- --- ---- ------- -- easy --- --<br>------- ------,98414.70000004768,98414.20000004768,98096.822,98102.90000003576,98113.486,98430.175,,51,easy
screen,html.Screen,0_2_1_1_52,2021-11-12T15:26:56.018Z,,,,,,,,,,,,,,,,54,,,,,,,,,,,,,,384.0250000476808,,response,,,100,,,,,,Space,keypress(Space),,,,,-- --- ---- --- ------ ----- ------- ---- -- --- ------- --<br>------- ---------- ------ -- ----- -- ----- -- ---- ------<br>--- ----- --- --- ------ -------- ----- --- ------ ----- --<br>----- ----- ---------- --- --- ------ ------ ---- -- ------<br>------- --- ------ ----- --- ---- ------- -- ---- way --<br>------- ------,98814.80000001192,98814.20000004768,98413.51,98415,98430.175,98830.208,,52,way
screen,html.Screen,0_2_1_1_53,2021-11-12T15:26:56.321Z,,,,,,,,,,,,,,,,54,,,,,,,,,,,,,,287.992000047685,,response,,,100,,,,,,Space,keypress(Space),,,,,-- --- ---- --- ------ ----- ------- ---- -- --- ------- --<br>------- ---------- ------ -- ----- -- ----- -- ---- ------<br>--- ----- --- --- ------ -------- ----- --- ------ ----- --<br>----- ----- ---------- --- --- ------ ------ ---- -- ------<br>------- --- ------ ----- --- ---- ------- -- ---- --- of<br>------- ------,99118.70000004768,99118.20000004768,98813.542,98814.90000003576,98830.208,99130.104,,53,of
screen,html.Screen,0_2_1_1_54,2021-11-12T15:26:56.705Z,,,,,,,,,,,,,,,,54,,,,,,,,,,,,,,371.9960000238352,,response,,,100,,,,,,Space,keypress(Space),,,,,-- --- ---- --- ------ ----- ------- ---- -- --- ------- --<br>------- ---------- ------ -- ----- -- ----- -- ---- ------<br>--- ----- --- --- ------ -------- ----- --- ------ ----- --<br>----- ----- ---------- --- --- ------ ------ ---- -- ------<br>------- --- ------ ----- --- ---- ------- -- ---- --- --<br>raising ------,99502.70000004768,99502.10000002384,99113.44,99118.80000001192,99130.104,99513.438,,54,raising
screen,html.Screen,0_2_1_1_55,2021-11-12T15:26:57.034Z,,,,,,,,,,,,,,,,54,,,,,,,,,,,,,,316.6620000238472,,response,,,100,,,,,,Space,keypress(Space),,,,,-- --- ---- --- ------ ----- ------- ---- -- --- ------- --<br>------- ---------- ------ -- ----- -- ----- -- ---- ------<br>--- ----- --- --- ------ -------- ----- --- ------ ----- --<br>----- ----- ---------- --- --- ------ ------ ---- -- ------<br>------- --- ------ ----- --- ---- ------- -- ---- --- --<br>------- money.,99830.70000004768,99830.10000002384,99496.773,99502.80000001192,99513.438,99846.759,,55,money.
Item 100,flow.Loop,0_2_1_1,2021-11-12T15:26:57.034Z,,,,,,,,,,,,,,,,,,,,,,,,,,,,,,23215.267000023843,,completion,,,,B,,,,,,,,,,silence,,99831.10000002384,99830.10000002384,76598.168,76599.10000002384,76614.833,99846.759,,,
Question 1,html.Screen,0_2_1_2,2021-11-12T15:27:00.975Z,,,,,,,,,,,,,,,,,,,,,,,,,,,true,TRUE,,3924.7409999999945,,response,,,100,B,,,,,TRUE,click #choice-1,,,,silence,,103772.30000001192,103771.5,99830.094,99831.20000004768,99846.759,103779.885,,,
Question 2,html.Screen,0_2_1_3,2021-11-12T15:27:02.839Z,,,,,,,,,,,,,,,,,,,,,,,,,,,true,FALSE,,1855.715000023847,,response,,,100,B,,,,,FALSE,click #choice-2,,,,silence,,105636.40000003576,105635.60000002384,103763.219,103772.40000003576,103779.885,105646.355,,,
Item 100,flow.Sequence,0_2_1,2021-11-12T15:27:02.839Z,,,,,,,,,,,,,,,,,,,,,,,,,,,,,,39020.38800002384,,completion,,,,,,,,,,,,,,,,105636.70000004768,105635.60000002384,66598.551,66608.30000001192,66615.212,105646.355,,,
End of Practice,html.Page,0_2_2,2021-11-12T15:27:08.382Z,,,,,,,,,,,,,,,,,,,,,,,,,,,,,,5531.945000011925,,form submission,,,,,,,,,,,,,,,,111178.80000001192,111178.30000001192,105629.691,105636.90000003576,105646.355,111178.675,,,
Practice,flow.Sequence,0_2,2021-11-12T15:27:08.382Z,,,,,,,,,,,,,,,,,,,,,,,,,,,,,,96709.96300001192,,completion,,,,,,,,,,,,,,,,111179.20000004768,111178.30000001192,14451.675,14461.200000047684,14468.337,111178.675,,,
Trap_instruction,html.Page,0_3_0,2021-11-12T15:27:12.461Z,,,,,,,,,,,,,,,,,,,,,,,,,,,,,,4079.625000011918,,form submission,,,,,,,,,,,,,,,,115258.60000002384,115258.30000001192,111162.012,111179.5,111178.675,115279.21,,,
trap_trial,html.Screen,0_3_1,2021-11-12T15:27:15.829Z,,,,,,,,,,,,,,,,,,,,,,,,,,,true,1,,3346.5900000119145,,response,,,,,,,,,1,click #choice-1,,,,,,118626.5,118625.80000001192,115245.876,115258.80000001192,115279.21,118629.031,,,
end of trap trial,html.Page,0_3_2,2021-11-12T15:27:17.616Z,,,,,,,,,,,,,,,,,,,,,,,,,,,,,,1780.4689999999973,,form submission,,,,,,,,,,,,,,,,120409.90000003576,120409.5,118612.365,118626.80000001192,118629.031,120412.163,,,
Trap 1,flow.Sequence,0_3,2021-11-12T15:27:17.616Z,,,,,,,,,,,,,,,,,,,,,,,,,,,,,,9230.824999999997,,completion,,,,,,,,,,,,,,,,120410.10000002384,120409.5,111162.012,111179.40000003576,111178.675,120412.163,,,
Standby,html.Page,0_4_0,2021-11-12T15:27:25.602Z,,,,,,,,,,,,,,,,,,,,,,,,,,,,,,7999.221000000005,,timeout,,,,,,,,,,,,,,,,128396.10000002384,128394.719,120395.498,120410.30000001192,120412.163,128411.384,,,
Holding screen,html.Screen,0_4_1_0_0,2021-11-12T15:27:32.602Z,,,,,,,,,,,,,,,,,,,,,,,,,,,,,,6999.816000000006,,timeout,,,,,,,,,,,,,,,,135396.10000002384,135394.535,128394.719,128396.40000003576,128411.384,135411.2,,,
screen,html.Screen,0_4_1_0_1_0,2021-11-12T15:27:33.267Z,,,,,,,,,,,,,,,,11,,,,,,,,,,,,,,648.9000000238302,,response,,,4,B,,,,,Space,keypress(Space),,,,lyrical,Known -- ---- --- -- --- -------- ------------ ---------- --<br>- ------- ------ --------- -- ------------ -- --- ---- -----<br>------ ---- ---- ------ ------ ------- --- ----- ---------<br>---- --- -------- -------- --- --- -- ------- --- --- -----<br>-- --- ------ ------- --- --- -------- ---- --------- --<br>---------- -- -------- ----------------,136061,136060.10000002384,135394.535,135396.40000003576,135411.2,136061.175,,0,Known
screen,html.Screen,0_4_1_0_1_1,2021-11-12T15:27:33.571Z,,,,,,,,,,,,,,,,11,,,,,,,,,,,,,,302.7250000357744,,response,,,4,B,,,,,Space,keypress(Space),,,,lyrical,----- as ---- --- -- --- -------- ------------ ---------- --<br>- ------- ------ --------- -- ------------ -- --- ---- -----<br>------ ---- ---- ------ ------ ------- --- ----- ---------<br>---- --- -------- -------- --- --- -- ------- --- --- -----<br>-- --- ------ ------- --- --- -------- ---- --------- --<br>---------- -- -------- ----------------,136364.5,136363.90000003576,136044.51,136061.20000004768,136061.175,136377.842,,1,as
screen,html.Screen,0_4_1_0_1_2,2021-11-12T15:27:33.891Z,,,,,,,,,,,,,,,,11,,,,,,,,,,,,,,305.95800001191674,,response,,,4,B,,,,,Space,keypress(Space),,,,lyrical,----- -- Rapa --- -- --- -------- ------------ ---------- --<br>- ------- ------ --------- -- ------------ -- --- ---- -----<br>------ ---- ---- ------ ------ ------- --- ----- ---------<br>---- --- -------- -------- --- --- -- ------- --- --- -----<br>-- --- ------ ------- --- --- -------- ---- --------- --<br>---------- -- -------- ----------------,136684.40000003576,136683.80000001192,136361.177,136364.60000002384,136377.842,136694.517,,2,Rapa
screen,html.Screen,0_4_1_0_1_3,2021-11-12T15:27:34.387Z,,,,,,,,,,,,,,,,11,,,,,,,,,,,,,,485.2830000119284,,response,,,4,B,,,,,Space,keypress(Space),,,,lyrical,----- -- ---- Nui -- --- -------- ------------ ---------- --<br>- ------- ------ --------- -- ------------ -- --- ---- -----<br>------ ---- ---- ------ ------ ------- --- ----- ---------<br>---- --- -------- -------- --- --- -- ------- --- --- -----<br>-- --- ------ ------- --- --- -------- ---- --------- --<br>---------- -- -------- ----------------,137180.5,137179.80000001192,136677.851,136684.60000002384,136694.517,137194.413,,3,Nui
screen,html.Screen,0_4_1_0_1_4,2021-11-12T15:27:34.755Z,,,,,,,,,,,,,,,,11,,,,,,,,,,,,,,353.38700001192046,,response,,,4,B,,,,,Space,keypress(Space),,,,lyrical,----- -- ---- --- to --- -------- ------------ ---------- --<br>- ------- ------ --------- -- ------------ -- --- ---- -----<br>------ ---- ---- ------ ------ ------- --- ----- ---------<br>---- --- -------- -------- --- --- -- ------- --- --- -----<br>-- --- ------ ------- --- --- -------- ---- --------- --<br>---------- -- -------- ----------------,137548.5,137547.80000001192,137177.749,137180.60000002384,137194.413,137561.102,,4,to
screen,html.Screen,0_4_1_0_1_5,2021-11-12T15:27:35.075Z,,,,,,,,,,,,,,,,11,,,,,,,,,,,,,,306.6980000119074,,response,,,4,B,,,,,Space,keypress(Space),,,,lyrical,----- -- ---- --- -- the -------- ------------ ---------- --<br>- ------- ------ --------- -- ------------ -- --- ---- -----<br>------ ---- ---- ------ ------ ------- --- ----- ---------<br>---- --- -------- -------- --- --- -- ------- --- --- -----<br>-- --- ------ ------- --- --- -------- ---- --------- --<br>---------- -- -------- ----------------,137868.40000003576,137867.80000001192,137544.437,137548.60000002384,137561.102,137877.754,,5,the
screen,html.Screen,0_4_1_0_1_6,2021-11-12T15:27:35.507Z,,,,,,,,,,,,,,,,11,,,,,,,,,,,,,,421.94600004769745,,response,,,4,B,,,,,Space,keypress(Space),,,,lyrical,----- -- ---- --- -- --- island's ------------ ---------- --<br>- ------- ------ --------- -- ------------ -- --- ---- -----<br>------ ---- ---- ------ ------ ------- --- ----- ---------<br>---- --- -------- -------- --- --- -- ------- --- --- -----<br>-- --- ------ ------- --- --- -------- ---- --------- --<br>---------- -- -------- ----------------,138300.40000003576,138299.70000004768,137861.089,137868.60000002384,137877.754,138311.054,,6,island's
screen,html.Screen,0_4_1_0_1_7,2021-11-12T15:27:36.251Z,,,,,,,,,,,,,,,,11,,,,,,,,,,,,,,732.7460000119172,,response,,,4,B,,,,,Space,keypress(Space),,,,lyrical,"----- -- ---- --- -- --- -------- inhabitants, ---------- --<br>- ------- ------ --------- -- ------------ -- --- ---- -----<br>------ ---- ---- ------ ------ ------- --- ----- ---------<br>---- --- -------- -------- --- --- -- ------- --- --- -----<br>-- --- ------ ------- --- --- -------- ---- --------- --<br>---------- -- -------- ----------------",139044.40000003576,139043.80000001192,138294.389,138300.60000002384,138311.054,139061.047,,7,"inhabitants,"
screen,html.Screen,0_4_1_0_1_8,2021-11-12T15:27:36.739Z,,,,,,,,,,,,,,,,11,,,,,,,,,,,,,,470.65300004769233,,response,,,4,B,,,,,Space,keypress(Space),,,,lyrical,----- -- ---- --- -- --- -------- ------------ Rongorongo --<br>- ------- ------ --------- -- ------------ -- --- ---- -----<br>------ ---- ---- ------ ------ ------- --- ----- ---------<br>---- --- -------- -------- --- --- -- ------- --- --- -----<br>-- --- ------ ------- --- --- -------- ---- --------- --<br>---------- -- -------- ----------------,139532.30000001192,139531.70000004768,139044.381,139044.60000002384,139061.047,139544.342,,8,Rongorongo
screen,html.Screen,0_4_1_0_1_9,2021-11-12T15:27:37.154Z,,,,,,,,,,,,,,,,11,,,,,,,,,,,,,,403.3580000476795,,response,,,4,B,,,,,Space,keypress(Space),,,,lyrical,----- -- ---- --- -- --- -------- ------------ ---------- is<br>- ------- ------ --------- -- ------------ -- --- ---- -----<br>------ ---- ---- ------ ------ ------- --- ----- ---------<br>---- --- -------- -------- --- --- -- ------- --- --- -----<br>-- --- ------ ------- --- --- -------- ---- --------- --<br>---------- -- -------- ----------------,139948.20000004768,139947.70000004768,139527.677,139532.5,139544.342,139960.974,,9,is
screen,html.Screen,0_4_1_0_1_10,2021-11-12T15:27:37.482Z,,,,,,,,,,,,,,,,11,,,,,,,,,,,,,,314.62600002385443,,response,,,4,B,,,,,Space,keypress(Space),,,,lyrical,----- -- ---- --- -- --- -------- ------------ ---------- --<br>a ------- ------ --------- -- ------------ -- --- ---- -----<br>------ ---- ---- ------ ------ ------- --- ----- ---------<br>---- --- -------- -------- --- --- -- ------- --- --- -----<br>-- --- ------ ------- --- --- -------- ---- --------- --<br>---------- -- -------- ----------------,140276.20000004768,140275.60000002384,139944.309,139948.40000003576,139960.974,140277.572,,10,a
screen,html.Screen,0_4_1_0_1_11,2021-11-12T15:27:37.810Z,,,,,,,,,,,,,,,,11,,,,,,,,,,,,,,326.0280000238563,,response,,,4,B,,,,,Space,keypress(Space),,,,lyrical,----- -- ---- --- -- --- -------- ------------ ---------- --<br>- writing ------ --------- -- ------------ -- --- ---- -----<br>------ ---- ---- ------ ------ ------- --- ----- ---------<br>---- --- -------- -------- --- --- -- ------- --- --- -----<br>-- --- ------ ------- --- --- -------- ---- --------- --<br>---------- -- -------- ----------------,140604.20000004768,140603.60000002384,140260.908,140276.40000003576,140277.572,140610.96,,11,writing
screen,html.Screen,0_4_1_0_1_12,2021-11-12T15:27:38.251Z,,,,,,,,,,,,,,,,11,,,,,,,,,,,,,,432.64000002385,,response,,,4,B,,,,,Space,keypress(Space),,,,lyrical,----- -- ---- --- -- --- -------- ------------ ---------- --<br>- ------- system --------- -- ------------ -- --- ---- -----<br>------ ---- ---- ------ ------ ------- --- ----- ---------<br>---- --- -------- -------- --- --- -- ------- --- --- -----<br>-- --- ------ ------- --- --- -------- ---- --------- --<br>---------- -- -------- ----------------,141044.30000001192,141043.60000002384,140594.294,140604.30000001192,140610.96,141060.928,,12,system
screen,html.Screen,0_4_1_0_1_13,2021-11-12T15:27:38.602Z,,,,,,,,,,,,,,,,11,,,,,,,,,,,,,,334.6720000238274,,response,,,4,B,,,,,Space,keypress(Space),,,,lyrical,----- -- ---- --- -- --- -------- ------------ ---------- --<br>- ------- ------ comprised -- ------------ -- --- ---- -----<br>------ ---- ---- ------ ------ ------- --- ----- ---------<br>---- --- -------- -------- --- --- -- ------- --- --- -----<br>-- --- ------ ------- --- --- -------- ---- --------- --<br>---------- -- -------- ----------------,141396.20000004768,141395.60000002384,141044.262,141045.30000001192,141060.928,141410.871,,13,comprised
screen,html.Screen,0_4_1_0_1_14,2021-11-12T15:27:38.978Z,,,,,,,,,,,,,,,,11,,,,,,,,,,,,,,360.7290000238281,,response,,,4,B,,,,,Space,keypress(Space),,,,lyrical,----- -- ---- --- -- --- -------- ------------ ---------- --<br>- ------- ------ --------- of ------------ -- --- ---- -----<br>------ ---- ---- ------ ------ ------- --- ----- ---------<br>---- --- -------- -------- --- --- -- ------- --- --- -----<br>-- --- ------ ------- --- --- -------- ---- --------- --<br>---------- -- -------- ----------------,141772.10000002384,141771.60000002384,141394.206,141396.30000001192,141410.871,141777.562,,14,of
screen,html.Screen,0_4_1_0_1_15,2021-11-12T15:27:39.370Z,,,,,,,,,,,,,,,,11,,,,,,,,,,,,,,385.93799999999464,,response,,,4,B,,,,,Space,keypress(Space),,,,lyrical,----- -- ---- --- -- --- -------- ------------ ---------- --<br>- ------- ------ --------- -- pictographs. -- --- ---- -----<br>------ ---- ---- ------ ------ ------- --- ----- ---------<br>---- --- -------- -------- --- --- -- ------- --- --- -----<br>-- --- ------ ------- --- --- -------- ---- --------- --<br>---------- -- -------- ----------------,142164.30000001192,142163.5,141760.896,141772.30000001192,141777.562,142177.503,,15,pictographs.
screen,html.Screen,0_4_1_0_1_16,2021-11-12T15:27:39.842Z,,,,,,,,,,,,,,,,11,,,,,,,,,,,,,,458.0970000238449,,response,,,4,B,,,,,Space,keypress(Space),,,,lyrical,----- -- ---- --- -- --- -------- ------------ ---------- --<br>- ------- ------ --------- -- ------------ It --- ---- -----<br>------ ---- ---- ------ ------ ------- --- ----- ---------<br>---- --- -------- -------- --- --- -- ------- --- --- -----<br>-- --- ------ ------- --- --- -------- ---- --------- --<br>---------- -- -------- ----------------,142636.20000004768,142635.60000002384,142160.838,142164.5,142177.503,142644.022,,16,It
screen,html.Screen,0_4_1_0_1_17,2021-11-12T15:27:40.098Z,,,,,,,,,,,,,,,,11,,,,,,,,,,,,,,247.37800003576558,,response,,,4,B,,,,,Space,keypress(Space),,,,lyrical,----- -- ---- --- -- --- -------- ------------ ---------- --<br>- ------- ------ --------- -- ------------ -- has ---- -----<br>------ ---- ---- ------ ------ ------- --- ----- ---------<br>---- --- -------- -------- --- --- -- ------- --- --- -----<br>-- --- ------ ------- --- --- -------- ---- --------- --<br>---------- -- -------- ----------------,142892.20000004768,142891.40000003576,142627.359,142636.40000003576,142644.022,142894.144,,17,has
screen,html.Screen,0_4_1_0_1_18,2021-11-12T15:27:40.298Z,,,,,,,,,,,,,,,,11,,,,,,,,,,,,,,197.25600003576255,,response,,,4,B,,,,,Space,keypress(Space),,,,lyrical,----- -- ---- --- -- --- -------- ------------ ---------- --<br>- ------- ------ --------- -- ------------ -- --- been -----<br>------ ---- ---- ------ ------ ------- --- ----- ---------<br>---- --- -------- -------- --- --- -- ------- --- --- -----<br>-- --- ------ ------- --- --- -------- ---- --------- --<br>---------- -- -------- ----------------,143092.10000002384,143091.40000003576,142877.478,142892.40000003576,142894.144,143094.052,,18,been
screen,html.Screen,0_4_1_0_1_19,2021-11-12T15:27:40.770Z,,,,,,,,,,,,,,,,11,,,,,,,,,,,,,,469.34800003576674,,response,,,4,B,,,,,Space,keypress(Space),,,,lyrical,----- -- ---- --- -- --- -------- ------------ ---------- --<br>- ------- ------ --------- -- ------------ -- --- ---- found<br>------ ---- ---- ------ ------ ------- --- ----- ---------<br>---- --- -------- -------- --- --- -- ------- --- --- -----<br>-- --- ------ ------- --- --- -------- ---- --------- --<br>---------- -- -------- ----------------,143564.10000002384,143563.40000003576,143077.388,143092.30000001192,143094.052,143577.422,,19,found
screen,html.Screen,0_4_1_0_1_20,2021-11-12T15:27:41.154Z,,,,,,,,,,,,,,,,11,,,,,,,,,,,,,,370.0780000000086,,response,,,4,B,,,,,Space,keypress(Space),,,,lyrical,----- -- ---- --- -- --- -------- ------------ ---------- --<br>- ------- ------ --------- -- ------------ -- --- ---- -----<br>carved ---- ---- ------ ------ ------- --- ----- ---------<br>---- --- -------- -------- --- --- -- ------- --- --- -----<br>-- --- ------ ------- --- --- -------- ---- --------- --<br>---------- -- -------- ----------------,143948.10000002384,143947.5,143560.756,143564.40000003576,143577.422,143960.781,,20,carved
screen,html.Screen,0_4_1_0_1_21,2021-11-12T15:27:41.570Z,,,,,,,,,,,,,,,,11,,,,,,,,,,,,,,402.61900003577466,,response,,,4,B,,,,,Space,keypress(Space),,,,lyrical,----- -- ---- --- -- --- -------- ------------ ---------- --<br>- ------- ------ --------- -- ------------ -- --- ---- -----<br>------ into ---- ------ ------ ------- --- ----- ---------<br>---- --- -------- -------- --- --- -- ------- --- --- -----<br>-- --- ------ ------- --- --- -------- ---- --------- --<br>---------- -- -------- ----------------,144364.10000002384,144363.40000003576,143944.114,143948.40000003576,143960.781,144377.353,,21,into
screen,html.Screen,0_4_1_0_1_22,2021-11-12T15:27:41.762Z,,,,,,,,,,,,,,,,11,,,,,,,,,,,,,,177.94700001191813,,response,,,4,B,,,,,Space,keypress(Space),,,,lyrical,----- -- ---- --- -- --- -------- ------------ ---------- --<br>- ------- ------ --------- -- ------------ -- --- ---- -----<br>------ ---- many ------ ------ ------- --- ----- ---------<br>---- --- -------- -------- --- --- -- ------- --- --- -----<br>-- --- ------ ------- --- --- -------- ---- --------- --<br>---------- -- -------- ----------------,144555.90000003576,144555.30000001192,144360.688,144364.5,144377.353,144560.72,,22,many
screen,html.Screen,0_4_1_0_1_23,2021-11-12T15:27:41.978Z,,,,,,,,,,,,,,,,11,,,,,,,,,,,,,,210.68000003576162,,response,,,4,B,,,,,Space,keypress(Space),,,,lyrical,----- -- ---- --- -- --- -------- ------------ ---------- --<br>- ------- ------ --------- -- ------------ -- --- ---- -----<br>------ ---- ---- oblong ------ ------- --- ----- ---------<br>---- --- -------- -------- --- --- -- ------- --- --- -----<br>-- --- ------ ------- --- --- -------- ---- --------- --<br>---------- -- -------- ----------------,144771.90000003576,144771.40000003576,144544.054,144556.10000002384,144560.72,144777.322,,23,oblong
screen,html.Screen,0_4_1_0_1_24,2021-11-12T15:27:42.690Z,,,,,,,,,,,,,,,,11,,,,,,,,,,,,,,706.0780000357772,,response,,,4,B,,,,,Space,keypress(Space),,,,lyrical,----- -- ---- --- -- --- -------- ------------ ---------- --<br>- ------- ------ --------- -- ------------ -- --- ---- -----<br>------ ---- ---- ------ wooden ------- --- ----- ---------<br>---- --- -------- -------- --- --- -- ------- --- --- -----<br>-- --- ------ ------- --- --- -------- ---- --------- --<br>---------- -- -------- ----------------,145484.10000002384,145483.40000003576,144760.658,144772.10000002384,144777.322,145494.001,,24,wooden
screen,html.Screen,0_4_1_0_1_25,2021-11-12T15:27:43.090Z,,,,,,,,,,,,,,,,11,,,,,,,,,,,,,,389.29900001193164,,response,,,4,B,,,,,Space,keypress(Space),,,,lyrical,----- -- ---- --- -- --- -------- ------------ ---------- --<br>- ------- ------ --------- -- ------------ -- --- ---- -----<br>------ ---- ---- ------ ------ tablets --- ----- ---------<br>---- --- -------- -------- --- --- -- ------- --- --- -----<br>-- --- ------ ------- --- --- -------- ---- --------- --<br>---------- -- -------- ----------------,145883.90000003576,145883.30000001192,145477.335,145484.40000003576,145494.001,145893.876,,25,tablets
screen,html.Screen,0_4_1_0_1_26,2021-11-12T15:27:43.746Z,,,,,,,,,,,,,,,,11,,,,,,,,,,,,,,645.6240000000107,,response,,,4,B,,,,,Space,keypress(Space),,,,lyrical,----- -- ---- --- -- --- -------- ------------ ---------- --<br>- ------- ------ --------- -- ------------ -- --- ---- -----<br>------ ---- ---- ------ ------ ------- and ----- ---------<br>---- --- -------- -------- --- --- -- ------- --- --- -----<br>-- --- ------ ------- --- --- -------- ---- --------- --<br>---------- -- -------- ----------------,146540.20000004768,146539.5,145877.212,145884,145893.876,146543.796,,26,and
screen,html.Screen,0_4_1_0_1_27,2021-11-12T15:27:44.282Z,,,,,,,,,,,,,,,,11,,,,,,,,,,,,,,531.4040000476816,,response,,,4,B,,,,,Space,keypress(Space),,,,lyrical,----- -- ---- --- -- --- -------- ------------ ---------- --<br>- ------- ------ --------- -- ------------ -- --- ---- -----<br>------ ---- ---- ------ ------ ------- --- other ---------<br>---- --- -------- -------- --- --- -- ------- --- --- -----<br>-- --- ------ ------- --- --- -------- ---- --------- --<br>---------- -- -------- ----------------,147075.80000001192,147075.20000004768,146527.132,146540.40000003576,146543.796,147077.261,,27,other
screen,html.Screen,0_4_1_0_1_28,2021-11-12T15:27:45.858Z,,,,,,,,,,,,,,,,11,,,,,,,,,,,,,,1573.939000047685,,response,,,4,B,,,,,Space,keypress(Space),,,,lyrical,----- -- ---- --- -- --- -------- ------------ ---------- --<br>- ------- ------ --------- -- ------------ -- --- ---- -----<br>------ ---- ---- ------ ------ ------- --- ----- artifacts<br>---- --- -------- -------- --- --- -- ------- --- --- -----<br>-- --- ------ ------- --- --- -------- ---- --------- --<br>---------- -- -------- ----------------,148651.80000001192,148651.20000004768,147060.595,147076,147077.261,148660.359,,28,artifacts
screen,html.Screen,0_4_1_0_1_29,2021-11-12T15:27:46.330Z,,,,,,,,,,,,,,,,11,,,,,,,,,,,,,,462.7410000238451,,response,,,4,B,,,,,Space,keypress(Space),,,,lyrical,----- -- ---- --- -- --- -------- ------------ ---------- --<br>- ------- ------ --------- -- ------------ -- --- ---- -----<br>------ ---- ---- ------ ------ ------- --- ----- ---------<br>from --- -------- -------- --- --- -- ------- --- --- -----<br>-- --- ------ ------- --- --- -------- ---- --------- --<br>---------- -- -------- ----------------,149123.90000003576,149123.10000002384,148643.694,148652,148660.359,149127.029,,29,from
screen,html.Screen,0_4_1_0_1_30,2021-11-12T15:27:46.770Z,,,,,,,,,,,,,,,,11,,,,,,,,,,,,,,436.0710000238323,,response,,,4,B,,,,,Space,keypress(Space),,,,lyrical,----- -- ---- --- -- --- -------- ------------ ---------- --<br>- ------- ------ --------- -- ------------ -- --- ---- -----<br>------ ---- ---- ------ ------ ------- --- ----- ---------<br>---- the -------- -------- --- --- -- ------- --- --- -----<br>-- --- ------ ------- --- --- -------- ---- --------- --<br>---------- -- -------- ----------------,149563.60000002384,149563.10000002384,149110.364,149124,149127.029,149577.057,,30,the
screen,html.Screen,0_4_1_0_1_31,2021-11-12T15:27:47.266Z,,,,,,,,,,,,,,,,11,,,,,,,,,,,,,,482.04300002384116,,response,,,4,B,,,,,Space,keypress(Space),,,,lyrical,----- -- ---- --- -- --- -------- ------------ ---------- --<br>- ------- ------ --------- -- ------------ -- --- ---- -----<br>------ ---- ---- ------ ------ ------- --- ----- ---------<br>---- --- island's -------- --- --- -- ------- --- --- -----<br>-- --- ------ ------- --- --- -------- ---- --------- --<br>---------- -- -------- ----------------,150059.80000001192,150059.10000002384,149560.392,149563.80000001192,149577.057,150076.996,,31,island's
screen,html.Screen,0_4_1_0_1_32,2021-11-12T15:27:48.298Z,,,,,,,,,,,,,,,,11,,,,,,,,,,,,,,1014.0039999999863,,response,,,4,B,,,,,Space,keypress(Space),,,,lyrical,----- -- ---- --- -- --- -------- ------------ ---------- --<br>- ------- ------ --------- -- ------------ -- --- ---- -----<br>------ ---- ---- ------ ------ ------- --- ----- ---------<br>---- --- -------- history. --- --- -- ------- --- --- -----<br>-- --- ------ ------- --- --- -------- ---- --------- --<br>---------- -- -------- ----------------,151091.60000002384,151091,150060.331,150059.90000003576,150076.996,151093.583,,32,history.
screen,html.Screen,0_4_1_0_1_33,2021-11-12T15:27:48.698Z,,,,,,,,,,,,,,,,11,,,,,,,,,,,,,,397.3170000357495,,response,,,4,B,,,,,Space,keypress(Space),,,,lyrical,----- -- ---- --- -- --- -------- ------------ ---------- --<br>- ------- ------ --------- -- ------------ -- --- ---- -----<br>------ ---- ---- ------ ------ ------- --- ----- ---------<br>---- --- -------- -------- The --- -- ------- --- --- -----<br>-- --- ------ ------- --- --- -------- ---- --------- --<br>---------- -- -------- ----------------,151491.40000003576,151490.90000003576,151076.918,151091.80000001192,151093.583,151493.575,,33,The
screen,html.Screen,0_4_1_0_1_34,2021-11-12T15:27:49.186Z,,,,,,,,,,,,,,,,11,,,,,,,,,,,,,,485.32500003575115,,response,,,4,B,,,,,Space,keypress(Space),,,,lyrical,----- -- ---- --- -- --- -------- ------------ ---------- --<br>- ------- ------ --------- -- ------------ -- --- ---- -----<br>------ ---- ---- ------ ------ ------- --- ----- ---------<br>---- --- -------- -------- --- art -- ------- --- --- -----<br>-- --- ------ ------- --- --- -------- ---- --------- --<br>---------- -- -------- ----------------,151979.60000002384,151978.90000003576,151476.91,151491.60000002384,151493.575,151993.565,,34,art
screen,html.Screen,0_4_1_0_1_35,2021-11-12T15:27:49.546Z,,,,,,,,,,,,,,,,11,,,,,,,,,,,,,,345.33500003576046,,response,,,4,B,,,,,Space,keypress(Space),,,,lyrical,----- -- ---- --- -- --- -------- ------------ ---------- --<br>- ------- ------ --------- -- ------------ -- --- ---- -----<br>------ ---- ---- ------ ------ ------- --- ----- ---------<br>---- --- -------- -------- --- --- of ------- --- --- -----<br>-- --- ------ ------- --- --- -------- ---- --------- --<br>---------- -- -------- ----------------,152339.5,152338.90000003576,151976.9,151979.90000003576,151993.565,152343.537,,35,of
screen,html.Screen,0_4_1_0_1_36,2021-11-12T15:27:49.970Z,,,,,,,,,,,,,,,,11,,,,,,,,,,,,,,419.26300001190975,,response,,,4,B,,,,,Space,keypress(Space),,,,lyrical,----- -- ---- --- -- --- -------- ------------ ---------- --<br>- ------- ------ --------- -- ------------ -- --- ---- -----<br>------ ---- ---- ------ ------ ------- --- ----- ---------<br>---- --- -------- -------- --- --- -- writing --- --- -----<br>-- --- ------ ------- --- --- -------- ---- --------- --<br>---------- -- -------- ----------------,152763.40000003576,152762.80000001192,152326.872,152339.70000004768,152343.537,152776.828,,36,writing
screen,html.Screen,0_4_1_0_1_37,2021-11-12T15:27:50.362Z,,,,,,,,,,,,,,,,11,,,,,,,,,,,,,,378.0720000357542,,response,,,4,B,,,,,Space,keypress(Space),,,,lyrical,----- -- ---- --- -- --- -------- ------------ ---------- --<br>- ------- ------ --------- -- ------------ -- --- ---- -----<br>------ ---- ---- ------ ------ ------- --- ----- ---------<br>---- --- -------- -------- --- --- -- ------- was --- -----<br>-- --- ------ ------- --- --- -------- ---- --------- --<br>---------- -- -------- ----------------,153155.40000003576,153154.90000003576,152760.163,152763.60000002384,152776.828,153160.142,,37,was
screen,html.Screen,0_4_1_0_1_38,2021-11-12T15:27:50.714Z,,,,,,,,,,,,,,,,11,,,,,,,,,,,,,,346.75800003577024,,response,,,4,B,,,,,Space,keypress(Space),,,,lyrical,----- -- ---- --- -- --- -------- ------------ ---------- --<br>- ------- ------ --------- -- ------------ -- --- ---- -----<br>------ ---- ---- ------ ------ ------- --- ----- ---------<br>---- --- -------- -------- --- --- -- ------- --- not -----<br>-- --- ------ ------- --- --- -------- ---- --------- --<br>---------- -- -------- ----------------,153507.40000003576,153506.90000003576,153143.477,153155.5,153160.142,153510.118,,38,not
screen,html.Screen,0_4_1_0_1_39,2021-11-12T15:27:51.154Z,,,,,,,,,,,,,,,,11,,,,,,,,,,,,,,436.68200001193327,,response,,,4,B,,,,,Space,keypress(Space),,,,lyrical,----- -- ---- --- -- --- -------- ------------ ---------- --<br>- ------- ------ --------- -- ------------ -- --- ---- -----<br>------ ---- ---- ------ ------ ------- --- ----- ---------<br>---- --- -------- -------- --- --- -- ------- --- --- known<br>-- --- ------ ------- --- --- -------- ---- --------- --<br>---------- -- -------- ----------------,153947.5,153946.80000001192,153493.453,153507.60000002384,153510.118,153960.135,,39,known
screen,html.Screen,0_4_1_0_1_40,2021-11-12T15:27:51.570Z,,,,,,,,,,,,,,,,11,,,,,,,,,,,,,,402.5650000476744,,response,,,4,B,,,,,Space,keypress(Space),,,,lyrical,----- -- ---- --- -- --- -------- ------------ ---------- --<br>- ------- ------ --------- -- ------------ -- --- ---- -----<br>------ ---- ---- ------ ------ ------- --- ----- ---------<br>---- --- -------- -------- --- --- -- ------- --- --- -----<br>in --- ------ ------- --- --- -------- ---- --------- --<br>---------- -- -------- ----------------,154363.30000001192,154362.70000004768,153943.469,153947.60000002384,153960.135,154376.795,,40,in
screen,html.Screen,0_4_1_0_1_41,2021-11-12T15:27:51.986Z,,,,,,,,,,,,,,,,11,,,,,,,,,,,,,,402.0050000119081,,response,,,4,B,,,,,Space,keypress(Space),,,,lyrical,----- -- ---- --- -- --- -------- ------------ ---------- --<br>- ------- ------ --------- -- ------------ -- --- ---- -----<br>------ ---- ---- ------ ------ ------- --- ----- ---------<br>---- --- -------- -------- --- --- -- ------- --- --- -----<br>-- any ------ ------- --- --- -------- ---- --------- --<br>---------- -- -------- ----------------,154779.30000001192,154778.80000001192,154360.129,154363.5,154376.795,154793.446,,41,any
screen,html.Screen,0_4_1_0_1_42,2021-11-12T15:27:52.410Z,,,,,,,,,,,,,,,,11,,,,,,,,,,,,,,409.25400004768744,,response,,,4,B,,,,,Space,keypress(Space),,,,lyrical,----- -- ---- --- -- --- -------- ------------ ---------- --<br>- ------- ------ --------- -- ------------ -- --- ---- -----<br>------ ---- ---- ------ ------ ------- --- ----- ---------<br>---- --- -------- -------- --- --- -- ------- --- --- -----<br>-- --- nearby ------- --- --- -------- ---- --------- --<br>---------- -- -------- ----------------,155203.40000003576,155202.70000004768,154776.78,154779.5,154793.446,155209.972,,42,nearby
screen,html.Screen,0_4_1_0_1_43,2021-11-12T15:27:52.778Z,,,,,,,,,,,,,,,,11,,,,,,,,,,,,,,360.72800004767487,,response,,,4,B,,,,,Space,keypress(Space),,,,lyrical,----- -- ---- --- -- --- -------- ------------ ---------- --<br>- ------- ------ --------- -- ------------ -- --- ---- -----<br>------ ---- ---- ------ ------ ------- --- ----- ---------<br>---- --- -------- -------- --- --- -- ------- --- --- -----<br>-- --- ------ islands --- --- -------- ---- --------- --<br>---------- -- -------- ----------------,155571.40000003576,155570.70000004768,155193.308,155203.60000002384,155209.972,155576.659,,43,islands
screen,html.Screen,0_4_1_0_1_44,2021-11-12T15:27:53.186Z,,,,,,,,,,,,,,,,11,,,,,,,,,,,,,,402.0410000476695,,response,,,4,B,,,,,Space,keypress(Space),,,,lyrical,----- -- ---- --- -- --- -------- ------------ ---------- --<br>- ------- ------ --------- -- ------------ -- --- ---- -----<br>------ ---- ---- ------ ------ ------- --- ----- ---------<br>---- --- -------- -------- --- --- -- ------- --- --- -----<br>-- --- ------ ------- and --- -------- ---- --------- --<br>---------- -- -------- ----------------,155979.30000001192,155978.70000004768,155559.994,155571.5,155576.659,155993.352,,44,and
screen,html.Screen,0_4_1_0_1_45,2021-11-12T15:27:53.658Z,,,,,,,,,,,,,,,,11,,,,,,,,,,,,,,457.24800002382835,,response,,,4,B,,,,,Space,keypress(Space),,,,lyrical,----- -- ---- --- -- --- -------- ------------ ---------- --<br>- ------- ------ --------- -- ------------ -- --- ---- -----<br>------ ---- ---- ------ ------ ------- --- ----- ---------<br>---- --- -------- -------- --- --- -- ------- --- --- -----<br>-- --- ------ ------- --- the -------- ---- --------- --<br>---------- -- -------- ----------------,156451.30000001192,156450.60000002384,155976.686,155979.5,155993.352,156459.936,,45,the
screen,html.Screen,0_4_1_0_1_46,2021-11-12T15:27:54.154Z,,,,,,,,,,,,,,,,11,,,,,,,,,,,,,,486.9640000357758,,response,,,4,B,,,,,Space,keypress(Space),,,,lyrical,----- -- ---- --- -- --- -------- ------------ ---------- --<br>- ------- ------ --------- -- ------------ -- --- ---- -----<br>------ ---- ---- ------ ------ ------- --- ----- ---------<br>---- --- -------- -------- --- --- -- ------- --- --- -----<br>-- --- ------ ------- --- --- script's ---- --------- --<br>---------- -- -------- ----------------,156947.60000002384,156946.90000003576,156443.271,156451.5,156459.936,156959.906,,46,script's
screen,html.Screen,0_4_1_0_1_47,2021-11-12T15:27:55.602Z,,,,,,,,,,,,,,,,11,,,,,,,,,,,,,,1434.5940000000119,,response,,,4,B,,,,,Space,keypress(Space),,,,lyrical,----- -- ---- --- -- --- -------- ------------ ---------- --<br>- ------- ------ --------- -- ------------ -- --- ---- -----<br>------ ---- ---- ------ ------ ------- --- ----- ---------<br>---- --- -------- -------- --- --- -- ------- --- --- -----<br>-- --- ------ ------- --- --- -------- mere --------- --<br>---------- -- -------- ----------------,158395.30000001192,158394.5,156943.241,156947.60000002384,156959.906,158409.885,,47,mere
screen,html.Screen,0_4_1_0_1_48,2021-11-12T15:27:56.281Z,,,,,,,,,,,,,,,,11,,,,,,,,,,,,,,664.6149999999907,,response,,,4,B,,,,,Space,keypress(Space),,,,lyrical,----- -- ---- --- -- --- -------- ------------ ---------- --<br>- ------- ------ --------- -- ------------ -- --- ---- -----<br>------ ---- ---- ------ ------ ------- --- ----- ---------<br>---- --- -------- -------- --- --- -- ------- --- --- -----<br>-- --- ------ ------- --- --- -------- ---- existence --<br>---------- -- -------- ----------------,159075.10000002384,159074.5,158393.219,158395.5,158409.885,159076.444,,48,existence
screen,html.Screen,0_4_1_0_1_49,2021-11-12T15:27:56.633Z,,,,,,,,,,,,,,,,11,,,,,,,,,,,,,,350.0560000000114,,response,,,4,B,,,,,Space,keypress(Space),,,,lyrical,----- -- ---- --- -- --- -------- ------------ ---------- --<br>- ------- ------ --------- -- ------------ -- --- ---- -----<br>------ ---- ---- ------ ------ ------- --- ----- ---------<br>---- --- -------- -------- --- --- -- ------- --- --- -----<br>-- --- ------ ------- --- --- -------- ---- --------- is<br>---------- -- -------- ----------------,159427.10000002384,159426.5,159059.779,159075.30000001192,159076.444,159443.11,,49,is
screen,html.Screen,0_4_1_0_1_50,2021-11-12T15:27:57.065Z,,,,,,,,,,,,,,,,11,,,,,,,,,,,,,,415.29000003577676,,response,,,4,B,,,,,Space,keypress(Space),,,,lyrical,----- -- ---- --- -- --- -------- ------------ ---------- --<br>- ------- ------ --------- -- ------------ -- --- ---- -----<br>------ ---- ---- ------ ------ ------- --- ----- ---------<br>---- --- -------- -------- --- --- -- ------- --- --- -----<br>-- --- ------ ------- --- --- -------- ---- --------- --<br>sufficient -- -------- ----------------,159859.10000002384,159858.40000003576,159426.445,159427.30000001192,159443.11,159859.684,,50,sufficient
screen,html.Screen,0_4_1_0_1_51,2021-11-12T15:27:57.489Z,,,,,,,,,,,,,,,,11,,,,,,,,,,,,,,422.7160000357544,,response,,,4,B,,,,,Space,keypress(Space),,,,lyrical,----- -- ---- --- -- --- -------- ------------ ---------- --<br>- ------- ------ --------- -- ------------ -- --- ---- -----<br>------ ---- ---- ------ ------ ------- --- ----- ---------<br>---- --- -------- -------- --- --- -- ------- --- --- -----<br>-- --- ------ ------- --- --- -------- ---- --------- --<br>---------- to -------- ----------------,160283.10000002384,160282.40000003576,159843.02,159859.30000001192,159859.684,160293.078,,51,to
