sender,sender_type,sender_id,timestamp,meta,,Blues,Classical,Country,Dance,Electronic,Folk,Gospel,Hip-Hop,Jazz,Latin,Musical/Film,New-age,Pop,Provo_ID,R&B,Rap,Reggae,Religious,Rock,Soul,Swing,Traditional,age,artist_name,correct,correctResponse,distraction,duration,education,ended_on,familiarity,gender,item,list,music_frequency,offensiveness,pleasantness,preference,response,response_action,snippet_file,song_name,song_rating,sound,text,time_commit,time_end,time_render,time_run,time_show,time_switch,url,word,word_ID
Instructions,html.Page,0_0,2021-12-03T10:43:21.719Z,"{""labjs_version"":""20.2.3"",""labjs_build"":{""flavor"":""production"",""commit"":""7ea907d66ca8aeef8054924ca5d82ffbe11e34e5""},""location"":""https://run.pavlovia.org/mvasilev/lab_music_b/"",""userAgent"":""Mozilla/5.0 (Windows NT 6.1; Win64; x64) AppleWebKit/537.36 (KHTML, like Gecko) Chrome/96.0.4664.45 Safari/537.36"",""platform"":""Win32"",""language"":""en-US"",""locale"":""en-US"",""timeZone"":""Europe/London"",""timezoneOffset"":0,""screen_width"":1920,""screen_height"":1080,""scroll_width"":1920,""scroll_height"":959,""window_innerWidth"":1920,""window_innerHeight"":1007,""devicePixelRatio"":1}",,,,,,,,,,,,,,,,,,,,,,,,,,,,,34927.05000000298,,form submission,,,,,,,,,,,,,,,,45881.40000000596,45880.20000000298,10936.48,10950.20000000298,10953.15,45879.867,{},,
Headphones,html.Page,0_1,2021-12-03T10:43:27.136Z,,,,,,,,,,,,,,,,,,,,,,,,,,,,,,5418.833000002982,,form submission,,,,,,,,,,,,,,,,51299.20000000298,51298.70000000298,45863.186,45882.20000000298,45879.867,51314.217,,,
Holding screen,html.Screen,0_2_0_0,2021-12-03T10:43:37.145Z,,,,,,,,,,,,,,,,,,,,,,,,,,,,,,10002.623,,timeout,,,,,,,,,,,,,,,,61305.40000000596,61300.17,51297.547,51299.90000000596,51314.217,61316.84,,,
screen,html.Screen,0_2_0_1_0,2021-12-03T10:43:38.187Z,,,,,,,,,,,,,,,,53,,,,,,,,,,,,,,1028.7600000089442,,response,,,99,,,,,,Space,keypress(Space),,,,,When -- ----- -- ------ - ------- --- ----------<br>------------- ------ ------ ---- ---- ------- ----- -- ----<br>-------- ------- -- ---------- --- - --- ----- ----- ----<br>---- --- --- ----- --- ---- ---- ------- ----- ---- -------<br>--- --- -- ----- -- --- ---- -- --- ---- -- ------ ------<br>--- ----- -- ----,62347.30000001192,62345.60000000894,61300.17,61305.80000001192,61316.84,62350.667,,0,When
screen,html.Screen,0_2_0_1_1,2021-12-03T10:43:38.610Z,,,,,,,,,,,,,,,,53,,,,,,,,,,,,,,418.4330000089394,,response,,,99,,,,,,Space,keypress(Space),,,,,---- it ----- -- ------ - ------- --- ----------<br>------------- ------ ------ ---- ---- ------- ----- -- ----<br>-------- ------- -- ---------- --- - --- ----- ----- ----<br>---- --- --- ----- --- ---- ---- ------- ----- ---- -------<br>--- --- -- ----- -- --- ---- -- --- ---- -- ------ ------<br>--- ----- -- ----,62770,62769.10000000894,62333.996,62347.70000000298,62350.667,62784.037,,1,it
screen,html.Screen,0_2_0_1_2,2021-12-03T10:43:39.042Z,,,,,,,,,,,,,,,,53,,,,,,,,,,,,,,417.0630000089441,,response,,,99,,,,,,Space,keypress(Space),,,,,---- -- comes -- ------ - ------- --- ----------<br>------------- ------ ------ ---- ---- ------- ----- -- ----<br>-------- ------- -- ---------- --- - --- ----- ----- ----<br>---- --- --- ----- --- ---- ---- ------- ----- ---- -------<br>--- --- -- ----- -- --- ---- -- --- ---- -- ------ ------<br>--- ----- -- ----,63202,63201.10000000894,62767.367,62770.20000000298,62784.037,63217.494,,2,comes
screen,html.Screen,0_2_0_1_3,2021-12-03T10:43:39.450Z,,,,,,,,,,,,,,,,53,,,,,,,,,,,,,,391.5060000000012,,response,,,99,,,,,,Space,keypress(Space),,,,,---- -- ----- to ------ - ------- --- ----------<br>------------- ------ ------ ---- ---- ------- ----- -- ----<br>-------- ------- -- ---------- --- - --- ----- ----- ----<br>---- --- --- ----- --- ---- ---- ------- ----- ---- -------<br>--- --- -- ----- -- --- ---- -- --- ---- -- ------ ------<br>--- ----- -- ----,63609.90000000596,63609,63200.824,63202.20000000298,63217.494,63617.603,,3,to
screen,html.Screen,0_2_0_1_4,2021-12-03T10:43:39.882Z,,,,,,,,,,,,,,,,53,,,,,,,,,,,,,,423.3969999999972,,response,,,99,,,,,,Space,keypress(Space),,,,,---- -- ----- -- having - ------- --- ----------<br>------------- ------ ------ ---- ---- ------- ----- -- ----<br>-------- ------- -- ---------- --- - --- ----- ----- ----<br>---- --- --- ----- --- ---- ---- ------- ----- ---- -------<br>--- --- -- ----- -- --- ---- -- --- ---- -- ------ ------<br>--- ----- -- ----,64042.20000000298,64041,63600.933,63610.5,63617.603,64051.056,,4,having
screen,html.Screen,0_2_0_1_5,2021-12-03T10:43:40.290Z,,,,,,,,,,,,,,,,53,,,,,,,,,,,,,,397.94400000000314,,response,,,99,,,,,,Space,keypress(Space),,,,,---- -- ----- -- ------ a ------- --- ----------<br>------------- ------ ------ ---- ---- ------- ----- -- ----<br>-------- ------- -- ---------- --- - --- ----- ----- ----<br>---- --- --- ----- --- ---- ---- ------- ----- ---- -------<br>--- --- -- ----- -- --- ---- -- --- ---- -- ------ ------<br>--- ----- -- ----,64450,64449,64034.386,64042.5,64051.056,64451.161,,5,a
screen,html.Screen,0_2_0_1_6,2021-12-03T10:43:40.770Z,,,,,,,,,,,,,,,,53,,,,,,,,,,,,,,477.7390000059604,,response,,,99,,,,,,Space,keypress(Space),,,,,---- -- ----- -- ------ - lasting --- ----------<br>------------- ------ ------ ---- ---- ------- ----- -- ----<br>-------- ------- -- ---------- --- - --- ----- ----- ----<br>---- --- --- ----- --- ---- ---- ------- ----- ---- -------<br>--- --- -- ----- -- --- ---- -- --- ---- -- ------ ------<br>--- ----- -- ----,64930,64928.90000000596,64434.491,64450.40000000596,64451.161,64934.579,,6,lasting
screen,html.Screen,0_2_0_1_7,2021-12-03T10:43:41.402Z,,,,,,,,,,,,,,,,53,,,,,,,,,,,,,,626.3210000059626,,response,,,99,,,,,,Space,keypress(Space),,,,,---- -- ----- -- ------ - ------- and ----------<br>------------- ------ ------ ---- ---- ------- ----- -- ----<br>-------- ------- -- ---------- --- - --- ----- ----- ----<br>---- --- --- ----- --- ---- ---- ------- ----- ---- -------<br>--- --- -- ----- -- --- ---- -- --- ---- -- ------ ------<br>--- ----- -- ----,65561.90000000596,65560.90000000596,64917.909,64930.20000000298,64934.579,65568.061,,7,and
screen,html.Screen,0_2_0_1_8,2021-12-03T10:43:42.106Z,,,,,,,,,,,,,,,,53,,,,,,,,,,,,,,696.9389999999985,,response,,,99,,,,,,Space,keypress(Space),,,,,---- -- ----- -- ------ - ------- --- fulfilling<br>------------- ------ ------ ---- ---- ------- ----- -- ----<br>-------- ------- -- ---------- --- - --- ----- ----- ----<br>---- --- --- ----- --- ---- ---- ------- ----- ---- -------<br>--- --- -- ----- -- --- ---- -- --- ---- -- ------ ------<br>--- ----- -- ----,66266,66265,65551.391,65562.20000000298,65568.061,66268.422,,8,fulfilling
screen,html.Screen,0_2_0_1_9,2021-12-03T10:43:42.882Z,,,,,,,,,,,,,,,,53,,,,,,,,,,,,,,772.4780000059545,,response,,,99,,,,,,Space,keypress(Space),,,,,"---- -- ----- -- ------ - ------- --- ----------<br>relationship, ------ ------ ---- ---- ------- ----- -- ----<br>-------- ------- -- ---------- --- - --- ----- ----- ----<br>---- --- --- ----- --- ---- ---- ------- ----- ---- -------<br>--- --- -- ----- -- --- ---- -- --- ---- -- ------ ------<br>--- ----- -- ----",67041.80000001192,67040.90000000596,66251.75,66266.30000001192,66268.422,67051.829,,9,"relationship,"
screen,html.Screen,0_2_0_1_10,2021-12-03T10:43:43.578Z,,,,,,,,,,,,,,,,53,,,,,,,,,,,,,,684.971000011923,,response,,,99,,,,,,Space,keypress(Space),,,,,---- -- ----- -- ------ - ------- --- ----------<br>------------- common ------ ---- ---- ------- ----- -- ----<br>-------- ------- -- ---------- --- - --- ----- ----- ----<br>---- --- --- ----- --- ---- ---- ------- ----- ---- -------<br>--- --- -- ----- -- --- ---- -- --- ---- -- ------ ------<br>--- ----- -- ----,67737.80000001192,67736.80000001192,67035.159,67042,67051.829,67751.997,,10,common
screen,html.Screen,0_2_0_1_11,2021-12-03T10:43:44.442Z,,,,,,,,,,,,,,,,53,,,,,,,,,,,,,,848.9030000059574,,response,,,99,,,,,,Space,keypress(Space),,,,,---- -- ----- -- ------ - ------- --- ----------<br>------------- ------ wisdom ---- ---- ------- ----- -- ----<br>-------- ------- -- ---------- --- - --- ----- ----- ----<br>---- --- --- ----- --- ---- ---- ------- ----- ---- -------<br>--- --- -- ----- -- --- ---- -- --- ---- -- ------ ------<br>--- ----- -- ----,68601.80000001192,68600.90000000596,67735.327,67738.10000000894,67751.997,68618.842,,11,wisdom
screen,html.Screen,0_2_0_1_12,2021-12-03T10:43:45.130Z,,,,,,,,,,,,,,,,53,,,,,,,,,,,,,,669.9580000119167,,response,,,99,,,,,,Space,keypress(Space),,,,,---- -- ----- -- ------ - ------- --- ----------<br>------------- ------ ------ says ---- ------- ----- -- ----<br>-------- ------- -- ---------- --- - --- ----- ----- ----<br>---- --- --- ----- --- ---- ---- ------- ----- ---- -------<br>--- --- -- ----- -- --- ---- -- --- ---- -- ------ ------<br>--- ----- -- ----,69289.60000000894,69288.80000001192,68602.172,68602,68618.842,69302.515,,12,says
screen,html.Screen,0_2_0_1_13,2021-12-03T10:43:45.857Z,,,,,,,,,,,,,,,,53,,,,,,,,,,,,,,714.2850000119215,,response,,,99,,,,,,Space,keypress(Space),,,,,---- -- ----- -- ------ - ------- --- ----------<br>------------- ------ ------ ---- that ------- ----- -- ----<br>-------- ------- -- ---------- --- - --- ----- ----- ----<br>---- --- --- ----- --- ---- ---- ------- ----- ---- -------<br>--- --- -- ----- -- --- ---- -- --- ---- -- ------ ------<br>--- ----- -- ----,70017.60000000894,70016.80000001192,69285.844,69289.90000000596,69302.515,70019.204,,13,that
screen,html.Screen,0_2_0_1_14,2021-12-03T10:43:46.713Z,,,,,,,,,,,,,,,,53,,,,,,,,,,,,,,853.4960000029823,,response,,,99,,,,,,Space,keypress(Space),,,,,---- -- ----- -- ------ - ------- --- ----------<br>------------- ------ ------ ---- ---- feeling ----- -- ----<br>-------- ------- -- ---------- --- - --- ----- ----- ----<br>---- --- --- ----- --- ---- ---- ------- ----- ---- -------<br>--- --- -- ----- -- --- ---- -- --- ---- -- ------ ------<br>--- ----- -- ----,70873.5,70872.70000000298,70002.534,70017.80000001192,70019.204,70886.256,,14,feeling
screen,html.Screen,0_2_0_1_15,2021-12-03T10:43:47.505Z,,,,,,,,,,,,,,,,53,,,,,,,,,,,,,,778.4440000029863,,response,,,99,,,,,,Space,keypress(Space),,,,,---- -- ----- -- ------ - ------- --- ----------<br>------------- ------ ------ ---- ---- ------- close -- ----<br>-------- ------- -- ---------- --- - --- ----- ----- ----<br>---- --- --- ----- --- ---- ---- ------- ----- ---- -------<br>--- --- -- ----- -- --- ---- -- --- ---- -- ------ ------<br>--- ----- -- ----,71665.5,71664.70000000298,70869.585,70873.80000001192,70886.256,71669.629,,15,close
screen,html.Screen,0_2_0_1_16,2021-12-03T10:43:48.065Z,,,,,,,,,,,,,,,,53,,,,,,,,,,,,,,554.9710000089399,,response,,,99,,,,,,Space,keypress(Space),,,,,---- -- ----- -- ------ - ------- --- ----------<br>------------- ------ ------ ---- ---- ------- ----- to ----<br>-------- ------- -- ---------- --- - --- ----- ----- ----<br>---- --- --- ----- --- ---- ---- ------- ----- ---- -------<br>--- --- -- ----- -- --- ---- -- --- ---- -- ------ ------<br>--- ----- -- ----,72225.5,72224.60000000894,71652.959,71665.80000001192,71669.629,72236.627,,16,to
screen,html.Screen,0_2_0_1_17,2021-12-03T10:43:48.714Z,,,,,,,,,,,,,,,,53,,,,,,,,,,,,,,636.6730000119278,,response,,,99,,,,,,Space,keypress(Space),,,,,---- -- ----- -- ------ - ------- --- ----------<br>------------- ------ ------ ---- ---- ------- ----- -- your<br>-------- ------- -- ---------- --- - --- ----- ----- ----<br>---- --- --- ----- --- ---- ---- ------- ----- ---- -------<br>--- --- -- ----- -- --- ---- -- --- ---- -- ------ ------<br>--- ----- -- ----,72874.20000000298,72873.30000001192,72219.956,72225.70000000298,72236.627,72886.723,,17,your
screen,html.Screen,0_2_0_1_18,2021-12-03T10:43:49.313Z,,,,,,,,,,,,,,,,53,,,,,,,,,,,,,,585.8770000089426,,response,,,99,,,,,,Space,keypress(Space),,,,,---- -- ----- -- ------ - ------- --- ----------<br>------------- ------ ------ ---- ---- ------- ----- -- ----<br>romantic ------- -- ---------- --- - --- ----- ----- ----<br>---- --- --- ----- --- ---- ---- ------- ----- ---- -------<br>--- --- -- ----- -- --- ---- -- --- ---- -- ------ ------<br>--- ----- -- ----,73473.30000001192,73472.60000000894,72870.053,72874.5,72886.723,73486.866,,18,romantic
screen,html.Screen,0_2_0_1_19,2021-12-03T10:43:49.945Z,,,,,,,,,,,,,,,,53,,,,,,,,,,,,,,617.5340000059659,,response,,,99,,,,,,Space,keypress(Space),,,,,---- -- ----- -- ------ - ------- --- ----------<br>------------- ------ ------ ---- ---- ------- ----- -- ----<br>-------- partner -- ---------- --- - --- ----- ----- ----<br>---- --- --- ----- --- ---- ---- ------- ----- ---- -------<br>--- --- -- ----- -- --- ---- -- --- ---- -- ------ ------<br>--- ----- -- ----,74105.30000001192,74104.40000000596,73470.196,73473.60000000894,73486.866,74120.384,,19,partner
screen,html.Screen,0_2_0_1_20,2021-12-03T10:43:50.401Z,,,,,,,,,,,,,,,,53,,,,,,,,,,,,,,440.2160000089352,,response,,,99,,,,,,Space,keypress(Space),,,,,---- -- ----- -- ------ - ------- --- ----------<br>------------- ------ ------ ---- ---- ------- ----- -- ----<br>-------- ------- is ---------- --- - --- ----- ----- ----<br>---- --- --- ----- --- ---- ---- ------- ----- ---- -------<br>--- --- -- ----- -- --- ---- -- --- ---- -- ------ ------<br>--- ----- -- ----,74561.30000001192,74560.60000000894,74103.714,74105.5,74120.384,74570.479,,20,is
screen,html.Screen,0_2_0_1_21,2021-12-03T10:43:51.321Z,,,,,,,,,,,,,,,,53,,,,,,,,,,,,,,910.1210000089341,,response,,,99,,,,,,Space,keypress(Space),,,,,---- -- ----- -- ------ - ------- --- ----------<br>------------- ------ ------ ---- ---- ------- ----- -- ----<br>-------- ------- -- paramount. --- - --- ----- ----- ----<br>---- --- --- ----- --- ---- ---- ------- ----- ---- -------<br>--- --- -- ----- -- --- ---- -- --- ---- -- ------ ------<br>--- ----- -- ----,75481.40000000596,75480.60000000894,74553.809,74561.60000000894,74570.479,75487.453,,21,paramount.
screen,html.Screen,0_2_0_1_22,2021-12-03T10:43:52.169Z,,,,,,,,,,,,,,,,53,,,,,,,,,,,,,,840.9470000059664,,response,,,99,,,,,,Space,keypress(Space),,,,,---- -- ----- -- ------ - ------- --- ----------<br>------------- ------ ------ ---- ---- ------- ----- -- ----<br>-------- ------- -- ---------- But - --- ----- ----- ----<br>---- --- --- ----- --- ---- ---- ------- ----- ---- -------<br>--- --- -- ----- -- --- ---- -- --- ---- -- ------ ------<br>--- ----- -- ----,76329.10000000894,76328.40000000596,75470.782,75481.90000000596,75487.453,76337.622,,22,But
screen,html.Screen,0_2_0_1_23,2021-12-03T10:43:52.673Z,,,,,,,,,,,,,,,,53,,,,,,,,,,,,,,494.77800000595744,,response,,,99,,,,,,Space,keypress(Space),,,,,---- -- ----- -- ------ - ------- --- ----------<br>------------- ------ ------ ---- ---- ------- ----- -- ----<br>-------- ------- -- ---------- --- a --- ----- ----- ----<br>---- --- --- ----- --- ---- ---- ------- ----- ---- -------<br>--- --- -- ----- -- --- ---- -- --- ---- -- ------ ------<br>--- ----- -- ----,76833.20000000298,76832.40000000596,76320.952,76329.40000000596,76337.622,76837.755,,23,a
screen,html.Screen,0_2_0_1_24,2021-12-03T10:43:53.177Z,,,,,,,,,,,,,,,,53,,,,,,,,,,,,,,498.5450000119163,,response,,,99,,,,,,Space,keypress(Space),,,,,---- -- ----- -- ------ - ------- --- ----------<br>------------- ------ ------ ---- ---- ------- ----- -- ----<br>-------- ------- -- ---------- --- - new ----- ----- ----<br>---- --- --- ----- --- ---- ---- ------- ----- ---- -------<br>--- --- -- ----- -- --- ---- -- --- ---- -- ------ ------<br>--- ----- -- ----,77337.20000000298,77336.30000001192,76821.085,76833.40000000596,76837.755,77354.629,,24,new
screen,html.Screen,0_2_0_1_25,2021-12-03T10:43:53.745Z,,,,,,,,,,,,,,,,53,,,,,,,,,,,,,,549.7710000059596,,response,,,99,,,,,,Space,keypress(Space),,,,,---- -- ----- -- ------ - ------- --- ----------<br>------------- ------ ------ ---- ---- ------- ----- -- ----<br>-------- ------- -- ---------- --- - --- study ----- ----<br>---- --- --- ----- --- ---- ---- ------- ----- ---- -------<br>--- --- -- ----- -- --- ---- -- --- ---- -- ------ ------<br>--- ----- -- ----,77905.10000000894,77904.40000000596,77337.958,77337.40000000596,77354.629,77921.388,,25,study
screen,html.Screen,0_2_0_1_26,2021-12-03T10:43:54.393Z,,,,,,,,,,,,,,,,53,,,,,,,,,,,,,,630.9120000119146,,response,,,99,,,,,,Space,keypress(Space),,,,,---- -- ----- -- ------ - ------- --- ----------<br>------------- ------ ------ ---- ---- ------- ----- -- ----<br>-------- ------- -- ---------- --- - --- ----- finds ----<br>---- --- --- ----- --- ---- ---- ------- ----- ---- -------<br>--- --- -- ----- -- --- ---- -- --- ---- -- ------ ------<br>--- ----- -- ----,78553.30000001192,78552.30000001192,77904.718,77905.30000001192,77921.388,78554.879,,26,finds
screen,html.Screen,0_2_0_1_27,2021-12-03T10:43:55.097Z,,,,,,,,,,,,,,,,53,,,,,,,,,,,,,,701.4210000119201,,response,,,99,,,,,,Space,keypress(Space),,,,,---- -- ----- -- ------ - ------- --- ----------<br>------------- ------ ------ ---- ---- ------- ----- -- ----<br>-------- ------- -- ---------- --- - --- ----- ----- that<br>---- --- --- ----- --- ---- ---- ------- ----- ---- -------<br>--- --- -- ----- -- --- ---- -- --- ---- -- ------ ------<br>--- ----- -- ----,79257,79256.30000001192,78538.209,78553.5,78554.879,79271.744,,27,that
screen,html.Screen,0_2_0_1_28,2021-12-03T10:43:55.545Z,,,,,,,,,,,,,,,,53,,,,,,,,,,,,,,432.4560000029742,,response,,,99,,,,,,Space,keypress(Space),,,,,---- -- ----- -- ------ - ------- --- ----------<br>------------- ------ ------ ---- ---- ------- ----- -- ----<br>-------- ------- -- ---------- --- - --- ----- ----- ----<br>it's --- --- ----- --- ---- ---- ------- ----- ---- -------<br>--- --- -- ----- -- --- ---- -- --- ---- -- ------ ------<br>--- ----- -- ----,79705.10000000894,79704.20000000298,79255.074,79257.30000001192,79271.744,79721.88,,28,it's
screen,html.Screen,0_2_0_1_29,2021-12-03T10:43:56.169Z,,,,,,,,,,,,,,,,53,,,,,,,,,,,,,,606.3200000029756,,response,,,99,,,,,,Space,keypress(Space),,,,,---- -- ----- -- ------ - ------- --- ----------<br>------------- ------ ------ ---- ---- ------- ----- -- ----<br>-------- ------- -- ---------- --- - --- ----- ----- ----<br>---- not --- ----- --- ---- ---- ------- ----- ---- -------<br>--- --- -- ----- -- --- ---- -- --- ---- -- ------ ------<br>--- ----- -- ----,80329,80328.20000000298,79705.21,79705.30000001192,79721.88,80338.701,,29,not
screen,html.Screen,0_2_0_1_30,2021-12-03T10:43:56.817Z,,,,,,,,,,,,,,,,53,,,,,,,,,,,,,,637.59900001192,,response,,,99,,,,,,Space,keypress(Space),,,,,---- -- ----- -- ------ - ------- --- ----------<br>------------- ------ ------ ---- ---- ------- ----- -- ----<br>-------- ------- -- ---------- --- - --- ----- ----- ----<br>---- --- how ----- --- ---- ---- ------- ----- ---- -------<br>--- --- -- ----- -- --- ---- -- --- ---- -- ------ ------<br>--- ----- -- ----,80977.20000000298,80976.30000001192,80322.031,80329.20000000298,80338.701,80988.946,,30,how
screen,html.Screen,0_2_0_1_31,2021-12-03T10:43:57.449Z,,,,,,,,,,,,,,,,53,,,,,,,,,,,,,,619.254000002984,,response,,,99,,,,,,Space,keypress(Space),,,,,---- -- ----- -- ------ - ------- --- ----------<br>------------- ------ ------ ---- ---- ------- ----- -- ----<br>-------- ------- -- ---------- --- - --- ----- ----- ----<br>---- --- --- close --- ---- ---- ------- ----- ---- -------<br>--- --- -- ----- -- --- ---- -- --- ---- -- ------ ------<br>--- ----- -- ----,81609.20000000298,81608.20000000298,80972.275,80977.40000000596,80988.946,81622.369,,31,close
screen,html.Screen,0_2_0_1_32,2021-12-03T10:43:57.961Z,,,,,,,,,,,,,,,,53,,,,,,,,,,,,,,497.8310000029742,,response,,,99,,,,,,Space,keypress(Space),,,,,---- -- ----- -- ------ - ------- --- ----------<br>------------- ------ ------ ---- ---- ------- ----- -- ----<br>-------- ------- -- ---------- --- - --- ----- ----- ----<br>---- --- --- ----- you ---- ---- ------- ----- ---- -------<br>--- --- -- ----- -- --- ---- -- --- ---- -- ------ ------<br>--- ----- -- ----,82120.90000000596,82120.20000000298,81605.699,81609.30000001192,81622.369,82122.594,,32,you
screen,html.Screen,0_2_0_1_33,2021-12-03T10:43:58.457Z,,,,,,,,,,,,,,,,53,,,,,,,,,,,,,,493.6060000029829,,response,,,99,,,,,,Space,keypress(Space),,,,,---- -- ----- -- ------ - ------- --- ----------<br>------------- ------ ------ ---- ---- ------- ----- -- ----<br>-------- ------- -- ---------- --- - --- ----- ----- ----<br>---- --- --- ----- --- feel ---- ------- ----- ---- -------<br>--- --- -- ----- -- --- ---- -- --- ---- -- ------ ------<br>--- ----- -- ----,82616.90000000596,82616.20000000298,82105.923,82121.20000000298,82122.594,82622.619,,33,feel
screen,html.Screen,0_2_0_1_34,2021-12-03T10:43:59.193Z,,,,,,,,,,,,,,,,53,,,,,,,,,,,,,,729.9810000089346,,response,,,99,,,,,,Space,keypress(Space),,,,,---- -- ----- -- ------ - ------- --- ----------<br>------------- ------ ------ ---- ---- ------- ----- -- ----<br>-------- ------- -- ---------- --- - --- ----- ----- ----<br>---- --- --- ----- --- ---- that ------- ----- ---- -------<br>--- --- -- ----- -- --- ---- -- --- ---- -- ------ ------<br>--- ----- -- ----,83353.30000001192,83352.60000000894,82605.949,82617.10000000894,82622.619,83356.105,,34,that
screen,html.Screen,0_2_0_1_35,2021-12-03T10:43:59.681Z,,,,,,,,,,,,,,,,53,,,,,,,,,,,,,,483.99500000894477,,response,,,99,,,,,,Space,keypress(Space),,,,,---- -- ----- -- ------ - ------- --- ----------<br>------------- ------ ------ ---- ---- ------- ----- -- ----<br>-------- ------- -- ---------- --- - --- ----- ----- ----<br>---- --- --- ----- --- ---- ---- matters ----- ---- -------<br>--- --- -- ----- -- --- ---- -- --- ---- -- ------ ------<br>--- ----- -- ----,83840.90000000596,83840.10000000894,83339.435,83353.5,83356.105,83856.353,,35,matters
screen,html.Screen,0_2_0_1_36,2021-12-03T10:44:00.393Z,,,,,,,,,,,,,,,,53,,,,,,,,,,,,,,695.6469999999972,,response,,,99,,,,,,Space,keypress(Space),,,,,"---- -- ----- -- ------ - ------- --- ----------<br>------------- ------ ------ ---- ---- ------- ----- -- ----<br>-------- ------- -- ---------- --- - --- ----- ----- ----<br>---- --- --- ----- --- ---- ---- ------- most, ---- -------<br>--- --- -- ----- -- --- ---- -- --- ---- -- ------ ------<br>--- ----- -- ----",84553.10000000894,84552,83839.682,83841.10000000894,83856.353,84556.537,,36,"most,"
screen,html.Screen,0_2_0_1_37,2021-12-03T10:44:00.969Z,,,,,,,,,,,,,,,,53,,,,,,,,,,,,,,571.5630000089441,,response,,,99,,,,,,Space,keypress(Space),,,,,---- -- ----- -- ------ - ------- --- ----------<br>------------- ------ ------ ---- ---- ------- ----- -- ----<br>-------- ------- -- ---------- --- - --- ----- ----- ----<br>---- --- --- ----- --- ---- ---- ------- ----- it's -------<br>--- --- -- ----- -- --- ---- -- --- ---- -- ------ ------<br>--- ----- -- ----,85128.80000001192,85128.10000000894,84539.866,84553.30000001192,84556.537,85139.87,,37,it's
screen,html.Screen,0_2_0_1_38,2021-12-03T10:44:01.849Z,,,,,,,,,,,,,,,,53,,,,,,,,,,,,,,868.1300000000047,,response,,,99,,,,,,Space,keypress(Space),,,,,---- -- ----- -- ------ - ------- --- ----------<br>------------- ------ ------ ---- ---- ------- ----- -- ----<br>-------- ------- -- ---------- --- - --- ----- ----- ----<br>---- --- --- ----- --- ---- ---- ------- ----- ---- whether<br>--- --- -- ----- -- --- ---- -- --- ---- -- ------ ------<br>--- ----- -- ----,86008.70000000298,86008,85123.201,85129,85139.87,86023.6,,38,whether
screen,html.Screen,0_2_0_1_39,2021-12-03T10:44:02.409Z,,,,,,,,,,,,,,,,53,,,,,,,,,,,,,,544.3000000059546,,response,,,99,,,,,,Space,keypress(Space),,,,,---- -- ----- -- ------ - ------- --- ----------<br>------------- ------ ------ ---- ---- ------- ----- -- ----<br>-------- ------- -- ---------- --- - --- ----- ----- ----<br>---- --- --- ----- --- ---- ---- ------- ----- ---- -------<br>you --- -- ----- -- --- ---- -- --- ---- -- ------ ------<br>--- ----- -- ----,86568.80000001192,86567.90000000596,86006.929,86008.90000000596,86023.6,86573.681,,39,you
screen,html.Screen,0_2_0_1_40,2021-12-03T10:44:02.945Z,,,,,,,,,,,,,,,,53,,,,,,,,,,,,,,530.2190000059636,,response,,,99,,,,,,Space,keypress(Space),,,,,---- -- ----- -- ------ - ------- --- ----------<br>------------- ------ ------ ---- ---- ------- ----- -- ----<br>-------- ------- -- ---------- --- - --- ----- ----- ----<br>---- --- --- ----- --- ---- ---- ------- ----- ---- -------<br>--- are -- ----- -- --- ---- -- --- ---- -- ------ ------<br>--- ----- -- ----,87104.80000001192,87103.90000000596,86557.011,86569,86573.681,87107.099,,40,are
screen,html.Screen,0_2_0_1_41,2021-12-03T10:44:03.457Z,,,,,,,,,,,,,,,,53,,,,,,,,,,,,,,508.8010000059585,,response,,,99,,,,,,Space,keypress(Space),,,,,---- -- ----- -- ------ - ------- --- ----------<br>------------- ------ ------ ---- ---- ------- ----- -- ----<br>-------- ------- -- ---------- --- - --- ----- ----- ----<br>---- --- --- ----- --- ---- ---- ------- ----- ---- -------<br>--- --- as ----- -- --- ---- -- --- ---- -- ------ ------<br>--- ----- -- ----,87616.60000000894,87615.90000000596,87090.429,87105,87107.099,87624.069,,41,as
screen,html.Screen,0_2_0_1_42,2021-12-03T10:44:03.929Z,,,,,,,,,,,,,,,,53,,,,,,,,,,,,,,463.8310000059573,,response,,,99,,,,,,Space,keypress(Space),,,,,---- -- ----- -- ------ - ------- --- ----------<br>------------- ------ ------ ---- ---- ------- ----- -- ----<br>-------- ------- -- ---------- --- - --- ----- ----- ----<br>---- --- --- ----- --- ---- ---- ------- ----- ---- -------<br>--- --- -- close -- --- ---- -- --- ---- -- ------ ------<br>--- ----- -- ----,88088.80000001192,88087.90000000596,87607.397,87616.90000000596,87624.069,88090.77,,42,close
screen,html.Screen,0_2_0_1_43,2021-12-03T10:44:04.425Z,,,,,,,,,,,,,,,,53,,,,,,,,,,,,,,493.1300000059564,,response,,,99,,,,,,Space,keypress(Space),,,,,---- -- ----- -- ------ - ------- --- ----------<br>------------- ------ ------ ---- ---- ------- ----- -- ----<br>-------- ------- -- ---------- --- - --- ----- ----- ----<br>---- --- --- ----- --- ---- ---- ------- ----- ---- -------<br>--- --- -- ----- as --- ---- -- --- ---- -- ------ ------<br>--- ----- -- ----,88584.70000000298,88583.90000000596,88074.1,88089.10000000894,88090.77,88590.906,,43,as
screen,html.Screen,0_2_0_1_44,2021-12-03T10:44:04.921Z,,,,,,,,,,,,,,,,53,,,,,,,,,,,,,,488.9940000059578,,response,,,99,,,,,,Space,keypress(Space),,,,,---- -- ----- -- ------ - ------- --- ----------<br>------------- ------ ------ ---- ---- ------- ----- -- ----<br>-------- ------- -- ---------- --- - --- ----- ----- ----<br>---- --- --- ----- --- ---- ---- ------- ----- ---- -------<br>--- --- -- ----- -- you ---- -- --- ---- -- ------ ------<br>--- ----- -- ----,89080.70000000298,89079.90000000596,88574.236,88584.90000000596,88590.906,89091.039,,44,you
screen,html.Screen,0_2_0_1_45,2021-12-03T10:44:05.440Z,,,,,,,,,,,,,,,,53,,,,,,,,,,,,,,508.7610000119166,,response,,,99,,,,,,Space,keypress(Space),,,,,---- -- ----- -- ------ - ------- --- ----------<br>------------- ------ ------ ---- ---- ------- ----- -- ----<br>-------- ------- -- ---------- --- - --- ----- ----- ----<br>---- --- --- ----- --- ---- ---- ------- ----- ---- -------<br>--- --- -- ----- -- --- want -- --- ---- -- ------ ------<br>--- ----- -- ----,89600.5,89599.80000001192,89074.369,89080.90000000596,89091.039,89607.841,,45,want
screen,html.Screen,0_2_0_1_46,2021-12-03T10:44:05.936Z,,,,,,,,,,,,,,,,53,,,,,,,,,,,,,,487.9590000119206,,response,,,99,,,,,,Space,keypress(Space),,,,,---- -- ----- -- ------ - ------- --- ----------<br>------------- ------ ------ ---- ---- ------- ----- -- ----<br>-------- ------- -- ---------- --- - --- ----- ----- ----<br>---- --- --- ----- --- ---- ---- ------- ----- ---- -------<br>--- --- -- ----- -- --- ---- to --- ---- -- ------ ------<br>--- ----- -- ----,90096.40000000596,90095.80000001192,89591.171,89600.80000001192,89607.841,90107.973,,46,to
screen,html.Screen,0_2_0_1_47,2021-12-03T10:44:06.393Z,,,,,,,,,,,,,,,,53,,,,,,,,,,,,,,443.8270000119228,,response,,,99,,,,,,Space,keypress(Space),,,,,"---- -- ----- -- ------ - ------- --- ----------<br>------------- ------ ------ ---- ---- ------- ----- -- ----<br>-------- ------- -- ---------- --- - --- ----- ----- ----<br>---- --- --- ----- --- ---- ---- ------- ----- ---- -------<br>--- --- -- ----- -- --- ---- -- be, ---- -- ------ ------<br>--- ----- -- ----",90552.80000001192,90551.80000001192,90091.303,90096.60000000894,90107.973,90558.094,,47,"be,"
screen,html.Screen,0_2_0_1_48,2021-12-03T10:44:06.952Z,,,,,,,,,,,,,,,,53,,,,,,,,,,,,,,553.7060000119236,,response,,,99,,,,,,Space,keypress(Space),,,,,---- -- ----- -- ------ - ------- --- ----------<br>------------- ------ ------ ---- ---- ------- ----- -- ----<br>-------- ------- -- ---------- --- - --- ----- ----- ----<br>---- --- --- ----- --- ---- ---- ------- ----- ---- -------<br>--- --- -- ----- -- --- ---- -- --- even -- ------ ------<br>--- ----- -- ----,91112.5,91111.80000001192,90541.424,90553,90558.094,91124.904,,48,even
screen,html.Screen,0_2_0_1_49,2021-12-03T10:44:07.552Z,,,,,,,,,,,,,,,,53,,,,,,,,,,,,,,586.7960000029852,,response,,,99,,,,,,Space,keypress(Space),,,,,---- -- ----- -- ------ - ------- --- ----------<br>------------- ------ ------ ---- ---- ------- ----- -- ----<br>-------- ------- -- ---------- --- - --- ----- ----- ----<br>---- --- --- ----- --- ---- ---- ------- ----- ---- -------<br>--- --- -- ----- -- --- ---- -- --- ---- if ------ ------<br>--- ----- -- ----,91712.5,91711.70000000298,91108.234,91112.80000001192,91124.904,91725.056,,49,if
screen,html.Screen,0_2_0_1_50,2021-12-03T10:44:08.232Z,,,,,,,,,,,,,,,,53,,,,,,,,,,,,,,666.5440000089438,,response,,,99,,,,,,Space,keypress(Space),,,,,---- -- ----- -- ------ - ------- --- ----------<br>------------- ------ ------ ---- ---- ------- ----- -- ----<br>-------- ------- -- ---------- --- - --- ----- ----- ----<br>---- --- --- ----- --- ---- ---- ------- ----- ---- -------<br>--- --- -- ----- -- --- ---- -- --- ---- -- that's ------<br>--- ----- -- ----,92392.5,92391.60000000894,91708.386,91712.70000000298,91725.056,92408.628,,50,that's
screen,html.Screen,0_2_0_1_51,2021-12-03T10:44:08.864Z,,,,,,,,,,,,,,,,53,,,,,,,,,,,,,,614.872000000003,,response,,,99,,,,,,Space,keypress(Space),,,,,---- -- ----- -- ------ - ------- --- ----------<br>------------- ------ ------ ---- ---- ------- ----- -- ----<br>-------- ------- -- ---------- --- - --- ----- ----- ----<br>---- --- --- ----- --- ---- ---- ------- ----- ---- -------<br>--- --- -- ----- -- --- ---- -- --- ---- -- ------ really<br>--- ----- -- ----,93024.40000000596,93023.5,92391.957,92392.80000001192,92408.628,93025.393,,51,really
screen,html.Screen,0_2_0_1_52,2021-12-03T10:44:09.657Z,,,,,,,,,,,,,,,,53,,,,,,,,,,,,,,790.6070000000036,,response,,,99,,,,,,Space,keypress(Space),,,,,---- -- ----- -- ------ - ------- --- ----------<br>------------- ------ ------ ---- ---- ------- ----- -- ----<br>-------- ------- -- ---------- --- - --- ----- ----- ----<br>---- --- --- ----- --- ---- ---- ------- ----- ---- -------<br>--- --- -- ----- -- --- ---- -- --- ---- -- ------ ------<br>not ----- -- ----,93816.80000001192,93816,93008.723,93024.60000000894,93025.393,93825.612,,52,not
screen,html.Screen,0_2_0_1_53,2021-12-03T10:44:10.336Z,,,,,,,,,,,,,,,,53,,,,,,,,,,,,,,669.988000008947,,response,,,99,,,,,,Space,keypress(Space),,,,,---- -- ----- -- ------ - ------- --- ----------<br>------------- ------ ------ ---- ---- ------- ----- -- ----<br>-------- ------- -- ---------- --- - --- ----- ----- ----<br>---- --- --- ----- --- ---- ---- ------- ----- ---- -------<br>--- --- -- ----- -- --- ---- -- --- ---- -- ------ ------<br>--- close -- ----,94496.30000001192,94495.60000000894,93808.942,93817,93825.612,94509.129,,53,close
screen,html.Screen,0_2_0_1_54,2021-12-03T10:44:10.808Z,,,,,,,,,,,,,,,,53,,,,,,,,,,,,,,458.4710000089399,,response,,,99,,,,,,Space,keypress(Space),,,,,---- -- ----- -- ------ - ------- --- ----------<br>------------- ------ ------ ---- ---- ------- ----- -- ----<br>-------- ------- -- ---------- --- - --- ----- ----- ----<br>---- --- --- ----- --- ---- ---- ------- ----- ---- -------<br>--- --- -- ----- -- --- ---- -- --- ---- -- ------ ------<br>--- ----- at ----,94968.40000000596,94967.60000000894,94492.459,94496.60000000894,94509.129,94975.94,,54,at
screen,html.Screen,0_2_0_1_55,2021-12-03T10:44:11.408Z,,,,,,,,,,,,,,,,53,,,,,,,,,,,,,,591.6600000089384,,response,,,99,,,,,,Space,keypress(Space),,,,,---- -- ----- -- ------ - ------- --- ----------<br>------------- ------ ------ ---- ---- ------- ----- -- ----<br>-------- ------- -- ---------- --- - --- ----- ----- ----<br>---- --- --- ----- --- ---- ---- ------- ----- ---- -------<br>--- --- -- ----- -- --- ---- -- --- ---- -- ------ ------<br>--- ----- -- all.,95568.30000001192,95567.60000000894,94959.27,94968.60000000894,94975.94,95576.074,,55,all.
Item 99,flow.Loop,0_2_0_1,2021-12-03T10:44:11.413Z,,,,,,,,,,,,,,,,,,,,,,,,,,,,,,34250.760000008944,,completion,,,,B,,,,,,,,,,silence,,95572.70000000298,95567.60000000894,61300.17,61305.70000000298,61316.84,95576.074,,,
Question 1,html.Screen,0_2_0_2,2021-12-03T10:44:30.032Z,,,,,,,,,,,,,,,,,,,,,,,,,,,false,FALSE,,18614.426000000007,,response,,,99,B,,,,,TRUE,click #choice-1,,,,silence,,114192,114190.5,95559.404,95573,95576.074,114198.292,,,
Question 2,html.Screen,0_2_0_3,2021-12-03T10:44:39.490Z,,,,,,,,,,,,,,,,,,,,,,,,,,,true,TRUE,,9447.80800000894,,response,,,99,B,,,,,TRUE,click #choice-1,,,,silence,,123647.40000000596,123646.10000000894,114181.608,114192.40000000596,114198.292,123650.25,,,
Item 99,flow.Sequence,0_2_0,2021-12-03T10:44:39.491Z,,,,,,,,,,,,,,,,,,,,,,,,,,,,,,72331.88300000894,,completion,,,,,,,,,,,,,,,,123648,123646.10000000894,51297.547,51299.80000001192,51314.217,123650.25,,,
Holding screen,html.Screen,0_2_1_0,2021-12-03T10:44:49.480Z,,,,,,,,,,,,,,,,,,,,,,,,,,,,,,10002.52900000001,,timeout,,,,,,,,,,,,,,,,133637.20000000298,133636.109,123633.579,123648.5,123650.25,133652.779,,,
screen,html.Screen,0_2_1_1_0,2021-12-03T10:44:50.482Z,,,,,,,,,,,,,,,,54,,,,,,,,,,,,,,985.4210000029707,,response,,,100,,,,,,Space,keypress(Space),,,,,At --- ---- --- ------ ----- ------- ---- -- --- ------- --<br>------- ---------- ------ -- ----- -- ----- -- ---- ------<br>--- ----- --- --- ------ -------- ----- --- ------ ----- --<br>----- ----- ---------- --- --- ------ ------ ---- -- ------<br>------- --- ------ ----- --- ---- ------- -- ---- --- --<br>------- ------,134639.20000000298,134638.20000000298,133636.109,133637.5,133652.779,134653.297,,0,At
screen,html.Screen,0_2_1_1_1,2021-12-03T10:44:51.057Z,,,,,,,,,,,,,,,,54,,,,,,,,,,,,,,560.4030000029888,,response,,,100,,,,,,Space,keypress(Space),,,,,-- the ---- --- ------ ----- ------- ---- -- --- ------- --<br>------- ---------- ------ -- ----- -- ----- -- ---- ------<br>--- ----- --- --- ------ -------- ----- --- ------ ----- --<br>----- ----- ---------- --- --- ------ ------ ---- -- ------<br>------- --- ------ ----- --- ---- ------- -- ---- --- --<br>------- ------,135214.60000000894,135213.70000000298,134636.625,134639.5,134653.297,135219.923,,1,the
screen,html.Screen,0_2_1_1_2,2021-12-03T10:44:51.681Z,,,,,,,,,,,,,,,,54,,,,,,,,,,,,,,617.6770000089309,,response,,,100,,,,,,Space,keypress(Space),,,,,-- --- time --- ------ ----- ------- ---- -- --- ------- --<br>------- ---------- ------ -- ----- -- ----- -- ---- ------<br>--- ----- --- --- ------ -------- ----- --- ------ ----- --<br>----- ----- ---------- --- --- ------ ------ ---- -- ------<br>------- --- ------ ----- --- ---- ------- -- ---- --- --<br>------- ------,135838.40000000596,135837.60000000894,135203.253,135214.80000001192,135219.923,135853.503,,2,time
screen,html.Screen,0_2_1_1_3,2021-12-03T10:44:52.233Z,,,,,,,,,,,,,,,,54,,,,,,,,,,,,,,536.0970000089437,,response,,,100,,,,,,Space,keypress(Space),,,,,-- --- ---- the ------ ----- ------- ---- -- --- ------- --<br>------- ---------- ------ -- ----- -- ----- -- ---- ------<br>--- ----- --- --- ------ -------- ----- --- ------ ----- --<br>----- ----- ---------- --- --- ------ ------ ---- -- ------<br>------- --- ------ ----- --- ---- ------- -- ---- --- --<br>------- ------,136390.60000000894,136389.60000000894,135836.832,135838.70000000298,135853.503,136403.664,,3,the
screen,html.Screen,0_2_1_1_4,2021-12-03T10:44:52.802Z,,,,,,,,,,,,,,,,54,,,,,,,,,,,,,,553.9360000089509,,response,,,100,,,,,,Space,keypress(Space),,,,,-- --- ---- --- French ----- ------- ---- -- --- ------- --<br>------- ---------- ------ -- ----- -- ----- -- ---- ------<br>--- ----- --- --- ------ -------- ----- --- ------ ----- --<br>----- ----- ---------- --- --- ------ ------ ---- -- ------<br>------- --- ------ ----- --- ---- ------- -- ---- --- --<br>------- ------,136959.80000001192,136957.60000000894,136386.993,136390.80000001192,136403.664,136970.42,,4,French
screen,html.Screen,0_2_1_1_5,2021-12-03T10:44:53.361Z,,,,,,,,,,,,,,,,54,,,,,,,,,,,,,,547.1800000089279,,response,,,100,,,,,,Space,keypress(Space),,,,,-- --- ---- --- ------ crown ------- ---- -- --- ------- --<br>------- ---------- ------ -- ----- -- ----- -- ---- ------<br>--- ----- --- --- ------ -------- ----- --- ------ ----- --<br>----- ----- ---------- --- --- ------ ------ ---- -- ------<br>------- --- ------ ----- --- ---- ------- -- ---- --- --<br>------- ------,137518.40000000596,137517.60000000894,136953.75,136959.90000000596,136970.42,137520.583,,5,crown
screen,html.Screen,0_2_1_1_6,2021-12-03T10:44:54.401Z,,,,,,,,,,,,,,,,54,,,,,,,,,,,,,,1037.0170000089274,,response,,,100,,,,,,Space,keypress(Space),,,,,-- --- ---- --- ------ ----- secured ---- -- --- ------- --<br>------- ---------- ------ -- ----- -- ----- -- ---- ------<br>--- ----- --- --- ------ -------- ----- --- ------ ----- --<br>----- ----- ---------- --- --- ------ ------ ---- -- ------<br>------- --- ------ ----- --- ---- ------- -- ---- --- --<br>------- ------,138558.30000001192,138557.60000000894,137503.913,137518.70000000298,137520.583,138570.793,,6,secured
screen,html.Screen,0_2_1_1_7,2021-12-03T10:44:55.033Z,,,,,,,,,,,,,,,,54,,,,,,,,,,,,,,618.8070000089356,,response,,,100,,,,,,Space,keypress(Space),,,,,-- --- ---- --- ------ ----- ------- much -- --- ------- --<br>------- ---------- ------ -- ----- -- ----- -- ---- ------<br>--- ----- --- --- ------ -------- ----- --- ------ ----- --<br>----- ----- ---------- --- --- ------ ------ ---- -- ------<br>------- --- ------ ----- --- ---- ------- -- ---- --- --<br>------- ------,139190.40000000596,139189.60000000894,138554.123,138558.70000000298,138570.793,139204.405,,7,much
screen,html.Screen,0_2_1_1_8,2021-12-03T10:44:55.737Z,,,,,,,,,,,,,,,,54,,,,,,,,,,,,,,689.0950000000012,,response,,,100,,,,,,Space,keypress(Space),,,,,-- --- ---- --- ------ ----- ------- ---- of --- ------- --<br>------- ---------- ------ -- ----- -- ----- -- ---- ------<br>--- ----- --- --- ------ -------- ----- --- ------ ----- --<br>----- ----- ---------- --- --- ------ ------ ---- -- ------<br>------- --- ------ ----- --- ---- ------- -- ---- --- --<br>------- ------,139894.30000001192,139893.5,139187.734,139190.60000000894,139204.405,139904.45,,8,of
screen,html.Screen,0_2_1_1_9,2021-12-03T10:44:56.217Z,,,,,,,,,,,,,,,,54,,,,,,,,,,,,,,469.04999999998836,,response,,,100,,,,,,Space,keypress(Space),,,,,-- --- ---- --- ------ ----- ------- ---- -- its ------- --<br>------- ---------- ------ -- ----- -- ----- -- ---- ------<br>--- ----- --- --- ------ -------- ----- --- ------ ----- --<br>----- ----- ---------- --- --- ------ ------ ---- -- ------<br>------- --- ------ ----- --- ---- ------- -- ---- --- --<br>------- ------,140374.20000000298,140373.5,139887.78,139894.5,139904.45,140388.106,,9,its
screen,html.Screen,0_2_1_1_10,2021-12-03T10:44:56.817Z,,,,,,,,,,,,,,,,54,,,,,,,,,,,,,,585.3940000000002,,response,,,100,,,,,,Space,keypress(Space),,,,,-- --- ---- --- ------ ----- ------- ---- -- --- revenue --<br>------- ---------- ------ -- ----- -- ----- -- ---- ------<br>--- ----- --- --- ------ -------- ----- --- ------ ----- --<br>----- ----- ---------- --- --- ------ ------ ---- -- ------<br>------- --- ------ ----- --- ---- ------- -- ---- --- --<br>------- ------,140974.30000001192,140973.5,140371.434,140374.60000000894,140388.106,140988.153,,10,revenue
screen,html.Screen,0_2_1_1_11,2021-12-03T10:44:57.537Z,,,,,,,,,,,,,,,,54,,,,,,,,,,,,,,705.2470000059693,,response,,,100,,,,,,Space,keypress(Space),,,,,-- --- ---- --- ------ ----- ------- ---- -- --- ------- by<br>------- ---------- ------ -- ----- -- ----- -- ---- ------<br>--- ----- --- --- ------ -------- ----- --- ------ ----- --<br>----- ----- ---------- --- --- ------ ------ ---- -- ------<br>------- --- ------ ----- --- ---- ------- -- ---- --- --<br>------- ------,141694.20000000298,141693.40000000596,140971.483,140974.40000000596,140988.153,141705.061,,11,by
screen,html.Screen,0_2_1_1_12,2021-12-03T10:44:58.353Z,,,,,,,,,,,,,,,,54,,,,,,,,,,,,,,804.239000011934,,response,,,100,,,,,,Space,keypress(Space),,,,,-- --- ---- --- ------ ----- ------- ---- -- --- ------- --<br>issuing ---------- ------ -- ----- -- ----- -- ---- ------<br>--- ----- --- --- ------ -------- ----- --- ------ ----- --<br>----- ----- ---------- --- --- ------ ------ ---- -- ------<br>------- --- ------ ----- --- ---- ------- -- ---- --- --<br>------- ------,142510.20000000298,142509.30000001192,141688.39,141694.40000000596,141705.061,142521.883,,12,issuing
screen,html.Screen,0_2_1_1_13,2021-12-03T10:44:59.001Z,,,,,,,,,,,,,,,,54,,,,,,,,,,,,,,635.3170000029786,,response,,,100,,,,,,Space,keypress(Space),,,,,-- --- ---- --- ------ ----- ------- ---- -- --- ------- --<br>------- government ------ -- ----- -- ----- -- ---- ------<br>--- ----- --- --- ------ -------- ----- --- ------ ----- --<br>----- ----- ---------- --- --- ------ ------ ---- -- ------<br>------- --- ------ ----- --- ---- ------- -- ---- --- --<br>------- ------,143158.20000000298,143157.20000000298,142505.213,142510.40000000596,142521.883,143172.047,,13,government
screen,html.Screen,0_2_1_1_14,2021-12-03T10:44:59.833Z,,,,,,,,,,,,,,,,54,,,,,,,,,,,,,,817.3530000059691,,response,,,100,,,,,,Space,keypress(Space),,,,,-- --- ---- --- ------ ----- ------- ---- -- --- ------- --<br>------- ---------- bonds. -- ----- -- ----- -- ---- ------<br>--- ----- --- --- ------ -------- ----- --- ------ ----- --<br>----- ----- ---------- --- --- ------ ------ ---- -- ------<br>------- --- ------ ----- --- ---- ------- -- ---- --- --<br>------- ------,143990.10000000894,143989.40000000596,143155.377,143158.40000000596,143172.047,144005.602,,14,bonds.
screen,html.Screen,0_2_1_1_15,2021-12-03T10:45:00.977Z,,,,,,,,,,,,,,,,54,,,,,,,,,,,,,,1128.1980000119074,,response,,,100,,,,,,Space,keypress(Space),,,,,-- --- ---- --- ------ ----- ------- ---- -- --- ------- --<br>------- ---------- ------ In ----- -- ----- -- ---- ------<br>--- ----- --- --- ------ -------- ----- --- ------ ----- --<br>----- ----- ---------- --- --- ------ ------ ---- -- ------<br>------- --- ------ ----- --- ---- ------- -- ---- --- --<br>------- ------,145134.60000000894,145133.80000001192,143988.932,143990.40000000596,144005.602,145139.22,,15,In
screen,html.Screen,0_2_1_1_16,2021-12-03T10:45:02.897Z,,,,,,,,,,,,,,,,54,,,,,,,,,,,,,,1913.8800000089395,,response,,,100,,,,,,Space,keypress(Space),,,,,"-- --- ---- --- ------ ----- ------- ---- -- --- ------- --<br>------- ---------- ------ -- 1727, -- ----- -- ---- ------<br>--- ----- --- --- ------ -------- ----- --- ------ ----- --<br>----- ----- ---------- --- --- ------ ------ ---- -- ------<br>------- --- ------ ----- --- ---- ------- -- ---- --- --<br>------- ------",147053.90000000596,147053.10000000894,145122.55,145134.80000001192,145139.22,147056.344,,16,"1727,"
screen,html.Screen,0_2_1_1_17,2021-12-03T10:45:04.129Z,,,,,,,,,,,,,,,,54,,,,,,,,,,,,,,1228.7560000089288,,response,,,100,,,,,,Space,keypress(Space),,,,,-- --- ---- --- ------ ----- ------- ---- -- --- ------- --<br>------- ---------- ------ -- ----- in ----- -- ---- ------<br>--- ----- --- --- ------ -------- ----- --- ------ ----- --<br>----- ----- ---------- --- --- ------ ------ ---- -- ------<br>------- --- ------ ----- --- ---- ------- -- ---- --- --<br>------- ------,148286.10000000894,148285.10000000894,147039.674,147054.10000000894,147056.344,148289.932,,17,in
screen,html.Screen,0_2_1_1_18,2021-12-03T10:45:04.912Z,,,,,,,,,,,,,,,,54,,,,,,,,,,,,,,779.0679999999993,,response,,,100,,,,,,Space,keypress(Space),,,,,-- --- ---- --- ------ ----- ------- ---- -- --- ------- --<br>------- ---------- ------ -- ----- -- order -- ---- ------<br>--- ----- --- --- ------ -------- ----- --- ------ ----- --<br>----- ----- ---------- --- --- ------ ------ ---- -- ------<br>------- --- ------ ----- --- ---- ------- -- ---- --- --<br>------- ------,149069.80000001192,149069,148273.262,148286.30000001192,148289.932,149073.686,,18,order
screen,html.Screen,0_2_1_1_19,2021-12-03T10:45:05.520Z,,,,,,,,,,,,,,,,54,,,,,,,,,,,,,,603.314000000013,,response,,,100,,,,,,Space,keypress(Space),,,,,-- --- ---- --- ------ ----- ------- ---- -- --- ------- --<br>------- ---------- ------ -- ----- -- ----- to ---- ------<br>--- ----- --- --- ------ -------- ----- --- ------ ----- --<br>----- ----- ---------- --- --- ------ ------ ---- -- ------<br>------- --- ------ ----- --- ---- ------- -- ---- --- --<br>------- ------,149677.80000001192,149677,149057.015,149070,149073.686,149690.473,,19,to
screen,html.Screen,0_2_1_1_20,2021-12-03T10:45:06.080Z,,,,,,,,,,,,,,,,54,,,,,,,,,,,,,,546.5270000000019,,response,,,100,,,,,,Space,keypress(Space),,,,,-- --- ---- --- ------ ----- ------- ---- -- --- ------- --<br>------- ---------- ------ -- ----- -- ----- -- save ------<br>--- ----- --- --- ------ -------- ----- --- ------ ----- --<br>----- ----- ---------- --- --- ------ ------ ---- -- ------<br>------- --- ------ ----- --- ---- ------- -- ---- --- --<br>------- ------,150237.80000001192,150237,149673.803,149678.10000000894,149690.473,150240.604,,20,save
screen,html.Screen,0_2_1_1_21,2021-12-03T10:45:06.848Z,,,,,,,,,,,,,,,,54,,,,,,,,,,,,,,764.3960000000079,,response,,,100,,,,,,Space,keypress(Space),,,,,"-- --- ---- --- ------ ----- ------- ---- -- --- ------- --<br>------- ---------- ------ -- ----- -- ----- -- ---- money,<br>--- ----- --- --- ------ -------- ----- --- ------ ----- --<br>----- ----- ---------- --- --- ------ ------ ---- -- ------<br>------- --- ------ ----- --- ---- ------- -- ---- --- --<br>------- ------",151005.70000000298,151005,150223.934,150238,150240.604,151007.473,,21,"money,"
screen,html.Screen,0_2_1_1_22,2021-12-03T10:45:07.544Z,,,,,,,,,,,,,,,,54,,,,,,,,,,,,,,693.4270000059623,,response,,,100,,,,,,Space,keypress(Space),,,,,-- --- ---- --- ------ ----- ------- ---- -- --- ------- --<br>------- ---------- ------ -- ----- -- ----- -- ---- ------<br>the ----- --- --- ------ -------- ----- --- ------ ----- --<br>----- ----- ---------- --- --- ------ ------ ---- -- ------<br>------- --- ------ ----- --- ---- ------- -- ---- --- --<br>------- ------,151701.70000000298,151700.90000000596,150990.803,151006,151007.473,151707.665,,22,the
screen,html.Screen,0_2_1_1_23,2021-12-03T10:45:08.209Z,,,,,,,,,,,,,,,,54,,,,,,,,,,,,,,657.5350000029721,,response,,,100,,,,,,Space,keypress(Space),,,,,-- --- ---- --- ------ ----- ------- ---- -- --- ------- --<br>------- ---------- ------ -- ----- -- ----- -- ---- ------<br>--- state --- --- ------ -------- ----- --- ------ ----- --<br>----- ----- ---------- --- --- ------ ------ ---- -- ------<br>------- --- ------ ----- --- ---- ------- -- ---- --- --<br>------- ------,152366,152365.20000000298,151690.995,151701.90000000596,151707.665,152374.509,,23,state
screen,html.Screen,0_2_1_1_24,2021-12-03T10:45:09.104Z,,,,,,,,,,,,,,,,54,,,,,,,,,,,,,,886.3910000059695,,response,,,100,,,,,,Space,keypress(Space),,,,,-- --- ---- --- ------ ----- ------- ---- -- --- ------- --<br>------- ---------- ------ -- ----- -- ----- -- ---- ------<br>--- ----- cut --- ------ -------- ----- --- ------ ----- --<br>----- ----- ---------- --- --- ------ ------ ---- -- ------<br>------- --- ------ ----- --- ---- ------- -- ---- --- --<br>------- ------,153261.70000000298,153260.90000000596,152357.839,152366.20000000298,152374.509,153274.733,,24,cut
screen,html.Screen,0_2_1_1_25,2021-12-03T10:45:09.688Z,,,,,,,,,,,,,,,,54,,,,,,,,,,,,,,570.167000005953,,response,,,100,,,,,,Space,keypress(Space),,,,,-- --- ---- --- ------ ----- ------- ---- -- --- ------- --<br>------- ---------- ------ -- ----- -- ----- -- ---- ------<br>--- ----- --- the ------ -------- ----- --- ------ ----- --<br>----- ----- ---------- --- --- ------ ------ ---- -- ------<br>------- --- ------ ----- --- ---- ------- -- ---- --- --<br>------- ------,153845.60000000894,153844.90000000596,153258.063,153261.90000000596,153274.733,153858.247,,25,the
screen,html.Screen,0_2_1_1_26,2021-12-03T10:45:10.456Z,,,,,,,,,,,,,,,,54,,,,,,,,,,,,,,754.5530000119179,,response,,,100,,,,,,Space,keypress(Space),,,,,-- --- ---- --- ------ ----- ------- ---- -- --- ------- --<br>------- ---------- ------ -- ----- -- ----- -- ---- ------<br>--- ----- --- --- bonds' -------- ----- --- ------ ----- --<br>----- ----- ---------- --- --- ------ ------ ---- -- ------<br>------- --- ------ ----- --- ---- ------- -- ---- --- --<br>------- ------,154613.60000000894,154612.80000001192,153841.577,153845.90000000596,153858.247,154625.102,,26,bonds'
screen,html.Screen,0_2_1_1_27,2021-12-03T10:45:11.329Z,,,,,,,,,,,,,,,,54,,,,,,,,,,,,,,860.0980000029667,,response,,,100,,,,,,Space,keypress(Space),,,,,-- --- ---- --- ------ ----- ------- ---- -- --- ------- --<br>------- ---------- ------ -- ----- -- ----- -- ---- ------<br>--- ----- --- --- ------ interest ----- --- ------ ----- --<br>----- ----- ---------- --- --- ------ ------ ---- -- ------<br>------- --- ------ ----- --- ---- ------- -- ---- --- --<br>------- ------,155485.90000000596,155485.20000000298,154608.432,154613.80000001192,154625.102,155491.99,,27,interest
screen,html.Screen,0_2_1_1_28,2021-12-03T10:45:12.096Z,,,,,,,,,,,,,,,,54,,,,,,,,,,,,,,760.8100000119302,,response,,,100,,,,,,Space,keypress(Space),,,,,-- --- ---- --- ------ ----- ------- ---- -- --- ------- --<br>------- ---------- ------ -- ----- -- ----- -- ---- ------<br>--- ----- --- --- ------ -------- rate. --- ------ ----- --<br>----- ----- ---------- --- --- ------ ------ ---- -- ------<br>------- --- ------ ----- --- ---- ------- -- ---- --- --<br>------- ------,156253.5,156252.80000001192,155475.32,155486.20000000298,155491.99,156258.872,,28,rate.
screen,html.Screen,0_2_1_1_29,2021-12-03T10:45:12.944Z,,,,,,,,,,,,,,,,54,,,,,,,,,,,,,,841.8280000029772,,response,,,100,,,,,,Space,keypress(Space),,,,,-- --- ---- --- ------ ----- ------- ---- -- --- ------- --<br>------- ---------- ------ -- ----- -- ----- -- ---- ------<br>--- ----- --- --- ------ -------- ----- The ------ ----- --<br>----- ----- ---------- --- --- ------ ------ ---- -- ------<br>------- --- ------ ----- --- ---- ------- -- ---- --- --<br>------- ------,157101.5,157100.70000000298,156242.202,156253.70000000298,156258.872,157109.09,,29,The
screen,html.Screen,0_2_1_1_30,2021-12-03T10:45:13.648Z,,,,,,,,,,,,,,,,54,,,,,,,,,,,,,,695.5100000089442,,response,,,100,,,,,,Space,keypress(Space),,,,,-- --- ---- --- ------ ----- ------- ---- -- --- ------- --<br>------- ---------- ------ -- ----- -- ----- -- ---- ------<br>--- ----- --- --- ------ -------- ----- --- market ----- --<br>----- ----- ---------- --- --- ------ ------ ---- -- ------<br>------- --- ------ ----- --- ---- ------- -- ---- --- --<br>------- ------,157805.40000000596,157804.60000000894,157092.42,157101.70000000298,157109.09,157809.289,,30,market
screen,html.Screen,0_2_1_1_31,2021-12-03T10:45:14.432Z,,,,,,,,,,,,,,,,54,,,,,,,,,,,,,,779.3110000089509,,response,,,100,,,,,,Space,keypress(Space),,,,,-- --- ---- --- ------ ----- ------- ---- -- --- ------- --<br>------- ---------- ------ -- ----- -- ----- -- ---- ------<br>--- ----- --- --- ------ -------- ----- --- ------ value --<br>----- ----- ---------- --- --- ------ ------ ---- -- ------<br>------- --- ------ ----- --- ---- ------- -- ---- --- --<br>------- ------,158589.30000001192,158588.60000000894,157792.619,157805.70000000298,157809.289,158592.828,,31,value
screen,html.Screen,0_2_1_1_32,2021-12-03T10:45:15.024Z,,,,,,,,,,,,,,,,54,,,,,,,,,,,,,,587.6719999999914,,response,,,100,,,,,,Space,keypress(Space),,,,,-- --- ---- --- ------ ----- ------- ---- -- --- ------- --<br>------- ---------- ------ -- ----- -- ----- -- ---- ------<br>--- ----- --- --- ------ -------- ----- --- ------ ----- of<br>----- ----- ---------- --- --- ------ ------ ---- -- ------<br>------- --- ------ ----- --- ---- ------- -- ---- --- --<br>------- ------,159181.20000000298,159180.5,158576.158,158589.5,158592.828,159192.86,,32,of
screen,html.Screen,0_2_1_1_33,2021-12-03T10:45:15.624Z,,,,,,,,,,,,,,,,54,,,,,,,,,,,,,,587.640000000014,,response,,,100,,,,,,Space,keypress(Space),,,,,-- --- ---- --- ------ ----- ------- ---- -- --- ------- --<br>------- ---------- ------ -- ----- -- ----- -- ---- ------<br>--- ----- --- --- ------ -------- ----- --- ------ ----- --<br>these ----- ---------- --- --- ------ ------ ---- -- ------<br>------- --- ------ ----- --- ---- ------- -- ---- --- --<br>------- ------,159781.40000000596,159780.5,159176.191,159181.5,159192.86,159793.273,,33,these
screen,html.Screen,0_2_1_1_34,2021-12-03T10:45:16.272Z,,,,,,,,,,,,,,,,54,,,,,,,,,,,,,,635.2270000000135,,response,,,100,,,,,,Space,keypress(Space),,,,,-- --- ---- --- ------ ----- ------- ---- -- --- ------- --<br>------- ---------- ------ -- ----- -- ----- -- ---- ------<br>--- ----- --- --- ------ -------- ----- --- ------ ----- --<br>----- bonds ---------- --- --- ------ ------ ---- -- ------<br>------- --- ------ ----- --- ---- ------- -- ---- --- --<br>------- ------,160429.30000001192,160428.5,159776.601,159781.5,159793.273,160443.188,,34,bonds
screen,html.Screen,0_2_1_1_35,2021-12-03T10:45:17.056Z,,,,,,,,,,,,,,,,54,,,,,,,,,,,,,,769.3120000000054,,response,,,100,,,,,,Space,keypress(Space),,,,,"-- --- ---- --- ------ ----- ------- ---- -- --- ------- --<br>------- ---------- ------ -- ----- -- ----- -- ---- ------<br>--- ----- --- --- ------ -------- ----- --- ------ ----- --<br>----- ----- plummeted, --- --- ------ ------ ---- -- ------<br>------- --- ------ ----- --- ---- ------- -- ---- --- --<br>------- ------",161213.30000001192,161212.5,160426.519,160429.5,160443.188,161227.01,,35,"plummeted,"
screen,html.Screen,0_2_1_1_36,2021-12-03T10:45:17.672Z,,,,,,,,,,,,,,,,54,,,,,,,,,,,,,,601.2900000119116,,response,,,100,,,,,,Space,keypress(Space),,,,,-- --- ---- --- ------ ----- ------- ---- -- --- ------- --<br>------- ---------- ------ -- ----- -- ----- -- ---- ------<br>--- ----- --- --- ------ -------- ----- --- ------ ----- --<br>----- ----- ---------- and --- ------ ------ ---- -- ------<br>------- --- ------ ----- --- ---- ------- -- ---- --- --<br>------- ------,161829.20000000298,161828.30000001192,161210.338,161213.5,161227.01,161843.682,,36,and
screen,html.Screen,0_2_1_1_37,2021-12-03T10:45:18.112Z,,,,,,,,,,,,,,,,54,,,,,,,,,,,,,,424.71800000595977,,response,,,100,,,,,,Space,keypress(Space),,,,,-- --- ---- --- ------ ----- ------- ---- -- --- ------- --<br>------- ---------- ------ -- ----- -- ----- -- ---- ------<br>--- ----- --- --- ------ -------- ----- --- ------ ----- --<br>----- ----- ---------- --- the ------ ------ ---- -- ------<br>------- --- ------ ----- --- ---- ------- -- ---- --- --<br>------- ------,162269.10000000894,162268.40000000596,161827.012,161829.40000000596,161843.682,162277.213,,37,the
screen,html.Screen,0_2_1_1_38,2021-12-03T10:45:18.592Z,,,,,,,,,,,,,,,,54,,,,,,,,,,,,,,471.0870000119321,,response,,,100,,,,,,Space,keypress(Space),,,,,-- --- ---- --- ------ ----- ------- ---- -- --- ------- --<br>------- ---------- ------ -- ----- -- ----- -- ---- ------<br>--- ----- --- --- ------ -------- ----- --- ------ ----- --<br>----- ----- ---------- --- --- market ------ ---- -- ------<br>------- --- ------ ----- --- ---- ------- -- ---- --- --<br>------- ------,162749.10000000894,162748.30000001192,162260.542,162269.40000000596,162277.213,162760.618,,38,market
screen,html.Screen,0_2_1_1_39,2021-12-03T10:45:19.216Z,,,,,,,,,,,,,,,,54,,,,,,,,,,,,,,611.6820000119333,,response,,,100,,,,,,Space,keypress(Space),,,,,-- --- ---- --- ------ ----- ------- ---- -- --- ------- --<br>------- ---------- ------ -- ----- -- ----- -- ---- ------<br>--- ----- --- --- ------ -------- ----- --- ------ ----- --<br>----- ----- ---------- --- --- ------ became ---- -- ------<br>------- --- ------ ----- --- ---- ------- -- ---- --- --<br>------- ------,163373.10000000894,163372.30000001192,162743.948,162749.30000001192,162760.618,163377.434,,39,became
screen,html.Screen,0_2_1_1_40,2021-12-03T10:45:20.528Z,,,,,,,,,,,,,,,,54,,,,,,,,,,,,,,1306.7660000029719,,response,,,100,,,,,,Space,keypress(Space),,,,,-- --- ---- --- ------ ----- ------- ---- -- --- ------- --<br>------- ---------- ------ -- ----- -- ----- -- ---- ------<br>--- ----- --- --- ------ -------- ----- --- ------ ----- --<br>----- ----- ---------- --- --- ------ ------ wary -- ------<br>------- --- ------ ----- --- ---- ------- -- ---- --- --<br>------- ------,164685.10000000894,164684.20000000298,163360.764,163373.30000001192,163377.434,164694.397,,40,wary
screen,html.Screen,0_2_1_1_41,2021-12-03T10:45:21.208Z,,,,,,,,,,,,,,,,54,,,,,,,,,,,,,,669.803000002983,,response,,,100,,,,,,Space,keypress(Space),,,,,-- --- ---- --- ------ ----- ------- ---- -- --- ------- --<br>------- ---------- ------ -- ----- -- ----- -- ---- ------<br>--- ----- --- --- ------ -------- ----- --- ------ ----- --<br>----- ----- ---------- --- --- ------ ------ ---- of ------<br>------- --- ------ ----- --- ---- ------- -- ---- --- --<br>------- ------,165365.10000000894,165364.20000000298,164677.727,164685.30000001192,164694.397,165377.932,,41,of
screen,html.Screen,0_2_1_1_42,2021-12-03T10:45:22.000Z,,,,,,,,,,,,,,,,54,,,,,,,,,,,,,,778.66800000894,,response,,,100,,,,,,Space,keypress(Space),,,,,-- --- ---- --- ------ ----- ------- ---- -- --- ------- --<br>------- ---------- ------ -- ----- -- ----- -- ---- ------<br>--- ----- --- --- ------ -------- ----- --- ------ ----- --<br>----- ----- ---------- --- --- ------ ------ ---- -- French<br>------- --- ------ ----- --- ---- ------- -- ---- --- --<br>------- ------,166157.40000000596,166156.60000000894,165361.262,165365.30000001192,165377.932,166161.507,,42,French
screen,html.Screen,0_2_1_1_43,2021-12-03T10:45:23.112Z,,,,,,,,,,,,,,,,54,,,,,,,,,,,,,,1106.693000002968,,response,,,100,,,,,,Space,keypress(Space),,,,,-- --- ---- --- ------ ----- ------- ---- -- --- ------- --<br>------- ---------- ------ -- ----- -- ----- -- ---- ------<br>--- ----- --- --- ------ -------- ----- --- ------ ----- --<br>----- ----- ---------- --- --- ------ ------ ---- -- ------<br>credit. --- ------ ----- --- ---- ------- -- ---- --- --<br>------- ------,167269,167268.20000000298,166144.837,166157.60000000894,166161.507,167278.445,,43,credit.
screen,html.Screen,0_2_1_1_44,2021-12-03T10:45:24.008Z,,,,,,,,,,,,,,,,54,,,,,,,,,,,,,,885.7550000029732,,response,,,100,,,,,,Space,keypress(Space),,,,,-- --- ---- --- ------ ----- ------- ---- -- --- ------- --<br>------- ---------- ------ -- ----- -- ----- -- ---- ------<br>--- ----- --- --- ------ -------- ----- --- ------ ----- --<br>----- ----- ---------- --- --- ------ ------ ---- -- ------<br>------- The ------ ----- --- ---- ------- -- ---- --- --<br>------- ------,168165,168164.20000000298,167261.775,167269.20000000298,167278.445,168178.671,,44,The
screen,html.Screen,0_2_1_1_45,2021-12-03T10:45:24.672Z,,,,,,,,,,,,,,,,54,,,,,,,,,,,,,,649.4290000089386,,response,,,100,,,,,,Space,keypress(Space),,,,,-- --- ---- --- ------ ----- ------- ---- -- --- ------- --<br>------- ---------- ------ -- ----- -- ----- -- ---- ------<br>--- ----- --- --- ------ -------- ----- --- ------ ----- --<br>----- ----- ---------- --- --- ------ ------ ---- -- ------<br>------- --- French ----- --- ---- ------- -- ---- --- --<br>------- ------,168829.10000000894,168828.10000000894,168162.001,168165.20000000298,168178.671,168845.559,,45,French
screen,html.Screen,0_2_1_1_46,2021-12-03T10:45:25.256Z,,,,,,,,,,,,,,,,54,,,,,,,,,,,,,,566.6410000029719,,response,,,100,,,,,,Space,keypress(Space),,,,,-- --- ---- --- ------ ----- ------- ---- -- --- ------- --<br>------- ---------- ------ -- ----- -- ----- -- ---- ------<br>--- ----- --- --- ------ -------- ----- --- ------ ----- --<br>----- ----- ---------- --- --- ------ ------ ---- -- ------<br>------- --- ------ state --- ---- ------- -- ---- --- --<br>------- ------,169413,169412.20000000298,168828.889,168829.40000000596,168845.559,169429.038,,46,state
screen,html.Screen,0_2_1_1_47,2021-12-03T10:45:25.879Z,,,,,,,,,,,,,,,,54,,,,,,,,,,,,,,607.0620000089402,,response,,,100,,,,,,Space,keypress(Space),,,,,-- --- ---- --- ------ ----- ------- ---- -- --- ------- --<br>------- ---------- ------ -- ----- -- ----- -- ---- ------<br>--- ----- --- --- ------ -------- ----- --- ------ ----- --<br>----- ----- ---------- --- --- ------ ------ ---- -- ------<br>------- --- ------ ----- was ---- ------- -- ---- --- --<br>------- ------,170036.90000000596,170036.10000000894,169412.368,169413.30000001192,169429.038,170045.883,,47,was
screen,html.Screen,0_2_1_1_48,2021-12-03T10:45:26.399Z,,,,,,,,,,,,,,,,54,,,,,,,,,,,,,,510.21700000893907,,response,,,100,,,,,,Space,keypress(Space),,,,,-- --- ---- --- ------ ----- ------- ---- -- --- ------- --<br>------- ---------- ------ -- ----- -- ----- -- ---- ------<br>--- ----- --- --- ------ -------- ----- --- ------ ----- --<br>----- ----- ---------- --- --- ------ ------ ---- -- ------<br>------- --- ------ ----- --- left ------- -- ---- --- --<br>------- ------,170556.90000000596,170556.10000000894,170029.213,170037.10000000894,170045.883,170562.581,,48,left
screen,html.Screen,0_2_1_1_49,2021-12-03T10:45:27.087Z,,,,,,,,,,,,,,,,54,,,,,,,,,,,,,,681.4189999999944,,response,,,100,,,,,,Space,keypress(Space),,,,,-- --- ---- --- ------ ----- ------- ---- -- --- ------- --<br>------- ---------- ------ -- ----- -- ----- -- ---- ------<br>--- ----- --- --- ------ -------- ----- --- ------ ----- --<br>----- ----- ---------- --- --- ------ ------ ---- -- ------<br>------- --- ------ ----- --- ---- without -- ---- --- --<br>------- ------,171244.80000001192,171244,170545.912,170557.10000000894,170562.581,171246.263,,49,without
screen,html.Screen,0_2_1_1_50,2021-12-03T10:45:27.527Z,,,,,,,,,,,,,,,,54,,,,,,,,,,,,,,437.7369999999937,,response,,,100,,,,,,Space,keypress(Space),,,,,-- --- ---- --- ------ ----- ------- ---- -- --- ------- --<br>------- ---------- ------ -- ----- -- ----- -- ---- ------<br>--- ----- --- --- ------ -------- ----- --- ------ ----- --<br>----- ----- ---------- --- --- ------ ------ ---- -- ------<br>------- --- ------ ----- --- ---- ------- an ---- --- --<br>------- ------,171684.80000001192,171684,171229.592,171245,171246.263,171696.335,,50,an
screen,html.Screen,0_2_1_1_51,2021-12-03T10:45:28.023Z,,,,,,,,,,,,,,,,54,,,,,,,,,,,,,,483.66500000000815,,response,,,100,,,,,,Space,keypress(Space),,,,,-- --- ---- --- ------ ----- ------- ---- -- --- ------- --<br>------- ---------- ------ -- ----- -- ----- -- ---- ------<br>--- ----- --- --- ------ -------- ----- --- ------ ----- --<br>----- ----- ---------- --- --- ------ ------ ---- -- ------<br>------- --- ------ ----- --- ---- ------- -- easy --- --<br>------- ------,172180.90000000596,172180,171679.665,171685,171696.335,172196.463,,51,easy
screen,html.Screen,0_2_1_1_52,2021-12-03T10:45:28.767Z,,,,,,,,,,,,,,,,54,,,,,,,,,,,,,,727.4370000059716,,response,,,100,,,,,,Space,keypress(Space),,,,,-- --- ---- --- ------ ----- ------- ---- -- --- ------- --<br>------- ---------- ------ -- ----- -- ----- -- ---- ------<br>--- ----- --- --- ------ -------- ----- --- ------ ----- --<br>----- ----- ---------- --- --- ------ ------ ---- -- ------<br>------- --- ------ ----- --- ---- ------- -- ---- way --<br>------- ------,172924.70000000298,172923.90000000596,172179.793,172181,172196.463,172929.963,,52,way
screen,html.Screen,0_2_1_1_53,2021-12-03T10:45:29.247Z,,,,,,,,,,,,,,,,54,,,,,,,,,,,,,,473.93700000597164,,response,,,100,,,,,,Space,keypress(Space),,,,,-- --- ---- --- ------ ----- ------- ---- -- --- ------- --<br>------- ---------- ------ -- ----- -- ----- -- ---- ------<br>--- ----- --- --- ------ -------- ----- --- ------ ----- --<br>----- ----- ---------- --- --- ------ ------ ---- -- ------<br>------- --- ------ ----- --- ---- ------- -- ---- --- of<br>------- ------,173404.70000000298,173403.90000000596,172913.293,172925,172929.963,173413.497,,53,of
screen,html.Screen,0_2_1_1_54,2021-12-03T10:45:29.767Z,,,,,,,,,,,,,,,,54,,,,,,,,,,,,,,510.40300000595744,,response,,,100,,,,,,Space,keypress(Space),,,,,-- --- ---- --- ------ ----- ------- ---- -- --- ------- --<br>------- ---------- ------ -- ----- -- ----- -- ---- ------<br>--- ----- --- --- ------ -------- ----- --- ------ ----- --<br>----- ----- ---------- --- --- ------ ------ ---- -- ------<br>------- --- ------ ----- --- ---- ------- -- ---- --- --<br>raising ------,173924.60000000894,173923.90000000596,173396.826,173405,173413.497,173930.239,,54,raising
screen,html.Screen,0_2_1_1_55,2021-12-03T10:45:30.375Z,,,,,,,,,,,,,,,,54,,,,,,,,,,,,,,601.7609999999986,,response,,,100,,,,,,Space,keypress(Space),,,,,-- --- ---- --- ------ ----- ------- ---- -- --- ------- --<br>------- ---------- ------ -- ----- -- ----- -- ---- ------<br>--- ----- --- --- ------ -------- ----- --- ------ ----- --<br>----- ----- ---------- --- --- ------ ------ ---- -- ------<br>------- --- ------ ----- --- ---- ------- -- ---- --- --<br>------- money.,174532.80000001192,174532,173913.569,173924.90000000596,173930.239,174547.072,,55,money.
Item 100,flow.Loop,0_2_1_1,2021-12-03T10:45:30.376Z,,,,,,,,,,,,,,,,,,,,,,,,,,,,,,40879.22099999999,,completion,,,,B,,,,,,,,,,silence,,174533.30000001192,174532,133636.109,133637.40000000596,133652.779,174547.072,,,
Question 1,html.Screen,0_2_1_2,2021-12-03T10:45:36.223Z,,,,,,,,,,,,,,,,,,,,,,,,,,,true,TRUE,,5832.328000005975,,response,,,100,B,,,,,TRUE,click #choice-1,,,,silence,,180380.60000000894,180379.40000000596,174530.402,174533.40000000596,174547.072,180381.853,,,
Question 2,html.Screen,0_2_1_3,2021-12-03T10:45:47.793Z,,,,,,,,,,,,,,,,,,,,,,,,,,,true,FALSE,,11565.047000005958,,response,,,100,B,,,,,FALSE,click #choice-2,,,,silence,,191948.10000000894,191946.90000000596,180365.183,180380.80000001192,180381.853,191951.774,,,
Item 100,flow.Sequence,0_2_1,2021-12-03T10:45:47.794Z,,,,,,,,,,,,,,,,,,,,,,,,,,,,,,68296.65000000596,,completion,,,,,,,,,,,,,,,,191948.5,191946.90000000596,123633.579,123648.30000001192,123650.25,191951.774,,,
End of Practice,html.Page,0_2_2,2021-12-03T10:45:53.546Z,,,,,,,,,,,,,,,,,,,,,,,,,,,,,,5748.526000011916,,form submission,,,,,,,,,,,,,,,,197700.80000001192,197700.30000001192,191935.103,191948.70000000298,191951.774,197703.103,,,
Practice,flow.Sequence,0_2,2021-12-03T10:45:53.546Z,,,,,,,,,,,,,,,,,,,,,,,,,,,,,,146386.08300001192,,completion,,,,,,,,,,,,,,,,197701.30000001192,197700.30000001192,51297.547,51299.60000000894,51314.217,197703.103,,,
Trap_instruction,html.Page,0_3_0,2021-12-03T10:46:01.625Z,,,,,,,,,,,,,,,,,,,,,,,,,,,,,,8076.597000002977,,form submission,,,,,,,,,,,,,,,,205780.30000001192,205779.70000000298,197686.433,197701.60000000894,197703.103,205822.471,,,
trap_trial,html.Screen,0_3_1,2021-12-03T10:46:04.840Z,,,,,,,,,,,,,,,,,,,,,,,,,,,true,1,,3171.6290000089502,,response,,,,,,,,,1,click #choice-1,,,,,,208995.20000000298,208994.10000000894,205772.437,205780.60000000894,205822.471,208998.461,,,
end of trap trial,html.Page,0_3_2,2021-12-03T10:46:07.849Z,,,,,,,,,,,,,,,,,,,,,,,,,,,,,,3004.8390000119107,,form submission,,,,,,,,,,,,,,,,212003.70000000298,212003.30000001192,208981.742,208995.5,208998.461,212006.955,,,
Trap 1,flow.Sequence,0_3,2021-12-03T10:46:07.849Z,,,,,,,,,,,,,,,,,,,,,,,,,,,,,,14300.197000011918,,completion,,,,,,,,,,,,,,,,212004.20000000298,212003.30000001192,197686.433,197701.5,197703.103,212006.955,,,
Standby,html.Page,0_4_0,2021-12-03T10:46:15.839Z,,,,,,,,,,,,,,,,,,,,,,,,,,,,,,8001.6750000000175,,timeout,,,,,,,,,,,,,,,,219993.70000000298,219991.96,211990.285,212004.5,212006.955,220008.63,,,
Holding screen,html.Screen,0_4_1_0_0,2021-12-03T10:46:22.841Z,,,,,,,,,,,,,,,,,,,,,,,,,,,,,,7002.266000000003,,timeout,,,,,,,,,,,,,,,,226995.40000000596,226994.226,219991.96,219994.10000000894,220008.63,227010.896,,,
screen,html.Screen,0_4_1_0_1_0,2021-12-03T10:46:25.992Z,,,,,,,,,,,,,,,,48,,,,,,,,,,,,,,3134.404000011913,,response,,,10,B,,,,,Space,keypress(Space),,,,lyrical,As -- --- ------ ------- --------- ----------- --------<br>--------- -------- --- ------- -- ------- ---- -- ------<br>-- --- -------- -------- ---------- ---- ---- ---- ------<br>-- --------- -- ---- -- --- -- --- ------- -- - -----<br>---------- -- -- -- ---- ----- -- ------ -- --- ------<br>-------,230146.40000000596,230145.30000001192,226994.226,226995.90000000596,227010.896,230161.606,,0,As
screen,html.Screen,0_4_1_0_1_1,2021-12-03T10:46:26.543Z,,,,,,,,,,,,,,,,48,,,,,,,,,,,,,,535.6940000119212,,response,,,10,B,,,,,Space,keypress(Space),,,,lyrical,-- in --- ------ ------- --------- ----------- --------<br>--------- -------- --- ------- -- ------- ---- -- ------<br>-- --- -------- -------- ---------- ---- ---- ---- ------<br>-- --------- -- ---- -- --- -- --- ------- -- - -----<br>---------- -- -- -- ---- ----- -- ------ -- --- ------<br>-------,230698.10000000894,230697.30000001192,230144.936,230146.70000000298,230161.606,230712.045,,1,in
screen,html.Screen,0_4_1_0_1_2,2021-12-03T10:46:26.959Z,,,,,,,,,,,,,,,,48,,,,,,,,,,,,,,401.1550000029674,,response,,,10,B,,,,,Space,keypress(Space),,,,lyrical,-- -- the ------ ------- --------- ----------- --------<br>--------- -------- --- ------- -- ------- ---- -- ------<br>-- --- -------- -------- ---------- ---- ---- ---- ------<br>-- --------- -- ---- -- --- -- --- ------- -- - -----<br>---------- -- -- -- ---- ----- -- ------ -- --- ------<br>-------,231114.10000000894,231113.20000000298,230695.373,230698.40000000596,230712.045,231128.731,,2,the
screen,html.Screen,0_4_1_0_1_3,2021-12-03T10:46:27.583Z,,,,,,,,,,,,,,,,48,,,,,,,,,,,,,,608.3690000089409,,response,,,10,B,,,,,Space,keypress(Space),,,,lyrical,-- -- --- United ------- --------- ----------- --------<br>--------- -------- --- ------- -- ------- ---- -- ------<br>-- --- -------- -------- ---------- ---- ---- ---- ------<br>-- --------- -- ---- -- --- -- --- ------- -- - -----<br>---------- -- -- -- ---- ----- -- ------ -- --- ------<br>-------,231738,231737.10000000894,231112.061,231114.40000000596,231128.731,231745.776,,3,United
screen,html.Screen,0_4_1_0_1_4,2021-12-03T10:46:28.223Z,,,,,,,,,,,,,,,,48,,,,,,,,,,,,,,631.4240000029677,,response,,,10,B,,,,,Space,keypress(Space),,,,lyrical,"-- -- --- ------ States, --------- ----------- --------<br>--------- -------- --- ------- -- ------- ---- -- ------<br>-- --- -------- -------- ---------- ---- ---- ---- ------<br>-- --------- -- ---- -- --- -- --- ------- -- - -----<br>---------- -- -- -- ---- ----- -- ------ -- --- ------<br>-------",232378,232377.20000000298,231729.103,231738.30000001192,231745.776,232378.974,,4,"States,"
screen,html.Screen,0_4_1_0_1_5,2021-12-03T10:46:29.111Z,,,,,,,,,,,,,,,,48,,,,,,,,,,,,,,886.0260000000126,,response,,,10,B,,,,,Space,keypress(Space),,,,lyrical,-- -- --- ------ ------- Colombian ----------- --------<br>--------- -------- --- ------- -- ------- ---- -- ------<br>-- --- -------- -------- ---------- ---- ---- ---- ------<br>-- --------- -- ---- -- --- -- --- ------- -- - -----<br>---------- -- -- -- ---- ----- -- ------ -- --- ------<br>-------,233265.90000000596,233265,232362.305,232378.40000000596,232378.974,233279.495,,5,Colombian
screen,html.Screen,0_4_1_0_1_6,2021-12-03T10:46:29.935Z,,,,,,,,,,,,,,,,48,,,,,,,,,,,,,,809.6050000089454,,response,,,10,B,,,,,Space,keypress(Space),,,,lyrical,-- -- --- ------ ------- --------- legislation --------<br>--------- -------- --- ------- -- ------- ---- -- ------<br>-- --- -------- -------- ---------- ---- ---- ---- ------<br>-- --------- -- ---- -- --- -- --- ------- -- - -----<br>---------- -- -- -- ---- ----- -- ------ -- --- ------<br>-------,234090.10000000894,234089.10000000894,233262.823,233266.20000000298,233279.495,234096.052,,6,legislation
screen,html.Screen,0_4_1_0_1_7,2021-12-03T10:46:30.759Z,,,,,,,,,,,,,,,,48,,,,,,,,,,,,,,817.0480000089447,,response,,,10,B,,,,,Space,keypress(Space),,,,lyrical,-- -- --- ------ ------- --------- ----------- requires<br>--------- -------- --- ------- -- ------- ---- -- ------<br>-- --- -------- -------- ---------- ---- ---- ---- ------<br>-- --------- -- ---- -- --- -- --- ------- -- - -----<br>---------- -- -- -- ---- ----- -- ------ -- --- ------<br>-------,234913.90000000596,234913.10000000894,234079.383,234090.40000000596,234096.052,234929.85,,7,requires
screen,html.Screen,0_4_1_0_1_8,2021-12-03T10:46:31.527Z,,,,,,,,,,,,,,,,48,,,,,,,,,,,,,,751.1499999999942,,response,,,10,B,,,,,Space,keypress(Space),,,,lyrical,-- -- --- ------ ------- --------- ----------- --------<br>travelers -------- --- ------- -- ------- ---- -- ------<br>-- --- -------- -------- ---------- ---- ---- ---- ------<br>-- --------- -- ---- -- --- -- --- ------- -- - -----<br>---------- -- -- -- ---- ----- -- ------ -- --- ------<br>-------,235681.80000001192,235681,234913.179,234914.10000000894,234929.85,235696.646,,8,travelers
screen,html.Screen,0_4_1_0_1_9,2021-12-03T10:46:32.255Z,,,,,,,,,,,,,,,,48,,,,,,,,,,,,,,712.3539999999921,,response,,,10,B,,,,,Space,keypress(Space),,,,lyrical,-- -- --- ------ ------- --------- ----------- --------<br>--------- entering --- ------- -- ------- ---- -- ------<br>-- --- -------- -------- ---------- ---- ---- ---- ------<br>-- --------- -- ---- -- --- -- --- ------- -- - -----<br>---------- -- -- -- ---- ----- -- ------ -- --- ------<br>-------,236409.80000001192,236409,235679.976,235682,235696.646,236413.575,,9,entering
screen,html.Screen,0_4_1_0_1_10,2021-12-03T10:46:33.007Z,,,,,,,,,,,,,,,,48,,,,,,,,,,,,,,747.2250000119093,,response,,,10,B,,,,,Space,keypress(Space),,,,lyrical,-- -- --- ------ ------- --------- ----------- --------<br>--------- -------- the ------- -- ------- ---- -- ------<br>-- --- -------- -------- ---------- ---- ---- ---- ------<br>-- --------- -- ---- -- --- -- --- ------- -- - -----<br>---------- -- -- -- ---- ----- -- ------ -- --- ------<br>-------,237161.60000000894,237160.80000001192,236396.904,236410,236413.575,237163.67,,10,the
screen,html.Screen,0_4_1_0_1_11,2021-12-03T10:46:34.143Z,,,,,,,,,,,,,,,,48,,,,,,,,,,,,,,1133.7300000059477,,response,,,10,B,,,,,Space,keypress(Space),,,,lyrical,-- -- --- ------ ------- --------- ----------- --------<br>--------- -------- --- country -- ------- ---- -- ------<br>-- --- -------- -------- ---------- ---- ---- ---- ------<br>-- --------- -- ---- -- --- -- --- ------- -- - -----<br>---------- -- -- -- ---- ----- -- ------ -- --- ------<br>-------,238298.20000000298,238297.40000000596,237147,237161.90000000596,237163.67,238314.071,,11,country
screen,html.Screen,0_4_1_0_1_12,2021-12-03T10:46:34.855Z,,,,,,,,,,,,,,,,48,,,,,,,,,,,,,,694.9290000000037,,response,,,10,B,,,,,Space,keypress(Space),,,,lyrical,-- -- --- ------ ------- --------- ----------- --------<br>--------- -------- --- ------- to ------- ---- -- ------<br>-- --- -------- -------- ---------- ---- ---- ---- ------<br>-- --------- -- ---- -- --- -- --- ------- -- - -----<br>---------- -- -- -- ---- ----- -- ------ -- --- ------<br>-------,239009.80000001192,239009,238297.4,238298.40000000596,238314.071,239014.281,,12,to
screen,html.Screen,0_4_1_0_1_13,2021-12-03T10:46:35.623Z,,,,,,,,,,,,,,,,48,,,,,,,,,,,,,,762.5190000119328,,response,,,10,B,,,,,Space,keypress(Space),,,,lyrical,-- -- --- ------ ------- --------- ----------- --------<br>--------- -------- --- ------- -- declare ---- -- ------<br>-- --- -------- -------- ---------- ---- ---- ---- ------<br>-- --------- -- ---- -- --- -- --- ------- -- - -----<br>---------- -- -- -- ---- ----- -- ------ -- --- ------<br>-------,239777.70000000298,239776.80000001192,238997.61,239010.20000000298,239014.281,239781.061,,13,declare
screen,html.Screen,0_4_1_0_1_14,2021-12-03T10:46:36.519Z,,,,,,,,,,,,,,,,48,,,,,,,,,,,,,,891.6390000029933,,response,,,10,B,,,,,Space,keypress(Space),,,,lyrical,-- -- --- ------ ------- --------- ----------- --------<br>--------- -------- --- ------- -- ------- cash -- ------<br>-- --- -------- -------- ---------- ---- ---- ---- ------<br>-- --------- -- ---- -- --- -- --- ------- -- - -----<br>---------- -- -- -- ---- ----- -- ------ -- --- ------<br>-------,240673.60000000894,240672.70000000298,239764.391,239778,239781.061,240681.299,,14,cash
screen,html.Screen,0_4_1_0_1_15,2021-12-03T10:46:37.243Z,,,,,,,,,,,,,,,,48,,,,,,,,,,,,,,719.5010000119219,,response,,,10,B,,,,,Space,keypress(Space),,,,lyrical,-- -- --- ------ ------- --------- ----------- --------<br>--------- -------- --- ------- -- ------- ---- in ------<br>-- --- -------- -------- ---------- ---- ---- ---- ------<br>-- --------- -- ---- -- --- -- --- ------- -- - -----<br>---------- -- -- -- ---- ----- -- ------ -- --- ------<br>-------,241401.60000000894,241400.80000001192,240664.629,240673.90000000596,240681.299,241414.749,,15,in
screen,html.Screen,0_4_1_0_1_16,2021-12-03T10:46:38.043Z,,,,,,,,,,,,,,,,48,,,,,,,,,,,,,,786.0510000119102,,response,,,10,B,,,,,Space,keypress(Space),,,,lyrical,-- -- --- ------ ------- --------- ----------- --------<br>--------- -------- --- ------- -- ------- ---- -- excess<br>-- --- -------- -------- ---------- ---- ---- ---- ------<br>-- --------- -- ---- -- --- -- --- ------- -- - -----<br>---------- -- -- -- ---- ----- -- ------ -- --- ------<br>-------,242201.70000000298,242200.80000001192,241398.079,241401.80000001192,241414.749,242215.003,,16,excess
screen,html.Screen,0_4_1_0_1_17,2021-12-03T10:46:38.747Z,,,,,,,,,,,,,,,,48,,,,,,,,,,,,,,689.5970000089437,,response,,,10,B,,,,,Space,keypress(Space),,,,lyrical,-- -- --- ------ ------- --------- ----------- --------<br>--------- -------- --- ------- -- ------- ---- -- ------<br>of --- -------- -------- ---------- ---- ---- ---- ------<br>-- --------- -- ---- -- --- -- --- ------- -- - -----<br>---------- -- -- -- ---- ----- -- ------ -- --- ------<br>-------,242905.40000000596,242904.60000000894,242198.333,242201.90000000596,242215.003,242915.32,,17,of
screen,html.Screen,0_4_1_0_1_18,2021-12-03T10:46:39.691Z,,,,,,,,,,,,,,,,48,,,,,,,,,,,,,,933.2800000089337,,response,,,10,B,,,,,Space,keypress(Space),,,,lyrical,-- -- --- ------ ------- --------- ----------- --------<br>--------- -------- --- ------- -- ------- ---- -- ------<br>-- ten -------- -------- ---------- ---- ---- ---- ------<br>-- --------- -- ---- -- --- -- --- ------- -- - -----<br>---------- -- -- -- ---- ----- -- ------ -- --- ------<br>-------,243849.40000000596,243848.60000000894,242898.649,242905.60000000894,242915.32,243865.556,,18,ten
screen,html.Screen,0_4_1_0_1_19,2021-12-03T10:46:40.571Z,,,,,,,,,,,,,,,,48,,,,,,,,,,,,,,862.9439999999886,,response,,,10,B,,,,,Space,keypress(Space),,,,lyrical,-- -- --- ------ ------- --------- ----------- --------<br>--------- -------- --- ------- -- ------- ---- -- ------<br>-- --- thousand -------- ---------- ---- ---- ---- ------<br>-- --------- -- ---- -- --- -- --- ------- -- - -----<br>---------- -- -- -- ---- ----- -- ------ -- --- ------<br>-------,244729.30000001192,244728.5,243848.885,243849.60000000894,243865.556,244732.334,,19,thousand
screen,html.Screen,0_4_1_0_1_20,2021-12-03T10:46:41.459Z,,,,,,,,,,,,,,,,48,,,,,,,,,,,,,,884.2660000089381,,response,,,10,B,,,,,Space,keypress(Space),,,,lyrical,-- -- --- ------ ------- --------- ----------- --------<br>--------- -------- --- ------- -- ------- ---- -- ------<br>-- --- -------- dollars. ---------- ---- ---- ---- ------<br>-- --------- -- ---- -- --- -- --- ------- -- - -----<br>---------- -- -- -- ---- ----- -- ------ -- --- ------<br>-------,245617.40000000596,245616.60000000894,244715.664,244729.5,244732.334,245632.613,,20,dollars.
screen,html.Screen,0_4_1_0_1_21,2021-12-03T10:46:42.371Z,,,,,,,,,,,,,,,,48,,,,,,,,,,,,,,895.9870000089286,,response,,,10,B,,,,,Space,keypress(Space),,,,lyrical,-- -- --- ------ ------- --------- ----------- --------<br>--------- -------- --- ------- -- ------- ---- -- ------<br>-- --- -------- -------- Concealing ---- ---- ---- ------<br>-- --------- -- ---- -- --- -- --- ------- -- - -----<br>---------- -- -- -- ---- ----- -- ------ -- --- ------<br>-------,246529.30000001192,246528.60000000894,245615.943,245617.60000000894,245632.613,246532.848,,21,Concealing
screen,html.Screen,0_4_1_0_1_22,2021-12-03T10:46:43.139Z,,,,,,,,,,,,,,,,48,,,,,,,,,,,,,,763.5520000059623,,response,,,10,B,,,,,Space,keypress(Space),,,,lyrical,-- -- --- ------ ------- --------- ----------- --------<br>--------- -------- --- ------- -- ------- ---- -- ------<br>-- --- -------- -------- ---------- more ---- ---- ------<br>-- --------- -- ---- -- --- -- --- ------- -- - -----<br>---------- -- -- -- ---- ----- -- ------ -- --- ------<br>-------,247297.10000000894,247296.40000000596,246516.178,246529.70000000298,246532.848,247299.737,,22,more
screen,html.Screen,0_4_1_0_1_23,2021-12-03T10:46:43.891Z,,,,,,,,,,,,,,,,48,,,,,,,,,,,,,,748.7630000000063,,response,,,10,B,,,,,Space,keypress(Space),,,,lyrical,-- -- --- ------ ------- --------- ----------- --------<br>--------- -------- --- ------- -- ------- ---- -- ------<br>-- --- -------- -------- ---------- ---- than ---- ------<br>-- --------- -- ---- -- --- -- --- ------- -- - -----<br>---------- -- -- -- ---- ----- -- ------ -- --- ------<br>-------,248049.20000000298,248048.5,247283.067,247297.5,247299.737,248066.603,,23,than
screen,html.Screen,0_4_1_0_1_24,2021-12-03T10:46:44.395Z,,,,,,,,,,,,,,,,48,,,,,,,,,,,,,,486.29700000595767,,response,,,10,B,,,,,Space,keypress(Space),,,,lyrical,-- -- --- ------ ------- --------- ----------- --------<br>--------- -------- --- ------- -- ------- ---- -- ------<br>-- --- -------- -------- ---------- ---- ---- that ------<br>-- --------- -- ---- -- --- -- --- ------- -- - -----<br>---------- -- -- -- ---- ----- -- ------ -- --- ------<br>-------,248553.70000000298,248552.90000000596,248049.933,248049.40000000596,248066.603,248566.755,,24,that
screen,html.Screen,0_4_1_0_1_25,2021-12-03T10:46:44.995Z,,,,,,,,,,,,,,,,48,,,,,,,,,,,,,,585.6450000059558,,response,,,10,B,,,,,Space,keypress(Space),,,,lyrical,-- -- --- ------ ------- --------- ----------- --------<br>--------- -------- --- ------- -- ------- ---- -- ------<br>-- --- -------- -------- ---------- ---- ---- ---- amount<br>-- --------- -- ---- -- --- -- --- ------- -- - -----<br>---------- -- -- -- ---- ----- -- ------ -- --- ------<br>-------,249153.30000001192,249152.40000000596,248550.085,248554,248566.755,249166.906,,25,amount
screen,html.Screen,0_4_1_0_1_26,2021-12-03T10:46:45.539Z,,,,,,,,,,,,,,,,48,,,,,,,,,,,,,,529.4940000059723,,response,,,10,B,,,,,Space,keypress(Space),,,,lyrical,-- -- --- ------ ------- --------- ----------- --------<br>--------- -------- --- ------- -- ------- ---- -- ------<br>-- --- -------- -------- ---------- ---- ---- ---- ------<br>to --------- -- ---- -- --- -- --- ------- -- - -----<br>---------- -- -- -- ---- ----- -- ------ -- --- ------<br>-------,249697.20000000298,249696.40000000596,249150.236,249153.60000000894,249166.906,249700.385,,26,to
screen,html.Screen,0_4_1_0_1_27,2021-12-03T10:46:46.146Z,,,,,,,,,,,,,,,,48,,,,,,,,,,,,,,603.9150000119116,,response,,,10,B,,,,,Space,keypress(Space),,,,lyrical,-- -- --- ------ ------- --------- ----------- --------<br>--------- -------- --- ------- -- ------- ---- -- ------<br>-- --- -------- -------- ---------- ---- ---- ---- ------<br>-- transport -- ---- -- --- -- --- ------- -- - -----<br>---------- -- -- -- ---- ----- -- ------ -- --- ------<br>-------,250305.10000000894,250304.30000001192,249683.715,249697.40000000596,249700.385,250317.099,,27,transport
screen,html.Screen,0_4_1_0_1_28,2021-12-03T10:46:46.946Z,,,,,,,,,,,,,,,,48,,,,,,,,,,,,,,787.1010000029928,,response,,,10,B,,,,,Space,keypress(Space),,,,lyrical,-- -- --- ------ ------- --------- ----------- --------<br>--------- -------- --- ------- -- ------- ---- -- ------<br>-- --- -------- -------- ---------- ---- ---- ---- ------<br>-- --------- it ---- -- --- -- --- ------- -- - -----<br>---------- -- -- -- ---- ----- -- ------ -- --- ------<br>-------,251105,251104.20000000298,250300.43,250305.30000001192,250317.099,251117.371,,28,it
screen,html.Screen,0_4_1_0_1_29,2021-12-03T10:46:47.570Z,,,,,,,,,,,,,,,,48,,,,,,,,,,,,,,610.8290000029665,,response,,,10,B,,,,,Space,keypress(Space),,,,lyrical,-- -- --- ------ ------- --------- ----------- --------<br>--------- -------- --- ------- -- ------- ---- -- ------<br>-- --- -------- -------- ---------- ---- ---- ---- ------<br>-- --------- -- into -- --- -- --- ------- -- - -----<br>---------- -- -- -- ---- ----- -- ------ -- --- ------<br>-------,251729,251728.20000000298,251100.701,251105.20000000298,251117.371,251734.213,,29,into
screen,html.Screen,0_4_1_0_1_30,2021-12-03T10:46:48.258Z,,,,,,,,,,,,,,,,48,,,,,,,,,,,,,,681.9870000029914,,response,,,10,B,,,,,Space,keypress(Space),,,,lyrical,-- -- --- ------ ------- --------- ----------- --------<br>--------- -------- --- ------- -- ------- ---- -- ------<br>-- --- -------- -------- ---------- ---- ---- ---- ------<br>-- --------- -- ---- or --- -- --- ------- -- - -----<br>---------- -- -- -- ---- ----- -- ------ -- --- ------<br>-------,252417,252416.20000000298,251717.543,251729.30000001192,251734.213,252434.395,,30,or
screen,html.Screen,0_4_1_0_1_31,2021-12-03T10:46:48.978Z,,,,,,,,,,,,,,,,48,,,,,,,,,,,,,,701.8050000029907,,response,,,10,B,,,,,Space,keypress(Space),,,,lyrical,-- -- --- ------ ------- --------- ----------- --------<br>--------- -------- --- ------- -- ------- ---- -- ------<br>-- --- -------- -------- ---------- ---- ---- ---- ------<br>-- --------- -- ---- -- out -- --- ------- -- - -----<br>---------- -- -- -- ---- ----- -- ------ -- --- ------<br>-------,253137,253136.20000000298,252417.725,252417.30000001192,252434.395,253151.25,,31,out
screen,html.Screen,0_4_1_0_1_32,2021-12-03T10:46:49.554Z,,,,,,,,,,,,,,,,48,,,,,,,,,,,,,,560.9500000029802,,response,,,10,B,,,,,Space,keypress(Space),,,,lyrical,-- -- --- ------ ------- --------- ----------- --------<br>--------- -------- --- ------- -- ------- ---- -- ------<br>-- --- -------- -------- ---------- ---- ---- ---- ------<br>-- --------- -- ---- -- --- of --- ------- -- - -----<br>---------- -- -- -- ---- ----- -- ------ -- --- ------<br>-------,253713,253712.20000000298,253134.58,253137.20000000298,253151.25,253718.247,,32,of
screen,html.Screen,0_4_1_0_1_33,2021-12-03T10:46:50.115Z,,,,,,,,,,,,,,,,48,,,,,,,,,,,,,,553.9530000029772,,response,,,10,B,,,,,Space,keypress(Space),,,,lyrical,-- -- --- ------ ------- --------- ----------- --------<br>--------- -------- --- ------- -- ------- ---- -- ------<br>-- --- -------- -------- ---------- ---- ---- ---- ------<br>-- --------- -- ---- -- --- -- the ------- -- - -----<br>---------- -- -- -- ---- ----- -- ------ -- --- ------<br>-------,254273.90000000596,254272.20000000298,253701.575,253713.20000000298,253718.247,254284.93,,33,the
screen,html.Screen,0_4_1_0_1_34,2021-12-03T10:46:50.698Z,,,,,,,,,,,,,,,,48,,,,,,,,,,,,,,571.070000000007,,response,,,10,B,,,,,Space,keypress(Space),,,,lyrical,-- -- --- ------ ------- --------- ----------- --------<br>--------- -------- --- ------- -- ------- ---- -- ------<br>-- --- -------- -------- ---------- ---- ---- ---- ------<br>-- --------- -- ---- -- --- -- --- country -- - -----<br>---------- -- -- -- ---- ----- -- ------ -- --- ------<br>-------,254856.80000001192,254856,254268.26,254274.30000001192,254284.93,254868.412,,34,country
screen,html.Screen,0_4_1_0_1_35,2021-12-03T10:46:51.362Z,,,,,,,,,,,,,,,,48,,,,,,,,,,,,,,651.788000002969,,response,,,10,B,,,,,Space,keypress(Space),,,,lyrical,-- -- --- ------ ------- --------- ----------- --------<br>--------- -------- --- ------- -- ------- ---- -- ------<br>-- --- -------- -------- ---------- ---- ---- ---- ------<br>-- --------- -- ---- -- --- -- --- ------- is - -----<br>---------- -- -- -- ---- ----- -- ------ -- --- ------<br>-------,255520.90000000596,255520.20000000298,254851.742,254857.10000000894,254868.412,255535.26,,35,is
screen,html.Screen,0_4_1_0_1_36,2021-12-03T10:46:51.882Z,,,,,,,,,,,,,,,,48,,,,,,,,,,,,,,504.8400000089314,,response,,,10,B,,,,,Space,keypress(Space),,,,lyrical,-- -- --- ------ ------- --------- ----------- --------<br>--------- -------- --- ------- -- ------- ---- -- ------<br>-- --- -------- -------- ---------- ---- ---- ---- ------<br>-- --------- -- ---- -- --- -- --- ------- -- a -----<br>---------- -- -- -- ---- ----- -- ------ -- --- ------<br>-------,256040.90000000596,256040.10000000894,255518.59,255521.10000000894,255535.26,256052.125,,36,a
screen,html.Screen,0_4_1_0_1_37,2021-12-03T10:46:52.514Z,,,,,,,,,,,,,,,,48,,,,,,,,,,,,,,619.875,,response,,,10,B,,,,,Space,keypress(Space),,,,lyrical,-- -- --- ------ ------- --------- ----------- --------<br>--------- -------- --- ------- -- ------- ---- -- ------<br>-- --- -------- -------- ---------- ---- ---- ---- ------<br>-- --------- -- ---- -- --- -- --- ------- -- - crime<br>---------- -- -- -- ---- ----- -- ------ -- --- ------<br>-------,256672.90000000596,256672,256035.454,256041.10000000894,256052.125,256685.574,,37,crime
screen,html.Screen,0_4_1_0_1_38,2021-12-03T10:46:53.298Z,,,,,,,,,,,,,,,,48,,,,,,,,,,,,,,770.4260000000068,,response,,,10,B,,,,,Space,keypress(Space),,,,lyrical,-- -- --- ------ ------- --------- ----------- --------<br>--------- -------- --- ------- -- ------- ---- -- ------<br>-- --- -------- -------- ---------- ---- ---- ---- ------<br>-- --------- -- ---- -- --- -- --- ------- -- - -----<br>punishable -- -- -- ---- ----- -- ------ -- --- ------<br>-------,257456.80000001192,257456,256668.904,256673.20000000298,256685.574,257469.102,,38,punishable
screen,html.Screen,0_4_1_0_1_39,2021-12-03T10:46:54.042Z,,,,,,,,,,,,,,,,48,,,,,,,,,,,,,,730.8979999999865,,response,,,10,B,,,,,Space,keypress(Space),,,,lyrical,-- -- --- ------ ------- --------- ----------- --------<br>--------- -------- --- ------- -- ------- ---- -- ------<br>-- --- -------- -------- ---------- ---- ---- ---- ------<br>-- --------- -- ---- -- --- -- --- ------- -- - -----<br>---------- by -- -- ---- ----- -- ------ -- --- ------<br>-------,258200.80000001192,258200,257452.432,257457,257469.102,258202.702,,39,by
screen,html.Screen,0_4_1_0_1_40,2021-12-03T10:46:54.691Z,,,,,,,,,,,,,,,,48,,,,,,,,,,,,,,645.6980000059702,,response,,,10,B,,,,,Space,keypress(Space),,,,lyrical,-- -- --- ------ ------- --------- ----------- --------<br>--------- -------- --- ------- -- ------- ---- -- ------<br>-- --- -------- -------- ---------- ---- ---- ---- ------<br>-- --------- -- ---- -- --- -- --- ------- -- - -----<br>---------- -- up -- ---- ----- -- ------ -- --- ------<br>-------,258849.10000000894,258848.40000000596,258186.031,258201,258202.702,258852.8,,40,up
screen,html.Screen,0_4_1_0_1_41,2021-12-03T10:46:55.402Z,,,,,,,,,,,,,,,,48,,,,,,,,,,,,,,707.1000000059721,,response,,,10,B,,,,,Space,keypress(Space),,,,lyrical,-- -- --- ------ ------- --------- ----------- --------<br>--------- -------- --- ------- -- ------- ---- -- ------<br>-- --- -------- -------- ---------- ---- ---- ---- ------<br>-- --------- -- ---- -- --- -- --- ------- -- - -----<br>---------- -- -- to ---- ----- -- ------ -- --- ------<br>-------,259560.70000000298,259559.90000000596,258836.13,258849.40000000596,258852.8,259569.729,,41,to
screen,html.Screen,0_4_1_0_1_42,2021-12-03T10:46:56.106Z,,,,,,,,,,,,,,,,48,,,,,,,,,,,,,,694.0710000119288,,response,,,10,B,,,,,Space,keypress(Space),,,,lyrical,-- -- --- ------ ------- --------- ----------- --------<br>--------- -------- --- ------- -- ------- ---- -- ------<br>-- --- -------- -------- ---------- ---- ---- ---- ------<br>-- --------- -- ---- -- --- -- --- ------- -- - -----<br>---------- -- -- -- five ----- -- ------ -- --- ------<br>-------,260264.70000000298,260263.80000001192,259553.058,259561,259569.729,260269.845,,42,five
screen,html.Screen,0_4_1_0_1_43,2021-12-03T10:46:56.794Z,,,,,,,,,,,,,,,,48,,,,,,,,,,,,,,681.9550000119198,,response,,,10,B,,,,,Space,keypress(Space),,,,lyrical,-- -- --- ------ ------- --------- ----------- --------<br>--------- -------- --- ------- -- ------- ---- -- ------<br>-- --- -------- -------- ---------- ---- ---- ---- ------<br>-- --------- -- ---- -- --- -- --- ------- -- - -----<br>---------- -- -- -- ---- years -- ------ -- --- ------<br>-------,260952.80000001192,260951.80000001192,260253.175,260264.90000000596,260269.845,260970.003,,43,years
screen,html.Screen,0_4_1_0_1_44,2021-12-03T10:46:57.546Z,,,,,,,,,,,,,,,,48,,,,,,,,,,,,,,733.797000011924,,response,,,10,B,,,,,Space,keypress(Space),,,,lyrical,-- -- --- ------ ------- --------- ----------- --------<br>--------- -------- --- ------- -- ------- ---- -- ------<br>-- --- -------- -------- ---------- ---- ---- ---- ------<br>-- --------- -- ---- -- --- -- --- ------- -- - -----<br>---------- -- -- -- ---- ----- in ------ -- --- ------<br>-------,261704.70000000298,261703.80000001192,260953.333,260953,260970.003,261720.17,,44,in
screen,html.Screen,0_4_1_0_1_45,2021-12-03T10:46:58.234Z,,,,,,,,,,,,,,,,48,,,,,,,,,,,,,,671.6300000119081,,response,,,10,B,,,,,Space,keypress(Space),,,,lyrical,-- -- --- ------ ------- --------- ----------- --------<br>--------- -------- --- ------- -- ------- ---- -- ------<br>-- --- -------- -------- ---------- ---- ---- ---- ------<br>-- --------- -- ---- -- --- -- --- ------- -- - -----<br>---------- -- -- -- ---- ----- -- prison -- --- ------<br>-------,262392.60000000894,262391.8000000119,261703.5,261705,261720.17,262403.831,,45,prison
screen,html.Screen,0_4_1_0_1_46,2021-12-03T10:46:59.034Z,,,,,,,,,,,,,,,,48,,,,,,,,,,,,,,787.8690000029746,,response,,,10,B,,,,,Space,keypress(Space),,,,lyrical,-- -- --- ------ ------- --------- ----------- --------<br>--------- -------- --- ------- -- ------- ---- -- ------<br>-- --- -------- -------- ---------- ---- ---- ---- ------<br>-- --------- -- ---- -- --- -- --- ------- -- - -----<br>---------- -- -- -- ---- ----- -- ------ in --- ------<br>-------,263192.700000003,263191.700000003,262387.16,262393,262403.831,263203.961,,46,in
screen,html.Screen,0_4_1_0_1_47,2021-12-03T10:46:59.858Z,,,,,,,,,,,,,,,,48,,,,,,,,,,,,,,811.73900000297,,response,,,10,B,,,,,Space,keypress(Space),,,,lyrical,-- -- --- ------ ------- --------- ----------- --------<br>--------- -------- --- ------- -- ------- ---- -- ------<br>-- --- -------- -------- ---------- ---- ---- ---- ------<br>-- --------- -- ---- -- --- -- --- ------- -- - -----<br>---------- -- -- -- ---- ----- -- ------ -- the ------<br>-------,264016.5,264015.700000003,263187.291,263192.8000000119,263203.961,264020.84,,47,the
screen,html.Screen,0_4_1_0_1_48,2021-12-03T10:47:00.666Z,,,,,,,,,,,,,,,,48,,,,,,,,,,,,,,802.7600000089151,,response,,,10,B,,,,,Space,keypress(Space),,,,lyrical,-- -- --- ------ ------- --------- ----------- --------<br>--------- -------- --- ------- -- ------- ---- -- ------<br>-- --- -------- -------- ---------- ---- ---- ---- ------<br>-- --------- -- ---- -- --- -- --- ------- -- - -----<br>---------- -- -- -- ---- ----- -- ------ -- --- United<br>-------,264824.40000000596,264823.60000000894,264004.17,264016.700000003,264020.84,264837.73,,48,United
screen,html.Screen,0_4_1_0_1_49,2021-12-03T10:47:01.874Z,,,,,,,,,,,,,,,,48,,,,,,,,,,,,,,1193.9700000029989,,response,,,10,B,,,,,Space,keypress(Space),,,,lyrical,-- -- --- ------ ------- --------- ----------- --------<br>--------- -------- --- ------- -- ------- ---- -- ------<br>-- --- -------- -------- ---------- ---- ---- ---- ------<br>-- --------- -- ---- -- --- -- --- ------- -- - -----<br>---------- -- -- -- ---- ----- -- ------ -- --- ------<br>States.,266032.5,266031.700000003,264821.06,264824.700000003,264837.73,266037.935,,49,States.
Item 10,flow.Loop,0_4_1_0_1,2021-12-03T10:47:01.874Z,,,,,,,,,,,,,,,,,,,,,,,,,,,,,,39020.80400000297,,completion,,,,,,,,,,,,,,,,266033,266031.700000003,226994.226,226995.70000000298,227010.896,266037.935,,,
Question 1,html.Screen,0_4_1_0_2,2021-12-03T10:47:11.370Z,,,,,,,,,,,,,,,,,,,,,,,,,,,false,TRUE,,9489.065000000002,,response,,,10,B,,,,,FALSE,click #choice-2,,,,lyrical,,275528.5,275527,266021.265,266033.10000000894,266037.935,275540.535,,,
Question 2,html.Screen,0_4_1_0_3,2021-12-03T10:47:19.424Z,,,,,,,,,,,,,,,,,,,,,,,,,,,true,TRUE,,8041.865000005986,,response,,,10,B,,,,,TRUE,click #choice-1,,,,lyrical,,283582.90000000596,283582.40000000596,275523.865,275528.8000000119,275540.535,283609.473,,,
Item 10,flow.Sequence,0_4_1_0,2021-12-03T10:47:19.425Z,,,,,,,,,,,,,,,,,,,,,,,,,,,,,,63573.770000005956,,completion,,,,,,,,,,,,,,,,283583.200000003,283582.40000000596,219991.96,219994,220008.63,283609.473,,,
Holding screen,html.Screen,0_4_1_1_0,2021-12-03T10:47:26.442Z,,,,,,,,,,,,,,,,,,,,,,,,,,,,,,7001.744999999995,,timeout,,,,,,,,,,,,,,,,290600.60000000894,290594.548,283592.802,283583.3000000119,283609.473,290611.218,,,
screen,html.Screen,0_4_1_1_1_0,2021-12-03T10:47:28.049Z,,,,,,,,,,,,,,,,51,,,,,,,,,,,,,,1595.682000005967,,response,,,13,B,,,,,Space,keypress(Space),,,,lyrical,American -------- --- --- ---- --- --- ------ -- --------<br>---- --------- --- ------- ------------ ---------- ---------<br>--- ---------- ------- ---------- ------- -- -------- ----<br>---- --- ------ ----- ------ -- ---- --- ----- -- - -------<br>-------- -- --- --- -- ----- ----------- ----- -----------<br>---- --- ---------- --- ---- --- -- ----------,292207.90000000596,292206.90000000596,290594.548,290600.90000000596,290611.218,292211.395,,0,American
screen,html.Screen,0_4_1_1_1_1,2021-12-03T10:47:28.689Z,,,,,,,,,,,,,,,,51,,,,,,,,,,,,,,634.9050000119023,,response,,,13,B,,,,,Space,keypress(Space),,,,lyrical,-------- industry --- --- ---- --- --- ------ -- --------<br>---- --------- --- ------- ------------ ---------- ---------<br>--- ---------- ------- ---------- ------- -- -------- ----<br>---- --- ------ ----- ------ -- ---- --- ----- -- - -------<br>-------- -- --- --- -- ----- ----------- ----- -----------<br>---- --- ---------- --- ---- --- -- ----------,292847.200000003,292846.3000000119,292194.726,292208.200000003,292211.395,292861.922,,1,industry
screen,html.Screen,0_4_1_1_1_2,2021-12-03T10:47:29.121Z,,,,,,,,,,,,,,,,51,,,,,,,,,,,,,,416.47800000594,,response,,,13,B,,,,,Space,keypress(Space),,,,lyrical,-------- -------- may --- ---- --- --- ------ -- --------<br>---- --------- --- ------- ------------ ---------- ---------<br>--- ---------- ------- ---------- ------- -- -------- ----<br>---- --- ------ ----- ------ -- ---- --- ----- -- - -------<br>-------- -- --- --- -- ----- ----------- ----- -----------<br>---- --- ---------- --- ---- --- -- ----------,293279.10000000894,293278.40000000596,292845.251,292847.40000000596,292861.922,293295.32,,2,may
screen,html.Screen,0_4_1_1_1_3,2021-12-03T10:47:29.673Z,,,,,,,,,,,,,,,,51,,,,,,,,,,,,,,534.980000011914,,response,,,13,B,,,,,Space,keypress(Space),,,,lyrical,-------- -------- --- not ---- --- --- ------ -- --------<br>---- --------- --- ------- ------------ ---------- ---------<br>--- ---------- ------- ---------- ------- -- -------- ----<br>---- --- ------ ----- ------ -- ---- --- ----- -- - -------<br>-------- -- --- --- -- ----- ----------- ----- -----------<br>---- --- ---------- --- ---- --- -- ----------,293831.10000000894,293830.3000000119,293278.65,293279.40000000596,293295.32,293845.448,,3,not
