sender,sender_type,sender_id,timestamp,meta,,Blues,Classical,Country,Dance,Electronic,Folk,Gospel,Hip-Hop,Jazz,Latin,Musical/Film,New-age,Pop,Provo_ID,R&B,Rap,Reggae,Religious,Rock,Soul,Swing,Traditional,age,artist_name,correct,correctResponse,distraction,duration,education,ended_on,familiarity,gender,item,list,music_frequency,offensiveness,pleasantness,preference,response,response_action,snippet_file,song_name,song_rating,sound,text,time_commit,time_end,time_render,time_run,time_show,time_switch,url,word,word_ID
Instructions,html.Page,0_0,2021-11-26T11:17:30.288Z,"{""labjs_version"":""20.2.3"",""labjs_build"":{""flavor"":""production"",""commit"":""7ea907d66ca8aeef8054924ca5d82ffbe11e34e5""},""location"":""https://run.pavlovia.org/mvasilev/lab_music_c/"",""userAgent"":""Mozilla/5.0 (Windows NT 6.1; Win64; x64) AppleWebKit/537.36 (KHTML, like Gecko) Chrome/96.0.4664.45 Safari/537.36"",""platform"":""Win32"",""language"":""en-US"",""locale"":""en-US"",""timeZone"":""Europe/London"",""timezoneOffset"":0,""screen_width"":1920,""screen_height"":1080,""scroll_width"":1920,""scroll_height"":959,""window_innerWidth"":1920,""window_innerHeight"":1007,""devicePixelRatio"":1}",,,,,,,,,,,,,,,,,,,,,,,,,,,,,15472.518999999813,,form submission,,,,,,,,,,,,,,,,25545.5,25544.799999999814,10055.616,10068.799999999814,10072.281,25572.891,{},,
Headphones,html.Page,0_1,2021-11-26T11:17:32.353Z,,,,,,,,,,,,,,,,,,,,,,,,,,,,,,2036.7089999996278,,form submission,,,,,,,,,,,,,,,,27610,27609.599999999627,25556.188,25546,25572.891,27621.598,,,
Holding screen,html.Screen,0_2_0_0,2021-11-26T11:17:42.350Z,,,,,,,,,,,,,,,,,,,,,,,,,,,,,,9999.418999999998,,timeout,,,,,,,,,,,,,,,,37607.700000000186,37604.353,27604.933,27610.299999999814,27621.598,37621.017,,,
screen,html.Screen,0_2_0_1_0,2021-11-26T11:17:43.826Z,,,,,,,,,,,,,,,,53,,,,,,,,,,,,,,1461.282999999814,,response,,,99,,,,,,Space,keypress(Space),,,,,When -- ----- -- ------ - ------- --- ----------<br>------------- ------ ------ ---- ---- ------- ----- -- ----<br>-------- ------- -- ---------- --- - --- ----- ----- ----<br>---- --- --- ----- --- ---- ---- ------- ----- ---- -------<br>--- --- -- ----- -- --- ---- -- --- ---- -- ------ ------<br>--- ----- -- ----,39083.40000000037,39082.299999999814,37604.353,37608,37621.017,39087.812,,0,When
screen,html.Screen,0_2_0_1_1,2021-11-26T11:17:44.633Z,,,,,,,,,,,,,,,,53,,,,,,,,,,,,,,802.1880000000019,,response,,,99,,,,,,Space,keypress(Space),,,,,---- it ----- -- ------ - ------- --- ----------<br>------------- ------ ------ ---- ---- ------- ----- -- ----<br>-------- ------- -- ---------- --- - --- ----- ----- ----<br>---- --- --- ----- --- ---- ---- ------- ----- ---- -------<br>--- --- -- ----- -- --- ---- -- --- ---- -- ------ ------<br>--- ----- -- ----,39890.59999999963,39890,39071.146,39083.59999999963,39087.812,39904.387,,1,it
screen,html.Screen,0_2_0_1_2,2021-11-26T11:17:45.193Z,,,,,,,,,,,,,,,,53,,,,,,,,,,,,,,545.5130000003701,,response,,,99,,,,,,Space,keypress(Space),,,,,---- -- comes -- ------ - ------- --- ----------<br>------------- ------ ------ ---- ---- ------- ----- -- ----<br>-------- ------- -- ---------- --- - --- ----- ----- ----<br>---- --- --- ----- --- ---- ---- ------- ----- ---- -------<br>--- --- -- ----- -- --- ---- -- --- ---- -- ------ ------<br>--- ----- -- ----,40450.59999999963,40449.90000000037,39887.722,39890.90000000037,39904.387,40454.362,,2,comes
screen,html.Screen,0_2_0_1_3,2021-11-26T11:17:45.745Z,,,,,,,,,,,,,,,,53,,,,,,,,,,,,,,547.637999999999,,response,,,99,,,,,,Space,keypress(Space),,,,,---- -- ----- to ------ - ------- --- ----------<br>------------- ------ ------ ---- ---- ------- ----- -- ----<br>-------- ------- -- ---------- --- - --- ----- ----- ----<br>---- --- --- ----- --- ---- ---- ------- ----- ---- -------<br>--- --- -- ----- -- --- ---- -- --- ---- -- ------ ------<br>--- ----- -- ----,41002.700000000186,41002,40437.697,40450.700000000186,40454.362,41004.353,,3,to
screen,html.Screen,0_2_0_1_4,2021-11-26T11:17:46.346Z,,,,,,,,,,,,,,,,53,,,,,,,,,,,,,,597.6469999999972,,response,,,99,,,,,,Space,keypress(Space),,,,,---- -- ----- -- having - ------- --- ----------<br>------------- ------ ------ ---- ---- ------- ----- -- ----<br>-------- ------- -- ---------- --- - --- ----- ----- ----<br>---- --- --- ----- --- ---- ---- ------- ----- ---- -------<br>--- --- -- ----- -- --- ---- -- --- ---- -- ------ ------<br>--- ----- -- ----,41602.799999999814,41602,40987.688,41003,41004.353,41604.379,,4,having
screen,html.Screen,0_2_0_1_5,2021-11-26T11:17:46.769Z,,,,,,,,,,,,,,,,53,,,,,,,,,,,,,,421.5210000003717,,response,,,99,,,,,,Space,keypress(Space),,,,,---- -- ----- -- ------ a ------- --- ----------<br>------------- ------ ------ ---- ---- ------- ----- -- ----<br>-------- ------- -- ---------- --- - --- ----- ----- ----<br>---- --- --- ----- --- ---- ---- ------- ----- ---- -------<br>--- --- -- ----- -- --- ---- -- --- ---- -- ------ ------<br>--- ----- -- ----,42026.59999999963,42025.90000000037,41587.713,41603.09999999963,41604.379,42037.656,,5,a
screen,html.Screen,0_2_0_1_6,2021-11-26T11:17:47.433Z,,,,,,,,,,,,,,,,53,,,,,,,,,,,,,,652.2440000003699,,response,,,99,,,,,,Space,keypress(Space),,,,,---- -- ----- -- ------ - lasting --- ----------<br>------------- ------ ------ ---- ---- ------- ----- -- ----<br>-------- ------- -- ---------- --- - --- ----- ----- ----<br>---- --- --- ----- --- ---- ---- ------- ----- ---- -------<br>--- --- -- ----- -- --- ---- -- --- ---- -- ------ ------<br>--- ----- -- ----,42690.700000000186,42689.90000000037,42020.991,42026.90000000037,42037.656,42704.285,,6,lasting
screen,html.Screen,0_2_0_1_7,2021-11-26T11:17:47.913Z,,,,,,,,,,,,,,,,53,,,,,,,,,,,,,,465.51499999981024,,response,,,99,,,,,,Space,keypress(Space),,,,,---- -- ----- -- ------ - ------- and ----------<br>------------- ------ ------ ---- ---- ------- ----- -- ----<br>-------- ------- -- ---------- --- - --- ----- ----- ----<br>---- --- --- ----- --- ---- ---- ------- ----- ---- -------<br>--- --- -- ----- -- --- ---- -- --- ---- -- ------ ------<br>--- ----- -- ----,43170.5,43169.799999999814,42687.62,42690.799999999814,42704.285,43187.587,,7,and
screen,html.Screen,0_2_0_1_8,2021-11-26T11:17:48.433Z,,,,,,,,,,,,,,,,53,,,,,,,,,,,,,,502.313000000373,,response,,,99,,,,,,Space,keypress(Space),,,,,---- -- ----- -- ------ - ------- --- fulfilling<br>------------- ------ ------ ---- ---- ------- ----- -- ----<br>-------- ------- -- ---------- --- - --- ----- ----- ----<br>---- --- --- ----- --- ---- ---- ------- ----- ---- -------<br>--- --- -- ----- -- --- ---- -- --- ---- -- ------ ------<br>--- ----- -- ----,43690.700000000186,43689.90000000037,43170.922,43170.700000000186,43187.587,43704.201,,8,fulfilling
screen,html.Screen,0_2_0_1_9,2021-11-26T11:17:49.481Z,,,,,,,,,,,,,,,,53,,,,,,,,,,,,,,1033.5989999998128,,response,,,99,,,,,,Space,keypress(Space),,,,,"---- -- ----- -- ------ - ------- --- ----------<br>relationship, ------ ------ ---- ---- ------- ----- -- ----<br>-------- ------- -- ---------- --- - --- ----- ----- ----<br>---- --- --- ----- --- ---- ---- ------- ----- ---- -------<br>--- --- -- ----- -- --- ---- -- --- ---- -- ------ ------<br>--- ----- -- ----",44738.5,44737.799999999814,43687.536,43690.90000000037,43704.201,44754.246,,9,"relationship,"
screen,html.Screen,0_2_0_1_10,2021-11-26T11:17:50.113Z,,,,,,,,,,,,,,,,53,,,,,,,,,,,,,,615.4540000001871,,response,,,99,,,,,,Space,keypress(Space),,,,,---- -- ----- -- ------ - ------- --- ----------<br>------------- common ------ ---- ---- ------- ----- -- ----<br>-------- ------- -- ---------- --- - --- ----- ----- ----<br>---- --- --- ----- --- ---- ---- ------- ----- ---- -------<br>--- --- -- ----- -- --- ---- -- --- ---- -- ------ ------<br>--- ----- -- ----,45370.5,45369.700000000186,44737.58,44738.700000000186,44754.246,45387.346,,10,common
screen,html.Screen,0_2_0_1_11,2021-11-26T11:17:50.673Z,,,,,,,,,,,,,,,,53,,,,,,,,,,,,,,542.453999999816,,response,,,99,,,,,,Space,keypress(Space),,,,,---- -- ----- -- ------ - ------- --- ----------<br>------------- ------ wisdom ---- ---- ------- ----- -- ----<br>-------- ------- -- ---------- --- - --- ----- ----- ----<br>---- --- --- ----- --- ---- ---- ------- ----- ---- -------<br>--- --- -- ----- -- --- ---- -- --- ---- -- ------ ------<br>--- ----- -- ----,45930.5,45929.799999999814,45370.682,45370.59999999963,45387.346,45937.451,,11,wisdom
screen,html.Screen,0_2_0_1_12,2021-11-26T11:17:51.289Z,,,,,,,,,,,,,,,,53,,,,,,,,,,,,,,608.2490000001853,,response,,,99,,,,,,Space,keypress(Space),,,,,---- -- ----- -- ------ - ------- --- ----------<br>------------- ------ ------ says ---- ------- ----- -- ----<br>-------- ------- -- ---------- --- - --- ----- ----- ----<br>---- --- --- ----- --- ---- ---- ------- ----- ---- -------<br>--- --- -- ----- -- --- ---- -- --- ---- -- ------ ------<br>--- ----- -- ----,46546.299999999814,46545.700000000186,45920.786,45930.700000000186,45937.451,46554.053,,12,says
screen,html.Screen,0_2_0_1_13,2021-11-26T11:17:51.705Z,,,,,,,,,,,,,,,,53,,,,,,,,,,,,,,407.6470000001864,,response,,,99,,,,,,Space,keypress(Space),,,,,---- -- ----- -- ------ - ------- --- ----------<br>------------- ------ ------ ---- that ------- ----- -- ----<br>-------- ------- -- ---------- --- - --- ----- ----- ----<br>---- --- --- ----- --- ---- ---- ------- ----- ---- -------<br>--- --- -- ----- -- --- ---- -- --- ---- -- ------ ------<br>--- ----- -- ----,46962.200000000186,46961.700000000186,46537.388,46546.5,46554.053,46970.785,,13,that
screen,html.Screen,0_2_0_1_14,2021-11-26T11:17:52.097Z,,,,,,,,,,,,,,,,53,,,,,,,,,,,,,,382.9150000001828,,response,,,99,,,,,,Space,keypress(Space),,,,,---- -- ----- -- ------ - ------- --- ----------<br>------------- ------ ------ ---- ---- feeling ----- -- ----<br>-------- ------- -- ---------- --- - --- ----- ----- ----<br>---- --- --- ----- --- ---- ---- ------- ----- ---- -------<br>--- --- -- ----- -- --- ---- -- --- ---- -- ------ ------<br>--- ----- -- ----,47354.299999999814,47353.700000000186,46954.119,46962.40000000037,46970.785,47370.701,,14,feeling
screen,html.Screen,0_2_0_1_15,2021-11-26T11:17:52.537Z,,,,,,,,,,,,,,,,53,,,,,,,,,,,,,,422.89899999962654,,response,,,99,,,,,,Space,keypress(Space),,,,,---- -- ----- -- ------ - ------- --- ----------<br>------------- ------ ------ ---- ---- ------- close -- ----<br>-------- ------- -- ---------- --- - --- ----- ----- ----<br>---- --- --- ----- --- ---- ---- ------- ----- ---- -------<br>--- --- -- ----- -- --- ---- -- --- ---- -- ------ ------<br>--- ----- -- ----,47794.299999999814,47793.59999999963,47354.036,47354.40000000037,47370.701,47804.085,,15,close
screen,html.Screen,0_2_0_1_16,2021-11-26T11:17:52.929Z,,,,,,,,,,,,,,,,53,,,,,,,,,,,,,,381.51499999962834,,response,,,99,,,,,,Space,keypress(Space),,,,,---- -- ----- -- ------ - ------- --- ----------<br>------------- ------ ------ ---- ---- ------- ----- to ----<br>-------- ------- -- ---------- --- - --- ----- ----- ----<br>---- --- --- ----- --- ---- ---- ------- ----- ---- -------<br>--- --- -- ----- -- --- ---- -- --- ---- -- ------ ------<br>--- ----- -- ----,48186.200000000186,48185.59999999963,47787.419,47794.40000000037,47804.085,48187.338,,16,to
screen,html.Screen,0_2_0_1_17,2021-11-26T11:17:53.353Z,,,,,,,,,,,,,,,,53,,,,,,,,,,,,,,422.2619999996241,,response,,,99,,,,,,Space,keypress(Space),,,,,---- -- ----- -- ------ - ------- --- ----------<br>------------- ------ ------ ---- ---- ------- ----- -- your<br>-------- ------- -- ---------- --- - --- ----- ----- ----<br>---- --- --- ----- --- ---- ---- ------- ----- ---- -------<br>--- --- -- ----- -- --- ---- -- --- ---- -- ------ ------<br>--- ----- -- ----,48610.200000000186,48609.59999999963,48170.673,48186.299999999814,48187.338,48620.705,,17,your
screen,html.Screen,0_2_0_1_18,2021-11-26T11:17:53.841Z,,,,,,,,,,,,,,,,53,,,,,,,,,,,,,,477.094999999812,,response,,,99,,,,,,Space,keypress(Space),,,,,---- -- ----- -- ------ - ------- --- ----------<br>------------- ------ ------ ---- ---- ------- ----- -- ----<br>romantic ------- -- ---------- --- - --- ----- ----- ----<br>---- --- --- ----- --- ---- ---- ------- ----- ---- -------<br>--- --- -- ----- -- --- ---- -- --- ---- -- ------ ------<br>--- ----- -- ----,49098.299999999814,49097.799999999814,48604.039,48610.40000000037,48620.705,49103.867,,18,romantic
screen,html.Screen,0_2_0_1_19,2021-11-26T11:17:54.249Z,,,,,,,,,,,,,,,,53,,,,,,,,,,,,,,401.63300000000163,,response,,,99,,,,,,Space,keypress(Space),,,,,---- -- ----- -- ------ - ------- --- ----------<br>------------- ------ ------ ---- ---- ------- ----- -- ----<br>-------- partner -- ---------- --- - --- ----- ----- ----<br>---- --- --- ----- --- ---- ---- ------- ----- ---- -------<br>--- --- -- ----- -- --- ---- -- --- ---- -- ------ ------<br>--- ----- -- ----,49506.09999999963,49505.5,49087.203,49098.5,49103.867,49520.597,,19,partner
screen,html.Screen,0_2_0_1_20,2021-11-26T11:17:54.657Z,,,,,,,,,,,,,,,,53,,,,,,,,,,,,,,392.9029999999984,,response,,,99,,,,,,Space,keypress(Space),,,,,---- -- ----- -- ------ - ------- --- ----------<br>------------- ------ ------ ---- ---- ------- ----- -- ----<br>-------- ------- is ---------- --- - --- ----- ----- ----<br>---- --- --- ----- --- ---- ---- ------- ----- ---- -------<br>--- --- -- ----- -- --- ---- -- --- ---- -- ------ ------<br>--- ----- -- ----,49914.09999999963,49913.5,49503.932,49506.299999999814,49520.597,49920.638,,20,is
screen,html.Screen,0_2_0_1_21,2021-11-26T11:17:56.257Z,,,,,,,,,,,,,,,,53,,,,,,,,,,,,,,1592.862000000001,,response,,,99,,,,,,Space,keypress(Space),,,,,---- -- ----- -- ------ - ------- --- ----------<br>------------- ------ ------ ---- ---- ------- ----- -- ----<br>-------- ------- -- paramount. --- - --- ----- ----- ----<br>---- --- --- ----- --- ---- ---- ------- ----- ---- -------<br>--- --- -- ----- -- --- ---- -- --- ---- -- ------ ------<br>--- ----- -- ----,51514.09999999963,51513.5,49903.972,49914.200000000186,49920.638,51520.323,,21,paramount.
screen,html.Screen,0_2_0_1_22,2021-11-26T11:17:56.761Z,,,,,,,,,,,,,,,,53,,,,,,,,,,,,,,497.07700000037585,,response,,,99,,,,,,Space,keypress(Space),,,,,---- -- ----- -- ------ - ------- --- ----------<br>------------- ------ ------ ---- ---- ------- ----- -- ----<br>-------- ------- -- ---------- But - --- ----- ----- ----<br>---- --- --- ----- --- ---- ---- ------- ----- ---- -------<br>--- --- -- ----- -- --- ---- -- --- ---- -- ------ ------<br>--- ----- -- ----,52018,52017.40000000037,51503.659,51514.5,51520.323,52020.445,,22,But
screen,html.Screen,0_2_0_1_23,2021-11-26T11:17:57.305Z,,,,,,,,,,,,,,,,53,,,,,,,,,,,,,,540.854999999814,,response,,,99,,,,,,Space,keypress(Space),,,,,---- -- ----- -- ------ - ------- --- ----------<br>------------- ------ ------ ---- ---- ------- ----- -- ----<br>-------- ------- -- ---------- --- a --- ----- ----- ----<br>---- --- --- ----- --- ---- ---- ------- ----- ---- -------<br>--- --- -- ----- -- --- ---- -- --- ---- -- ------ ------<br>--- ----- -- ----,52562,52561.299999999814,52003.78,52018.200000000186,52020.445,52570.433,,23,a
screen,html.Screen,0_2_0_1_24,2021-11-26T11:17:57.905Z,,,,,,,,,,,,,,,,53,,,,,,,,,,,,,,590.9670000003753,,response,,,99,,,,,,Space,keypress(Space),,,,,---- -- ----- -- ------ - ------- --- ----------<br>------------- ------ ------ ---- ---- ------- ----- -- ----<br>-------- ------- -- ---------- --- - new ----- ----- ----<br>---- --- --- ----- --- ---- ---- ------- ----- ---- -------<br>--- --- -- ----- -- --- ---- -- --- ---- -- ------ ------<br>--- ----- -- ----,53162,53161.40000000037,52553.768,52562.200000000186,52570.433,53170.402,,24,new
screen,html.Screen,0_2_0_1_25,2021-11-26T11:17:58.401Z,,,,,,,,,,,,,,,,53,,,,,,,,,,,,,,486.99800000037067,,response,,,99,,,,,,Space,keypress(Space),,,,,---- -- ----- -- ------ - ------- --- ----------<br>------------- ------ ------ ---- ---- ------- ----- -- ----<br>-------- ------- -- ---------- --- - --- study ----- ----<br>---- --- --- ----- --- ---- ---- ------- ----- ---- -------<br>--- --- -- ----- -- --- ---- -- --- ---- -- ------ ------<br>--- ----- -- ----,53658,53657.40000000037,53153.737,53162.200000000186,53170.402,53670.395,,25,study
screen,html.Screen,0_2_0_1_26,2021-11-26T11:17:58.889Z,,,,,,,,,,,,,,,,53,,,,,,,,,,,,,,474.90499999981694,,response,,,99,,,,,,Space,keypress(Space),,,,,---- -- ----- -- ------ - ------- --- ----------<br>------------- ------ ------ ---- ---- ------- ----- -- ----<br>-------- ------- -- ---------- --- - --- ----- finds ----<br>---- --- --- ----- --- ---- ---- ------- ----- ---- -------<br>--- --- -- ----- -- --- ---- -- --- ---- -- ------ ------<br>--- ----- -- ----,54145.90000000037,54145.299999999814,53653.73,53658.200000000186,53670.395,54153.714,,26,finds
screen,html.Screen,0_2_0_1_27,2021-11-26T11:17:59.273Z,,,,,,,,,,,,,,,,53,,,,,,,,,,,,,,375.5859999998138,,response,,,99,,,,,,Space,keypress(Space),,,,,---- -- ----- -- ------ - ------- --- ----------<br>------------- ------ ------ ---- ---- ------- ----- -- ----<br>-------- ------- -- ---------- --- - --- ----- ----- that<br>---- --- --- ----- --- ---- ---- ------- ----- ---- -------<br>--- --- -- ----- -- --- ---- -- --- ---- -- ------ ------<br>--- ----- -- ----,54529.799999999814,54529.299999999814,54137.049,54146.09999999963,54153.714,54537.003,,27,that
screen,html.Screen,0_2_0_1_28,2021-11-26T11:17:59.761Z,,,,,,,,,,,,,,,,53,,,,,,,,,,,,,,480.29699999981676,,response,,,99,,,,,,Space,keypress(Space),,,,,---- -- ----- -- ------ - ------- --- ----------<br>------------- ------ ------ ---- ---- ------- ----- -- ----<br>-------- ------- -- ---------- --- - --- ----- ----- ----<br>it's --- --- ----- --- ---- ---- ------- ----- ---- -------<br>--- --- -- ----- -- --- ---- -- --- ---- -- ------ ------<br>--- ----- -- ----,55018,55017.299999999814,54520.338,54530,54537.003,55020.387,,28,it's
screen,html.Screen,0_2_0_1_29,2021-11-26T11:18:00.137Z,,,,,,,,,,,,,,,,53,,,,,,,,,,,,,,372.8130000001838,,response,,,99,,,,,,Space,keypress(Space),,,,,---- -- ----- -- ------ - ------- --- ----------<br>------------- ------ ------ ---- ---- ------- ----- -- ----<br>-------- ------- -- ---------- --- - --- ----- ----- ----<br>---- not --- ----- --- ---- ---- ------- ----- ---- -------<br>--- --- -- ----- -- --- ---- -- --- ---- -- ------ ------<br>--- ----- -- ----,55393.799999999814,55393.200000000186,55003.721,55018.09999999963,55020.387,55403.67,,29,not
screen,html.Screen,0_2_0_1_30,2021-11-26T11:18:00.537Z,,,,,,,,,,,,,,,,53,,,,,,,,,,,,,,389.530000000188,,response,,,99,,,,,,Space,keypress(Space),,,,,---- -- ----- -- ------ - ------- --- ----------<br>------------- ------ ------ ---- ---- ------- ----- -- ----<br>-------- ------- -- ---------- --- - --- ----- ----- ----<br>---- --- how ----- --- ---- ---- ------- ----- ---- -------<br>--- --- -- ----- -- --- ---- -- --- ---- -- ------ ------<br>--- ----- -- ----,55793.799999999814,55793.200000000186,55387.005,55393.90000000037,55403.67,55803.586,,30,how
screen,html.Screen,0_2_0_1_31,2021-11-26T11:18:00.937Z,,,,,,,,,,,,,,,,53,,,,,,,,,,,,,,389.71399999981077,,response,,,99,,,,,,Space,keypress(Space),,,,,---- -- ----- -- ------ - ------- --- ----------<br>------------- ------ ------ ---- ---- ------- ----- -- ----<br>-------- ------- -- ---------- --- - --- ----- ----- ----<br>---- --- --- close --- ---- ---- ------- ----- ---- -------<br>--- --- -- ----- -- --- ---- -- --- ---- -- ------ ------<br>--- ----- -- ----,56193.799999999814,56193.299999999814,55786.922,55793.90000000037,55803.586,56203.666,,31,close
screen,html.Screen,0_2_0_1_32,2021-11-26T11:18:01.352Z,,,,,,,,,,,,,,,,53,,,,,,,,,,,,,,405.5340000001888,,response,,,99,,,,,,Space,keypress(Space),,,,,---- -- ----- -- ------ - ------- --- ----------<br>------------- ------ ------ ---- ---- ------- ----- -- ----<br>-------- ------- -- ---------- --- - --- ----- ----- ----<br>---- --- --- ----- you ---- ---- ------- ----- ---- -------<br>--- --- -- ----- -- --- ---- -- --- ---- -- ------ ------<br>--- ----- -- ----,56609.700000000186,56609.200000000186,56187,56194,56203.666,56620.266,,32,you
screen,html.Screen,0_2_0_1_33,2021-11-26T11:18:01.761Z,,,,,,,,,,,,,,,,53,,,,,,,,,,,,,,396.934000000183,,response,,,99,,,,,,Space,keypress(Space),,,,,---- -- ----- -- ------ - ------- --- ----------<br>------------- ------ ------ ---- ---- ------- ----- -- ----<br>-------- ------- -- ---------- --- - --- ----- ----- ----<br>---- --- --- ----- --- feel ---- ------- ----- ---- -------<br>--- --- -- ----- -- --- ---- -- --- ---- -- ------ ------<br>--- ----- -- ----,57017.799999999814,57017.200000000186,56603.601,56609.90000000037,56620.266,57020.244,,33,feel
screen,html.Screen,0_2_0_1_34,2021-11-26T11:18:02.137Z,,,,,,,,,,,,,,,,53,,,,,,,,,,,,,,372.9560000001875,,response,,,99,,,,,,Space,keypress(Space),,,,,---- -- ----- -- ------ - ------- --- ----------<br>------------- ------ ------ ---- ---- ------- ----- -- ----<br>-------- ------- -- ---------- --- - --- ----- ----- ----<br>---- --- --- ----- --- ---- that ------- ----- ---- -------<br>--- --- -- ----- -- --- ---- -- --- ---- -- ------ ------<br>--- ----- -- ----,57393.799999999814,57393.200000000186,57003.579,57018,57020.244,57403.541,,34,that
screen,html.Screen,0_2_0_1_35,2021-11-26T11:18:02.568Z,,,,,,,,,,,,,,,,53,,,,,,,,,,,,,,421.55899999963003,,response,,,99,,,,,,Space,keypress(Space),,,,,---- -- ----- -- ------ - ------- --- ----------<br>------------- ------ ------ ---- ---- ------- ----- -- ----<br>-------- ------- -- ---------- --- - --- ----- ----- ----<br>---- --- --- ----- --- ---- ---- matters ----- ---- -------<br>--- --- -- ----- -- --- ---- -- --- ---- -- ------ ------<br>--- ----- -- ----,57825.700000000186,57825.09999999963,57386.876,57393.90000000037,57403.541,57836.936,,35,matters
screen,html.Screen,0_2_0_1_36,2021-11-26T11:18:03.464Z,,,,,,,,,,,,,,,,53,,,,,,,,,,,,,,884.163999999626,,response,,,99,,,,,,Space,keypress(Space),,,,,"---- -- ----- -- ------ - ------- --- ----------<br>------------- ------ ------ ---- ---- ------- ----- -- ----<br>-------- ------- -- ---------- --- - --- ----- ----- ----<br>---- --- --- ----- --- ---- ---- ------- most, ---- -------<br>--- --- -- ----- -- --- ---- -- --- ---- -- ------ ------<br>--- ----- -- ----",58721.799999999814,58721.09999999963,57820.27,57825.799999999814,57836.936,58736.731,,36,"most,"
screen,html.Screen,0_2_0_1_37,2021-11-26T11:18:03.945Z,,,,,,,,,,,,,,,,53,,,,,,,,,,,,,,464.56899999981397,,response,,,99,,,,,,Space,keypress(Space),,,,,---- -- ----- -- ------ - ------- --- ----------<br>------------- ------ ------ ---- ---- ------- ----- -- ----<br>-------- ------- -- ---------- --- - --- ----- ----- ----<br>---- --- --- ----- --- ---- ---- ------- ----- it's -------<br>--- --- -- ----- -- --- ---- -- --- ---- -- ------ ------<br>--- ----- -- ----,59201.90000000037,59201.299999999814,58720.067,58722,58736.731,59203.478,,37,it's
screen,html.Screen,0_2_0_1_38,2021-11-26T11:18:04.408Z,,,,,,,,,,,,,,,,53,,,,,,,,,,,,,,461.5219999999972,,response,,,99,,,,,,Space,keypress(Space),,,,,---- -- ----- -- ------ - ------- --- ----------<br>------------- ------ ------ ---- ---- ------- ----- -- ----<br>-------- ------- -- ---------- --- - --- ----- ----- ----<br>---- --- --- ----- --- ---- ---- ------- ----- ---- whether<br>--- --- -- ----- -- --- ---- -- --- ---- -- ------ ------<br>--- ----- -- ----,59665.59999999963,59665,59186.813,59202.09999999963,59203.478,59670.112,,38,whether
screen,html.Screen,0_2_0_1_39,2021-11-26T11:18:04.819Z,,,,,,,,,,,,,,,,53,,,,,,,,,,,,,,402.887999999999,,response,,,99,,,,,,Space,keypress(Space),,,,,---- -- ----- -- ------ - ------- --- ----------<br>------------- ------ ------ ---- ---- ------- ----- -- ----<br>-------- ------- -- ---------- --- - --- ----- ----- ----<br>---- --- --- ----- --- ---- ---- ------- ----- ---- -------<br>you --- -- ----- -- --- ---- -- --- ---- -- ------ ------<br>--- ----- -- ----,60073.59999999963,60073,59653.447,59665.799999999814,59670.112,60086.685,,39,you
screen,html.Screen,0_2_0_1_40,2021-11-26T11:18:05.203Z,,,,,,,,,,,,,,,,53,,,,,,,,,,,,,,370.21500000037486,,response,,,99,,,,,,Space,keypress(Space),,,,,---- -- ----- -- ------ - ------- --- ----------<br>------------- ------ ------ ---- ---- ------- ----- -- ----<br>-------- ------- -- ---------- --- - --- ----- ----- ----<br>---- --- --- ----- --- ---- ---- ------- ----- ---- -------<br>--- are -- ----- -- --- ---- -- --- ---- -- ------ ------<br>--- ----- -- ----,60457.5,60456.90000000037,60070.021,60073.799999999814,60086.685,60470.126,,40,are
screen,html.Screen,0_2_0_1_41,2021-11-26T11:18:05.723Z,,,,,,,,,,,,,,,,53,,,,,,,,,,,,,,506.9739999996309,,response,,,99,,,,,,Space,keypress(Space),,,,,---- -- ----- -- ------ - ------- --- ----------<br>------------- ------ ------ ---- ---- ------- ----- -- ----<br>-------- ------- -- ---------- --- - --- ----- ----- ----<br>---- --- --- ----- --- ---- ---- ------- ----- ---- -------<br>--- --- as ----- -- --- ---- -- --- ---- -- ------ ------<br>--- ----- -- ----,60977.700000000186,60977.09999999963,60453.46,60457.700000000186,60470.126,60986.704,,41,as
screen,html.Screen,0_2_0_1_42,2021-11-26T11:18:06.163Z,,,,,,,,,,,,,,,,53,,,,,,,,,,,,,,430.2960000000021,,response,,,99,,,,,,Space,keypress(Space),,,,,---- -- ----- -- ------ - ------- --- ----------<br>------------- ------ ------ ---- ---- ------- ----- -- ----<br>-------- ------- -- ---------- --- - --- ----- ----- ----<br>---- --- --- ----- --- ---- ---- ------- ----- ---- -------<br>--- --- -- close -- --- ---- -- --- ---- -- ------ ------<br>--- ----- -- ----,61417.5,61417,60970.039,60977.90000000037,60986.704,61420.077,,42,close
screen,html.Screen,0_2_0_1_43,2021-11-26T11:18:06.563Z,,,,,,,,,,,,,,,,53,,,,,,,,,,,,,,396.82300000037503,,response,,,99,,,,,,Space,keypress(Space),,,,,---- -- ----- -- ------ - ------- --- ----------<br>------------- ------ ------ ---- ---- ------- ----- -- ----<br>-------- ------- -- ---------- --- - --- ----- ----- ----<br>---- --- --- ----- --- ---- ---- ------- ----- ---- -------<br>--- --- -- ----- as --- ---- -- --- ---- -- ------ ------<br>--- ----- -- ----,61817.5,61816.90000000037,61403.411,61417.700000000186,61420.077,61819.952,,43,as
screen,html.Screen,0_2_0_1_44,2021-11-26T11:18:06.971Z,,,,,,,,,,,,,,,,53,,,,,,,,,,,,,,405.0480000000025,,response,,,99,,,,,,Space,keypress(Space),,,,,---- -- ----- -- ------ - ------- --- ----------<br>------------- ------ ------ ---- ---- ------- ----- -- ----<br>-------- ------- -- ---------- --- - --- ----- ----- ----<br>---- --- --- ----- --- ---- ---- ------- ----- ---- -------<br>--- --- -- ----- -- you ---- -- --- ---- -- ------ ------<br>--- ----- -- ----,62225.59999999963,62225,61803.288,61817.700000000186,61819.952,62236.716,,44,you
screen,html.Screen,0_2_0_1_45,2021-11-26T11:18:07.427Z,,,,,,,,,,,,,,,,53,,,,,,,,,,,,,,444.0839999998134,,response,,,99,,,,,,Space,keypress(Space),,,,,---- -- ----- -- ------ - ------- --- ----------<br>------------- ------ ------ ---- ---- ------- ----- -- ----<br>-------- ------- -- ---------- --- - --- ----- ----- ----<br>---- --- --- ----- --- ---- ---- ------- ----- ---- -------<br>--- --- -- ----- -- --- want -- --- ---- -- ------ ------<br>--- ----- -- ----,62681.5,62680.799999999814,62220.05,62225.700000000186,62236.716,62686.579,,45,want
screen,html.Screen,0_2_0_1_46,2021-11-26T11:18:07.795Z,,,,,,,,,,,,,,,,53,,,,,,,,,,,,,,362.3210000003746,,response,,,99,,,,,,Space,keypress(Space),,,,,---- -- ----- -- ------ - ------- --- ----------<br>------------- ------ ------ ---- ---- ------- ----- -- ----<br>-------- ------- -- ---------- --- - --- ----- ----- ----<br>---- --- --- ----- --- ---- ---- ------- ----- ---- -------<br>--- --- -- ----- -- --- ---- to --- ---- -- ------ ------<br>--- ----- -- ----,63049.40000000037,63048.90000000037,62669.915,62681.59999999963,62686.579,63053.34,,46,to
screen,html.Screen,0_2_0_1_47,2021-11-26T11:18:08.531Z,,,,,,,,,,,,,,,,53,,,,,,,,,,,,,,731.560000000376,,response,,,99,,,,,,Space,keypress(Space),,,,,"---- -- ----- -- ------ - ------- --- ----------<br>------------- ------ ------ ---- ---- ------- ----- -- ----<br>-------- ------- -- ---------- --- - --- ----- ----- ----<br>---- --- --- ----- --- ---- ---- ------- ----- ---- -------<br>--- --- -- ----- -- --- ---- -- be, ---- -- ------ ------<br>--- ----- -- ----",63785.5,63784.90000000037,63036.674,63049.59999999963,63053.34,63786.382,,47,"be,"
screen,html.Screen,0_2_0_1_48,2021-11-26T11:18:08.995Z,,,,,,,,,,,,,,,,53,,,,,,,,,,,,,,462.51800000037474,,response,,,99,,,,,,Space,keypress(Space),,,,,---- -- ----- -- ------ - ------- --- ----------<br>------------- ------ ------ ---- ---- ------- ----- -- ----<br>-------- ------- -- ---------- --- - --- ----- ----- ----<br>---- --- --- ----- --- ---- ---- ------- ----- ---- -------<br>--- --- -- ----- -- --- ---- -- --- even -- ------ ------<br>--- ----- -- ----,64249.5,64248.90000000037,63769.719,63785.700000000186,63786.382,64253.248,,48,even
screen,html.Screen,0_2_0_1_49,2021-11-26T11:18:09.419Z,,,,,,,,,,,,,,,,53,,,,,,,,,,,,,,419.55199999981414,,response,,,99,,,,,,Space,keypress(Space),,,,,---- -- ----- -- ------ - ------- --- ----------<br>------------- ------ ------ ---- ---- ------- ----- -- ----<br>-------- ------- -- ---------- --- - --- ----- ----- ----<br>---- --- --- ----- --- ---- ---- ------- ----- ---- -------<br>--- --- -- ----- -- --- ---- -- --- ---- if ------ ------<br>--- ----- -- ----,64673.40000000037,64672.799999999814,64236.582,64249.59999999963,64253.248,64686.572,,49,if
screen,html.Screen,0_2_0_1_50,2021-11-26T11:18:09.843Z,,,,,,,,,,,,,,,,53,,,,,,,,,,,,,,410.2279999998136,,response,,,99,,,,,,Space,keypress(Space),,,,,---- -- ----- -- ------ - ------- --- ----------<br>------------- ------ ------ ---- ---- ------- ----- -- ----<br>-------- ------- -- ---------- --- - --- ----- ----- ----<br>---- --- --- ----- --- ---- ---- ------- ----- ---- -------<br>--- --- -- ----- -- --- ---- -- --- ---- -- that's ------<br>--- ----- -- ----,65097.5,65096.799999999814,64669.906,64673.59999999963,64686.572,65103.177,,50,that's
screen,html.Screen,0_2_0_1_51,2021-11-26T11:18:10.427Z,,,,,,,,,,,,,,,,53,,,,,,,,,,,,,,577.6229999998104,,response,,,99,,,,,,Space,keypress(Space),,,,,---- -- ----- -- ------ - ------- --- ----------<br>------------- ------ ------ ---- ---- ------- ----- -- ----<br>-------- ------- -- ---------- --- - --- ----- ----- ----<br>---- --- --- ----- --- ---- ---- ------- ----- ---- -------<br>--- --- -- ----- -- --- ---- -- --- ---- -- ------ really<br>--- ----- -- ----,65681.40000000037,65680.79999999981,65086.512,65097.59999999963,65103.177,65686.457,,51,really
screen,html.Screen,0_2_0_1_52,2021-11-26T11:18:10.931Z,,,,,,,,,,,,,,,,53,,,,,,,,,,,,,,498.2430000001914,,response,,,99,,,,,,Space,keypress(Space),,,,,---- -- ----- -- ------ - ------- --- ----------<br>------------- ------ ------ ---- ---- ------- ----- -- ----<br>-------- ------- -- ---------- --- - --- ----- ----- ----<br>---- --- --- ----- --- ---- ---- ------- ----- ---- -------<br>--- --- -- ----- -- --- ---- -- --- ---- -- ------ ------<br>not ----- -- ----,66185.29999999981,66184.70000000019,65669.792,65681.5,65686.457,66186.501,,52,not
screen,html.Screen,0_2_0_1_53,2021-11-26T11:18:11.355Z,,,,,,,,,,,,,,,,53,,,,,,,,,,,,,,422.1990000001824,,response,,,99,,,,,,Space,keypress(Space),,,,,---- -- ----- -- ------ - ------- --- ----------<br>------------- ------ ------ ---- ---- ------- ----- -- ----<br>-------- ------- -- ---------- --- - --- ----- ----- ----<br>---- --- --- ----- --- ---- ---- ------- ----- ---- -------<br>--- --- -- ----- -- --- ---- -- --- ---- -- ------ ------<br>--- close -- ----,66609.29999999981,66608.70000000019,66169.835,66185.5,66186.501,66619.825,,53,close
screen,html.Screen,0_2_0_1_54,2021-11-26T11:18:11.755Z,,,,,,,,,,,,,,,,53,,,,,,,,,,,,,,388.8750000001892,,response,,,99,,,,,,Space,keypress(Space),,,,,---- -- ----- -- ------ - ------- --- ----------<br>------------- ------ ------ ---- ---- ------- ----- -- ----<br>-------- ------- -- ---------- --- - --- ----- ----- ----<br>---- --- --- ----- --- ---- ---- ------- ----- ---- -------<br>--- --- -- ----- -- --- ---- -- --- ---- -- ------ ------<br>--- ----- at ----,67009.20000000019,67008.70000000019,66603.159,66609.40000000037,66619.825,67019.765,,54,at
screen,html.Screen,0_2_0_1_55,2021-11-26T11:18:12.123Z,,,,,,,,,,,,,,,,53,,,,,,,,,,,,,,356.93500000018685,,response,,,99,,,,,,Space,keypress(Space),,,,,---- -- ----- -- ------ - ------- --- ----------<br>------------- ------ ------ ---- ---- ------- ----- -- ----<br>-------- ------- -- ---------- --- - --- ----- ----- ----<br>---- --- --- ----- --- ---- ---- ------- ----- ---- -------<br>--- --- -- ----- -- --- ---- -- --- ---- -- ------ ------<br>--- ----- -- all.,67377.29999999981,67376.70000000019,67003.1,67009.40000000037,67019.765,67386.331,,55,all.
Item 99,flow.Loop,0_2_0_1,2021-11-26T11:18:12.125Z,,,,,,,,,,,,,,,,,,,,,,,,,,,,,,29755.683000000186,,completion,,,,C,,,,,,,,,,silence,,67380.09999999963,67376.70000000019,37604.353,37608,37621.017,67386.331,,,
Question 1,html.Screen,0_2_0_2,2021-11-26T11:18:23.403Z,,,,,,,,,,,,,,,,,,,,,,,,,,,true,FALSE,,11270.768999999622,,response,,,99,C,,,,,FALSE,click #choice-2,,,,silence,,78658,78657.09999999963,67369.667,67380.29999999981,67386.331,78669.173,,,
Question 2,html.Screen,0_2_0_3,2021-11-26T11:18:31.266Z,,,,,,,,,,,,,,,,,,,,,,,,,,,true,TRUE,,7850.6269999998185,,response,,,99,C,,,,,TRUE,click #choice-1,,,,silence,,86520.5,86519.79999999981,78652.508,78658.20000000019,78669.173,86552.164,,,
Item 99,flow.Sequence,0_2_0,2021-11-26T11:18:31.266Z,,,,,,,,,,,,,,,,,,,,,,,,,,,,,,58898.201999999816,,completion,,,,,,,,,,,,,,,,86520.79999999981,86519.79999999981,27604.933,27610.200000000186,27621.598,86552.164,,,
Holding screen,html.Screen,0_2_1_0,2021-11-26T11:18:41.282Z,,,,,,,,,,,,,,,,,,,,,,,,,,,,,,9999.303,,timeout,,,,,,,,,,,,,,,,96536.5,96534.803,86535.498,86521,86552.164,96551.467,,,
screen,html.Screen,0_2_1_1_0,2021-11-26T11:18:42.690Z,,,,,,,,,,,,,,,,54,,,,,,,,,,,,,,1391.9330000003683,,response,,,100,,,,,,Space,keypress(Space),,,,,At --- ---- --- ------ ----- ------- ---- -- --- ------- --<br>------- ---------- ------ -- ----- -- ----- -- ---- ------<br>--- ----- --- --- ------ -------- ----- --- ------ ----- --<br>----- ----- ---------- --- --- ------ ------ ---- -- ------<br>------- --- ------ ----- --- ---- ------- -- ---- --- --<br>------- ------,97944.20000000019,97943.40000000037,96534.803,96536.79999999981,96551.467,97951.476,,0,At
screen,html.Screen,0_2_1_1_1,2021-11-26T11:18:43.201Z,,,,,,,,,,,,,,,,54,,,,,,,,,,,,,,503.62399999963236,,response,,,100,,,,,,Space,keypress(Space),,,,,-- the ---- --- ------ ----- ------- ---- -- --- ------- --<br>------- ---------- ------ -- ----- -- ----- -- ---- ------<br>--- ----- --- --- ------ -------- ----- --- ------ ----- --<br>----- ----- ---------- --- --- ------ ------ ---- -- ------<br>------- --- ------ ----- --- ---- ------- -- ---- --- --<br>------- ------,98455.70000000019,98455.09999999963,97934.811,97944.40000000037,97951.476,98468.266,,1,the
screen,html.Screen,0_2_1_1_2,2021-11-26T11:18:43.617Z,,,,,,,,,,,,,,,,54,,,,,,,,,,,,,,402.8339999996242,,response,,,100,,,,,,Space,keypress(Space),,,,,-- --- time --- ------ ----- ------- ---- -- --- ------- --<br>------- ---------- ------ -- ----- -- ----- -- ---- ------<br>--- ----- --- --- ------ -------- ----- --- ------ ----- --<br>----- ----- ---------- --- --- ------ ------ ---- -- ------<br>------- --- ------ ----- --- ---- ------- -- ---- --- --<br>------- ------,98871.70000000019,98871.09999999963,98451.6,98455.90000000037,98468.266,98884.847,,2,time
screen,html.Screen,0_2_1_1_3,2021-11-26T11:18:44.321Z,,,,,,,,,,,,,,,,54,,,,,,,,,,,,,,690.2529999996332,,response,,,100,,,,,,Space,keypress(Space),,,,,-- --- ---- the ------ ----- ------- ---- -- --- ------- --<br>------- ---------- ------ -- ----- -- ----- -- ---- ------<br>--- ----- --- --- ------ -------- ----- --- ------ ----- --<br>----- ----- ---------- --- --- ------ ------ ---- -- ------<br>------- --- ------ ----- --- ---- ------- -- ---- --- --<br>------- ------,99575.70000000019,99575.09999999963,98868.182,98871.90000000037,98884.847,99584.721,,3,the
screen,html.Screen,0_2_1_1_4,2021-11-26T11:18:44.953Z,,,,,,,,,,,,,,,,54,,,,,,,,,,,,,,622.3789999996225,,response,,,100,,,,,,Space,keypress(Space),,,,,-- --- ---- --- French ----- ------- ---- -- --- ------- --<br>------- ---------- ------ -- ----- -- ----- -- ---- ------<br>--- ----- --- --- ------ -------- ----- --- ------ ----- --<br>----- ----- ---------- --- --- ------ ------ ---- -- ------<br>------- --- ------ ----- --- ---- ------- -- ---- --- --<br>------- ------,100207.70000000019,100207.09999999963,99568.057,99575.90000000037,99584.721,100218.167,,4,French
screen,html.Screen,0_2_1_1_5,2021-11-26T11:18:45.481Z,,,,,,,,,,,,,,,,54,,,,,,,,,,,,,,516.8329999999987,,response,,,100,,,,,,Space,keypress(Space),,,,,-- --- ---- --- ------ crown ------- ---- -- --- ------- --<br>------- ---------- ------ -- ----- -- ----- -- ---- ------<br>--- ----- --- --- ------ -------- ----- --- ------ ----- --<br>----- ----- ---------- --- --- ------ ------ ---- -- ------<br>------- --- ------ ----- --- ---- ------- -- ---- --- --<br>------- ------,100735.5,100735,100201.501,100207.90000000037,100218.167,100751.432,,5,crown
screen,html.Screen,0_2_1_1_6,2021-11-26T11:18:46.201Z,,,,,,,,,,,,,,,,54,,,,,,,,,,,,,,703.6679999996268,,response,,,100,,,,,,Space,keypress(Space),,,,,-- --- ---- --- ------ ----- secured ---- -- --- ------- --<br>------- ---------- ------ -- ----- -- ----- -- ---- ------<br>--- ----- --- --- ------ -------- ----- --- ------ ----- --<br>----- ----- ---------- --- --- ------ ------ ---- -- ------<br>------- --- ------ ----- --- ---- ------- -- ---- --- --<br>------- ------,101455.59999999963,101455.09999999963,100734.767,100735.79999999981,100751.432,101467.956,,6,secured
screen,html.Screen,0_2_1_1_7,2021-11-26T11:18:46.657Z,,,,,,,,,,,,,,,,54,,,,,,,,,,,,,,443.0439999999944,,response,,,100,,,,,,Space,keypress(Space),,,,,-- --- ---- --- ------ ----- ------- much -- --- ------- --<br>------- ---------- ------ -- ----- -- ----- -- ---- ------<br>--- ----- --- --- ------ -------- ----- --- ------ ----- --<br>----- ----- ---------- --- --- ------ ------ ---- -- ------<br>------- --- ------ ----- --- ---- ------- -- ---- --- --<br>------- ------,101911.5,101911,101451.292,101455.79999999981,101467.956,101918.079,,7,much
screen,html.Screen,0_2_1_1_8,2021-11-26T11:18:47.057Z,,,,,,,,,,,,,,,,54,,,,,,,,,,,,,,392.8210000003746,,response,,,100,,,,,,Space,keypress(Space),,,,,-- --- ---- --- ------ ----- ------- ---- of --- ------- --<br>------- ---------- ------ -- ----- -- ----- -- ---- ------<br>--- ----- --- --- ------ -------- ----- --- ------ ----- --<br>----- ----- ---------- --- --- ------ ------ ---- -- ------<br>------- --- ------ ----- --- ---- ------- -- ---- --- --<br>------- ------,102311.59999999963,102310.90000000037,101901.413,101911.70000000019,101918.079,102317.943,,8,of
screen,html.Screen,0_2_1_1_9,2021-11-26T11:18:47.457Z,,,,,,,,,,,,,,,,54,,,,,,,,,,,,,,392.9570000003732,,response,,,100,,,,,,Space,keypress(Space),,,,,-- --- ---- --- ------ ----- ------- ---- -- its ------- --<br>------- ---------- ------ -- ----- -- ----- -- ---- ------<br>--- ----- --- --- ------ -------- ----- --- ------ ----- --<br>----- ----- ---------- --- --- ------ ------ ---- -- ------<br>------- --- ------ ----- --- ---- ------- -- ---- --- --<br>------- ------,102711.40000000037,102710.90000000037,102301.279,102311.70000000019,102317.943,102718.043,,9,its
screen,html.Screen,0_2_1_1_10,2021-11-26T11:18:47.913Z,,,,,,,,,,,,,,,,54,,,,,,,,,,,,,,448.8570000003674,,response,,,100,,,,,,Space,keypress(Space),,,,,-- --- ---- --- ------ ----- ------- ---- -- --- revenue --<br>------- ---------- ------ -- ----- -- ----- -- ---- ------<br>--- ----- --- --- ------ -------- ----- --- ------ ----- --<br>----- ----- ---------- --- --- ------ ------ ---- -- ------<br>------- --- ------ ----- --- ---- ------- -- ---- --- --<br>------- ------,103167.40000000037,103166.90000000037,102701.377,102711.59999999963,102718.043,103184.699,,10,revenue
screen,html.Screen,0_2_1_1_11,2021-11-26T11:18:48.537Z,,,,,,,,,,,,,,,,54,,,,,,,,,,,,,,606.2010000003793,,response,,,100,,,,,,Space,keypress(Space),,,,,-- --- ---- --- ------ ----- ------- ---- -- --- ------- by<br>------- ---------- ------ -- ----- -- ----- -- ---- ------<br>--- ----- --- --- ------ -------- ----- --- ------ ----- --<br>----- ----- ---------- --- --- ------ ------ ---- -- ------<br>------- --- ------ ----- --- ---- ------- -- ---- --- --<br>------- ------,103791.5,103790.90000000037,103168.033,103167.59999999963,103184.699,103801.273,,11,by
screen,html.Screen,0_2_1_1_12,2021-11-26T11:18:49.153Z,,,,,,,,,,,,,,,,54,,,,,,,,,,,,,,605.5269999998127,,response,,,100,,,,,,Space,keypress(Space),,,,,-- --- ---- --- ------ ----- ------- ---- -- --- ------- --<br>issuing ---------- ------ -- ----- -- ----- -- ---- ------<br>--- ----- --- --- ------ -------- ----- --- ------ ----- --<br>----- ----- ---------- --- --- ------ ------ ---- -- ------<br>------- --- ------ ----- --- ---- ------- -- ---- --- --<br>------- ------,104407.5,104406.79999999981,103784.608,103791.70000000019,103801.273,104417.887,,12,issuing
screen,html.Screen,0_2_1_1_13,2021-11-26T11:18:49.993Z,,,,,,,,,,,,,,,,54,,,,,,,,,,,,,,828.9129999998113,,response,,,100,,,,,,Space,keypress(Space),,,,,-- --- ---- --- ------ ----- ------- ---- -- --- ------- --<br>------- government ------ -- ----- -- ----- -- ---- ------<br>--- ----- --- --- ------ -------- ----- --- ------ ----- --<br>----- ----- ---------- --- --- ------ ------ ---- -- ------<br>------- --- ------ ----- --- ---- ------- -- ---- --- --<br>------- ------,105247.5,105246.79999999981,104401.222,104407.70000000019,104417.887,105251.18,,13,government
screen,html.Screen,0_2_1_1_14,2021-11-26T11:18:50.761Z,,,,,,,,,,,,,,,,54,,,,,,,,,,,,,,763.6199999998207,,response,,,100,,,,,,Space,keypress(Space),,,,,-- --- ---- --- ------ ----- ------- ---- -- --- ------- --<br>------- ---------- bonds. -- ----- -- ----- -- ---- ------<br>--- ----- --- --- ------ -------- ----- --- ------ ----- --<br>----- ----- ---------- --- --- ------ ------ ---- -- ------<br>------- --- ------ ----- --- ---- ------- -- ---- --- --<br>------- ------,106015.29999999981,106014.79999999981,105234.515,105247.59999999963,105251.18,106017.831,,14,bonds.
screen,html.Screen,0_2_1_1_15,2021-11-26T11:18:51.385Z,,,,,,,,,,,,,,,,54,,,,,,,,,,,,,,620.8690000001807,,response,,,100,,,,,,Space,keypress(Space),,,,,-- --- ---- --- ------ ----- ------- ---- -- --- ------- --<br>------- ---------- ------ In ----- -- ----- -- ---- ------<br>--- ----- --- --- ------ -------- ----- --- ------ ----- --<br>----- ----- ---------- --- --- ------ ------ ---- -- ------<br>------- --- ------ ----- --- ---- ------- -- ---- --- --<br>------- ------,106639.29999999981,106638.70000000019,106001.166,106015.5,106017.831,106651.029,,15,In
screen,html.Screen,0_2_1_1_16,2021-11-26T11:18:52.209Z,,,,,,,,,,,,,,,,54,,,,,,,,,,,,,,811.6710000001913,,response,,,100,,,,,,Space,keypress(Space),,,,,"-- --- ---- --- ------ ----- ------- ---- -- --- ------- --<br>------- ---------- ------ -- 1727, -- ----- -- ---- ------<br>--- ----- --- --- ------ -------- ----- --- ------ ----- --<br>----- ----- ---------- --- --- ------ ------ ---- -- ------<br>------- --- ------ ----- --- ---- ------- -- ---- --- --<br>------- ------",107463.29999999981,107462.70000000019,106634.365,106639.5,106651.029,107467.827,,16,"1727,"
screen,html.Screen,0_2_1_1_17,2021-11-26T11:18:52.681Z,,,,,,,,,,,,,,,,54,,,,,,,,,,,,,,466.8730000001815,,response,,,100,,,,,,Space,keypress(Space),,,,,-- --- ---- --- ------ ----- ------- ---- -- --- ------- --<br>------- ---------- ------ -- ----- in ----- -- ---- ------<br>--- ----- --- --- ------ -------- ----- --- ------ ----- --<br>----- ----- ---------- --- --- ------ ------ ---- -- ------<br>------- --- ------ ----- --- ---- ------- -- ---- --- --<br>------- ------,107935.29999999981,107934.70000000019,107451.161,107463.5,107467.827,107950.925,,17,in
screen,html.Screen,0_2_1_1_18,2021-11-26T11:18:53.089Z,,,,,,,,,,,,,,,,54,,,,,,,,,,,,,,391.9750000003696,,response,,,100,,,,,,Space,keypress(Space),,,,,-- --- ---- --- ------ ----- ------- ---- -- --- ------- --<br>------- ---------- ------ -- ----- -- order -- ---- ------<br>--- ----- --- --- ------ -------- ----- --- ------ ----- --<br>----- ----- ---------- --- --- ------ ------ ---- -- ------<br>------- --- ------ ----- --- ---- ------- -- ---- --- --<br>------- ------,108343.5,108342.90000000037,107934.261,107935.5,107950.925,108351.116,,18,order
screen,html.Screen,0_2_1_1_19,2021-11-26T11:18:53.432Z,,,,,,,,,,,,,,,,54,,,,,,,,,,,,,,335.48399999963294,,response,,,100,,,,,,Space,keypress(Space),,,,,-- --- ---- --- ------ ----- ------- ---- -- --- ------- --<br>------- ---------- ------ -- ----- -- ----- to ---- ------<br>--- ----- --- --- ------ -------- ----- --- ------ ----- --<br>----- ----- ---------- --- --- ------ ------ ---- -- ------<br>------- --- ------ ----- --- ---- ------- -- ---- --- --<br>------- ------,108687.20000000019,108686.59999999963,108334.45,108343.59999999963,108351.116,108701.06,,19,to
screen,html.Screen,0_2_1_1_20,2021-11-26T11:18:53.897Z,,,,,,,,,,,,,,,,54,,,,,,,,,,,,,,449.5399999996298,,response,,,100,,,,,,Space,keypress(Space),,,,,-- --- ---- --- ------ ----- ------- ---- -- --- ------- --<br>------- ---------- ------ -- ----- -- ----- -- save ------<br>--- ----- --- --- ------ -------- ----- --- ------ ----- --<br>----- ----- ---------- --- --- ------ ------ ---- -- ------<br>------- --- ------ ----- --- ---- ------- -- ---- --- --<br>------- ------,109151.20000000019,109150.59999999963,108684.395,108687.40000000037,108701.06,109167.691,,20,save
screen,html.Screen,0_2_1_1_21,2021-11-26T11:18:54.496Z,,,,,,,,,,,,,,,,54,,,,,,,,,,,,,,582.9089999996213,,response,,,100,,,,,,Space,keypress(Space),,,,,"-- --- ---- --- ------ ----- ------- ---- -- --- ------- --<br>------- ---------- ------ -- ----- -- ----- -- ---- money,<br>--- ----- --- --- ------ -------- ----- --- ------ ----- --<br>----- ----- ---------- --- --- ------ ------ ---- -- ------<br>------- --- ------ ----- --- ---- ------- -- ---- --- --<br>------- ------",109751.20000000019,109750.59999999963,109151.026,109151.40000000037,109167.691,109767.588,,21,"money,"
screen,html.Screen,0_2_1_1_22,2021-11-26T11:18:55.184Z,,,,,,,,,,,,,,,,54,,,,,,,,,,,,,,670.9119999999966,,response,,,100,,,,,,Space,keypress(Space),,,,,-- --- ---- --- ------ ----- ------- ---- -- --- ------- --<br>------- ---------- ------ -- ----- -- ----- -- ---- ------<br>the ----- --- --- ------ -------- ----- --- ------ ----- --<br>----- ----- ---------- --- --- ------ ------ ---- -- ------<br>------- --- ------ ----- --- ---- ------- -- ---- --- --<br>------- ------,110439.09999999963,110438.5,109750.924,109751.29999999981,109767.588,110450.928,,22,the
screen,html.Screen,0_2_1_1_23,2021-11-26T11:18:55.801Z,,,,,,,,,,,,,,,,54,,,,,,,,,,,,,,603.5720000000001,,response,,,100,,,,,,Space,keypress(Space),,,,,-- --- ---- --- ------ ----- ------- ---- -- --- ------- --<br>------- ---------- ------ -- ----- -- ----- -- ---- ------<br>--- state --- --- ------ -------- ----- --- ------ ----- --<br>----- ----- ---------- --- --- ------ ------ ---- -- ------<br>------- --- ------ ----- --- ---- ------- -- ---- --- --<br>------- ------,111055.09999999963,111054.5,110434.263,110439.29999999981,110450.928,111067.582,,23,state
screen,html.Screen,0_2_1_1_24,2021-11-26T11:18:56.512Z,,,,,,,,,,,,,,,,54,,,,,,,,,,,,,,698.9180000000051,,response,,,100,,,,,,Space,keypress(Space),,,,,-- --- ---- --- ------ ----- ------- ---- -- --- ------- --<br>------- ---------- ------ -- ----- -- ----- -- ---- ------<br>--- ----- cut --- ------ -------- ----- --- ------ ----- --<br>----- ----- ---------- --- --- ------ ------ ---- -- ------<br>------- --- ------ ----- --- ---- ------- -- ---- --- --<br>------- ------,111767.09999999963,111766.5,111050.917,111055.29999999981,111067.582,111784.194,,24,cut
screen,html.Screen,0_2_1_1_25,2021-11-26T11:18:56.936Z,,,,,,,,,,,,,,,,54,,,,,,,,,,,,,,406.30599999999686,,response,,,100,,,,,,Space,keypress(Space),,,,,-- --- ---- --- ------ ----- ------- ---- -- --- ------- --<br>------- ---------- ------ -- ----- -- ----- -- ---- ------<br>--- ----- --- the ------ -------- ----- --- ------ ----- --<br>----- ----- ---------- --- --- ------ ------ ---- -- ------<br>------- --- ------ ----- --- ---- ------- -- ---- --- --<br>------- ------,112191.09999999963,112190.5,111767.529,111767.20000000019,111784.194,112200.82,,25,the
screen,html.Screen,0_2_1_1_26,2021-11-26T11:18:57.368Z,,,,,,,,,,,,,,,,54,,,,,,,,,,,,,,421.58000000036554,,response,,,100,,,,,,Space,keypress(Space),,,,,-- --- ---- --- ------ ----- ------- ---- -- --- ------- --<br>------- ---------- ------ -- ----- -- ----- -- ---- ------<br>--- ----- --- --- bonds' -------- ----- --- ------ ----- --<br>----- ----- ---------- --- --- ------ ------ ---- -- ------<br>------- --- ------ ----- --- ---- ------- -- ---- --- --<br>------- ------,112623,112622.40000000037,112184.155,112191.29999999981,112200.82,112634.082,,26,bonds'
screen,html.Screen,0_2_1_1_27,2021-11-26T11:18:57.864Z,,,,,,,,,,,,,,,,54,,,,,,,,,,,,,,484.4180000000051,,response,,,100,,,,,,Space,keypress(Space),,,,,-- --- ---- --- ------ ----- ------- ---- -- --- ------- --<br>------- ---------- ------ -- ----- -- ----- -- ---- ------<br>--- ----- --- --- ------ interest ----- --- ------ ----- --<br>----- ----- ---------- --- --- ------ ------ ---- -- ------<br>------- --- ------ ----- --- ---- ------- -- ---- --- --<br>------- ------,113119,113118.5,112617.418,112623.09999999963,112634.082,113134.233,,27,interest
screen,html.Screen,0_2_1_1_28,2021-11-26T11:18:58.280Z,,,,,,,,,,,,,,,,54,,,,,,,,,,,,,,400.16700000037963,,response,,,100,,,,,,Space,keypress(Space),,,,,-- --- ---- --- ------ ----- ------- ---- -- --- ------- --<br>------- ---------- ------ -- ----- -- ----- -- ---- ------<br>--- ----- --- --- ------ -------- rate. --- ------ ----- --<br>----- ----- ---------- --- --- ------ ------ ---- -- ------<br>------- --- ------ ----- --- ---- ------- -- ---- --- --<br>------- ------,113535.09999999963,113534.40000000037,113117.566,113119.20000000019,113134.233,113550.808,,28,rate.
screen,html.Screen,0_2_1_1_29,2021-11-26T11:18:58.864Z,,,,,,,,,,,,,,,,54,,,,,,,,,,,,,,567.592000000368,,response,,,100,,,,,,Space,keypress(Space),,,,,-- --- ---- --- ------ ----- ------- ---- -- --- ------- --<br>------- ---------- ------ -- ----- -- ----- -- ---- ------<br>--- ----- --- --- ------ -------- ----- The ------ ----- --<br>----- ----- ---------- --- --- ------ ------ ---- -- ------<br>------- --- ------ ----- --- ---- ------- -- ---- --- --<br>------- ------,114119,114118.40000000037,113534.143,113535.20000000019,113550.808,114134.105,,29,The
screen,html.Screen,0_2_1_1_30,2021-11-26T11:18:59.304Z,,,,,,,,,,,,,,,,54,,,,,,,,,,,,,,424.1949999998178,,response,,,100,,,,,,Space,keypress(Space),,,,,-- --- ---- --- ------ ----- ------- ---- -- --- ------- --<br>------- ---------- ------ -- ----- -- ----- -- ---- ------<br>--- ----- --- --- ------ -------- ----- --- market ----- --<br>----- ----- ---------- --- --- ------ ------ ---- -- ------<br>------- --- ------ ----- --- ---- ------- -- ---- --- --<br>------- ------,114558.90000000037,114558.29999999981,114117.44,114119.20000000019,114134.105,114567.409,,30,market
screen,html.Screen,0_2_1_1_31,2021-11-26T11:18:59.736Z,,,,,,,,,,,,,,,,54,,,,,,,,,,,,,,422.9910000003729,,response,,,100,,,,,,Space,keypress(Space),,,,,-- --- ---- --- ------ ----- ------- ---- -- --- ------- --<br>------- ---------- ------ -- ----- -- ----- -- ---- ------<br>--- ----- --- --- ------ -------- ----- --- ------ value --<br>----- ----- ---------- --- --- ------ ------ ---- -- ------<br>------- --- ------ ----- --- ---- ------- -- ---- --- --<br>------- ------,114990.90000000037,114990.40000000037,114550.744,114559.09999999963,114567.409,115000.723,,31,value
screen,html.Screen,0_2_1_1_32,2021-11-26T11:19:00.192Z,,,,,,,,,,,,,,,,54,,,,,,,,,,,,,,445.5769999998156,,response,,,100,,,,,,Space,keypress(Space),,,,,-- --- ---- --- ------ ----- ------- ---- -- --- ------- --<br>------- ---------- ------ -- ----- -- ----- -- ---- ------<br>--- ----- --- --- ------ -------- ----- --- ------ ----- of<br>----- ----- ---------- --- --- ------ ------ ---- -- ------<br>------- --- ------ ----- --- ---- ------- -- ---- --- --<br>------- ------,115446.79999999981,115446.29999999981,114984.058,114991.09999999963,115000.723,115450.64,,32,of
screen,html.Screen,0_2_1_1_33,2021-11-26T11:19:00.768Z,,,,,,,,,,,,,,,,54,,,,,,,,,,,,,,571.6599999998143,,response,,,100,,,,,,Space,keypress(Space),,,,,-- --- ---- --- ------ ----- ------- ---- -- --- ------- --<br>------- ---------- ------ -- ----- -- ----- -- ---- ------<br>--- ----- --- --- ------ -------- ----- --- ------ ----- --<br>these ----- ---------- --- --- ------ ------ ---- -- ------<br>------- --- ------ ----- --- ---- ------- -- ---- --- --<br>------- ------,116022.90000000037,116022.29999999981,115433.976,115447,115450.64,116034.044,,33,these
screen,html.Screen,0_2_1_1_34,2021-11-26T11:19:01.264Z,,,,,,,,,,,,,,,,54,,,,,,,,,,,,,,484.15600000019185,,response,,,100,,,,,,Space,keypress(Space),,,,,-- --- ---- --- ------ ----- ------- ---- -- --- ------- --<br>------- ---------- ------ -- ----- -- ----- -- ---- ------<br>--- ----- --- --- ------ -------- ----- --- ------ ----- --<br>----- bonds ---------- --- --- ------ ------ ---- -- ------<br>------- --- ------ ----- --- ---- ------- -- ---- --- --<br>------- ------,116518.90000000037,116518.20000000019,116017.378,116023,116034.044,116533.973,,34,bonds
screen,html.Screen,0_2_1_1_35,2021-11-26T11:19:02.048Z,,,,,,,,,,,,,,,,54,,,,,,,,,,,,,,768.2270000001881,,response,,,100,,,,,,Space,keypress(Space),,,,,"-- --- ---- --- ------ ----- ------- ---- -- --- ------- --<br>------- ---------- ------ -- ----- -- ----- -- ---- ------<br>--- ----- --- --- ------ -------- ----- --- ------ ----- --<br>----- ----- plummeted, --- --- ------ ------ ---- -- ------<br>------- --- ------ ----- --- ---- ------- -- ---- --- --<br>------- ------",117302.79999999981,117302.20000000019,116517.308,116519.09999999963,116533.973,117317.267,,35,"plummeted,"
screen,html.Screen,0_2_1_1_36,2021-11-26T11:19:02.528Z,,,,,,,,,,,,,,,,54,,,,,,,,,,,,,,464.83299999962037,,response,,,100,,,,,,Space,keypress(Space),,,,,-- --- ---- --- ------ ----- ------- ---- -- --- ------- --<br>------- ---------- ------ -- ----- -- ----- -- ---- ------<br>--- ----- --- --- ------ -------- ----- --- ------ ----- --<br>----- ----- ---------- and --- ------ ------ ---- -- ------<br>------- --- ------ ----- --- ---- ------- -- ---- --- --<br>------- ------,117782.79999999981,117782.09999999963,117300.602,117303.20000000019,117317.267,117783.912,,36,and
screen,html.Screen,0_2_1_1_37,2021-11-26T11:19:02.928Z,,,,,,,,,,,,,,,,54,,,,,,,,,,,,,,398.18799999963085,,response,,,100,,,,,,Space,keypress(Space),,,,,-- --- ---- --- ------ ----- ------- ---- -- --- ------- --<br>------- ---------- ------ -- ----- -- ----- -- ---- ------<br>--- ----- --- --- ------ -------- ----- --- ------ ----- --<br>----- ----- ---------- --- the ------ ------ ---- -- ------<br>------- --- ------ ----- --- ---- ------- -- ---- --- --<br>------- ------,118182.70000000019,118182.09999999963,117767.247,117783,117783.912,118183.875,,37,the
screen,html.Screen,0_2_1_1_38,2021-11-26T11:19:03.536Z,,,,,,,,,,,,,,,,54,,,,,,,,,,,,,,606.4249999998137,,response,,,100,,,,,,Space,keypress(Space),,,,,-- --- ---- --- ------ ----- ------- ---- -- --- ------- --<br>------- ---------- ------ -- ----- -- ----- -- ---- ------<br>--- ----- --- --- ------ -------- ----- --- ------ ----- --<br>----- ----- ---------- --- --- market ------ ---- -- ------<br>------- --- ------ ----- --- ---- ------- -- ---- --- --<br>------- ------,118791,118790.29999999981,118167.21,118182.90000000037,118183.875,118800.509,,38,market
screen,html.Screen,0_2_1_1_39,2021-11-26T11:19:03.960Z,,,,,,,,,,,,,,,,54,,,,,,,,,,,,,,413.590999999622,,response,,,100,,,,,,Space,keypress(Space),,,,,-- --- ---- --- ------ ----- ------- ---- -- --- ------- --<br>------- ---------- ------ -- ----- -- ----- -- ---- ------<br>--- ----- --- --- ------ -------- ----- --- ------ ----- --<br>----- ----- ---------- --- --- ------ became ---- -- ------<br>------- --- ------ ----- --- ---- ------- -- ---- --- --<br>------- ------,119214.70000000019,119214.09999999963,118783.844,118791.20000000019,118800.509,119217.099,,39,became
screen,html.Screen,0_2_1_1_40,2021-11-26T11:19:04.401Z,,,,,,,,,,,,,,,,54,,,,,,,,,,,,,,437.0009999996255,,response,,,100,,,,,,Space,keypress(Space),,,,,-- --- ---- --- ------ ----- ------- ---- -- --- ------- --<br>------- ---------- ------ -- ----- -- ----- -- ---- ------<br>--- ----- --- --- ------ -------- ----- --- ------ ----- --<br>----- ----- ---------- --- --- ------ ------ wary -- ------<br>------- --- ------ ----- --- ---- ------- -- ---- --- --<br>------- ------,119655.90000000037,119654.09999999963,119200.435,119214.90000000037,119217.099,119667.208,,40,wary
screen,html.Screen,0_2_1_1_41,2021-11-26T11:19:04.858Z,,,,,,,,,,,,,,,,54,,,,,,,,,,,,,,442.89199999962875,,response,,,100,,,,,,Space,keypress(Space),,,,,-- --- ---- --- ------ ----- ------- ---- -- --- ------- --<br>------- ---------- ------ -- ----- -- ----- -- ---- ------<br>--- ----- --- --- ------ -------- ----- --- ------ ----- --<br>----- ----- ---------- --- --- ------ ------ ---- of ------<br>------- --- ------ ----- --- ---- ------- -- ---- --- --<br>------- ------,120110.70000000019,120110.09999999963,119650.542,119656.09999999963,119667.208,120117.151,,41,of
screen,html.Screen,0_2_1_1_42,2021-11-26T11:19:05.282Z,,,,,,,,,,,,,,,,54,,,,,,,,,,,,,,416.849000000002,,response,,,100,,,,,,Space,keypress(Space),,,,,-- --- ---- --- ------ ----- ------- ---- -- --- ------- --<br>------- ---------- ------ -- ----- -- ----- -- ---- ------<br>--- ----- --- --- ------ -------- ----- --- ------ ----- --<br>----- ----- ---------- --- --- ------ ------ ---- -- French<br>------- --- ------ ----- --- ---- ------- -- ---- --- --<br>------- ------,120534.59999999963,120534,120100.486,120110.90000000037,120117.151,120550.456,,42,French
screen,html.Screen,0_2_1_1_43,2021-11-26T11:19:05.682Z,,,,,,,,,,,,,,,,54,,,,,,,,,,,,,,383.5439999999944,,response,,,100,,,,,,Space,keypress(Space),,,,,-- --- ---- --- ------ ----- ------- ---- -- --- ------- --<br>------- ---------- ------ -- ----- -- ----- -- ---- ------<br>--- ----- --- --- ------ -------- ----- --- ------ ----- --<br>----- ----- ---------- --- --- ------ ------ ---- -- ------<br>credit. --- ------ ----- --- ---- ------- -- ---- --- --<br>------- ------,120934.59999999963,120934,120533.791,120534.79999999981,120550.456,120950.38,,43,credit.
screen,html.Screen,0_2_1_1_44,2021-11-26T11:19:06.202Z,,,,,,,,,,,,,,,,54,,,,,,,,,,,,,,503.61999999999534,,response,,,100,,,,,,Space,keypress(Space),,,,,-- --- ---- --- ------ ----- ------- ---- -- --- ------- --<br>------- ---------- ------ -- ----- -- ----- -- ---- ------<br>--- ----- --- --- ------ -------- ----- --- ------ ----- --<br>----- ----- ---------- --- --- ------ ------ ---- -- ------<br>------- The ------ ----- --- ---- ------- -- ---- --- --<br>------- ------,121454.59999999963,121454,120933.716,120934.79999999981,120950.38,121467.053,,44,The
screen,html.Screen,0_2_1_1_45,2021-11-26T11:19:06.698Z,,,,,,,,,,,,,,,,54,,,,,,,,,,,,,,482.9470000000001,,response,,,100,,,,,,Space,keypress(Space),,,,,-- --- ---- --- ------ ----- ------- ---- -- --- ------- --<br>------- ---------- ------ -- ----- -- ----- -- ---- ------<br>--- ----- --- --- ------ -------- ----- --- ------ ----- --<br>----- ----- ---------- --- --- ------ ------ ---- -- ------<br>------- --- French ----- --- ---- ------- -- ---- --- --<br>------- ------,121950.70000000019,121950,121450.388,121454.79999999981,121467.053,121967.009,,45,French
screen,html.Screen,0_2_1_1_46,2021-11-26T11:19:07.170Z,,,,,,,,,,,,,,,,54,,,,,,,,,,,,,,454.99099999999453,,response,,,100,,,,,,Space,keypress(Space),,,,,-- --- ---- --- ------ ----- ------- ---- -- --- ------- --<br>------- ---------- ------ -- ----- -- ----- -- ---- ------<br>--- ----- --- --- ------ -------- ----- --- ------ ----- --<br>----- ----- ---------- --- --- ------ ------ ---- -- ------<br>------- --- ------ state --- ---- ------- -- ---- --- --<br>------- ------,122422.5,122422,121950.344,121950.90000000037,121967.009,122433.747,,46,state
screen,html.Screen,0_2_1_1_47,2021-11-26T11:19:07.578Z,,,,,,,,,,,,,,,,54,,,,,,,,,,,,,,396.252999999997,,response,,,100,,,,,,Space,keypress(Space),,,,,-- --- ---- --- ------ ----- ------- ---- -- --- ------- --<br>------- ---------- ------ -- ----- -- ----- -- ---- ------<br>--- ----- --- --- ------ -------- ----- --- ------ ----- --<br>----- ----- ---------- --- --- ------ ------ ---- -- ------<br>------- --- ------ ----- was ---- ------- -- ---- --- --<br>------- ------,122830.5,122830,122417.081,122422.79999999981,122433.747,122833.599,,47,was
screen,html.Screen,0_2_1_1_48,2021-11-26T11:19:08.002Z,,,,,,,,,,,,,,,,54,,,,,,,,,,,,,,420.20099999981176,,response,,,100,,,,,,Space,keypress(Space),,,,,-- --- ---- --- ------ ----- ------- ---- -- --- ------- --<br>------- ---------- ------ -- ----- -- ----- -- ---- ------<br>--- ----- --- --- ------ -------- ----- --- ------ ----- --<br>----- ----- ---------- --- --- ------ ------ ---- -- ------<br>------- --- ------ ----- --- left ------- -- ---- --- --<br>------- ------,123254.5,123253.79999999981,122816.935,122830.59999999963,122833.599,123267.04,,48,left
screen,html.Screen,0_2_1_1_49,2021-11-26T11:19:08.386Z,,,,,,,,,,,,,,,,54,,,,,,,,,,,,,,370.9600000000064,,response,,,100,,,,,,Space,keypress(Space),,,,,-- --- ---- --- ------ ----- ------- ---- -- --- ------- --<br>------- ---------- ------ -- ----- -- ----- -- ---- ------<br>--- ----- --- --- ------ -------- ----- --- ------ ----- --<br>----- ----- ---------- --- --- ------ ------ ---- -- ------<br>------- --- ------ ----- --- ---- without -- ---- --- --<br>------- ------,123638.5,123638,123250.374,123254.59999999963,123267.04,123650.313,,49,without
screen,html.Screen,0_2_1_1_50,2021-11-26T11:19:08.842Z,,,,,,,,,,,,,,,,54,,,,,,,,,,,,,,443.5870000003779,,response,,,100,,,,,,Space,keypress(Space),,,,,-- --- ---- --- ------ ----- ------- ---- -- --- ------- --<br>------- ---------- ------ -- ----- -- ----- -- ---- ------<br>--- ----- --- --- ------ -------- ----- --- ------ ----- --<br>----- ----- ---------- --- --- ------ ------ ---- -- ------<br>------- --- ------ ----- --- ---- ------- an ---- --- --<br>------- ------,124094.59999999963,124093.90000000037,123633.648,123638.70000000019,123650.313,124100.203,,50,an
screen,html.Screen,0_2_1_1_51,2021-11-26T11:19:09.234Z,,,,,,,,,,,,,,,,54,,,,,,,,,,,,,,385.69700000037847,,response,,,100,,,,,,Space,keypress(Space),,,,,-- --- ---- --- ------ ----- ------- ---- -- --- ------- --<br>------- ---------- ------ -- ----- -- ----- -- ---- ------<br>--- ----- --- --- ------ -------- ----- --- ------ ----- --<br>----- ----- ---------- --- --- ------ ------ ---- -- ------<br>------- --- ------ ----- --- ---- ------- -- easy --- --<br>------- ------,124486.40000000037,124485.90000000037,124083.539,124094.70000000019,124100.203,124500.312,,51,easy
screen,html.Screen,0_2_1_1_52,2021-11-26T11:19:09.682Z,,,,,,,,,,,,,,,,54,,,,,,,,,,,,,,433.5880000003672,,response,,,100,,,,,,Space,keypress(Space),,,,,-- --- ---- --- ------ ----- ------- ---- -- --- ------- --<br>------- ---------- ------ -- ----- -- ----- -- ---- ------<br>--- ----- --- --- ------ -------- ----- --- ------ ----- --<br>----- ----- ---------- --- --- ------ ------ ---- -- ------<br>------- --- ------ ----- --- ---- ------- -- ---- way --<br>------- ------,124934.5,124933.90000000037,124483.646,124486.59999999963,124500.312,124950.241,,52,way
screen,html.Screen,0_2_1_1_53,2021-11-26T11:19:10.506Z,,,,,,,,,,,,,,,,54,,,,,,,,,,,,,,807.5589999998192,,response,,,100,,,,,,Space,keypress(Space),,,,,-- --- ---- --- ------ ----- ------- ---- -- --- ------- --<br>------- ---------- ------ -- ----- -- ----- -- ---- ------<br>--- ----- --- --- ------ -------- ----- --- ------ ----- --<br>----- ----- ---------- --- --- ------ ------ ---- -- ------<br>------- --- ------ ----- --- ---- ------- -- ---- --- of<br>------- ------,125758.40000000037,125757.79999999981,124933.576,124934.59999999963,124950.241,125766.842,,53,of
screen,html.Screen,0_2_1_1_54,2021-11-26T11:19:10.978Z,,,,,,,,,,,,,,,,54,,,,,,,,,,,,,,462.8580000001821,,response,,,100,,,,,,Space,keypress(Space),,,,,-- --- ---- --- ------ ----- ------- ---- -- --- ------- --<br>------- ---------- ------ -- ----- -- ----- -- ---- ------<br>--- ----- --- --- ------ -------- ----- --- ------ ----- --<br>----- ----- ---------- --- --- ------ ------ ---- -- ------<br>------- --- ------ ----- --- ---- ------- -- ---- --- --<br>raising ------,126230.29999999981,126229.70000000019,125750.177,125758.5,125766.842,126233.494,,54,raising
screen,html.Screen,0_2_1_1_55,2021-11-26T11:19:11.458Z,,,,,,,,,,,,,,,,54,,,,,,,,,,,,,,476.2060000001802,,response,,,100,,,,,,Space,keypress(Space),,,,,-- --- ---- --- ------ ----- ------- ---- -- --- ------- --<br>------- ---------- ------ -- ----- -- ----- -- ---- ------<br>--- ----- --- --- ------ -------- ----- --- ------ ----- --<br>----- ----- ---------- --- --- ------ ------ ---- -- ------<br>------- --- ------ ----- --- ---- ------- -- ---- --- --<br>------- money.,126710.29999999981,126709.70000000019,126216.829,126230.5,126233.494,126716.773,,55,money.
Item 100,flow.Loop,0_2_1_1,2021-11-26T11:19:11.458Z,,,,,,,,,,,,,,,,,,,,,,,,,,,,,,30158.233000000182,,completion,,,,C,,,,,,,,,,silence,,126710.59999999963,126709.70000000019,96534.803,96536.70000000019,96551.467,126716.773,,,
Question 1,html.Screen,0_2_1_2,2021-11-26T11:19:16.659Z,,,,,,,,,,,,,,,,,,,,,,,,,,,true,TRUE,,5194.226999999999,,response,,,100,C,,,,,TRUE,click #choice-1,,,,silence,,131911.90000000037,131911,126700.108,126710.70000000019,126716.773,131916.701,,,
Question 2,html.Screen,0_2_1_3,2021-11-26T11:19:19.475Z,,,,,,,,,,,,,,,,,,,,,,,,,,,true,FALSE,,2809.8989999996265,,response,,,100,C,,,,,FALSE,click #choice-2,,,,silence,,134727.59999999963,134726.59999999963,131900.029,131912,131916.701,134733.131,,,
Item 100,flow.Sequence,0_2_1,2021-11-26T11:19:19.475Z,,,,,,,,,,,,,,,,,,,,,,,,,,,,,,48174.43599999962,,completion,,,,,,,,,,,,,,,,134727.7999999998,134726.59999999963,86535.498,86521,86552.164,134733.131,,,
End of Practice,html.Page,0_2_2,2021-11-26T11:19:24.871Z,,,,,,,,,,,,,,,,,,,,,,,,,,,,,,5389.569000000192,,form submission,,,,,,,,,,,,,,,,140123.09999999963,140122.7000000002,134716.465,134727.90000000037,134733.131,140132.753,,,
Practice,flow.Sequence,0_2,2021-11-26T11:19:24.871Z,,,,,,,,,,,,,,,,,,,,,,,,,,,,,,112501.10200000019,,completion,,,,,,,,,,,,,,,,140123.2999999998,140122.7000000002,27604.933,27610.200000000186,27621.598,140132.753,,,
Trap_instruction,html.Page,0_3_0,2021-11-26T11:19:29.346Z,,,,,,,,,,,,,,,,,,,,,,,,,,,,,,4465.546999999817,,form submission,,,,,,,,,,,,,,,,144598.7000000002,144598.2999999998,140116.088,140123.59999999963,140132.753,144615.713,,,
trap_trial,html.Screen,0_3_1,2021-11-26T11:19:34.827Z,,,,,,,,,,,,,,,,,,,,,,,,,,,true,1,,5463.187000000384,,response,,,,,,,,,1,click #choice-1,,,,,,150079.7000000002,150078.90000000037,144582.383,144598.90000000037,144615.713,150094.827,,,
end of trap trial,html.Page,0_3_2,2021-11-26T11:19:37.154Z,,,,,,,,,,,,,,,,,,,,,,,,,,,,,,2310.873000000196,,form submission,,,,,,,,,,,,,,,,152406,152405.7000000002,150078.174,150079.90000000037,150094.827,152415.552,,,
Trap 1,flow.Sequence,0_3,2021-11-26T11:19:37.154Z,,,,,,,,,,,,,,,,,,,,,,,,,,,,,,12272.94700000019,,completion,,,,,,,,,,,,,,,,152406.2000000002,152405.7000000002,140116.088,140123.5,140132.753,152415.552,,,
Standby,html.Page,0_4_0,2021-11-26T11:19:45.147Z,,,,,,,,,,,,,,,,,,,,,,,,,,,,,,7999.195999999996,,timeout,,,,,,,,,,,,,,,,160399,160398.083,152398.887,152406.2999999998,152415.552,160414.748,,,
Holding screen,html.Screen,0_4_1_0_0,2021-11-26T11:19:52.147Z,,,,,,,,,,,,,,,,,,,,,,,,,,,,,,7000.005999999994,,timeout,,,,,,,,,,,,,,,,167399,167398.089,160398.083,160399.2999999998,160414.748,167414.754,,,
screen,html.Screen,0_4_1_0_1_0,2021-11-26T11:19:54.224Z,,,,,,,,,,,,,,,,48,,,,,,,,,,,,,,2061.2460000000137,,response,,,10,C,,,,,Space,keypress(Space),,,,instrumental,As -- --- ------ ------- --------- ----------- --------<br>--------- -------- --- ------- -- ------- ---- -- ------<br>-- --- -------- -------- ---------- ---- ---- ---- ------<br>-- --------- -- ---- -- --- -- --- ------- -- - -----<br>---------- -- -- -- ---- ----- -- ------ -- --- ------<br>-------,169476.59999999963,169476,167398.089,167399.2999999998,167414.754,169481.258,,0,As
screen,html.Screen,0_4_1_0_1_1,2021-11-26T11:19:54.648Z,,,,,,,,,,,,,,,,48,,,,,,,,,,,,,,418.34199999962584,,response,,,10,C,,,,,Space,keypress(Space),,,,instrumental,-- in --- ------ ------- --------- ----------- --------<br>--------- -------- --- ------- -- ------- ---- -- ------<br>-- --- -------- -------- ---------- ---- ---- ---- ------<br>-- --------- -- ---- -- --- -- --- ------- -- - -----<br>---------- -- -- -- ---- ----- -- ------ -- --- ------<br>-------,169900.2999999998,169899.59999999963,169464.593,169476.7999999998,169481.258,169914.688,,1,in
screen,html.Screen,0_4_1_0_1_2,2021-11-26T11:19:55.064Z,,,,,,,,,,,,,,,,48,,,,,,,,,,,,,,401.0120000001916,,response,,,10,C,,,,,Space,keypress(Space),,,,instrumental,-- -- the ------ ------- --------- ----------- --------<br>--------- -------- --- ------- -- ------- ---- -- ------<br>-- --- -------- -------- ---------- ---- ---- ---- ------<br>-- --------- -- ---- -- --- -- --- ------- -- - -----<br>---------- -- -- -- ---- ----- -- ------ -- --- ------<br>-------,170316.2000000002,170315.7000000002,169898.023,169900.40000000037,169914.688,170331.315,,2,the
screen,html.Screen,0_4_1_0_1_3,2021-11-26T11:19:55.600Z,,,,,,,,,,,,,,,,48,,,,,,,,,,,,,,520.1849999999977,,response,,,10,C,,,,,Space,keypress(Space),,,,instrumental,-- -- --- United ------- --------- ----------- --------<br>--------- -------- --- ------- -- ------- ---- -- ------<br>-- --- -------- -------- ---------- ---- ---- ---- ------<br>-- --------- -- ---- -- --- -- --- ------- -- - -----<br>---------- -- -- -- ---- ----- -- ------ -- --- ------<br>-------,170852.09999999963,170851.5,170314.65,170316.40000000037,170331.315,170864.554,,3,United
screen,html.Screen,0_4_1_0_1_4,2021-11-26T11:19:56.144Z,,,,,,,,,,,,,,,,48,,,,,,,,,,,,,,531.0459999996237,,response,,,10,C,,,,,Space,keypress(Space),,,,instrumental,"-- -- --- ------ States, --------- ----------- --------<br>--------- -------- --- ------- -- ------- ---- -- ------<br>-- --- -------- -------- ---------- ---- ---- ---- ------<br>-- --------- -- ---- -- --- -- --- ------- -- - -----<br>---------- -- -- -- ---- ----- -- ------ -- --- ------<br>-------",171396.09999999963,171395.59999999963,170847.89,170852.2999999998,170864.554,171398.044,,4,"States,"
screen,html.Screen,0_4_1_0_1_5,2021-11-26T11:19:56.840Z,,,,,,,,,,,,,,,,48,,,,,,,,,,,,,,693.4560000000056,,response,,,10,C,,,,,Space,keypress(Space),,,,instrumental,-- -- --- ------ ------- Colombian ----------- --------<br>--------- -------- --- ------- -- ------- ---- -- ------<br>-- --- -------- -------- ---------- ---- ---- ---- ------<br>-- --------- -- ---- -- --- -- --- ------- -- - -----<br>---------- -- -- -- ---- ----- -- ------ -- --- ------<br>-------,172092.2000000002,172091.5,171381.377,171396.2999999998,171398.044,172097.872,,5,Colombian
screen,html.Screen,0_4_1_0_1_6,2021-11-26T11:19:57.776Z,,,,,,,,,,,,,,,,48,,,,,,,,,,,,,,929.627999999997,,response,,,10,C,,,,,Space,keypress(Space),,,,instrumental,-- -- --- ------ ------- --------- legislation --------<br>--------- -------- --- ------- -- ------- ---- -- ------<br>-- --- -------- -------- ---------- ---- ---- ---- ------<br>-- --------- -- ---- -- --- -- --- ------- -- - -----<br>---------- -- -- -- ---- ----- -- ------ -- --- ------<br>-------,173028.09999999963,173027.5,172081.207,172092.40000000037,172097.872,173031.156,,6,legislation
screen,html.Screen,0_4_1_0_1_7,2021-11-26T11:19:58.432Z,,,,,,,,,,,,,,,,48,,,,,,,,,,,,,,652.3440000000119,,response,,,10,C,,,,,Space,keypress(Space),,,,instrumental,-- -- --- ------ ------- --------- ----------- requires<br>--------- -------- --- ------- -- ------- ---- -- ------<br>-- --- -------- -------- ---------- ---- ---- ---- ------<br>-- --------- -- ---- -- --- -- --- ------- -- - -----<br>---------- -- -- -- ---- ----- -- ------ -- --- ------<br>-------,173684.2000000002,173683.5,173014.491,173028.2999999998,173031.156,173697.796,,7,requires
screen,html.Screen,0_4_1_0_1_8,2021-11-26T11:19:59.288Z,,,,,,,,,,,,,,,,48,,,,,,,,,,,,,,841.6040000003704,,response,,,10,C,,,,,Space,keypress(Space),,,,instrumental,-- -- --- ------ ------- --------- ----------- --------<br>travelers -------- --- ------- -- ------- ---- -- ------<br>-- --- -------- -------- ---------- ---- ---- ---- ------<br>-- --------- -- ---- -- --- -- --- ------- -- - -----<br>---------- -- -- -- ---- ----- -- ------ -- --- ------<br>-------,174540.2000000002,174539.40000000037,173681.131,173684.2999999998,173697.796,174547.72,,8,travelers
screen,html.Screen,0_4_1_0_1_9,2021-11-26T11:19:59.872Z,,,,,,,,,,,,,,,,48,,,,,,,,,,,,,,575.6800000003714,,response,,,10,C,,,,,Space,keypress(Space),,,,instrumental,-- -- --- ------ ------- --------- ----------- --------<br>--------- entering --- ------- -- ------- ---- -- ------<br>-- --- -------- -------- ---------- ---- ---- ---- ------<br>-- --------- -- ---- -- --- -- --- ------- -- - -----<br>---------- -- -- -- ---- ----- -- ------ -- --- ------<br>-------,175124,175123.40000000037,174531.055,174540.40000000037,174547.72,175131.13,,9,entering
screen,html.Screen,0_4_1_0_1_10,2021-11-26T11:20:00.320Z,,,,,,,,,,,,,,,,48,,,,,,,,,,,,,,440.1699999998091,,response,,,10,C,,,,,Space,keypress(Space),,,,instrumental,-- -- --- ------ ------- --------- ----------- --------<br>--------- -------- the ------- -- ------- ---- -- ------<br>-- --- -------- -------- ---------- ---- ---- ---- ------<br>-- --------- -- ---- -- --- -- --- ------- -- - -----<br>---------- -- -- -- ---- ----- -- ------ -- --- ------<br>-------,175571.90000000037,175571.2999999998,175114.464,175124.09999999963,175131.13,175581.054,,10,the
screen,html.Screen,0_4_1_0_1_11,2021-11-26T11:20:00.896Z,,,,,,,,,,,,,,,,48,,,,,,,,,,,,,,566.24599999981,,response,,,10,C,,,,,Space,keypress(Space),,,,instrumental,-- -- --- ------ ------- --------- ----------- --------<br>--------- -------- --- country -- ------- ---- -- ------<br>-- --- -------- -------- ---------- ---- ---- ---- ------<br>-- --------- -- ---- -- --- -- --- ------- -- - -----<br>---------- -- -- -- ---- ----- -- ------ -- --- ------<br>-------,176147.90000000037,176147.2999999998,175564.389,175572.09999999963,175581.054,176164.367,,11,country
screen,html.Screen,0_4_1_0_1_12,2021-11-26T11:20:01.368Z,,,,,,,,,,,,,,,,48,,,,,,,,,,,,,,454.93299999981537,,response,,,10,C,,,,,Space,keypress(Space),,,,instrumental,-- -- --- ------ ------- --------- ----------- --------<br>--------- -------- --- ------- to ------- ---- -- ------<br>-- --- -------- -------- ---------- ---- ---- ---- ------<br>-- --------- -- ---- -- --- -- --- ------- -- - -----<br>---------- -- -- -- ---- ----- -- ------ -- --- ------<br>-------,176619.90000000037,176619.2999999998,176147.702,176148.09999999963,176164.367,176630.935,,12,to
screen,html.Screen,0_4_1_0_1_13,2021-11-26T11:20:02.168Z,,,,,,,,,,,,,,,,48,,,,,,,,,,,,,,788.3649999998161,,response,,,10,C,,,,,Space,keypress(Space),,,,instrumental,-- -- --- ------ ------- --------- ----------- --------<br>--------- -------- --- ------- -- declare ---- -- ------<br>-- --- -------- -------- ---------- ---- ---- ---- ------<br>-- --------- -- ---- -- --- -- --- ------- -- - -----<br>---------- -- -- -- ---- ----- -- ------ -- --- ------<br>-------,177420,177419.2999999998,176614.271,176620,176630.935,177431.013,,13,declare
screen,html.Screen,0_4_1_0_1_14,2021-11-26T11:20:03.000Z,,,,,,,,,,,,,,,,48,,,,,,,,,,,,,,820.18700000018,,response,,,10,C,,,,,Space,keypress(Space),,,,instrumental,-- -- --- ------ ------- --------- ----------- --------<br>--------- -------- --- ------- -- ------- cash -- ------<br>-- --- -------- -------- ---------- ---- ---- ---- ------<br>-- --------- -- ---- -- --- -- --- ------- -- - -----<br>---------- -- -- -- ---- ----- -- ------ -- --- ------<br>-------,178251.7999999998,178251.2000000002,177414.347,177420.09999999963,177431.013,178264.234,,14,cash
screen,html.Screen,0_4_1_0_1_15,2021-11-26T11:20:03.415Z,,,,,,,,,,,,,,,,48,,,,,,,,,,,,,,402.9660000001895,,response,,,10,C,,,,,Space,keypress(Space),,,,instrumental,-- -- --- ------ ------- --------- ----------- --------<br>--------- -------- --- ------- -- ------- ---- in ------<br>-- --- -------- -------- ---------- ---- ---- ---- ------<br>-- --------- -- ---- -- --- -- --- ------- -- - -----<br>---------- -- -- -- ---- ----- -- ------ -- --- ------<br>-------,178667.90000000037,178667.2000000002,178247.569,178252,178264.234,178680.899,,15,in
screen,html.Screen,0_4_1_0_1_16,2021-11-26T11:20:04.151Z,,,,,,,,,,,,,,,,48,,,,,,,,,,,,,,722.3010000001814,,response,,,10,C,,,,,Space,keypress(Space),,,,instrumental,-- -- --- ------ ------- --------- ----------- --------<br>--------- -------- --- ------- -- ------- ---- -- excess<br>-- --- -------- -------- ---------- ---- ---- ---- ------<br>-- --------- -- ---- -- --- -- --- ------- -- - -----<br>---------- -- -- -- ---- ----- -- ------ -- --- ------<br>-------,179403.7999999998,179403.2000000002,178664.234,178668,178680.899,179414.179,,16,excess
screen,html.Screen,0_4_1_0_1_17,2021-11-26T11:20:04.776Z,,,,,,,,,,,,,,,,48,,,,,,,,,,,,,,613.2210000003688,,response,,,10,C,,,,,Space,keypress(Space),,,,instrumental,-- -- --- ------ ------- --------- ----------- --------<br>--------- -------- --- ------- -- ------- ---- -- ------<br>of --- -------- -------- ---------- ---- ---- ---- ------<br>-- --------- -- ---- -- --- -- --- ------- -- - -----<br>---------- -- -- -- ---- ----- -- ------ -- --- ------<br>-------,180028,180027.40000000037,179397.514,179404,179414.179,180030.89,,17,of
screen,html.Screen,0_4_1_0_1_18,2021-11-26T11:20:05.243Z,,,,,,,,,,,,,,,,48,,,,,,,,,,,,,,460.2099999996135,,response,,,10,C,,,,,Space,keypress(Space),,,,instrumental,-- -- --- ------ ------- --------- ----------- --------<br>--------- -------- --- ------- -- ------- ---- -- ------<br>-- ten -------- -------- ---------- ---- ---- ---- ------<br>-- --------- -- ---- -- --- -- --- ------- -- - -----<br>---------- -- -- -- ---- ----- -- ------ -- --- ------<br>-------,180491.7000000002,180491.09999999963,180014.224,180028.09999999963,180030.89,180497.397,,18,ten
screen,html.Screen,0_4_1_0_1_19,2021-11-26T11:20:05.747Z,,,,,,,,,,,,,,,,48,,,,,,,,,,,,,,497.70299999963026,,response,,,10,C,,,,,Space,keypress(Space),,,,instrumental,-- -- --- ------ ------- --------- ----------- --------<br>--------- -------- --- ------- -- ------- ---- -- ------<br>-- --- thousand -------- ---------- ---- ---- ---- ------<br>-- --------- -- ---- -- --- -- --- ------- -- - -----<br>---------- -- -- -- ---- ----- -- ------ -- --- ------<br>-------,180995.7000000002,180995.09999999963,180480.733,180491.7999999998,180497.397,180997.572,,19,thousand
screen,html.Screen,0_4_1_0_1_20,2021-11-26T11:20:06.443Z,,,,,,,,,,,,,,,,48,,,,,,,,,,,,,,693.5279999996419,,response,,,10,C,,,,,Space,keypress(Space),,,,instrumental,-- -- --- ------ ------- --------- ----------- --------<br>--------- -------- --- ------- -- ------- ---- -- ------<br>-- --- -------- dollars. ---------- ---- ---- ---- ------<br>-- --------- -- ---- -- --- -- --- ------- -- - -----<br>---------- -- -- -- ---- ----- -- ------ -- --- ------<br>-------,181691.59999999963,181691.09999999963,180980.905,180995.7999999998,180997.572,181697.424,,20,dollars.
screen,html.Screen,0_4_1_0_1_21,2021-11-26T11:20:07.395Z,,,,,,,,,,,,,,,,48,,,,,,,,,,,,,,945.5760000000009,,response,,,10,C,,,,,Space,keypress(Space),,,,instrumental,-- -- --- ------ ------- --------- ----------- --------<br>--------- -------- --- ------- -- ------- ---- -- ------<br>-- --- -------- -------- Concealing ---- ---- ---- ------<br>-- --------- -- ---- -- --- -- --- ------- -- - -----<br>---------- -- -- -- ---- ----- -- ------ -- --- ------<br>-------,182643.7000000002,182643,181680.759,181691.90000000037,181697.424,182647.259,,21,Concealing
screen,html.Screen,0_4_1_0_1_22,2021-11-26T11:20:07.851Z,,,,,,,,,,,,,,,,48,,,,,,,,,,,,,,451.6410000003816,,response,,,10,C,,,,,Space,keypress(Space),,,,instrumental,-- -- --- ------ ------- --------- ----------- --------<br>--------- -------- --- ------- -- ------- ---- -- ------<br>-- --- -------- -------- ---------- more ---- ---- ------<br>-- --------- -- ---- -- --- -- --- ------- -- - -----<br>---------- -- -- -- ---- ----- -- ------ -- --- ------<br>-------,183099.59999999963,183098.90000000037,182630.595,182644,182647.259,183114.004,,22,more
screen,html.Screen,0_4_1_0_1_23,2021-11-26T11:20:08.275Z,,,,,,,,,,,,,,,,48,,,,,,,,,,,,,,408.99600000001374,,response,,,10,C,,,,,Space,keypress(Space),,,,instrumental,-- -- --- ------ ------- --------- ----------- --------<br>--------- -------- --- ------- -- ------- ---- -- ------<br>-- --- -------- -------- ---------- ---- than ---- ------<br>-- --------- -- ---- -- --- -- --- ------- -- - -----<br>---------- -- -- -- ---- ----- -- ------ -- --- ------<br>-------,183523.59999999963,183523,183097.339,183099.90000000037,183114.004,183530.626,,23,than
screen,html.Screen,0_4_1_0_1_24,2021-11-26T11:20:08.867Z,,,,,,,,,,,,,,,,48,,,,,,,,,,,,,,584.2740000003832,,response,,,10,C,,,,,Space,keypress(Space),,,,instrumental,-- -- --- ------ ------- --------- ----------- --------<br>--------- -------- --- ------- -- ------- ---- -- ------<br>-- --- -------- -------- ---------- ---- ---- that ------<br>-- --------- -- ---- -- --- -- --- ------- -- - -----<br>---------- -- -- -- ---- ----- -- ------ -- --- ------<br>-------,184115.5,184114.90000000037,183513.961,183523.7000000002,183530.626,184130.696,,24,that
screen,html.Screen,0_4_1_0_1_25,2021-11-26T11:20:09.499Z,,,,,,,,,,,,,,,,48,,,,,,,,,,,,,,616.2040000003763,,response,,,10,C,,,,,Space,keypress(Space),,,,instrumental,-- -- --- ------ ------- --------- ----------- --------<br>--------- -------- --- ------- -- ------- ---- -- ------<br>-- --- -------- -------- ---------- ---- ---- ---- amount<br>-- --------- -- ---- -- --- -- --- ------- -- - -----<br>---------- -- -- -- ---- ----- -- ------ -- --- ------<br>-------,184747.5,184746.90000000037,184114.03,184115.7000000002,184130.696,184763.926,,25,amount
screen,html.Screen,0_4_1_0_1_26,2021-11-26T11:20:09.963Z,,,,,,,,,,,,,,,,48,,,,,,,,,,,,,,446.9740000003658,,response,,,10,C,,,,,Space,keypress(Space),,,,instrumental,-- -- --- ------ ------- --------- ----------- --------<br>--------- -------- --- ------- -- ------- ---- -- ------<br>-- --- -------- -------- ---------- ---- ---- ---- ------<br>to --------- -- ---- -- --- -- --- ------- -- - -----<br>---------- -- -- -- ---- ----- -- ------ -- --- ------<br>-------,185211.5,185210.90000000037,184747.261,184747.7999999998,184763.926,185213.928,,26,to
screen,html.Screen,0_4_1_0_1_27,2021-11-26T11:20:10.539Z,,,,,,,,,,,,,,,,48,,,,,,,,,,,,,,572.9720000003581,,response,,,10,C,,,,,Space,keypress(Space),,,,instrumental,-- -- --- ------ ------- --------- ----------- --------<br>--------- -------- --- ------- -- ------- ---- -- ------<br>-- --- -------- -------- ---------- ---- ---- ---- ------<br>-- transport -- ---- -- --- -- --- ------- -- - -----<br>---------- -- -- -- ---- ----- -- ------ -- --- ------<br>-------,185787.5,185786.90000000037,185197.263,185211.7999999998,185213.928,185797.23,,27,transport
screen,html.Screen,0_4_1_0_1_28,2021-11-26T11:20:11.027Z,,,,,,,,,,,,,,,,48,,,,,,,,,,,,,,477.56999999980326,,response,,,10,C,,,,,Space,keypress(Space),,,,instrumental,-- -- --- ------ ------- --------- ----------- --------<br>--------- -------- --- ------- -- ------- ---- -- ------<br>-- --- -------- -------- ---------- ---- ---- ---- ------<br>-- --------- it ---- -- --- -- --- ------- -- - -----<br>---------- -- -- -- ---- ----- -- ------ -- --- ------<br>-------,186275.40000000037,186274.7999999998,185780.565,185787.59999999963,185797.23,186280.528,,28,it
screen,html.Screen,0_4_1_0_1_29,2021-11-26T11:20:11.491Z,,,,,,,,,,,,,,,,48,,,,,,,,,,,,,,458.2719999998226,,response,,,10,C,,,,,Space,keypress(Space),,,,instrumental,-- -- --- ------ ------- --------- ----------- --------<br>--------- -------- --- ------- -- ------- ---- -- ------<br>-- --- -------- -------- ---------- ---- ---- ---- ------<br>-- --------- -- into -- --- -- --- ------- -- - -----<br>---------- -- -- -- ---- ----- -- ------ -- --- ------<br>-------,186739.40000000037,186738.7999999998,186263.863,186275.5,186280.528,186747.175,,29,into
screen,html.Screen,0_4_1_0_1_30,2021-11-26T11:20:11.979Z,,,,,,,,,,,,,,,,48,,,,,,,,,,,,,,479.5250000001979,,response,,,10,C,,,,,Space,keypress(Space),,,,instrumental,-- -- --- ------ ------- --------- ----------- --------<br>--------- -------- --- ------- -- ------- ---- -- ------<br>-- --- -------- -------- ---------- ---- ---- ---- ------<br>-- --------- -- ---- or --- -- --- ------- -- - -----<br>---------- -- -- -- ---- ----- -- ------ -- --- ------<br>-------,187227.5,187226.7000000002,186730.51,186739.7000000002,186747.175,187230.48,,30,or
screen,html.Screen,0_4_1_0_1_31,2021-11-26T11:20:12.475Z,,,,,,,,,,,,,,,,48,,,,,,,,,,,,,,492.2200000001758,,response,,,10,C,,,,,Space,keypress(Space),,,,instrumental,-- -- --- ------ ------- --------- ----------- --------<br>--------- -------- --- ------- -- ------- ---- -- ------<br>-- --- -------- -------- ---------- ---- ---- ---- ------<br>-- --------- -- ---- -- out -- --- ------- -- - -----<br>---------- -- -- -- ---- ----- -- ------ -- --- ------<br>-------,187723.40000000037,187722.7000000002,187213.815,187227.59999999963,187230.48,187730.455,,31,out
screen,html.Screen,0_4_1_0_1_32,2021-11-26T11:20:12.923Z,,,,,,,,,,,,,,,,48,,,,,,,,,,,,,,440.24500000019907,,response,,,10,C,,,,,Space,keypress(Space),,,,instrumental,-- -- --- ------ ------- --------- ----------- --------<br>--------- -------- --- ------- -- ------- ---- -- ------<br>-- --- -------- -------- ---------- ---- ---- ---- ------<br>-- --------- -- ---- -- --- of --- ------- -- - -----<br>---------- -- -- -- ---- ----- -- ------ -- --- ------<br>-------,188171.2999999998,188170.7000000002,187713.79,187723.59999999963,187730.455,188180.436,,32,of
screen,html.Screen,0_4_1_0_1_33,2021-11-26T11:20:13.323Z,,,,,,,,,,,,,,,,48,,,,,,,,,,,,,,390.3639999998268,,response,,,10,C,,,,,Space,keypress(Space),,,,instrumental,-- -- --- ------ ------- --------- ----------- --------<br>--------- -------- --- ------- -- ------- ---- -- ------<br>-- --- -------- -------- ---------- ---- ---- ---- ------<br>-- --------- -- ---- -- --- -- the ------- -- - -----<br>---------- -- -- -- ---- ----- -- ------ -- --- ------<br>-------,188571.2999999998,188570.7999999998,188163.771,188171.59999999963,188180.436,188580.401,,33,the
screen,html.Screen,0_4_1_0_1_34,2021-11-26T11:20:13.770Z,,,,,,,,,,,,,,,,48,,,,,,,,,,,,,,438.2990000001737,,response,,,10,C,,,,,Space,keypress(Space),,,,instrumental,-- -- --- ------ ------- --------- ----------- --------<br>--------- -------- --- ------- -- ------- ---- -- ------<br>-- --- -------- -------- ---------- ---- ---- ---- ------<br>-- --------- -- ---- -- --- -- --- country -- - -----<br>---------- -- -- -- ---- ----- -- ------ -- --- ------<br>-------,189019.2000000002,189018.7000000002,188563.736,188571.5,188580.401,189030.369,,34,country
screen,html.Screen,0_4_1_0_1_35,2021-11-26T11:20:14.186Z,,,,,,,,,,,,,,,,48,,,,,,,,,,,,,,404.3310000001802,,response,,,10,C,,,,,Space,keypress(Space),,,,instrumental,-- -- --- ------ ------- --------- ----------- --------<br>--------- -------- --- ------- -- ------- ---- -- ------<br>-- --- -------- -------- ---------- ---- ---- ---- ------<br>-- --------- -- ---- -- --- -- --- ------- is - -----<br>---------- -- -- -- ---- ----- -- ------ -- --- ------<br>-------,189435.40000000037,189434.7000000002,189013.704,189019.5,189030.369,189447.037,,35,is
screen,html.Screen,0_4_1_0_1_36,2021-11-26T11:20:14.714Z,,,,,,,,,,,,,,,,48,,,,,,,,,,,,,,515.5629999996163,,response,,,10,C,,,,,Space,keypress(Space),,,,instrumental,-- -- --- ------ ------- --------- ----------- --------<br>--------- -------- --- ------- -- ------- ---- -- ------<br>-- --- -------- -------- ---------- ---- ---- ---- ------<br>-- --------- -- ---- -- --- -- --- ------- -- a -----<br>---------- -- -- -- ---- ----- -- ------ -- --- ------<br>-------,189963.2999999998,189962.59999999963,189430.372,189435.59999999963,189447.037,189980.265,,36,a
screen,html.Screen,0_4_1_0_1_37,2021-11-26T11:20:15.187Z,,,,,,,,,,,,,,,,48,,,,,,,,,,,,,,454.53499999979977,,response,,,10,C,,,,,Space,keypress(Space),,,,instrumental,-- -- --- ------ ------- --------- ----------- --------<br>--------- -------- --- ------- -- ------- ---- -- ------<br>-- --- -------- -------- ---------- ---- ---- ---- ------<br>-- --------- -- ---- -- --- -- --- ------- -- - crime<br>---------- -- -- -- ---- ----- -- ------ -- --- ------<br>-------,190435.40000000037,190434.7999999998,189963.601,189963.40000000037,189980.265,190447.053,,37,crime
screen,html.Screen,0_4_1_0_1_38,2021-11-26T11:20:15.786Z,,,,,,,,,,,,,,,,48,,,,,,,,,,,,,,587.546999999613,,response,,,10,C,,,,,Space,keypress(Space),,,,instrumental,-- -- --- ------ ------- --------- ----------- --------<br>--------- -------- --- ------- -- ------- ---- -- ------<br>-- --- -------- -------- ---------- ---- ---- ---- ------<br>-- --------- -- ---- -- --- -- --- ------- -- - -----<br>punishable -- -- -- ---- ----- -- ------ -- --- ------<br>-------,191035.2000000002,191034.59999999963,190430.387,190435.5,190447.053,191046.876,,38,punishable
screen,html.Screen,0_4_1_0_1_39,2021-11-26T11:20:16.218Z,,,,,,,,,,,,,,,,48,,,,,,,,,,,,,,419.6240000000107,,response,,,10,C,,,,,Space,keypress(Space),,,,instrumental,-- -- --- ------ ------- --------- ----------- --------<br>--------- -------- --- ------- -- ------- ---- -- ------<br>-- --- -------- -------- ---------- ---- ---- ---- ------<br>-- --------- -- ---- -- --- -- --- ------- -- - -----<br>---------- by -- -- ---- ----- -- ------ -- --- ------<br>-------,191467.2000000002,191466.5,191030.212,191035.40000000037,191046.876,191480.327,,39,by
screen,html.Screen,0_4_1_0_1_40,2021-11-26T11:20:16.642Z,,,,,,,,,,,,,,,,48,,,,,,,,,,,,,,410.27299999963725,,response,,,10,C,,,,,Space,keypress(Space),,,,instrumental,-- -- --- ------ ------- --------- ----------- --------<br>--------- -------- --- ------- -- ------- ---- -- ------<br>-- --- -------- -------- ---------- ---- ---- ---- ------<br>-- --------- -- ---- -- --- -- --- ------- -- - -----<br>---------- -- up -- ---- ----- -- ------ -- --- ------<br>-------,191891.2000000002,191890.59999999963,191463.661,191467.40000000037,191480.327,191896.976,,40,up
screen,html.Screen,0_4_1_0_1_41,2021-11-26T11:20:17.034Z,,,,,,,,,,,,,,,,48,,,,,,,,,,,,,,385.62399999963236,,response,,,10,C,,,,,Space,keypress(Space),,,,instrumental,-- -- --- ------ ------- --------- ----------- --------<br>--------- -------- --- ------- -- ------- ---- -- ------<br>-- --- -------- -------- ---------- ---- ---- ---- ------<br>-- --------- -- ---- -- --- -- --- ------- -- - -----<br>---------- -- -- to ---- ----- -- ------ -- --- ------<br>-------,192283.2000000002,192282.59999999963,191880.31,191891.2999999998,191896.976,192296.914,,41,to
screen,html.Screen,0_4_1_0_1_42,2021-11-26T11:20:17.522Z,,,,,,,,,,,,,,,,48,,,,,,,,,,,,,,473.58600000001024,,response,,,10,C,,,,,Space,keypress(Space),,,,instrumental,-- -- --- ------ ------- --------- ----------- --------<br>--------- -------- --- ------- -- ------- ---- -- ------<br>-- --- -------- -------- ---------- ---- ---- ---- ------<br>-- --------- -- ---- -- --- -- --- ------- -- - -----<br>---------- -- -- -- five ----- -- ------ -- --- ------<br>-------,192771.09999999963,192770.5,192280.249,192283.2999999998,192296.914,192780.23,,42,five
screen,html.Screen,0_4_1_0_1_43,2021-11-26T11:20:17.962Z,,,,,,,,,,,,,,,,48,,,,,,,,,,,,,,430.2699999999895,,response,,,10,C,,,,,Space,keypress(Space),,,,instrumental,-- -- --- ------ ------- --------- ----------- --------<br>--------- -------- --- ------- -- ------- ---- -- ------<br>-- --- -------- -------- ---------- ---- ---- ---- ------<br>-- --------- -- ---- -- --- -- --- ------- -- - -----<br>---------- -- -- -- ---- years -- ------ -- --- ------<br>-------,193211.2000000002,193210.5,192763.565,192771.2999999998,192780.23,193213.478,,43,years
screen,html.Screen,0_4_1_0_1_44,2021-11-26T11:20:18.410Z,,,,,,,,,,,,,,,,48,,,,,,,,,,,,,,445.0219999999972,,response,,,10,C,,,,,Space,keypress(Space),,,,instrumental,-- -- --- ------ ------- --------- ----------- --------<br>--------- -------- --- ------- -- ------- ---- -- ------<br>-- --- -------- -------- ---------- ---- ---- ---- ------<br>-- --------- -- ---- -- --- -- --- ------- -- - -----<br>---------- -- -- -- ---- ----- in ------ -- --- ------<br>-------,193659.2000000002,193658.5,193196.814,193211.40000000037,193213.478,193663.509,,44,in
screen,html.Screen,0_4_1_0_1_45,2021-11-26T11:20:18.866Z,,,,,,,,,,,,,,,,48,,,,,,,,,,,,,,450.9910000000091,,response,,,10,C,,,,,Space,keypress(Space),,,,instrumental,-- -- --- ------ ------- --------- ----------- --------<br>--------- -------- --- ------- -- ------- ---- -- ------<br>-- --- -------- -------- ---------- ---- ---- ---- ------<br>-- --------- -- ---- -- --- -- --- ------- -- - -----<br>---------- -- -- -- ---- ----- -- prison -- --- ------<br>-------,194115,194114.5,193646.844,193659.40000000037,193663.509,194130.081,,45,prison
screen,html.Screen,0_4_1_0_1_46,2021-11-26T11:20:19.306Z,,,,,,,,,,,,,,,,48,,,,,,,,,,,,,,424.31900000036694,,response,,,10,C,,,,,Space,keypress(Space),,,,instrumental,-- -- --- ------ ------- --------- ----------- --------<br>--------- -------- --- ------- -- ------- ---- -- ------<br>-- --- -------- -------- ---------- ---- ---- ---- ------<br>-- --------- -- ---- -- --- -- --- ------- -- - -----<br>---------- -- -- -- ---- ----- -- ------ in --- ------<br>-------,194554.90000000037,194554.40000000037,194113.417,194115.2000000002,194130.081,194563.434,,46,in
screen,html.Screen,0_4_1_0_1_47,2021-11-26T11:20:19.850Z,,,,,,,,,,,,,,,,48,,,,,,,,,,,,,,534.9660000003641,,response,,,10,C,,,,,Space,keypress(Space),,,,instrumental,-- -- --- ------ ------- --------- ----------- --------<br>--------- -------- --- ------- -- ------- ---- -- ------<br>-- --- -------- -------- ---------- ---- ---- ---- ------<br>-- --------- -- ---- -- --- -- --- ------- -- - -----<br>---------- -- -- -- ---- ----- -- ------ -- the ------<br>-------,195099.09999999963,195098.40000000037,194546.769,194555.09999999963,194563.434,195113.48,,47,the
screen,html.Screen,0_4_1_0_1_48,2021-11-26T11:20:20.466Z,,,,,,,,,,,,,,,,48,,,,,,,,,,,,,,600.8199999998033,,response,,,10,C,,,,,Space,keypress(Space),,,,instrumental,-- -- --- ------ ------- --------- ----------- --------<br>--------- -------- --- ------- -- ------- ---- -- ------<br>-- --- -------- -------- ---------- ---- ---- ---- ------<br>-- --------- -- ---- -- --- -- --- ------- -- - -----<br>---------- -- -- -- ---- ----- -- ------ -- --- United<br>-------,195714.90000000037,195714.2999999998,195096.814,195099.2999999998,195113.48,195730.035,,48,United
screen,html.Screen,0_4_1_0_1_49,2021-11-26T11:20:21.034Z,,,,,,,,,,,,,,,,48,,,,,,,,,,,,,,552.2649999998102,,response,,,10,C,,,,,Space,keypress(Space),,,,instrumental,-- -- --- ------ ------- --------- ----------- --------<br>--------- -------- --- ------- -- ------- ---- -- ------<br>-- --- -------- -------- ---------- ---- ---- ---- ------<br>-- --------- -- ---- -- --- -- --- ------- -- - -----<br>---------- -- -- -- ---- ----- -- ------ -- --- ------<br>States.,196282.90000000037,196282.2999999998,195713.37,195715.09999999963,195730.035,196296.658,,49,States.
Item 10,flow.Loop,0_4_1_0_1,2021-11-26T11:20:21.034Z,,,,,,,,,,,,,,,,,,,,,,,,,,,,,,28867.545999999827,,completion,,,,,,,,,,,,,,,,196283.2000000002,196282.2999999998,167398.089,167399.2999999998,167414.754,196296.658,,,
Question 1,html.Screen,0_4_1_0_2,2021-11-26T11:20:28.445Z,,,,,,,,,,,,,,,,,,,,,,,,,,,false,TRUE,,7396.0420000001905,,response,,,10,C,,,,,FALSE,click #choice-2,,,,instrumental,,203693.5,203692.7000000002,196279.993,196283.2999999998,196296.658,203696.368,,,
Question 2,html.Screen,0_4_1_0_3,2021-11-26T11:20:31.136Z,,,,,,,,,,,,,,,,,,,,,,,,,,,true,TRUE,,2687.931999999826,,response,,,10,C,,,,,TRUE,click #choice-1,,,,instrumental,,206385,206384.2999999998,203679.703,203693.7000000002,203696.368,206395.042,,,
Item 10,flow.Sequence,0_4_1_0,2021-11-26T11:20:31.137Z,,,,,,,,,,,,,,,,,,,,,,,,,,,,,,45969.55199999982,,completion,,,,,,,,,,,,,,,,206385.2999999998,206384.2999999998,160398.083,160399.2999999998,160414.748,206395.042,,,
Holding screen,html.Screen,0_4_1_1_0,2021-11-26T11:20:38.132Z,,,,,,,,,,,,,,,,,,,,,,,,,,,,,,7000.9160000000265,,timeout,,,,,,,,,,,,,,,,213380.7000000002,213379.292,206378.406,206385.5,206395.042,213395.958,,,
screen,html.Screen,0_4_1_1_1_0,2021-11-26T11:20:40.209Z,,,,,,,,,,,,,,,,2,,,,,,,,,,,,,,2061.742000000173,,response,,,1,C,,,,,Space,keypress(Space),,,,instrumental,Two ---- ------ --- ------- ---------- ------- ----------<br>--- --------- --- ----------- ------- ----- ------- ---<br>--------- ---- -- --- ---- -- --------- -- ---- -------<br>-- --------- ------ --- ----- ------ ---- --- --------- --<br>------ - ---- -- --- ----------- ------- ---- ----- -----<br>--- -------- - ------ ---- -- ----- ---- --- --- -----------<br>-- -------,215458.2999999998,215457.7000000002,213379.292,213381.09999999963,213395.958,215462.312,,0,Two
screen,html.Screen,0_4_1_1_1_1,2021-11-26T11:20:40.681Z,,,,,,,,,,,,,,,,2,,,,,,,,,,,,,,466.9879999998084,,response,,,1,C,,,,,Space,keypress(Space),,,,instrumental,--- days ------ --- ------- ---------- ------- ----------<br>--- --------- --- ----------- ------- ----- ------- ---<br>--------- ---- -- --- ---- -- --------- -- ---- -------<br>-- --------- ------ --- ----- ------ ---- --- --------- --<br>------ - ---- -- --- ----------- ------- ---- ----- -----<br>--- -------- - ------ ---- -- ----- ---- --- --- -----------<br>-- -------,215929.90000000037,215929.2999999998,215445.647,215458.5,215462.312,215945.761,,1,days
screen,html.Screen,0_4_1_1_1_2,2021-11-26T11:20:41.385Z,,,,,,,,,,,,,,,,2,,,,,,,,,,,,,,687.5389999998151,,response,,,1,C,,,,,Space,keypress(Space),,,,instrumental,"--- ---- later, --- ------- ---------- ------- ----------<br>--- --------- --- ----------- ------- ----- ------- ---<br>--------- ---- -- --- ---- -- --------- -- ---- -------<br>-- --------- ------ --- ----- ------ ---- --- --------- --<br>------ - ---- -- --- ----------- ------- ---- ----- -----<br>--- -------- - ------ ---- -- ----- ---- --- --- -----------<br>-- -------",216633.7999999998,216633.2999999998,215929.096,215930.09999999963,215945.761,216645.654,,2,"later,"
