sender,sender_type,sender_id,timestamp,meta,,Blues,Classical,Country,Dance,Electronic,Folk,Gospel,Hip-Hop,Jazz,Latin,Musical/Film,New-age,Pop,Provo_ID,R&B,Rap,Reggae,Religious,Rock,Soul,Swing,Traditional,age,artist_name,correct,correctResponse,distraction,duration,education,ended_on,familiarity,gender,item,list,music_frequency,offensiveness,pleasantness,preference,response,response_action,snippet_file,song_name,song_rating,sound,text,time_commit,time_end,time_render,time_run,time_show,time_switch,url,word,word_ID
Instructions,html.Page,0_0,2021-11-05T11:41:03.519Z,"{""labjs_version"":""20.2.3"",""labjs_build"":{""flavor"":""production"",""commit"":""7ea907d66ca8aeef8054924ca5d82ffbe11e34e5""},""location"":""https://run.pavlovia.org/mvasilev/lab_music_c/"",""userAgent"":""Mozilla/5.0 (Windows NT 6.1; Win64; x64) AppleWebKit/537.36 (KHTML, like Gecko) Chrome/95.0.4638.54 Safari/537.36"",""platform"":""Win32"",""language"":""en-US"",""locale"":""en-US"",""timeZone"":""Europe/London"",""timezoneOffset"":0,""screen_width"":1920,""screen_height"":1080,""scroll_width"":1920,""scroll_height"":959,""window_innerWidth"":1920,""window_innerHeight"":1007,""devicePixelRatio"":1}",,,,,,,,,,,,,,,,,,,,,,,,,,,,,22384.446,,form submission,,,,,,,,,,,,,,,,31983.79999999702,31982.5,9564.714,9581.20000000298,9598.054,31987.96,{},,
Headphones,html.Page,0_1,2021-11-05T11:41:07.281Z,,,,,,,,,,,,,,,,,,,,,,,,,,,,,,3758.240000002981,,form submission,,,,,,,,,,,,,,,,35746.60000000894,35746.20000000298,31971.273,31984.5,31987.96,35755.127,,,
Holding screen,html.Screen,0_2_0_0,2021-11-05T11:41:17.283Z,,,,,,,,,,,,,,,,,,,,,,,,,,,,,,10002.290999999997,,timeout,,,,,,,,,,,,,,,,45748.40000000596,45740.749,35738.456,35747.10000000894,35755.127,45757.418,,,
screen,html.Screen,0_2_0_1_0,2021-11-05T11:41:18.650Z,,,,,,,,,,,,,,,,53,,,,,,,,,,,,,,1356.1820000089429,,response,,,99,,,,,,Space,keypress(Space),,,,,When -- ----- -- ------ - ------- --- ----------<br>------------- ------ ------ ---- ---- ------- ----- -- ----<br>-------- ------- -- ---------- --- - --- ----- ----- ----<br>---- --- --- ----- --- ---- ---- ------- ----- ---- -------<br>--- --- -- ----- -- --- ---- -- --- ---- -- ------ ------<br>--- ----- -- ----,47115.10000000894,47113.60000000894,45740.749,45748.90000000596,45757.418,47124.706,,0,When
screen,html.Screen,0_2_0_1_1,2021-11-05T11:41:19.209Z,,,,,,,,,,,,,,,,53,,,,,,,,,,,,,,548.8940000089424,,response,,,99,,,,,,Space,keypress(Space),,,,,---- it ----- -- ------ - ------- --- ----------<br>------------- ------ ------ ---- ---- ------- ----- -- ----<br>-------- ------- -- ---------- --- - --- ----- ----- ----<br>---- --- --- ----- --- ---- ---- ------- ----- ---- -------<br>--- --- -- ----- -- --- ---- -- --- ---- -- ------ ------<br>--- ----- -- ----,47674.40000000596,47673.60000000894,47108.035,47115.5,47124.706,47691.422,,1,it
screen,html.Screen,0_2_0_1_2,2021-11-05T11:41:19.705Z,,,,,,,,,,,,,,,,53,,,,,,,,,,,,,,478.07800000000134,,response,,,99,,,,,,Space,keypress(Space),,,,,---- -- comes -- ------ - ------- --- ----------<br>------------- ------ ------ ---- ---- ------- ----- -- ----<br>-------- ------- -- ---------- --- - --- ----- ----- ----<br>---- --- --- ----- --- ---- ---- ------- ----- ---- -------<br>--- --- -- ----- -- --- ---- -- --- ---- -- ------ ------<br>--- ----- -- ----,48170.5,48169.5,47674.752,47674.79999999702,47691.422,48174.974,,2,comes
screen,html.Screen,0_2_0_1_3,2021-11-05T11:41:20.138Z,,,,,,,,,,,,,,,,53,,,,,,,,,,,,,,427.025999999998,,response,,,99,,,,,,Space,keypress(Space),,,,,---- -- ----- to ------ - ------- --- ----------<br>------------- ------ ------ ---- ---- ------- ----- -- ----<br>-------- ------- -- ---------- --- - --- ----- ----- ----<br>---- --- --- ----- --- ---- ---- ------- ----- ---- -------<br>--- --- -- ----- -- --- ---- -- --- ---- -- ------ ------<br>--- ----- -- ----,48602.90000000596,48602,48158.303,48170.70000000298,48174.974,48608.371,,3,to
screen,html.Screen,0_2_0_1_4,2021-11-05T11:41:20.682Z,,,,,,,,,,,,,,,,53,,,,,,,,,,,,,,537.1290000000008,,response,,,99,,,,,,Space,keypress(Space),,,,,---- -- ----- -- having - ------- --- ----------<br>------------- ------ ------ ---- ---- ------- ----- -- ----<br>-------- ------- -- ---------- --- - --- ----- ----- ----<br>---- --- --- ----- --- ---- ---- ------- ----- ---- -------<br>--- --- -- ----- -- --- ---- -- --- ---- -- ------ ------<br>--- ----- -- ----,49146.70000000298,49145.5,48591.701,48603.5,48608.371,49158.567,,4,having
screen,html.Screen,0_2_0_1_5,2021-11-05T11:41:21.129Z,,,,,,,,,,,,,,,,53,,,,,,,,,,,,,,434.83300000595773,,response,,,99,,,,,,Space,keypress(Space),,,,,---- -- ----- -- ------ a ------- --- ----------<br>------------- ------ ------ ---- ---- ------- ----- -- ----<br>-------- ------- -- ---------- --- - --- ----- ----- ----<br>---- --- --- ----- --- ---- ---- ------- ----- ---- -------<br>--- --- -- ----- -- --- ---- -- --- ---- -- ------ ------<br>--- ----- -- ----,49594.40000000596,49593.40000000596,49141.896,49147.10000000894,49158.567,49608.618,,5,a
screen,html.Screen,0_2_0_1_6,2021-11-05T11:41:21.593Z,,,,,,,,,,,,,,,,53,,,,,,,,,,,,,,448.8819999999978,,response,,,99,,,,,,Space,keypress(Space),,,,,---- -- ----- -- ------ - lasting --- ----------<br>------------- ------ ------ ---- ---- ------- ----- -- ----<br>-------- ------- -- ---------- --- - --- ----- ----- ----<br>---- --- --- ----- --- ---- ---- ------- ----- ---- -------<br>--- --- -- ----- -- --- ---- -- --- ---- -- ------ ------<br>--- ----- -- ----,50058.40000000596,50057.5,49591.948,49594.90000000596,49608.618,50075.425,,6,lasting
screen,html.Screen,0_2_0_1_7,2021-11-05T11:41:22.089Z,,,,,,,,,,,,,,,,53,,,,,,,,,,,,,,477.97500000595755,,response,,,99,,,,,,Space,keypress(Space),,,,,---- -- ----- -- ------ - ------- and ----------<br>------------- ------ ------ ---- ---- ------- ----- -- ----<br>-------- ------- -- ---------- --- - --- ----- ----- ----<br>---- --- --- ----- --- ---- ---- ------- ----- ---- -------<br>--- --- -- ----- -- --- ---- -- --- ---- -- ------ ------<br>--- ----- -- ----,50554.40000000596,50553.40000000596,50058.755,50058.90000000596,50075.425,50558.928,,7,and
screen,html.Screen,0_2_0_1_8,2021-11-05T11:41:22.633Z,,,,,,,,,,,,,,,,53,,,,,,,,,,,,,,538.4720000059606,,response,,,99,,,,,,Space,keypress(Space),,,,,---- -- ----- -- ------ - ------- --- fulfilling<br>------------- ------ ------ ---- ---- ------- ----- -- ----<br>-------- ------- -- ---------- --- - --- ----- ----- ----<br>---- --- --- ----- --- ---- ---- ------- ----- ---- -------<br>--- --- -- ----- -- --- ---- -- --- ---- -- ------ ------<br>--- ----- -- ----,51098.60000000894,51097.40000000596,50542.257,50554.60000000894,50558.928,51108.999,,8,fulfilling
screen,html.Screen,0_2_0_1_9,2021-11-05T11:41:23.377Z,,,,,,,,,,,,,,,,53,,,,,,,,,,,,,,732.3009999970163,,response,,,99,,,,,,Space,keypress(Space),,,,,"---- -- ----- -- ------ - ------- --- ----------<br>relationship, ------ ------ ---- ---- ------- ----- -- ----<br>-------- ------- -- ---------- --- - --- ----- ----- ----<br>---- --- --- ----- --- ---- ---- ------- ----- ---- -------<br>--- --- -- ----- -- --- ---- -- --- ---- -- ------ ------<br>--- ----- -- ----",51842.40000000596,51841.29999999702,51092.329,51098.90000000596,51108.999,51859.2,,9,"relationship,"
screen,html.Screen,0_2_0_1_10,2021-11-05T11:41:24.017Z,,,,,,,,,,,,,,,,53,,,,,,,,,,,,,,622.0999999970227,,response,,,99,,,,,,Space,keypress(Space),,,,,---- -- ----- -- ------ - ------- --- ----------<br>------------- common ------ ---- ---- ------- ----- -- ----<br>-------- ------- -- ---------- --- - --- ----- ----- ----<br>---- --- --- ----- --- ---- ---- ------- ----- ---- -------<br>--- --- -- ----- -- --- ---- -- --- ---- -- ------ ------<br>--- ----- -- ----,52482.20000000298,52481.29999999702,51842.53,51842.70000000298,51859.2,52492.702,,10,common
screen,html.Screen,0_2_0_1_11,2021-11-05T11:41:24.537Z,,,,,,,,,,,,,,,,53,,,,,,,,,,,,,,508.49800000298274,,response,,,99,,,,,,Space,keypress(Space),,,,,---- -- ----- -- ------ - ------- --- ----------<br>------------- ------ wisdom ---- ---- ------- ----- -- ----<br>-------- ------- -- ---------- --- - --- ----- ----- ----<br>---- --- --- ----- --- ---- ---- ------- ----- ---- -------<br>--- --- -- ----- -- --- ---- -- --- ---- -- ------ ------<br>--- ----- -- ----,53002.20000000298,53001.20000000298,52476.032,52482.5,52492.702,53009.512,,11,wisdom
screen,html.Screen,0_2_0_1_12,2021-11-05T11:41:25.089Z,,,,,,,,,,,,,,,,53,,,,,,,,,,,,,,543.6880000029778,,response,,,99,,,,,,Space,keypress(Space),,,,,---- -- ----- -- ------ - ------- --- ----------<br>------------- ------ ------ says ---- ------- ----- -- ----<br>-------- ------- -- ---------- --- - --- ----- ----- ----<br>---- --- --- ----- --- ---- ---- ------- ----- ---- -------<br>--- --- -- ----- -- --- ---- -- --- ---- -- ------ ------<br>--- ----- -- ----,53554.10000000894,53553.20000000298,52992.842,53002.5,53009.512,53559.633,,12,says
screen,html.Screen,0_2_0_1_13,2021-11-05T11:41:25.601Z,,,,,,,,,,,,,,,,53,,,,,,,,,,,,,,505.5670000029786,,response,,,99,,,,,,Space,keypress(Space),,,,,---- -- ----- -- ------ - ------- --- ----------<br>------------- ------ ------ ---- that ------- ----- -- ----<br>-------- ------- -- ---------- --- - --- ----- ----- ----<br>---- --- --- ----- --- ---- ---- ------- ----- ---- -------<br>--- --- -- ----- -- --- ---- -- --- ---- -- ------ ------<br>--- ----- -- ----,54066,54065.20000000298,53542.963,53554.40000000596,53559.633,54076.442,,13,that
screen,html.Screen,0_2_0_1_14,2021-11-05T11:41:26.145Z,,,,,,,,,,,,,,,,53,,,,,,,,,,,,,,532.7580000029775,,response,,,99,,,,,,Space,keypress(Space),,,,,---- -- ----- -- ------ - ------- --- ----------<br>------------- ------ ------ ---- ---- feeling ----- -- ----<br>-------- ------- -- ---------- --- - --- ----- ----- ----<br>---- --- --- ----- --- ---- ---- ------- ----- ---- -------<br>--- --- -- ----- -- --- ---- -- --- ---- -- ------ ------<br>--- ----- -- ----,54610.10000000894,54609.20000000298,54059.772,54066.29999999702,54076.442,54626.497,,14,feeling
screen,html.Screen,0_2_0_1_15,2021-11-05T11:41:26.473Z,,,,,,,,,,,,,,,,53,,,,,,,,,,,,,,310.7030000029772,,response,,,99,,,,,,Space,keypress(Space),,,,,---- -- ----- -- ------ - ------- --- ----------<br>------------- ------ ------ ---- ---- ------- close -- ----<br>-------- ------- -- ---------- --- - --- ----- ----- ----<br>---- --- --- ----- --- ---- ---- ------- ----- ---- -------<br>--- --- -- ----- -- --- ---- -- --- ---- -- ------ ------<br>--- ----- -- ----,54938,54937.20000000298,54609.828,54610.40000000596,54626.497,54943.387,,15,close
screen,html.Screen,0_2_0_1_16,2021-11-05T11:41:26.881Z,,,,,,,,,,,,,,,,53,,,,,,,,,,,,,,401.8130000029778,,response,,,99,,,,,,Space,keypress(Space),,,,,---- -- ----- -- ------ - ------- --- ----------<br>------------- ------ ------ ---- ---- ------- ----- to ----<br>-------- ------- -- ---------- --- - --- ----- ----- ----<br>---- --- --- ----- --- ---- ---- ------- ----- ---- -------<br>--- --- -- ----- -- --- ---- -- --- ---- -- ------ ------<br>--- ----- -- ----,55346,55345.20000000298,54926.716,54938.29999999702,54943.387,55360.149,,16,to
screen,html.Screen,0_2_0_1_17,2021-11-05T11:41:27.457Z,,,,,,,,,,,,,,,,53,,,,,,,,,,,,,,560.9510000089431,,response,,,99,,,,,,Space,keypress(Space),,,,,---- -- ----- -- ------ - ------- --- ----------<br>------------- ------ ------ ---- ---- ------- ----- -- your<br>-------- ------- -- ---------- --- - --- ----- ----- ----<br>---- --- --- ----- --- ---- ---- ------- ----- ---- -------<br>--- --- -- ----- -- --- ---- -- --- ---- -- ------ ------<br>--- ----- -- ----,55921.90000000596,55921.10000000894,55343.478,55346.29999999702,55360.149,55926.921,,17,your
screen,html.Screen,0_2_0_1_18,2021-11-05T11:41:27.953Z,,,,,,,,,,,,,,,,53,,,,,,,,,,,,,,490.1790000089386,,response,,,99,,,,,,Space,keypress(Space),,,,,---- -- ----- -- ------ - ------- --- ----------<br>------------- ------ ------ ---- ---- ------- ----- -- ----<br>romantic ------- -- ---------- --- - --- ----- ----- ----<br>---- --- --- ----- --- ---- ---- ------- ----- ---- -------<br>--- --- -- ----- -- --- ---- -- --- ---- -- ------ ------<br>--- ----- -- ----,56418,56417.10000000894,55910.251,55922.20000000298,55926.921,56427.099,,18,romantic
screen,html.Screen,0_2_0_1_19,2021-11-05T11:41:28.449Z,,,,,,,,,,,,,,,,53,,,,,,,,,,,,,,485.900999999998,,response,,,99,,,,,,Space,keypress(Space),,,,,---- -- ----- -- ------ - ------- --- ----------<br>------------- ------ ------ ---- ---- ------- ----- -- ----<br>-------- partner -- ---------- --- - --- ----- ----- ----<br>---- --- --- ----- --- ---- ---- ------- ----- ---- -------<br>--- --- -- ----- -- --- ---- -- --- ---- -- ------ ------<br>--- ----- -- ----,56913.90000000596,56913,56410.428,56418.20000000298,56427.099,56927.167,,19,partner
screen,html.Screen,0_2_0_1_20,2021-11-05T11:41:28.953Z,,,,,,,,,,,,,,,,53,,,,,,,,,,,,,,489.9330000089394,,response,,,99,,,,,,Space,keypress(Space),,,,,---- -- ----- -- ------ - ------- --- ----------<br>------------- ------ ------ ---- ---- ------- ----- -- ----<br>-------- ------- is ---------- --- - --- ----- ----- ----<br>---- --- --- ----- --- ---- ---- ------- ----- ---- -------<br>--- --- -- ----- -- --- ---- -- --- ---- -- ------ ------<br>--- ----- -- ----,57417.79999999702,57417.10000000894,56910.497,56914.20000000298,56927.167,57427.354,,20,is
screen,html.Screen,0_2_0_1_21,2021-11-05T11:41:29.569Z,,,,,,,,,,,,,,,,53,,,,,,,,,,,,,,605.6460000000006,,response,,,99,,,,,,Space,keypress(Space),,,,,---- -- ----- -- ------ - ------- --- ----------<br>------------- ------ ------ ---- ---- ------- ----- -- ----<br>-------- ------- -- paramount. --- - --- ----- ----- ----<br>---- --- --- ----- --- ---- ---- ------- ----- ---- -------<br>--- --- -- ----- -- --- ---- -- --- ---- -- ------ ------<br>--- ----- -- ----,58033.79999999702,58033,57410.683,57418.20000000298,57427.354,58044.139,,21,paramount.
screen,html.Screen,0_2_0_1_22,2021-11-05T11:41:30.105Z,,,,,,,,,,,,,,,,53,,,,,,,,,,,,,,524.8609999999971,,response,,,99,,,,,,Space,keypress(Space),,,,,---- -- ----- -- ------ - ------- --- ----------<br>------------- ------ ------ ---- ---- ------- ----- -- ----<br>-------- ------- -- ---------- But - --- ----- ----- ----<br>---- --- --- ----- --- ---- ---- ------- ----- ---- -------<br>--- --- -- ----- -- --- ---- -- --- ---- -- ------ ------<br>--- ----- -- ----,58569.90000000596,58569,58027.469,58034.40000000596,58044.139,58577.578,,22,But
screen,html.Screen,0_2_0_1_23,2021-11-05T11:41:30.537Z,,,,,,,,,,,,,,,,53,,,,,,,,,,,,,,423.8220000059591,,response,,,99,,,,,,Space,keypress(Space),,,,,---- -- ----- -- ------ - ------- --- ----------<br>------------- ------ ------ ---- ---- ------- ----- -- ----<br>-------- ------- -- ---------- --- a --- ----- ----- ----<br>---- --- --- ----- --- ---- ---- ------- ----- ---- -------<br>--- --- -- ----- -- --- ---- -- --- ---- -- ------ ------<br>--- ----- -- ----,59002.20000000298,59001.40000000596,58560.908,58570.10000000894,58577.578,59011.093,,23,a
screen,html.Screen,0_2_0_1_24,2021-11-05T11:41:31.064Z,,,,,,,,,,,,,,,,53,,,,,,,,,,,,,,517.8070000059597,,response,,,99,,,,,,Space,keypress(Space),,,,,---- -- ----- -- ------ - ------- --- ----------<br>------------- ------ ------ ---- ---- ------- ----- -- ----<br>-------- ------- -- ---------- --- - new ----- ----- ----<br>---- --- --- ----- --- ---- ---- ------- ----- ---- -------<br>--- --- -- ----- -- --- ---- -- --- ---- -- ------ ------<br>--- ----- -- ----,59529.70000000298,59528.90000000596,58994.422,59002.5,59011.093,59544.512,,24,new
screen,html.Screen,0_2_0_1_25,2021-11-05T11:41:31.636Z,,,,,,,,,,,,,,,,53,,,,,,,,,,,,,,552.388000005958,,response,,,99,,,,,,Space,keypress(Space),,,,,---- -- ----- -- ------ - ------- --- ----------<br>------------- ------ ------ ---- ---- ------- ----- -- ----<br>-------- ------- -- ---------- --- - --- study ----- ----<br>---- --- --- ----- --- ---- ---- ------- ----- ---- -------<br>--- --- -- ----- -- --- ---- -- --- ---- -- ------ ------<br>--- ----- -- ----,60097.70000000298,60096.90000000596,59527.842,59529.90000000596,59544.512,60111.315,,25,study
screen,html.Screen,0_2_0_1_26,2021-11-05T11:41:31.980Z,,,,,,,,,,,,,,,,53,,,,,,,,,,,,,,329.58500000595814,,response,,,99,,,,,,Space,keypress(Space),,,,,---- -- ----- -- ------ - ------- --- ----------<br>------------- ------ ------ ---- ---- ------- ----- -- ----<br>-------- ------- -- ---------- --- - --- ----- finds ----<br>---- --- --- ----- --- ---- ---- ------- ----- ---- -------<br>--- --- -- ----- -- --- ---- -- --- ---- -- ------ ------<br>--- ----- -- ----,60441.70000000298,60440.90000000596,60094.645,60098,60111.315,60444.759,,26,finds
screen,html.Screen,0_2_0_1_27,2021-11-05T11:41:32.460Z,,,,,,,,,,,,,,,,53,,,,,,,,,,,,,,476.0409999970216,,response,,,99,,,,,,Space,keypress(Space),,,,,---- -- ----- -- ------ - ------- --- ----------<br>------------- ------ ------ ---- ---- ------- ----- -- ----<br>-------- ------- -- ---------- --- - --- ----- ----- that<br>---- --- --- ----- --- ---- ---- ------- ----- ---- -------<br>--- --- -- ----- -- --- ---- -- --- ---- -- ------ ------<br>--- ----- -- ----,60921.70000000298,60920.79999999702,60428.089,60441.90000000596,60444.759,60928.125,,27,that
screen,html.Screen,0_2_0_1_28,2021-11-05T11:41:32.932Z,,,,,,,,,,,,,,,,53,,,,,,,,,,,,,,464.67499999701977,,response,,,99,,,,,,Space,keypress(Space),,,,,---- -- ----- -- ------ - ------- --- ----------<br>------------- ------ ------ ---- ---- ------- ----- -- ----<br>-------- ------- -- ---------- --- - --- ----- ----- ----<br>it's --- --- ----- --- ---- ---- ------- ----- ---- -------<br>--- --- -- ----- -- --- ---- -- --- ---- -- ------ ------<br>--- ----- -- ----,61393.60000000894,61392.79999999702,60911.456,60922,60928.125,61394.938,,28,it's
screen,html.Screen,0_2_0_1_29,2021-11-05T11:41:33.308Z,,,,,,,,,,,,,,,,53,,,,,,,,,,,,,,373.7620000029783,,response,,,99,,,,,,Space,keypress(Space),,,,,---- -- ----- -- ------ - ------- --- ----------<br>------------- ------ ------ ---- ---- ------- ----- -- ----<br>-------- ------- -- ---------- --- - --- ----- ----- ----<br>---- not --- ----- --- ---- ---- ------- ----- ---- -------<br>--- --- -- ----- -- --- ---- -- --- ---- -- ------ ------<br>--- ----- -- ----,61769.70000000298,61768.70000000298,61378.268,61393.90000000596,61394.938,61795.178,,29,not
screen,html.Screen,0_2_0_1_30,2021-11-05T11:41:33.748Z,,,,,,,,,,,,,,,,53,,,,,,,,,,,,,,413.6219999970199,,response,,,99,,,,,,Space,keypress(Space),,,,,---- -- ----- -- ------ - ------- --- ----------<br>------------- ------ ------ ---- ---- ------- ----- -- ----<br>-------- ------- -- ---------- --- - --- ----- ----- ----<br>---- --- how ----- --- ---- ---- ------- ----- ---- -------<br>--- --- -- ----- -- --- ---- -- --- ---- -- ------ ------<br>--- ----- -- ----,62209.5,62208.79999999702,61778.506,61769.90000000596,61795.178,62211.912,,30,how
screen,html.Screen,0_2_0_1_31,2021-11-05T11:41:34.092Z,,,,,,,,,,,,,,,,53,,,,,,,,,,,,,,340.7880000029836,,response,,,99,,,,,,Space,keypress(Space),,,,,---- -- ----- -- ------ - ------- --- ----------<br>------------- ------ ------ ---- ---- ------- ----- -- ----<br>-------- ------- -- ---------- --- - --- ----- ----- ----<br>---- --- --- close --- ---- ---- ------- ----- ---- -------<br>--- --- -- ----- -- --- ---- -- --- ---- -- ------ ------<br>--- ----- -- ----,62553.5,62552.70000000298,62195.241,62209.79999999702,62211.912,62561.965,,31,close
screen,html.Screen,0_2_0_1_32,2021-11-05T11:41:34.628Z,,,,,,,,,,,,,,,,53,,,,,,,,,,,,,,526.7350000029837,,response,,,99,,,,,,Space,keypress(Space),,,,,---- -- ----- -- ------ - ------- --- ----------<br>------------- ------ ------ ---- ---- ------- ----- -- ----<br>-------- ------- -- ---------- --- - --- ----- ----- ----<br>---- --- --- ----- you ---- ---- ------- ----- ---- -------<br>--- --- -- ----- -- --- ---- -- --- ---- -- ------ ------<br>--- ----- -- ----,63089.79999999702,63088.70000000298,62545.295,62553.79999999702,62561.965,63095.435,,32,you
screen,html.Screen,0_2_0_1_33,2021-11-05T11:41:35.291Z,,,,,,,,,,,,,,,,53,,,,,,,,,,,,,,657.165000008943,,response,,,99,,,,,,Space,keypress(Space),,,,,---- -- ----- -- ------ - ------- --- ----------<br>------------- ------ ------ ---- ---- ------- ----- -- ----<br>-------- ------- -- ---------- --- - --- ----- ----- ----<br>---- --- --- ----- --- feel ---- ------- ----- ---- -------<br>--- --- -- ----- -- --- ---- -- --- ---- -- ------ ------<br>--- ----- -- ----,63753.40000000596,63752.60000000894,63078.765,63090,63095.435,63762.25,,33,feel
screen,html.Screen,0_2_0_1_34,2021-11-05T11:41:35.763Z,,,,,,,,,,,,,,,,53,,,,,,,,,,,,,,462.3500000089407,,response,,,99,,,,,,Space,keypress(Space),,,,,---- -- ----- -- ------ - ------- --- ----------<br>------------- ------ ------ ---- ---- ------- ----- -- ----<br>-------- ------- -- ---------- --- - --- ----- ----- ----<br>---- --- --- ----- --- ---- that ------- ----- ---- -------<br>--- --- -- ----- -- --- ---- -- --- ---- -- ------ ------<br>--- ----- -- ----,64225.40000000596,64224.60000000894,63745.58,63753.70000000298,63762.25,64229.059,,34,that
screen,html.Screen,0_2_0_1_35,2021-11-05T11:41:36.235Z,,,,,,,,,,,,,,,,53,,,,,,,,,,,,,,467.5410000089396,,response,,,99,,,,,,Space,keypress(Space),,,,,---- -- ----- -- ------ - ------- --- ----------<br>------------- ------ ------ ---- ---- ------- ----- -- ----<br>-------- ------- -- ---------- --- - --- ----- ----- ----<br>---- --- --- ----- --- ---- ---- matters ----- ---- -------<br>--- --- -- ----- -- --- ---- -- --- ---- -- ------ ------<br>--- ----- -- ----,64697.40000000596,64696.60000000894,64212.389,64225.70000000298,64229.059,64712.505,,35,matters
screen,html.Screen,0_2_0_1_36,2021-11-05T11:41:36.700Z,,,,,,,,,,,,,,,,53,,,,,,,,,,,,,,448.3950000059631,,response,,,99,,,,,,Space,keypress(Space),,,,,"---- -- ----- -- ------ - ------- --- ----------<br>------------- ------ ------ ---- ---- ------- ----- -- ----<br>-------- ------- -- ---------- --- - --- ----- ----- ----<br>---- --- --- ----- --- ---- ---- ------- most, ---- -------<br>--- --- -- ----- -- --- ---- -- --- ---- -- ------ ------<br>--- ----- -- ----",65162.20000000298,65160.90000000596,64695.835,64697.60000000894,64712.505,65179.302,,36,"most,"
screen,html.Screen,0_2_0_1_37,2021-11-05T11:41:37.163Z,,,,,,,,,,,,,,,,53,,,,,,,,,,,,,,445.2980000089374,,response,,,99,,,,,,Space,keypress(Space),,,,,---- -- ----- -- ------ - ------- --- ----------<br>------------- ------ ------ ---- ---- ------- ----- -- ----<br>-------- ------- -- ---------- --- - --- ----- ----- ----<br>---- --- --- ----- --- ---- ---- ------- ----- it's -------<br>--- --- -- ----- -- --- ---- -- --- ---- -- ------ ------<br>--- ----- -- ----,65625.40000000596,65624.60000000894,65162.632,65162.40000000596,65179.302,65629.294,,37,it's
screen,html.Screen,0_2_0_1_38,2021-11-05T11:41:37.763Z,,,,,,,,,,,,,,,,53,,,,,,,,,,,,,,595.2060000000056,,response,,,99,,,,,,Space,keypress(Space),,,,,---- -- ----- -- ------ - ------- --- ----------<br>------------- ------ ------ ---- ---- ------- ----- -- ----<br>-------- ------- -- ---------- --- - --- ----- ----- ----<br>---- --- --- ----- --- ---- ---- ------- ----- ---- whether<br>--- --- -- ----- -- --- ---- -- --- ---- -- ------ ------<br>--- ----- -- ----,66225.40000000596,66224.5,65612.625,65625.60000000894,65629.294,66229.601,,38,whether
screen,html.Screen,0_2_0_1_39,2021-11-05T11:41:38.267Z,,,,,,,,,,,,,,,,53,,,,,,,,,,,,,,498.8990000000049,,response,,,99,,,,,,Space,keypress(Space),,,,,---- -- ----- -- ------ - ------- --- ----------<br>------------- ------ ------ ---- ---- ------- ----- -- ----<br>-------- ------- -- ---------- --- - --- ----- ----- ----<br>---- --- --- ----- --- ---- ---- ------- ----- ---- -------<br>you --- -- ----- -- --- ---- -- --- ---- -- ------ ------<br>--- ----- -- ----,66729.29999999702,66728.5,66212.93,66225.60000000894,66229.601,66746.477,,39,you
screen,html.Screen,0_2_0_1_40,2021-11-05T11:41:38.683Z,,,,,,,,,,,,,,,,53,,,,,,,,,,,,,,398.02300000000105,,response,,,99,,,,,,Space,keypress(Space),,,,,---- -- ----- -- ------ - ------- --- ----------<br>------------- ------ ------ ---- ---- ------- ----- -- ----<br>-------- ------- -- ---------- --- - --- ----- ----- ----<br>---- --- --- ----- --- ---- ---- ------- ----- ---- -------<br>--- are -- ----- -- --- ---- -- --- ---- -- ------ ------<br>--- ----- -- ----,67145.20000000298,67144.5,66729.805,66729.60000000894,66746.477,67146.491,,40,are
screen,html.Screen,0_2_0_1_41,2021-11-05T11:41:39.131Z,,,,,,,,,,,,,,,,53,,,,,,,,,,,,,,445.90900000596594,,response,,,99,,,,,,Space,keypress(Space),,,,,---- -- ----- -- ------ - ------- --- ----------<br>------------- ------ ------ ---- ---- ------- ----- -- ----<br>-------- ------- -- ---------- --- - --- ----- ----- ----<br>---- --- --- ----- --- ---- ---- ------- ----- ---- -------<br>--- --- as ----- -- --- ---- -- --- ---- -- ------ ------<br>--- ----- -- ----,67593.29999999702,67592.40000000596,67129.821,67145.5,67146.491,67596.514,,41,as
screen,html.Screen,0_2_0_1_42,2021-11-05T11:41:39.515Z,,,,,,,,,,,,,,,,53,,,,,,,,,,,,,,379.8860000059649,,response,,,99,,,,,,Space,keypress(Space),,,,,---- -- ----- -- ------ - ------- --- ----------<br>------------- ------ ------ ---- ---- ------- ----- -- ----<br>-------- ------- -- ---------- --- - --- ----- ----- ----<br>---- --- --- ----- --- ---- ---- ------- ----- ---- -------<br>--- --- -- close -- --- ---- -- --- ---- -- ------ ------<br>--- ----- -- ----,67977.29999999702,67976.40000000596,67579.845,67593.60000000894,67596.514,67980.072,,42,close
screen,html.Screen,0_2_0_1_43,2021-11-05T11:41:39.931Z,,,,,,,,,,,,,,,,53,,,,,,,,,,,,,,412.4279999999999,,response,,,99,,,,,,Space,keypress(Space),,,,,---- -- ----- -- ------ - ------- --- ----------<br>------------- ------ ------ ---- ---- ------- ----- -- ----<br>-------- ------- -- ---------- --- - --- ----- ----- ----<br>---- --- --- ----- --- ---- ---- ------- ----- ---- -------<br>--- --- -- ----- as --- ---- -- --- ---- -- ------ ------<br>--- ----- -- ----,68393.29999999702,68392.5,67963.401,67977.5,67980.072,68396.841,,43,as
screen,html.Screen,0_2_0_1_44,2021-11-05T11:41:40.323Z,,,,,,,,,,,,,,,,53,,,,,,,,,,,,,,387.5590000059601,,response,,,99,,,,,,Space,keypress(Space),,,,,---- -- ----- -- ------ - ------- --- ----------<br>------------- ------ ------ ---- ---- ------- ----- -- ----<br>-------- ------- -- ---------- --- - --- ----- ----- ----<br>---- --- --- ----- --- ---- ---- ------- ----- ---- -------<br>--- --- -- ----- -- you ---- -- --- ---- -- ------ ------<br>--- ----- -- ----,68785.20000000298,68784.40000000596,68380.17,68393.5,68396.841,68796.898,,44,you
screen,html.Screen,0_2_0_1_45,2021-11-05T11:41:40.724Z,,,,,,,,,,,,,,,,53,,,,,,,,,,,,,,388.0020000059594,,response,,,99,,,,,,Space,keypress(Space),,,,,---- -- ----- -- ------ - ------- --- ----------<br>------------- ------ ------ ---- ---- ------- ----- -- ----<br>-------- ------- -- ---------- --- - --- ----- ----- ----<br>---- --- --- ----- --- ---- ---- ------- ----- ---- -------<br>--- --- -- ----- -- --- want -- --- ---- -- ------ ------<br>--- ----- -- ----,69185.70000000298,69184.90000000596,68780.228,68785.5,68796.898,69196.997,,45,want
screen,html.Screen,0_2_0_1_46,2021-11-05T11:41:41.107Z,,,,,,,,,,,,,,,,53,,,,,,,,,,,,,,371.40300000595744,,response,,,99,,,,,,Space,keypress(Space),,,,,---- -- ----- -- ------ - ------- --- ----------<br>------------- ------ ------ ---- ---- ------- ----- -- ----<br>-------- ------- -- ---------- --- - --- ----- ----- ----<br>---- --- --- ----- --- ---- ---- ------- ----- ---- -------<br>--- --- -- ----- -- --- ---- to --- ---- -- ------ ------<br>--- ----- -- ----,69569.20000000298,69568.40000000596,69180.327,69185.90000000596,69196.997,69580.486,,46,to
screen,html.Screen,0_2_0_1_47,2021-11-05T11:41:41.459Z,,,,,,,,,,,,,,,,53,,,,,,,,,,,,,,339.81399999701534,,response,,,99,,,,,,Space,keypress(Space),,,,,"---- -- ----- -- ------ - ------- --- ----------<br>------------- ------ ------ ---- ---- ------- ----- -- ----<br>-------- ------- -- ---------- --- - --- ----- ----- ----<br>---- --- --- ----- --- ---- ---- ------- ----- ---- -------<br>--- --- -- ----- -- --- ---- -- be, ---- -- ------ ------<br>--- ----- -- ----",69921.10000000894,69920.29999999702,69563.815,69569.40000000596,69580.486,69930.531,,47,"be,"
screen,html.Screen,0_2_0_1_48,2021-11-05T11:41:41.835Z,,,,,,,,,,,,,,,,53,,,,,,,,,,,,,,365.7689999970171,,response,,,99,,,,,,Space,keypress(Space),,,,,---- -- ----- -- ------ - ------- --- ----------<br>------------- ------ ------ ---- ---- ------- ----- -- ----<br>-------- ------- -- ---------- --- - --- ----- ----- ----<br>---- --- --- ----- --- ---- ---- ------- ----- ---- -------<br>--- --- -- ----- -- --- ---- -- --- even -- ------ ------<br>--- ----- -- ----,70297.10000000894,70296.29999999702,69913.861,69921.40000000596,69930.531,70313.906,,48,even
screen,html.Screen,0_2_0_1_49,2021-11-05T11:41:42.075Z,,,,,,,,,,,,,,,,53,,,,,,,,,,,,,,222.4940000059578,,response,,,99,,,,,,Space,keypress(Space),,,,,---- -- ----- -- ------ - ------- --- ----------<br>------------- ------ ------ ---- ---- ------- ----- -- ----<br>-------- ------- -- ---------- --- - --- ----- ----- ----<br>---- --- --- ----- --- ---- ---- ------- ----- ---- -------<br>--- --- -- ----- -- --- ---- -- --- ---- if ------ ------<br>--- ----- -- ----,70537.10000000894,70536.40000000596,70297.237,70297.5,70313.906,70547.391,,49,if
screen,html.Screen,0_2_0_1_50,2021-11-05T11:41:42.475Z,,,,,,,,,,,,,,,,53,,,,,,,,,,,,,,388.9089999970165,,response,,,99,,,,,,Space,keypress(Space),,,,,---- -- ----- -- ------ - ------- --- ----------<br>------------- ------ ------ ---- ---- ------- ----- -- ----<br>-------- ------- -- ---------- --- - --- ----- ----- ----<br>---- --- --- ----- --- ---- ---- ------- ----- ---- -------<br>--- --- -- ----- -- --- ---- -- --- ---- -- that's ------<br>--- ----- -- ----,70937.10000000894,70936.29999999702,70530.72,70537.29999999702,70547.391,70947.46,,50,that's
screen,html.Screen,0_2_0_1_51,2021-11-05T11:41:42.931Z,,,,,,,,,,,,,,,,53,,,,,,,,,,,,,,444.83999999701336,,response,,,99,,,,,,Space,keypress(Space),,,,,---- -- ----- -- ------ - ------- --- ----------<br>------------- ------ ------ ---- ---- ------- ----- -- ----<br>-------- ------- -- ---------- --- - --- ----- ----- ----<br>---- --- --- ----- --- ---- ---- ------- ----- ---- -------<br>--- --- -- ----- -- --- ---- -- --- ---- -- ------ really<br>--- ----- -- ----,71393.10000000894,71392.29999999702,70930.79,70937.29999999702,70947.46,71397.372,,51,really
screen,html.Screen,0_2_0_1_52,2021-11-05T11:41:43.291Z,,,,,,,,,,,,,,,,53,,,,,,,,,,,,,,354.8280000029772,,response,,,99,,,,,,Space,keypress(Space),,,,,---- -- ----- -- ------ - ------- --- ----------<br>------------- ------ ------ ---- ---- ------- ----- -- ----<br>-------- ------- -- ---------- --- - --- ----- ----- ----<br>---- --- --- ----- --- ---- ---- ------- ----- ---- -------<br>--- --- -- ----- -- --- ---- -- --- ---- -- ------ ------<br>not ----- -- ----,71753.10000000894,71752.20000000298,71380.705,71393.29999999702,71397.372,71764.413,,52,not
screen,html.Screen,0_2_0_1_53,2021-11-05T11:41:43.627Z,,,,,,,,,,,,,,,,53,,,,,,,,,,,,,,323.78700000297977,,response,,,99,,,,,,Space,keypress(Space),,,,,---- -- ----- -- ------ - ------- --- ----------<br>------------- ------ ------ ---- ---- ------- ----- -- ----<br>-------- ------- -- ---------- --- - --- ----- ----- ----<br>---- --- --- ----- --- ---- ---- ------- ----- ---- -------<br>--- --- -- ----- -- --- ---- -- --- ---- -- ------ ------<br>--- close -- ----,72089,72088.20000000298,71747.741,71753.29999999702,71764.413,72097.804,,53,close
screen,html.Screen,0_2_0_1_54,2021-11-05T11:41:44.011Z,,,,,,,,,,,,,,,,53,,,,,,,,,,,,,,374.3960000029765,,response,,,99,,,,,,Space,keypress(Space),,,,,---- -- ----- -- ------ - ------- --- ----------<br>------------- ------ ------ ---- ---- ------- ----- -- ----<br>-------- ------- -- ---------- --- - --- ----- ----- ----<br>---- --- --- ----- --- ---- ---- ------- ----- ---- -------<br>--- --- -- ----- -- --- ---- -- --- ---- -- ------ ------<br>--- ----- at ----,72473,72472.20000000298,72081.133,72089.29999999702,72097.804,72481.062,,54,at
screen,html.Screen,0_2_0_1_55,2021-11-05T11:41:44.715Z,,,,,,,,,,,,,,,,53,,,,,,,,,,,,,,695.1380000029749,,response,,,99,,,,,,Space,keypress(Space),,,,,---- -- ----- -- ------ - ------- --- ----------<br>------------- ------ ------ ---- ---- ------- ----- -- ----<br>-------- ------- -- ---------- --- - --- ----- ----- ----<br>---- --- --- ----- --- ---- ---- ------- ----- ---- -------<br>--- --- -- ----- -- --- ---- -- --- ---- -- ------ ------<br>--- ----- -- all.,73177,73176.20000000298,72464.394,72473.20000000298,72481.062,73198.121,,55,all.
Item 99,flow.Loop,0_2_0_1,2021-11-05T11:41:44.720Z,,,,,,,,,,,,,,,,,,,,,,,,,,,,,,27418.782000002982,,completion,,,,C,,,,,,,,,,silence,,73181.70000000298,73176.20000000298,45740.749,45748.90000000596,45757.418,73198.121,,,
Question 1,html.Screen,0_2_0_2,2021-11-05T11:41:51.231Z,,,,,,,,,,,,,,,,,,,,,,,,,,,true,FALSE,,6493.579000002981,,response,,,99,C,,,,,FALSE,click #choice-2,,,,silence,,79693.10000000894,79691.70000000298,73181.449,73182,73198.121,79699.422,,,
Question 2,html.Screen,0_2_0_3,2021-11-05T11:41:56.798Z,,,,,,,,,,,,,,,,,,,,,,,,,,,true,TRUE,,5559.178000008935,,response,,,99,C,,,,,TRUE,click #choice-1,,,,silence,,85259.79999999702,85258.60000000894,79682.755,79693.5,79699.422,85267.839,,,
Item 99,flow.Sequence,0_2_0,2021-11-05T11:41:56.798Z,,,,,,,,,,,,,,,,,,,,,,,,,,,,,,49503.47300000894,,completion,,,,,,,,,,,,,,,,85260.29999999702,85258.60000000894,35738.456,35747,35755.127,85267.839,,,
Holding screen,html.Screen,0_2_1_0,2021-11-05T11:42:06.793Z,,,,,,,,,,,,,,,,,,,,,,,,,,,,,,10002.319999999992,,timeout,,,,,,,,,,,,,,,,95255.10000000894,95253.49,85251.168,85260.60000000894,85267.839,95270.159,,,
screen,html.Screen,0_2_1_1_0,2021-11-05T11:42:07.722Z,,,,,,,,,,,,,,,,54,,,,,,,,,,,,,,913.1409999970201,,response,,,100,,,,,,Space,keypress(Space),,,,,At --- ---- --- ------ ----- ------- ---- -- --- ------- --<br>------- ---------- ------ -- ----- -- ----- -- ---- ------<br>--- ----- --- --- ------ -------- ----- --- ------ ----- --<br>----- ----- ---------- --- --- ------ ------ ---- -- ------<br>------- --- ------ ----- --- ---- ------- -- ---- --- --<br>------- ------,96184.29999999702,96183.29999999702,95253.49,95255.5,95270.159,96187.196,,0,At
screen,html.Screen,0_2_1_1_1,2021-11-05T11:42:08.042Z,,,,,,,,,,,,,,,,54,,,,,,,,,,,,,,315.50400000298396,,response,,,100,,,,,,Space,keypress(Space),,,,,-- the ---- --- ------ ----- ------- ---- -- --- ------- --<br>------- ---------- ------ -- ----- -- ----- -- ---- ------<br>--- ----- --- --- ------ -------- ----- --- ------ ----- --<br>----- ----- ---------- --- --- ------ ------ ---- -- ------<br>------- --- ------ ----- --- ---- ------- -- ---- --- --<br>------- ------,96503.5,96502.70000000298,96170.526,96184.60000000894,96187.196,96520.652,,1,the
screen,html.Screen,0_2_1_1_2,2021-11-05T11:42:08.402Z,,,,,,,,,,,,,,,,54,,,,,,,,,,,,,,342.1479999970179,,response,,,100,,,,,,Space,keypress(Space),,,,,-- --- time --- ------ ----- ------- ---- -- --- ------- --<br>------- ---------- ------ -- ----- -- ----- -- ---- ------<br>--- ----- --- --- ------ -------- ----- --- ------ ----- --<br>----- ----- ---------- --- --- ------ ------ ---- -- ------<br>------- --- ------ ----- --- ---- ------- -- ---- --- --<br>------- ------,96863.60000000894,96862.79999999702,96503.982,96503.79999999702,96520.652,96870.868,,2,time
screen,html.Screen,0_2_1_1_3,2021-11-05T11:42:08.626Z,,,,,,,,,,,,,,,,54,,,,,,,,,,,,,,216.03200000595825,,response,,,100,,,,,,Space,keypress(Space),,,,,-- --- ---- the ------ ----- ------- ---- -- --- ------- --<br>------- ---------- ------ -- ----- -- ----- -- ---- ------<br>--- ----- --- --- ------ -------- ----- --- ------ ----- --<br>----- ----- ---------- --- --- ------ ------ ---- -- ------<br>------- --- ------ ----- --- ---- ------- -- ---- --- --<br>------- ------,97087.70000000298,97086.90000000596,96854.196,96863.90000000596,96870.868,97104.181,,3,the
screen,html.Screen,0_2_1_1_4,2021-11-05T11:42:08.874Z,,,,,,,,,,,,,,,,54,,,,,,,,,,,,,,230.7190000059636,,response,,,100,,,,,,Space,keypress(Space),,,,,-- --- ---- --- French ----- ------- ---- -- --- ------- --<br>------- ---------- ------ -- ----- -- ----- -- ---- ------<br>--- ----- --- --- ------ -------- ----- --- ------ ----- --<br>----- ----- ---------- --- --- ------ ------ ---- -- ------<br>------- --- ------ ----- --- ---- ------- -- ---- --- --<br>------- ------,97335.70000000298,97334.90000000596,97087.511,97087.90000000596,97104.181,97337.633,,4,French
screen,html.Screen,0_2_1_1_5,2021-11-05T11:42:09.106Z,,,,,,,,,,,,,,,,54,,,,,,,,,,,,,,229.16699999701814,,response,,,100,,,,,,Space,keypress(Space),,,,,-- --- ---- --- ------ crown ------- ---- -- --- ------- --<br>------- ---------- ------ -- ----- -- ----- -- ---- ------<br>--- ----- --- --- ------ -------- ----- --- ------ ----- --<br>----- ----- ---------- --- --- ------ ------ ---- -- ------<br>------- --- ------ ----- --- ---- ------- -- ---- --- --<br>------- ------,97568,97566.79999999702,97320.962,97336,97337.633,97570.957,,5,crown
screen,html.Screen,0_2_1_1_6,2021-11-05T11:42:09.554Z,,,,,,,,,,,,,,,,54,,,,,,,,,,,,,,443.8429999970249,,response,,,100,,,,,,Space,keypress(Space),,,,,-- --- ---- --- ------ ----- secured ---- -- --- ------- --<br>------- ---------- ------ -- ----- -- ----- -- ---- ------<br>--- ----- --- --- ------ -------- ----- --- ------ ----- --<br>----- ----- ---------- --- --- ------ ------ ---- -- ------<br>------- --- ------ ----- --- ---- ------- -- ---- --- --<br>------- ------,98015.60000000894,98014.79999999702,97554.288,97568.29999999702,97570.957,98021.132,,6,secured
screen,html.Screen,0_2_1_1_7,2021-11-05T11:42:10.122Z,,,,,,,,,,,,,,,,54,,,,,,,,,,,,,,561.667999997022,,response,,,100,,,,,,Space,keypress(Space),,,,,-- --- ---- --- ------ ----- ------- much -- --- ------- --<br>------- ---------- ------ -- ----- -- ----- -- ---- ------<br>--- ----- --- --- ------ -------- ----- --- ------ ----- --<br>----- ----- ---------- --- --- ------ ------ ---- -- ------<br>------- --- ------ ----- --- ---- ------- -- ---- --- --<br>------- ------,98583.5,98582.79999999702,98004.461,98015.79999999702,98021.132,98587.81,,7,much
screen,html.Screen,0_2_1_1_8,2021-11-05T11:42:10.490Z,,,,,,,,,,,,,,,,54,,,,,,,,,,,,,,362.9899999970221,,response,,,100,,,,,,Space,keypress(Space),,,,,-- --- ---- --- ------ ----- ------- ---- of --- ------- --<br>------- ---------- ------ -- ----- -- ----- -- ---- ------<br>--- ----- --- --- ------ -------- ----- --- ------ ----- --<br>----- ----- ---------- --- --- ------ ------ ---- -- ------<br>------- --- ------ ----- --- ---- ------- -- ---- --- --<br>------- ------,98951.60000000894,98950.79999999702,98571.141,98583.79999999702,98587.81,98954.693,,8,of
screen,html.Screen,0_2_1_1_9,2021-11-05T11:42:10.762Z,,,,,,,,,,,,,,,,54,,,,,,,,,,,,,,268.10699999702047,,response,,,100,,,,,,Space,keypress(Space),,,,,-- --- ---- --- ------ ----- ------- ---- -- its ------- --<br>------- ---------- ------ -- ----- -- ----- -- ---- ------<br>--- ----- --- --- ------ -------- ----- --- ------ ----- --<br>----- ----- ---------- --- --- ------ ------ ---- -- ------<br>------- --- ------ ----- --- ---- ------- -- ---- --- --<br>------- ------,99223.60000000894,99222.79999999702,98938.022,98951.79999999702,98954.693,99238.059,,9,its
screen,html.Screen,0_2_1_1_10,2021-11-05T11:42:11.018Z,,,,,,,,,,,,,,,,54,,,,,,,,,,,,,,240.6410000029864,,response,,,100,,,,,,Space,keypress(Space),,,,,-- --- ---- --- ------ ----- ------- ---- -- --- revenue --<br>------- ---------- ------ -- ----- -- ----- -- ---- ------<br>--- ----- --- --- ------ -------- ----- --- ------ ----- --<br>----- ----- ---------- --- --- ------ ------ ---- -- ------<br>------- --- ------ ----- --- ---- ------- -- ---- --- --<br>------- ------,99479.5,99478.70000000298,99221.389,99223.90000000596,99238.059,99488.177,,10,revenue
screen,html.Screen,0_2_1_1_11,2021-11-05T11:42:11.266Z,,,,,,,,,,,,,,,,54,,,,,,,,,,,,,,238.5230000029842,,response,,,100,,,,,,Space,keypress(Space),,,,,-- --- ---- --- ------ ----- ------- ---- -- --- ------- by<br>------- ---------- ------ -- ----- -- ----- -- ---- ------<br>--- ----- --- --- ------ -------- ----- --- ------ ----- --<br>----- ----- ---------- --- --- ------ ------ ---- -- ------<br>------- --- ------ ----- --- ---- ------- -- ---- --- --<br>------- ------,99727.5,99726.70000000298,99471.506,99479.79999999702,99488.177,99738.215,,11,by
screen,html.Screen,0_2_1_1_12,2021-11-05T11:42:11.578Z,,,,,,,,,,,,,,,,54,,,,,,,,,,,,,,300.4850000029837,,response,,,100,,,,,,Space,keypress(Space),,,,,-- --- ---- --- ------ ----- ------- ---- -- --- ------- --<br>issuing ---------- ------ -- ----- -- ----- -- ---- ------<br>--- ----- --- --- ------ -------- ----- --- ------ ----- --<br>----- ----- ---------- --- --- ------ ------ ---- -- ------<br>------- --- ------ ----- --- ---- ------- -- ---- --- --<br>------- ------,100039.5,100038.70000000298,99721.545,99727.79999999702,99738.215,100054.943,,12,issuing
screen,html.Screen,0_2_1_1_13,2021-11-05T11:42:11.882Z,,,,,,,,,,,,,,,,54,,,,,,,,,,,,,,287.6570000089414,,response,,,100,,,,,,Space,keypress(Space),,,,,-- --- ---- --- ------ ----- ------- ---- -- --- ------- --<br>------- government ------ -- ----- -- ----- -- ---- ------<br>--- ----- --- --- ------ -------- ----- --- ------ ----- --<br>----- ----- ---------- --- --- ------ ------ ---- -- ------<br>------- --- ------ ----- --- ---- ------- -- ---- --- --<br>------- ------,100343.40000000596,100342.60000000894,100038.273,100039.79999999702,100054.943,100355.076,,13,government
screen,html.Screen,0_2_1_1_14,2021-11-05T11:42:12.241Z,,,,,,,,,,,,,,,,54,,,,,,,,,,,,,,347.52400000893977,,response,,,100,,,,,,Space,keypress(Space),,,,,-- --- ---- --- ------ ----- ------- ---- -- --- ------- --<br>------- ---------- bonds. -- ----- -- ----- -- ---- ------<br>--- ----- --- --- ------ -------- ----- --- ------ ----- --<br>----- ----- ---------- --- --- ------ ------ ---- -- ------<br>------- --- ------ ----- --- ---- ------- -- ---- --- --<br>------- ------,100703.5,100702.60000000894,100338.405,100343.79999999702,100355.076,100705.108,,14,bonds.
screen,html.Screen,0_2_1_1_15,2021-11-05T11:42:13.089Z,,,,,,,,,,,,,,,,54,,,,,,,,,,,,,,845.4920000089478,,response,,,100,,,,,,Space,keypress(Space),,,,,-- --- ---- --- ------ ----- ------- ---- -- --- ------- --<br>------- ---------- ------ In ----- -- ----- -- ---- ------<br>--- ----- --- --- ------ -------- ----- --- ------ ----- --<br>----- ----- ---------- --- --- ------ ------ ---- -- ------<br>------- --- ------ ----- --- ---- ------- -- ---- --- --<br>------- ------,101551.40000000596,101550.60000000894,100688.438,100703.70000000298,100705.108,101555.31,,15,In
screen,html.Screen,0_2_1_1_16,2021-11-05T11:42:13.353Z,,,,,,,,,,,,,,,,54,,,,,,,,,,,,,,259.290000008943,,response,,,100,,,,,,Space,keypress(Space),,,,,"-- --- ---- --- ------ ----- ------- ---- -- --- ------- --<br>------- ---------- ------ -- 1727, -- ----- -- ---- ------<br>--- ----- --- --- ------ -------- ----- --- ------ ----- --<br>----- ----- ---------- --- --- ------ ------ ---- -- ------<br>------- --- ------ ----- --- ---- ------- -- ---- --- --<br>------- ------",101815.40000000596,101814.60000000894,101538.64,101551.70000000298,101555.31,101821.899,,16,"1727,"
screen,html.Screen,0_2_1_1_17,2021-11-05T11:42:13.657Z,,,,,,,,,,,,,,,,54,,,,,,,,,,,,,,296.7010000089358,,response,,,100,,,,,,Space,keypress(Space),,,,,-- --- ---- --- ------ ----- ------- ---- -- --- ------- --<br>------- ---------- ------ -- ----- in ----- -- ---- ------<br>--- ----- --- --- ------ -------- ----- --- ------ ----- --<br>----- ----- ---------- --- --- ------ ------ ---- -- ------<br>------- --- ------ ----- --- ---- ------- -- ---- --- --<br>------- ------,102119.29999999702,102118.60000000894,101805.231,101815.60000000894,101821.899,102122.184,,17,in
screen,html.Screen,0_2_1_1_18,2021-11-05T11:42:14.330Z,,,,,,,,,,,,,,,,54,,,,,,,,,,,,,,668.3160000000062,,response,,,100,,,,,,Space,keypress(Space),,,,,-- --- ---- --- ------ ----- ------- ---- -- --- ------- --<br>------- ---------- ------ -- ----- -- order -- ---- ------<br>--- ----- --- --- ------ -------- ----- --- ------ ----- --<br>----- ----- ---------- --- --- ------ ------ ---- -- ------<br>------- --- ------ ----- --- ---- ------- -- ---- --- --<br>------- ------,102791.5,102790.5,102105.513,102119.60000000894,102122.184,102805.472,,18,order
screen,html.Screen,0_2_1_1_19,2021-11-05T11:42:14.801Z,,,,,,,,,,,,,,,,54,,,,,,,,,,,,,,457.0280000000057,,response,,,100,,,,,,Space,keypress(Space),,,,,-- --- ---- --- ------ ----- ------- ---- -- --- ------- --<br>------- ---------- ------ -- ----- -- ----- to ---- ------<br>--- ----- --- --- ------ -------- ----- --- ------ ----- --<br>----- ----- ---------- --- --- ------ ------ ---- -- ------<br>------- --- ------ ----- --- ---- ------- -- ---- --- --<br>------- ------,103263.29999999702,103262.5,102788.804,102791.70000000298,102805.472,103272.583,,19,to
screen,html.Screen,0_2_1_1_20,2021-11-05T11:42:15.569Z,,,,,,,,,,,,,,,,54,,,,,,,,,,,,,,757.9170000000013,,response,,,100,,,,,,Space,keypress(Space),,,,,-- --- ---- --- ------ ----- ------- ---- -- --- ------- --<br>------- ---------- ------ -- ----- -- ----- -- save ------<br>--- ----- --- --- ------ -------- ----- --- ------ ----- --<br>----- ----- ---------- --- --- ------ ------ ---- -- ------<br>------- --- ------ ----- --- ---- ------- -- ---- --- --<br>------- ------,104031.20000000298,104030.5,103255.91,103263.60000000894,103272.583,104039.179,,20,save
screen,html.Screen,0_2_1_1_21,2021-11-05T11:42:15.913Z,,,,,,,,,,,,,,,,54,,,,,,,,,,,,,,335.3209999999963,,response,,,100,,,,,,Space,keypress(Space),,,,,"-- --- ---- --- ------ ----- ------- ---- -- --- ------- --<br>------- ---------- ------ -- ----- -- ----- -- ---- money,<br>--- ----- --- --- ------ -------- ----- --- ------ ----- --<br>----- ----- ---------- --- --- ------ ------ ---- -- ------<br>------- --- ------ ----- --- ---- ------- -- ---- --- --<br>------- ------",104375.20000000298,104374.5,104022.51,104031.5,104039.179,104389.513,,21,"money,"
screen,html.Screen,0_2_1_1_22,2021-11-05T11:42:16.305Z,,,,,,,,,,,,,,,,54,,,,,,,,,,,,,,376.8870000059542,,response,,,100,,,,,,Space,keypress(Space),,,,,-- --- ---- --- ------ ----- ------- ---- -- --- ------- --<br>------- ---------- ------ -- ----- -- ----- -- ---- ------<br>the ----- --- --- ------ -------- ----- --- ------ ----- --<br>----- ----- ---------- --- --- ------ ------ ---- -- ------<br>------- --- ------ ----- --- ---- ------- -- ---- --- --<br>------- ------,104767.20000000298,104766.40000000596,104372.841,104375.5,104389.513,104772.821,,22,the
screen,html.Screen,0_2_1_1_23,2021-11-05T11:42:16.705Z,,,,,,,,,,,,,,,,54,,,,,,,,,,,,,,393.5790000059642,,response,,,100,,,,,,Space,keypress(Space),,,,,-- --- ---- --- ------ ----- ------- ---- -- --- ------- --<br>------- ---------- ------ -- ----- -- ----- -- ---- ------<br>--- state --- --- ------ -------- ----- --- ------ ----- --<br>----- ----- ---------- --- --- ------ ------ ---- -- ------<br>------- --- ------ ----- --- ---- ------- -- ---- --- --<br>------- ------,105167.20000000298,105166.40000000596,104756.151,104767.40000000596,104772.821,105172.979,,23,state
screen,html.Screen,0_2_1_1_24,2021-11-05T11:42:17.073Z,,,,,,,,,,,,,,,,54,,,,,,,,,,,,,,361.42100000595383,,response,,,100,,,,,,Space,keypress(Space),,,,,-- --- ---- --- ------ ----- ------- ---- -- --- ------- --<br>------- ---------- ------ -- ----- -- ----- -- ---- ------<br>--- ----- cut --- ------ -------- ----- --- ------ ----- --<br>----- ----- ---------- --- --- ------ ------ ---- -- ------<br>------- --- ------ ----- --- ---- ------- -- ---- --- --<br>------- ------,105535.29999999702,105534.40000000596,105156.308,105167.5,105172.979,105539.691,,24,cut
screen,html.Screen,0_2_1_1_25,2021-11-05T11:42:17.369Z,,,,,,,,,,,,,,,,54,,,,,,,,,,,,,,290.7090000059543,,response,,,100,,,,,,Space,keypress(Space),,,,,-- --- ---- --- ------ ----- ------- ---- -- --- ------- --<br>------- ---------- ------ -- ----- -- ----- -- ---- ------<br>--- ----- --- the ------ -------- ----- --- ------ ----- --<br>----- ----- ---------- --- --- ------ ------ ---- -- ------<br>------- --- ------ ----- --- ---- ------- -- ---- --- --<br>------- ------,105831.20000000298,105830.40000000596,105523.021,105535.5,105539.691,105839.655,,25,the
screen,html.Screen,0_2_1_1_26,2021-11-05T11:42:17.786Z,,,,,,,,,,,,,,,,54,,,,,,,,,,,,,,407.24500000596163,,response,,,100,,,,,,Space,keypress(Space),,,,,-- --- ---- --- ------ ----- ------- ---- -- --- ------- --<br>------- ---------- ------ -- ----- -- ----- -- ---- ------<br>--- ----- --- --- bonds' -------- ----- --- ------ ----- --<br>----- ----- ---------- --- --- ------ ------ ---- -- ------<br>------- --- ------ ----- --- ---- ------- -- ---- --- --<br>------- ------,106247.60000000894,106246.90000000596,105822.987,105831.40000000596,105839.655,106256.629,,26,bonds'
screen,html.Screen,0_2_1_1_27,2021-11-05T11:42:18.297Z,,,,,,,,,,,,,,,,54,,,,,,,,,,,,,,501.67099999701895,,response,,,100,,,,,,Space,keypress(Space),,,,,-- --- ---- --- ------ ----- ------- ---- -- --- ------- --<br>------- ---------- ------ -- ----- -- ----- -- ---- ------<br>--- ----- --- --- ------ interest ----- --- ------ ----- --<br>----- ----- ---------- --- --- ------ ------ ---- -- ------<br>------- --- ------ ----- --- ---- ------- -- ---- --- --<br>------- ------,106759.10000000894,106758.29999999702,106239.957,106247.90000000596,106256.629,106773.381,,27,interest
screen,html.Screen,0_2_1_1_28,2021-11-05T11:42:18.617Z,,,,,,,,,,,,,,,,54,,,,,,,,,,,,,,304.9189999970258,,response,,,100,,,,,,Space,keypress(Space),,,,,-- --- ---- --- ------ ----- ------- ---- -- --- ------- --<br>------- ---------- ------ -- ----- -- ----- -- ---- ------<br>--- ----- --- --- ------ -------- rate. --- ------ ----- --<br>----- ----- ---------- --- --- ------ ------ ---- -- ------<br>------- --- ------ ----- --- ---- ------- -- ---- --- --<br>------- ------,107079.10000000894,107078.29999999702,106756.71,106759.40000000596,106773.381,107090.1,,28,rate.
screen,html.Screen,0_2_1_1_29,2021-11-05T11:42:19.129Z,,,,,,,,,,,,,,,,54,,,,,,,,,,,,,,500.19999999701395,,response,,,100,,,,,,Space,keypress(Space),,,,,-- --- ---- --- ------ ----- ------- ---- -- --- ------- --<br>------- ---------- ------ -- ----- -- ----- -- ---- ------<br>--- ----- --- --- ------ -------- ----- The ------ ----- --<br>----- ----- ---------- --- --- ------ ------ ---- -- ------<br>------- --- ------ ----- --- ---- ------- -- ---- --- --<br>------- ------,107591.10000000894,107590.29999999702,107073.43,107079.29999999702,107090.1,107606.889,,29,The
screen,html.Screen,0_2_1_1_30,2021-11-05T11:42:19.481Z,,,,,,,,,,,,,,,,54,,,,,,,,,,,,,,335.4109999970242,,response,,,100,,,,,,Space,keypress(Space),,,,,-- --- ---- --- ------ ----- ------- ---- -- --- ------- --<br>------- ---------- ------ -- ----- -- ----- -- ---- ------<br>--- ----- --- --- ------ -------- ----- --- market ----- --<br>----- ----- ---------- --- --- ------ ------ ---- -- ------<br>------- --- ------ ----- --- ---- ------- -- ---- --- --<br>------- ------,107943,107942.29999999702,107590.219,107591.29999999702,107606.889,107956.989,,30,market
screen,html.Screen,0_2_1_1_31,2021-11-05T11:42:19.841Z,,,,,,,,,,,,,,,,54,,,,,,,,,,,,,,345.21100000297884,,response,,,100,,,,,,Space,keypress(Space),,,,,-- --- ---- --- ------ ----- ------- ---- -- --- ------- --<br>------- ---------- ------ -- ----- -- ----- -- ---- ------<br>--- ----- --- --- ------ -------- ----- --- ------ value --<br>----- ----- ---------- --- --- ------ ------ ---- -- ------<br>------- --- ------ ----- --- ---- ------- -- ---- --- --<br>------- ------,108303,108302.20000000298,107940.319,107943.29999999702,107956.989,108307.065,,31,value
screen,html.Screen,0_2_1_1_32,2021-11-05T11:42:20.201Z,,,,,,,,,,,,,,,,54,,,,,,,,,,,,,,355.1350000029779,,response,,,100,,,,,,Space,keypress(Space),,,,,-- --- ---- --- ------ ----- ------- ---- -- --- ------- --<br>------- ---------- ------ -- ----- -- ----- -- ---- ------<br>--- ----- --- --- ------ -------- ----- --- ------ ----- of<br>----- ----- ---------- --- --- ------ ------ ---- -- ------<br>------- --- ------ ----- --- ---- ------- -- ---- --- --<br>------- ------,108663,108662.20000000298,108290.395,108303.29999999702,108307.065,108673.835,,32,of
screen,html.Screen,0_2_1_1_33,2021-11-05T11:42:20.649Z,,,,,,,,,,,,,,,,54,,,,,,,,,,,,,,436.36500000297383,,response,,,100,,,,,,Space,keypress(Space),,,,,-- --- ---- --- ------ ----- ------- ---- -- --- ------- --<br>------- ---------- ------ -- ----- -- ----- -- ---- ------<br>--- ----- --- --- ------ -------- ----- --- ------ ----- --<br>these ----- ---------- --- --- ------ ------ ---- -- ------<br>------- --- ------ ----- --- ---- ------- -- ---- --- --<br>------- ------,109110.90000000596,109110.20000000298,108657.165,108663.29999999702,108673.835,109123.945,,33,these
screen,html.Screen,0_2_1_1_34,2021-11-05T11:42:21.033Z,,,,,,,,,,,,,,,,54,,,,,,,,,,,,,,370.25500000297325,,response,,,100,,,,,,Space,keypress(Space),,,,,-- --- ---- --- ------ ----- ------- ---- -- --- ------- --<br>------- ---------- ------ -- ----- -- ----- -- ---- ------<br>--- ----- --- --- ------ -------- ----- --- ------ ----- --<br>----- bonds ---------- --- --- ------ ------ ---- -- ------<br>------- --- ------ ----- --- ---- ------- -- ---- --- --<br>------- ------,109494.79999999702,109494.20000000298,109107.275,109111.29999999702,109123.945,109507.379,,34,bonds
screen,html.Screen,0_2_1_1_35,2021-11-05T11:42:21.465Z,,,,,,,,,,,,,,,,54,,,,,,,,,,,,,,418.8210000029794,,response,,,100,,,,,,Space,keypress(Space),,,,,"-- --- ---- --- ------ ----- ------- ---- -- --- ------- --<br>------- ---------- ------ -- ----- -- ----- -- ---- ------<br>--- ----- --- --- ------ -------- ----- --- ------ ----- --<br>----- ----- plummeted, --- --- ------ ------ ---- -- ------<br>------- --- ------ ----- --- ---- ------- -- ---- --- --<br>------- ------",109927,109926.20000000298,109490.709,109495.20000000298,109507.379,109940.82,,35,"plummeted,"
screen,html.Screen,0_2_1_1_36,2021-11-05T11:42:21.977Z,,,,,,,,,,,,,,,,54,,,,,,,,,,,,,,497.2800000089337,,response,,,100,,,,,,Space,keypress(Space),,,,,-- --- ---- --- ------ ----- ------- ---- -- --- ------- --<br>------- ---------- ------ -- ----- -- ----- -- ---- ------<br>--- ----- --- --- ------ -------- ----- --- ------ ----- --<br>----- ----- ---------- and --- ------ ------ ---- -- ------<br>------- --- ------ ----- --- ---- ------- -- ---- --- --<br>------- ------,110438.90000000596,110438.10000000894,109924.15,109927.29999999702,109940.82,110441.001,,36,and
screen,html.Screen,0_2_1_1_37,2021-11-05T11:42:22.305Z,,,,,,,,,,,,,,,,54,,,,,,,,,,,,,,325.09900000893686,,response,,,100,,,,,,Space,keypress(Space),,,,,-- --- ---- --- ------ ----- ------- ---- -- --- ------- --<br>------- ---------- ------ -- ----- -- ----- -- ---- ------<br>--- ----- --- --- ------ -------- ----- --- ------ ----- --<br>----- ----- ---------- --- the ------ ------ ---- -- ------<br>------- --- ------ ----- --- ---- ------- -- ---- --- --<br>------- ------,110766.90000000596,110766.10000000894,110424.33,110439.20000000298,110441.001,110774.356,,37,the
screen,html.Screen,0_2_1_1_38,2021-11-05T11:42:22.601Z,,,,,,,,,,,,,,,,54,,,,,,,,,,,,,,287.74400000894093,,response,,,100,,,,,,Space,keypress(Space),,,,,-- --- ---- --- ------ ----- ------- ---- -- --- ------- --<br>------- ---------- ------ -- ----- -- ----- -- ---- ------<br>--- ----- --- --- ------ -------- ----- --- ------ ----- --<br>----- ----- ---------- --- --- market ------ ---- -- ------<br>------- --- ------ ----- --- ---- ------- -- ---- --- --<br>------- ------,111062.90000000596,111062.10000000894,110757.686,110767.20000000298,110774.356,111074.369,,38,market
screen,html.Screen,0_2_1_1_39,2021-11-05T11:42:23.009Z,,,,,,,,,,,,,,,,54,,,,,,,,,,,,,,395.63099999999395,,response,,,100,,,,,,Space,keypress(Space),,,,,-- --- ---- --- ------ ----- ------- ---- -- --- ------- --<br>------- ---------- ------ -- ----- -- ----- -- ---- ------<br>--- ----- --- --- ------ -------- ----- --- ------ ----- --<br>----- ----- ---------- --- --- ------ became ---- -- ------<br>------- --- ------ ----- --- ---- ------- -- ---- --- --<br>------- ------,111470.79999999702,111470,111057.7,111063.20000000298,111074.369,111474.667,,39,became
screen,html.Screen,0_2_1_1_40,2021-11-05T11:42:23.241Z,,,,,,,,,,,,,,,,54,,,,,,,,,,,,,,227.43300000893942,,response,,,100,,,,,,Space,keypress(Space),,,,,-- --- ---- --- ------ ----- ------- ---- -- --- ------- --<br>------- ---------- ------ -- ----- -- ----- -- ---- ------<br>--- ----- --- --- ------ -------- ----- --- ------ ----- --<br>----- ----- ---------- --- --- ------ ------ wary -- ------<br>------- --- ------ ----- --- ---- ------- -- ---- --- --<br>------- ------,111702.79999999702,111702.10000000894,111457.994,111471.10000000894,111474.667,111707.949,,40,wary
screen,html.Screen,0_2_1_1_41,2021-11-05T11:42:23.633Z,,,,,,,,,,,,,,,,54,,,,,,,,,,,,,,386.05100000000675,,response,,,100,,,,,,Space,keypress(Space),,,,,-- --- ---- --- ------ ----- ------- ---- -- --- ------- --<br>------- ---------- ------ -- ----- -- ----- -- ---- ------<br>--- ----- --- --- ------ -------- ----- --- ------ ----- --<br>----- ----- ---------- --- --- ------ ------ ---- of ------<br>------- --- ------ ----- --- ---- ------- -- ---- --- --<br>------- ------,112094.79999999702,112094,111691.279,111703.10000000894,111707.949,112108.055,,41,of
screen,html.Screen,0_2_1_1_42,2021-11-05T11:42:23.897Z,,,,,,,,,,,,,,,,54,,,,,,,,,,,,,,249.84500000596745,,response,,,100,,,,,,Space,keypress(Space),,,,,-- --- ---- --- ------ ----- ------- ---- -- --- ------- --<br>------- ---------- ------ -- ----- -- ----- -- ---- ------<br>--- ----- --- --- ------ -------- ----- --- ------ ----- --<br>----- ----- ---------- --- --- ------ ------ ---- -- French<br>------- --- ------ ----- --- ---- ------- -- ---- --- --<br>------- ------,112358.79999999702,112357.90000000596,112091.385,112095,112108.055,112374.624,,42,French
screen,html.Screen,0_2_1_1_43,2021-11-05T11:42:24.361Z,,,,,,,,,,,,,,,,54,,,,,,,,,,,,,,447.2760000059643,,response,,,100,,,,,,Space,keypress(Space),,,,,-- --- ---- --- ------ ----- ------- ---- -- --- ------- --<br>------- ---------- ------ -- ----- -- ----- -- ---- ------<br>--- ----- --- --- ------ -------- ----- --- ------ ----- --<br>----- ----- ---------- --- --- ------ ------ ---- -- ------<br>credit. --- ------ ----- --- ---- ------- -- ---- --- --<br>------- ------,112822.70000000298,112821.90000000596,112357.957,112359.10000000894,112374.624,112824.98,,43,credit.
screen,html.Screen,0_2_1_1_44,2021-11-05T11:42:24.913Z,,,,,,,,,,,,,,,,54,,,,,,,,,,,,,,548.9200000059645,,response,,,100,,,,,,Space,keypress(Space),,,,,-- --- ---- --- ------ ----- ------- ---- -- --- ------- --<br>------- ---------- ------ -- ----- -- ----- -- ---- ------<br>--- ----- --- --- ------ -------- ----- --- ------ ----- --<br>----- ----- ---------- --- --- ------ ------ ---- -- ------<br>------- The ------ ----- --- ---- ------- -- ---- --- --<br>------- ------,113374.70000000298,113373.90000000596,112808.308,112823,112824.98,113391.706,,44,The
screen,html.Screen,0_2_1_1_45,2021-11-05T11:42:25.185Z,,,,,,,,,,,,,,,,54,,,,,,,,,,,,,,254.19400000595488,,response,,,100,,,,,,Space,keypress(Space),,,,,-- --- ---- --- ------ ----- ------- ---- -- --- ------- --<br>------- ---------- ------ -- ----- -- ----- -- ---- ------<br>--- ----- --- --- ------ -------- ----- --- ------ ----- --<br>----- ----- ---------- --- --- ------ ------ ---- -- ------<br>------- --- French ----- --- ---- ------- -- ---- --- --<br>------- ------,113646.70000000298,113645.90000000596,113375.036,113374.90000000596,113391.706,113658.419,,45,French
screen,html.Screen,0_2_1_1_46,2021-11-05T11:42:25.529Z,,,,,,,,,,,,,,,,54,,,,,,,,,,,,,,331.48100000596605,,response,,,100,,,,,,Space,keypress(Space),,,,,-- --- ---- --- ------ ----- ------- ---- -- --- ------- --<br>------- ---------- ------ -- ----- -- ----- -- ---- ------<br>--- ----- --- --- ------ -------- ----- --- ------ ----- --<br>----- ----- ---------- --- --- ------ ------ ---- -- ------<br>------- --- ------ state --- ---- ------- -- ---- --- --<br>------- ------,113990.60000000894,113989.90000000596,113641.749,113647,113658.419,113991.796,,46,state
screen,html.Screen,0_2_1_1_47,2021-11-05T11:42:25.913Z,,,,,,,,,,,,,,,,54,,,,,,,,,,,,,,382.10400000595837,,response,,,100,,,,,,Space,keypress(Space),,,,,-- --- ---- --- ------ ----- ------- ---- -- --- ------- --<br>------- ---------- ------ -- ----- -- ----- -- ---- ------<br>--- ----- --- --- ------ -------- ----- --- ------ ----- --<br>----- ----- ---------- --- --- ------ ------ ---- -- ------<br>------- --- ------ ----- was ---- ------- -- ---- --- --<br>------- ------,114374.70000000298,114373.90000000596,113975.127,113990.90000000596,113991.796,114392.108,,47,was
screen,html.Screen,0_2_1_1_48,2021-11-05T11:42:26.257Z,,,,,,,,,,,,,,,,54,,,,,,,,,,,,,,325.69199999702687,,response,,,100,,,,,,Space,keypress(Space),,,,,-- --- ---- --- ------ ----- ------- ---- -- --- ------- --<br>------- ---------- ------ -- ----- -- ----- -- ---- ------<br>--- ----- --- --- ------ -------- ----- --- ------ ----- --<br>----- ----- ---------- --- --- ------ ------ ---- -- ------<br>------- --- ------ ----- --- left ------- -- ---- --- --<br>------- ------,114718.70000000298,114717.79999999702,114375.434,114374.90000000596,114392.108,114725.39,,48,left
screen,html.Screen,0_2_1_1_49,2021-11-05T11:42:26.625Z,,,,,,,,,,,,,,,,54,,,,,,,,,,,,,,360.40999999702035,,response,,,100,,,,,,Space,keypress(Space),,,,,-- --- ---- --- ------ ----- ------- ---- -- --- ------- --<br>------- ---------- ------ -- ----- -- ----- -- ---- ------<br>--- ----- --- --- ------ -------- ----- --- ------ ----- --<br>----- ----- ---------- --- --- ------ ------ ---- -- ------<br>------- --- ------ ----- --- ---- without -- ---- --- --<br>------- ------,115086.70000000298,115085.79999999702,114708.72,114718.90000000596,114725.39,115092.158,,49,without
screen,html.Screen,0_2_1_1_50,2021-11-05T11:42:26.873Z,,,,,,,,,,,,,,,,54,,,,,,,,,,,,,,241.74200000596466,,response,,,100,,,,,,Space,keypress(Space),,,,,-- --- ---- --- ------ ----- ------- ---- -- --- ------- --<br>------- ---------- ------ -- ----- -- ----- -- ---- ------<br>--- ----- --- --- ------ -------- ----- --- ------ ----- --<br>----- ----- ---------- --- --- ------ ------ ---- -- ------<br>------- --- ------ ----- --- ---- ------- an ---- --- --<br>------- ------,115334.70000000298,115333.90000000596,115075.488,115086.90000000596,115092.158,115342.217,,50,an
screen,html.Screen,0_2_1_1_51,2021-11-05T11:42:27.153Z,,,,,,,,,,,,,,,,54,,,,,,,,,,,,,,271.6830000059563,,response,,,100,,,,,,Space,keypress(Space),,,,,-- --- ---- --- ------ ----- ------- ---- -- --- ------- --<br>------- ---------- ------ -- ----- -- ----- -- ---- ------<br>--- ----- --- --- ------ -------- ----- --- ------ ----- --<br>----- ----- ---------- --- --- ------ ------ ---- -- ------<br>------- --- ------ ----- --- ---- ------- -- easy --- --<br>------- ------,115614.60000000894,115613.90000000596,115325.547,115334.90000000596,115342.217,115625.629,,51,easy
screen,html.Screen,0_2_1_1_52,2021-11-05T11:42:27.425Z,,,,,,,,,,,,,,,,54,,,,,,,,,,,,,,260.17099999701895,,response,,,100,,,,,,Space,keypress(Space),,,,,-- --- ---- --- ------ ----- ------- ---- -- --- ------- --<br>------- ---------- ------ -- ----- -- ----- -- ---- ------<br>--- ----- --- --- ------ -------- ----- --- ------ ----- --<br>----- ----- ---------- --- --- ------ ------ ---- -- ------<br>------- --- ------ ----- --- ---- ------- -- ---- way --<br>------- ------,115886.60000000894,115885.79999999702,115608.959,115614.90000000596,115625.629,115892.365,,52,way
screen,html.Screen,0_2_1_1_53,2021-11-05T11:42:29.017Z,,,,,,,,,,,,,,,,54,,,,,,,,,,,,,,1585.835000002975,,response,,,100,,,,,,Space,keypress(Space),,,,,-- --- ---- --- ------ ----- ------- ---- -- --- ------- --<br>------- ---------- ------ -- ----- -- ----- -- ---- ------<br>--- ----- --- --- ------ -------- ----- --- ------ ----- --<br>----- ----- ---------- --- --- ------ ------ ---- -- ------<br>------- --- ------ ----- --- ---- ------- -- ---- --- of<br>------- ------,117479,117478.20000000298,115875.695,115886.90000000596,115892.365,117492.445,,53,of
screen,html.Screen,0_2_1_1_54,2021-11-05T11:42:29.481Z,,,,,,,,,,,,,,,,54,,,,,,,,,,,,,,449.25500000297325,,response,,,100,,,,,,Space,keypress(Space),,,,,-- --- ---- --- ------ ----- ------- ---- -- --- ------- --<br>------- ---------- ------ -- ----- -- ----- -- ---- ------<br>--- ----- --- --- ------ -------- ----- --- ------ ----- --<br>----- ----- ---------- --- --- ------ ------ ---- -- ------<br>------- --- ------ ----- --- ---- ------- -- ---- --- --<br>raising ------,117942.5,117941.70000000298,117475.777,117479.29999999702,117492.445,117959.676,,54,raising
screen,html.Screen,0_2_1_1_55,2021-11-05T11:42:30.504Z,,,,,,,,,,,,,,,,54,,,,,,,,,,,,,,1005.924000008934,,response,,,100,,,,,,Space,keypress(Space),,,,,-- --- ---- --- ------ ----- ------- ---- -- --- ------- --<br>------- ---------- ------ -- ----- -- ----- -- ---- ------<br>--- ----- --- --- ------ -------- ----- --- ------ ----- --<br>----- ----- ---------- --- --- ------ ------ ---- -- ------<br>------- --- ------ ----- --- ---- ------- -- ---- --- --<br>------- money.,118966.5,118965.60000000894,117943.004,117942.70000000298,117959.676,118976.388,,55,money.
Item 100,flow.Loop,0_2_1_1,2021-11-05T11:42:30.505Z,,,,,,,,,,,,,,,,,,,,,,,,,,,,,,23695.44100000894,,completion,,,,C,,,,,,,,,,silence,,118966.90000000596,118965.60000000894,95253.49,95255.40000000596,95270.159,118976.388,,,
Question 1,html.Screen,0_2_1_2,2021-11-05T11:42:38.719Z,,,,,,,,,,,,,,,,,,,,,,,,,,,false,TRUE,,8199.312000002974,,response,,,100,C,,,,,FALSE,click #choice-2,,,,silence,,127176.90000000596,127175.70000000298,118959.718,118967.10000000894,118976.388,127195.349,,,
Question 2,html.Screen,0_2_1_3,2021-11-05T11:42:40.995Z,,,,,,,,,,,,,,,,,,,,,,,,,,,true,FALSE,,2257.150999999998,,response,,,100,C,,,,,FALSE,click #choice-2,,,,silence,,129453.70000000298,129452.5,127162.001,127177.29999999702,127195.349,129461.997,,,
Item 100,flow.Sequence,0_2_1,2021-11-05T11:42:40.996Z,,,,,,,,,,,,,,,,,,,,,,,,,,,,,,44184.66099999999,,completion,,,,,,,,,,,,,,,,129454.10000000894,129452.5,85251.168,85260.5,85267.839,129461.997,,,
End of Practice,html.Page,0_2_2,2021-11-05T11:42:45.866Z,,,,,,,,,,,,,,,,,,,,,,,,,,,,,,4861.802999997017,,form submission,,,,,,,,,,,,,,,,134324.40000000596,134323.79999999702,129445.345,129454.29999999702,129461.997,134330.395,,,
Practice,flow.Sequence,0_2,2021-11-05T11:42:45.867Z,,,,,,,,,,,,,,,,,,,,,,,,,,,,,,98568.67299999701,,completion,,,,,,,,,,,,,,,,134324.90000000596,134323.79999999702,35738.456,35747,35755.127,134330.395,,,
Trap_instruction,html.Page,0_3_0,2021-11-05T11:42:49.318Z,,,,,,,,,,,,,,,,,,,,,,,,,,,,,,3444.9049999970302,,form submission,,,,,,,,,,,,,,,,137775.90000000596,137775.29999999702,134313.725,134325.20000000298,134330.395,137797.758,,,
trap_trial,html.Screen,0_3_1,2021-11-05T11:42:54.737Z,,,,,,,,,,,,,,,,,,,,,,,,,,,true,1,,5396.241999999998,,response,,,,,,,,,1,click #choice-1,,,,,,143195.5,143194,137764.418,137776.20000000298,137797.758,143211.581,,,
end of trap trial,html.Page,0_3_2,2021-11-05T11:42:57.284Z,,,,,,,,,,,,,,,,,,,,,,,,,,,,,,2530.218999997014,,form submission,,,,,,,,,,,,,,,,145742.20000000298,145741.79999999702,143194.924,143195.79999999702,143211.581,145749.973,,,
Trap 1,flow.Sequence,0_3,2021-11-05T11:42:57.284Z,,,,,,,,,,,,,,,,,,,,,,,,,,,,,,11411.40499999703,,completion,,,,,,,,,,,,,,,,145742.60000000894,145741.79999999702,134313.725,134325.20000000298,134330.395,145749.973,,,
Standby,html.Page,0_4_0,2021-11-05T11:43:05.279Z,,,,,,,,,,,,,,,,,,,,,,,,,,,,,,8002.192999999999,,timeout,,,,,,,,,,,,,,,,153737,153735.495,145733.303,145742.90000000596,145749.973,153752.166,,,
Holding screen,html.Screen,0_4_1_0_0,2021-11-05T11:43:12.280Z,,,,,,,,,,,,,,,,,,,,,,,,,,,,,,7001.697000000015,,timeout,,,,,,,,,,,,,,,,160738.70000000298,160737.193,153735.495,153737.5,153752.166,160753.863,,,
screen,html.Screen,0_4_1_0_1_0,2021-11-05T11:43:13.115Z,,,,,,,,,,,,,,,,15,,,,,,,,,,,,,,818.0370000059484,,response,,,7,C,,,,,Space,keypress(Space),,,,instrumental,Greg --------- ---------- - --- ------- -- --- ------------<br>----- -- -------- ------- ---- ------ - -------- ---- -----<br>--- ------- ---- -- --- -------- --- - ----- ------ ---- --<br>-------- --- -------- -------- --- -------- ---- -- ----- -<br>-------- ---- --- ---------- --------- -- ------- ------ -<br>--------- ----- -----,161573,161571.90000000596,160737.193,160739.10000000894,160753.863,161587.243,,0,Greg
screen,html.Screen,0_4_1_0_1_1,2021-11-05T11:43:13.594Z,,,,,,,,,,,,,,,,15,,,,,,,,,,,,,,464.0569999970321,,response,,,7,C,,,,,Space,keypress(Space),,,,instrumental,"---- Anderson, ---------- - --- ------- -- --- ------------<br>----- -- -------- ------- ---- ------ - -------- ---- -----<br>--- ------- ---- -- --- -------- --- - ----- ------ ---- --<br>-------- --- -------- -------- --- -------- ---- -- ----- -<br>-------- ---- --- ---------- --------- -- ------- ------ -<br>--------- ----- -----",162052.20000000298,162051.29999999702,161570.574,161573.29999999702,161587.243,162054.17,,1,"Anderson,"
screen,html.Screen,0_4_1_0_1_2,2021-11-05T11:43:14.066Z,,,,,,,,,,,,,,,,15,,,,,,,,,,,,,,469.0300000029674,,response,,,7,C,,,,,Space,keypress(Space),,,,instrumental,---- --------- considered - --- ------- -- --- ------------<br>----- -- -------- ------- ---- ------ - -------- ---- -----<br>--- ------- ---- -- --- -------- --- - ----- ------ ---- --<br>-------- --- -------- -------- --- -------- ---- -- ----- -<br>-------- ---- --- ---------- --------- -- ------- ------ -<br>--------- ----- -----,162524.10000000894,162523.20000000298,162037.5,162052.40000000596,162054.17,162537.78,,2,considered
screen,html.Screen,0_4_1_0_1_3,2021-11-05T11:43:14.346Z,,,,,,,,,,,,,,,,15,,,,,,,,,,,,,,265.4200000029814,,response,,,7,C,,,,,Space,keypress(Space),,,,instrumental,---- --------- ---------- a --- ------- -- --- ------------<br>----- -- -------- ------- ---- ------ - -------- ---- -----<br>--- ------- ---- -- --- -------- --- - ----- ------ ---- --<br>-------- --- -------- -------- --- -------- ---- -- ----- -<br>-------- ---- --- ---------- --------- -- ------- ------ -<br>--------- ----- -----,162804.20000000298,162803.20000000298,162521.108,162524.40000000596,162537.78,162821.012,,3,a
screen,html.Screen,0_4_1_0_1_4,2021-11-05T11:43:14.610Z,,,,,,,,,,,,,,,,15,,,,,,,,,,,,,,246.18800000299234,,response,,,7,C,,,,,Space,keypress(Space),,,,instrumental,---- --------- ---------- - key ------- -- --- ------------<br>----- -- -------- ------- ---- ------ - -------- ---- -----<br>--- ------- ---- -- --- -------- --- - ----- ------ ---- --<br>-------- --- -------- -------- --- -------- ---- -- ----- -<br>-------- ---- --- ---------- --------- -- ------- ------ -<br>--------- ----- -----,163068,163067.20000000298,162804.343,162804.60000000894,162821.012,163071.217,,4,key
screen,html.Screen,0_4_1_0_1_5,2021-11-05T11:43:14.866Z,,,,,,,,,,,,,,,,15,,,,,,,,,,,,,,251.98300000297604,,response,,,7,C,,,,,Space,keypress(Space),,,,instrumental,---- --------- ---------- - --- witness -- --- ------------<br>----- -- -------- ------- ---- ------ - -------- ---- -----<br>--- ------- ---- -- --- -------- --- - ----- ------ ---- --<br>-------- --- -------- -------- --- -------- ---- -- ----- -<br>-------- ---- --- ---------- --------- -- ------- ------ -<br>--------- ----- -----,163324.10000000894,163323.20000000298,163054.545,163068.29999999702,163071.217,163337.798,,5,witness
screen,html.Screen,0_4_1_0_1_6,2021-11-05T11:43:15.274Z,,,,,,,,,,,,,,,,15,,,,,,,,,,,,,,393.3020000089309,,response,,,7,C,,,,,Space,keypress(Space),,,,instrumental,---- --------- ---------- - --- ------- by --- ------------<br>----- -- -------- ------- ---- ------ - -------- ---- -----<br>--- ------- ---- -- --- -------- --- - ----- ------ ---- --<br>-------- --- -------- -------- --- -------- ---- -- ----- -<br>-------- ---- --- ---------- --------- -- ------- ------ -<br>--------- ----- -----,163732,163731.10000000894,163321.13,163324.40000000596,163337.798,163738.108,,6,by
screen,html.Screen,0_4_1_0_1_7,2021-11-05T11:43:15.650Z,,,,,,,,,,,,,,,,15,,,,,,,,,,,,,,369.0920000029728,,response,,,7,C,,,,,Space,keypress(Space),,,,instrumental,---- --------- ---------- - --- ------- -- the ------------<br>----- -- -------- ------- ---- ------ - -------- ---- -----<br>--- ------- ---- -- --- -------- --- - ----- ------ ---- --<br>-------- --- -------- -------- --- -------- ---- -- ----- -<br>-------- ---- --- ---------- --------- -- ------- ------ -<br>--------- ----- -----,164108,164107.20000000298,163721.435,163732.29999999702,163738.108,164121.434,,7,the
screen,html.Screen,0_4_1_0_1_8,2021-11-05T11:43:15.930Z,,,,,,,,,,,,,,,,15,,,,,,,,,,,,,,265.76600000297185,,response,,,7,C,,,,,Space,keypress(Space),,,,instrumental,"---- --------- ---------- - --- ------- -- --- prosecution,<br>----- -- -------- ------- ---- ------ - -------- ---- -----<br>--- ------- ---- -- --- -------- --- - ----- ------ ---- --<br>-------- --- -------- -------- --- -------- ---- -- ----- -<br>-------- ---- --- ---------- --------- -- ------- ------ -<br>--------- ----- -----",164388,164387.20000000298,164104.764,164108.29999999702,164121.434,164404.848,,8,"prosecution,"
screen,html.Screen,0_4_1_0_1_9,2021-11-05T11:43:16.474Z,,,,,,,,,,,,,,,,15,,,,,,,,,,,,,,526.2520000089426,,response,,,7,C,,,,,Space,keypress(Space),,,,instrumental,---- --------- ---------- - --- ------- -- --- ------------<br>vowed -- -------- ------- ---- ------ - -------- ---- -----<br>--- ------- ---- -- --- -------- --- - ----- ------ ---- --<br>-------- --- -------- -------- --- -------- ---- -- ----- -<br>-------- ---- --- ---------- --------- -- ------- ------ -<br>--------- ----- -----,164932,164931.10000000894,164388.178,164388.29999999702,164404.848,164938.208,,9,vowed
screen,html.Screen,0_4_1_0_1_10,2021-11-05T11:43:16.866Z,,,,,,,,,,,,,,,,15,,,,,,,,,,,,,,384.8920000089274,,response,,,7,C,,,,,Space,keypress(Space),,,,instrumental,---- --------- ---------- - --- ------- -- --- ------------<br>----- he -------- ------- ---- ------ - -------- ---- -----<br>--- ------- ---- -- --- -------- --- - ----- ------ ---- --<br>-------- --- -------- -------- --- -------- ---- -- ----- -<br>-------- ---- --- ---------- --------- -- ------- ------ -<br>--------- ----- -----,165324,165323.10000000894,164921.539,164932.20000000298,164938.208,165338.513,,10,he
screen,html.Screen,0_4_1_0_1_11,2021-11-05T11:43:17.138Z,,,,,,,,,,,,,,,,15,,,,,,,,,,,,,,256.5870000089344,,response,,,7,C,,,,,Space,keypress(Space),,,,instrumental,---- --------- ---------- - --- ------- -- --- ------------<br>----- -- wouldn't ------- ---- ------ - -------- ---- -----<br>--- ------- ---- -- --- -------- --- - ----- ------ ---- --<br>-------- --- -------- -------- --- -------- ---- -- ----- -<br>-------- ---- --- ---------- --------- -- ------- ------ -<br>--------- ----- -----,165595.90000000596,165595.10000000894,165321.84,165324.29999999702,165338.513,165605.096,,11,wouldn't
screen,html.Screen,0_4_1_0_1_12,2021-11-05T11:43:17.538Z,,,,,,,,,,,,,,,,15,,,,,,,,,,,,,,390.00400000895024,,response,,,7,C,,,,,Space,keypress(Space),,,,instrumental,---- --------- ---------- - --- ------- -- --- ------------<br>----- -- -------- testify ---- ------ - -------- ---- -----<br>--- ------- ---- -- --- -------- --- - ----- ------ ---- --<br>-------- --- -------- -------- --- -------- ---- -- ----- -<br>-------- ---- --- ---------- --------- -- ------- ------ -<br>--------- ----- -----,165995.79999999702,165995.10000000894,165588.427,165596.10000000894,165605.096,166005.322,,12,testify
screen,html.Screen,0_4_1_0_1_13,2021-11-05T11:43:17.994Z,,,,,,,,,,,,,,,,15,,,,,,,,,,,,,,445.67800000001444,,response,,,7,C,,,,,Space,keypress(Space),,,,instrumental,---- --------- ---------- - --- ------- -- --- ------------<br>----- -- -------- ------- when ------ - -------- ---- -----<br>--- ------- ---- -- --- -------- --- - ----- ------ ---- --<br>-------- --- -------- -------- --- -------- ---- -- ----- -<br>-------- ---- --- ---------- --------- -- ------- ------ -<br>--------- ----- -----,166451.79999999702,166451,165988.65,165996.10000000894,166005.322,166455.347,,13,when
screen,html.Screen,0_4_1_0_1_14,2021-11-05T11:43:18.418Z,,,,,,,,,,,,,,,,15,,,,,,,,,,,,,,419.65299999999115,,response,,,7,C,,,,,Space,keypress(Space),,,,instrumental,---- --------- ---------- - --- ------- -- --- ------------<br>----- -- -------- ------- ---- served - -------- ---- -----<br>--- ------- ---- -- --- -------- --- - ----- ------ ---- --<br>-------- --- -------- -------- --- -------- ---- -- ----- -<br>-------- ---- --- ---------- --------- -- ------- ------ -<br>--------- ----- -----,166875.79999999702,166875,166438.677,166452.10000000894,166455.347,166888.848,,14,served
screen,html.Screen,0_4_1_0_1_15,2021-11-05T11:43:18.834Z,,,,,,,,,,,,,,,,15,,,,,,,,,,,,,,402.15200000000186,,response,,,7,C,,,,,Space,keypress(Space),,,,instrumental,---- --------- ---------- - --- ------- -- --- ------------<br>----- -- -------- ------- ---- ------ a -------- ---- -----<br>--- ------- ---- -- --- -------- --- - ----- ------ ---- --<br>-------- --- -------- -------- --- -------- ---- -- ----- -<br>-------- ---- --- ---------- --------- -- ------- ------ -<br>--------- ----- -----,167291.90000000596,167291,166872.177,166876.10000000894,166888.848,167305.572,,15,a
screen,html.Screen,0_4_1_0_1_16,2021-11-05T11:43:20.018Z,,,,,,,,,,,,,,,,15,,,,,,,,,,,,,,1169.328000005975,,response,,,7,C,,,,,Space,keypress(Space),,,,instrumental,---- --------- ---------- - --- ------- -- --- ------------<br>----- -- -------- ------- ---- ------ - subpoena ---- -----<br>--- ------- ---- -- --- -------- --- - ----- ------ ---- --<br>-------- --- -------- -------- --- -------- ---- -- ----- -<br>-------- ---- --- ---------- --------- -- ------- ------ -<br>--------- ----- -----,168475.79999999702,168474.90000000596,167288.902,167292.20000000298,167305.572,168489.271,,16,subpoena
screen,html.Screen,0_4_1_0_1_17,2021-11-05T11:43:20.474Z,,,,,,,,,,,,,,,,15,,,,,,,,,,,,,,441.62900000595255,,response,,,7,C,,,,,Space,keypress(Space),,,,instrumental,---- --------- ---------- - --- ------- -- --- ------------<br>----- -- -------- ------- ---- ------ - -------- last -----<br>--- ------- ---- -- --- -------- --- - ----- ------ ---- --<br>-------- --- -------- -------- --- -------- ---- -- ----- -<br>-------- ---- --- ---------- --------- -- ------- ------ -<br>--------- ----- -----,168931.79999999702,168930.90000000596,168472.6,168476.10000000894,168489.271,168939.315,,17,last
screen,html.Screen,0_4_1_0_1_18,2021-11-05T11:43:21.450Z,,,,,,,,,,,,,,,,15,,,,,,,,,,,,,,967.6849999999977,,response,,,7,C,,,,,Space,keypress(Space),,,,instrumental,---- --------- ---------- - --- ------- -- --- ------------<br>----- -- -------- ------- ---- ------ - -------- ---- week.<br>--- ------- ---- -- --- -------- --- - ----- ------ ---- --<br>-------- --- -------- -------- --- -------- ---- -- ----- -<br>-------- ---- --- ---------- --------- -- ------- ------ -<br>--------- ----- -----,169907.79999999702,169907,168922.645,168932,168939.315,169922.897,,18,week.
screen,html.Screen,0_4_1_0_1_19,2021-11-05T11:43:22.049Z,,,,,,,,,,,,,,,,15,,,,,,,,,,,,,,583.9029999970226,,response,,,7,C,,,,,Space,keypress(Space),,,,instrumental,---- --------- ---------- - --- ------- -- --- ------------<br>----- -- -------- ------- ---- ------ - -------- ---- -----<br>His ------- ---- -- --- -------- --- - ----- ------ ---- --<br>-------- --- -------- -------- --- -------- ---- -- ----- -<br>-------- ---- --- ---------- --------- -- ------- ------ -<br>--------- ----- -----,170507.70000000298,170506.79999999702,169906.227,169908,169922.897,170523.049,,19,His
screen,html.Screen,0_4_1_0_1_20,2021-11-05T11:43:22.553Z,,,,,,,,,,,,,,,,15,,,,,,,,,,,,,,487.7509999970207,,response,,,7,C,,,,,Space,keypress(Space),,,,instrumental,---- --------- ---------- - --- ------- -- --- ------------<br>----- -- -------- ------- ---- ------ - -------- ---- -----<br>--- lawyers ---- -- --- -------- --- - ----- ------ ---- --<br>-------- --- -------- -------- --- -------- ---- -- ----- -<br>-------- ---- --- ---------- --------- -- ------- ------ -<br>--------- ----- -----,171011.60000000894,171010.79999999702,170506.379,170507.90000000596,170523.049,171023.198,,20,lawyers
screen,html.Screen,0_4_1_0_1_21,2021-11-05T11:43:23.322Z,,,,,,,,,,,,,,,,15,,,,,,,,,,,,,,755.9020000089367,,response,,,7,C,,,,,Space,keypress(Space),,,,instrumental,---- --------- ---------- - --- ------- -- --- ------------<br>----- -- -------- ------- ---- ------ - -------- ---- -----<br>--- ------- said -- --- -------- --- - ----- ------ ---- --<br>-------- --- -------- -------- --- -------- ---- -- ----- -<br>-------- ---- --- ---------- --------- -- ------- ------ -<br>--------- ----- -----,171779.90000000596,171779.10000000894,171006.528,171011.79999999702,171023.198,171790.051,,21,said
screen,html.Screen,0_4_1_0_1_22,2021-11-05T11:43:23.753Z,,,,,,,,,,,,,,,,15,,,,,,,,,,,,,,420.6490000029735,,response,,,7,C,,,,,Space,keypress(Space),,,,instrumental,---- --------- ---------- - --- ------- -- --- ------------<br>----- -- -------- ------- ---- ------ - -------- ---- -----<br>--- ------- ---- he --- -------- --- - ----- ------ ---- --<br>-------- --- -------- -------- --- -------- ---- -- ----- -<br>-------- ---- --- ---------- --------- -- ------- ------ -<br>--------- ----- -----,172211.5,172210.70000000298,171773.381,171780.10000000894,171790.051,172223.562,,22,he
screen,html.Screen,0_4_1_0_1_23,2021-11-05T11:43:24.209Z,,,,,,,,,,,,,,,,15,,,,,,,,,,,,,,443.1380000029749,,response,,,7,C,,,,,Space,keypress(Space),,,,instrumental,---- --------- ---------- - --- ------- -- --- ------------<br>----- -- -------- ------- ---- ------ - -------- ---- -----<br>--- ------- ---- -- was -------- --- - ----- ------ ---- --<br>-------- --- -------- -------- --- -------- ---- -- ----- -<br>-------- ---- --- ---------- --------- -- ------- ------ -<br>--------- ----- -----,172667.5,172666.70000000298,172206.891,172211.79999999702,172223.562,172673.531,,23,was
screen,html.Screen,0_4_1_0_1_24,2021-11-05T11:43:24.689Z,,,,,,,,,,,,,,,,15,,,,,,,,,,,,,,473.1690000029921,,response,,,7,C,,,,,Space,keypress(Space),,,,instrumental,---- --------- ---------- - --- ------- -- --- ------------<br>----- -- -------- ------- ---- ------ - -------- ---- -----<br>--- ------- ---- -- --- prepared --- - ----- ------ ---- --<br>-------- --- -------- -------- --- -------- ---- -- ----- -<br>-------- ---- --- ---------- --------- -- ------- ------ -<br>--------- ----- -----,173147.70000000298,173146.70000000298,172656.862,172667.79999999702,172673.531,173157.173,,24,prepared
screen,html.Screen,0_4_1_0_1_25,2021-11-05T11:43:25.113Z,,,,,,,,,,,,,,,,15,,,,,,,,,,,,,,413.4270000089309,,response,,,7,C,,,,,Space,keypress(Space),,,,instrumental,---- --------- ---------- - --- ------- -- --- ------------<br>----- -- -------- ------- ---- ------ - -------- ---- -----<br>--- ------- ---- -- --- -------- for - ----- ------ ---- --<br>-------- --- -------- -------- --- -------- ---- -- ----- -<br>-------- ---- --- ---------- --------- -- ------- ------ -<br>--------- ----- -----,173571.40000000596,173570.60000000894,173140.501,173148,173157.173,173573.715,,25,for
screen,html.Screen,0_4_1_0_1_26,2021-11-05T11:43:25.473Z,,,,,,,,,,,,,,,,15,,,,,,,,,,,,,,356.8850000089442,,response,,,7,C,,,,,Space,keypress(Space),,,,instrumental,---- --------- ---------- - --- ------- -- --- ------------<br>----- -- -------- ------- ---- ------ - -------- ---- -----<br>--- ------- ---- -- --- -------- --- a ----- ------ ---- --<br>-------- --- -------- -------- --- -------- ---- -- ----- -<br>-------- ---- --- ---------- --------- -- ------- ------ -<br>--------- ----- -----,173931.40000000596,173930.60000000894,173557.047,173571.70000000298,173573.715,173940.704,,26,a
screen,html.Screen,0_4_1_0_1_27,2021-11-05T11:43:25.769Z,,,,,,,,,,,,,,,,15,,,,,,,,,,,,,,285.9960000029823,,response,,,7,C,,,,,Space,keypress(Space),,,,instrumental,---- --------- ---------- - --- ------- -- --- ------------<br>----- -- -------- ------- ---- ------ - -------- ---- -----<br>--- ------- ---- -- --- -------- --- - third ------ ---- --<br>-------- --- -------- -------- --- -------- ---- -- ----- -<br>-------- ---- --- ---------- --------- -- ------- ------ -<br>--------- ----- -----,174227.40000000596,174226.70000000298,173924.032,173931.60000000894,173940.704,174240.625,,27,third
screen,html.Screen,0_4_1_0_1_28,2021-11-05T11:43:26.385Z,,,,,,,,,,,,,,,,15,,,,,,,,,,,,,,601.875,,response,,,7,C,,,,,Space,keypress(Space),,,,instrumental,---- --------- ---------- - --- ------- -- --- ------------<br>----- -- -------- ------- ---- ------ - -------- ---- -----<br>--- ------- ---- -- --- -------- --- - ----- prison ---- --<br>-------- --- -------- -------- --- -------- ---- -- ----- -<br>-------- ---- --- ---------- --------- -- ------- ------ -<br>--------- ----- -----,174843.29999999702,174842.5,174223.956,174227.60000000894,174240.625,174857.467,,28,prison
screen,html.Screen,0_4_1_0_1_29,2021-11-05T11:43:26.865Z,,,,,,,,,,,,,,,,15,,,,,,,,,,,,,,465.0329999999958,,response,,,7,C,,,,,Space,keypress(Space),,,,instrumental,---- --------- ---------- - --- ------- -- --- ------------<br>----- -- -------- ------- ---- ------ - -------- ---- -----<br>--- ------- ---- -- --- -------- --- - ----- ------ stay --<br>-------- --- -------- -------- --- -------- ---- -- ----- -<br>-------- ---- --- ---------- --------- -- ------- ------ -<br>--------- ----- -----,175323.29999999702,175322.5,174840.797,174843.5,174857.467,175324.266,,29,stay
screen,html.Screen,0_4_1_0_1_30,2021-11-05T11:43:27.265Z,,,,,,,,,,,,,,,,15,,,,,,,,,,,,,,398.23399999999674,,response,,,7,C,,,,,Space,keypress(Space),,,,instrumental,---- --------- ---------- - --- ------- -- --- ------------<br>----- -- -------- ------- ---- ------ - -------- ---- -----<br>--- ------- ---- -- --- -------- --- - ----- ------ ---- to<br>-------- --- -------- -------- --- -------- ---- -- ----- -<br>-------- ---- --- ---------- --------- -- ------- ------ -<br>--------- ----- -----,175723.40000000596,175722.5,175307.596,175323.60000000894,175324.266,175724.359,,30,to
screen,html.Screen,0_4_1_0_1_31,2021-11-05T11:43:27.825Z,,,,,,,,,,,,,,,,15,,,,,,,,,,,,,,558.1410000000033,,response,,,7,C,,,,,Space,keypress(Space),,,,instrumental,---- --------- ---------- - --- ------- -- --- ------------<br>----- -- -------- ------- ---- ------ - -------- ---- -----<br>--- ------- ---- -- --- -------- --- - ----- ------ ---- --<br>maintain --- -------- -------- --- -------- ---- -- ----- -<br>-------- ---- --- ---------- --------- -- ------- ------ -<br>--------- ----- -----,176283.29999999702,176282.5,175707.689,175723.60000000894,175724.359,176291.218,,31,maintain
screen,html.Screen,0_4_1_0_1_32,2021-11-05T11:43:28.265Z,,,,,,,,,,,,,,,,15,,,,,,,,,,,,,,431.2820000000065,,response,,,7,C,,,,,Space,keypress(Space),,,,instrumental,---- --------- ---------- - --- ------- -- --- ------------<br>----- -- -------- ------- ---- ------ - -------- ---- -----<br>--- ------- ---- -- --- -------- --- - ----- ------ ---- --<br>-------- his -------- -------- --- -------- ---- -- ----- -<br>-------- ---- --- ---------- --------- -- ------- ------ -<br>--------- ----- -----,176723.29999999702,176722.5,176274.547,176283.60000000894,176291.218,176724.628,,32,his
screen,html.Screen,0_4_1_0_1_33,2021-11-05T11:43:29.065Z,,,,,,,,,,,,,,,,15,,,,,,,,,,,,,,797.872000000003,,response,,,7,C,,,,,Space,keypress(Space),,,,instrumental,---- --------- ---------- - --- ------- -- --- ------------<br>----- -- -------- ------- ---- ------ - -------- ---- -----<br>--- ------- ---- -- --- -------- --- - ----- ------ ---- --<br>-------- --- silence. -------- --- -------- ---- -- ----- -<br>-------- ---- --- ---------- --------- -- ------- ------ -<br>--------- ----- -----,177523.20000000298,177522.5,176707.958,176723.5,176724.628,177524.98,,33,silence.
screen,html.Screen,0_4_1_0_1_34,2021-11-05T11:43:29.961Z,,,,,,,,,,,,,,,,15,,,,,,,,,,,,,,893.3199999970093,,response,,,7,C,,,,,Space,keypress(Space),,,,instrumental,---- --------- ---------- - --- ------- -- --- ------------<br>----- -- -------- ------- ---- ------ - -------- ---- -----<br>--- ------- ---- -- --- -------- --- - ----- ------ ---- --<br>-------- --- -------- Anderson --- -------- ---- -- ----- -<br>-------- ---- --- ---------- --------- -- ------- ------ -<br>--------- ----- -----,178419,178418.29999999702,177508.308,177523.5,177524.98,178424.944,,34,Anderson
screen,html.Screen,0_4_1_0_1_35,2021-11-05T11:43:30.889Z,,,,,,,,,,,,,,,,15,,,,,,,,,,,,,,921.3559999970312,,response,,,7,C,,,,,Space,keypress(Space),,,,instrumental,---- --------- ---------- - --- ------- -- --- ------------<br>----- -- -------- ------- ---- ------ - -------- ---- -----<br>--- ------- ---- -- --- -------- --- - ----- ------ ---- --<br>-------- --- -------- -------- was -------- ---- -- ----- -<br>-------- ---- --- ---------- --------- -- ------- ------ -<br>--------- ----- -----,179347.10000000894,179346.29999999702,178408.275,178419.29999999702,178424.944,179358.595,,35,was
screen,html.Screen,0_4_1_0_1_36,2021-11-05T11:43:31.441Z,,,,,,,,,,,,,,,,15,,,,,,,,,,,,,,539.6050000029791,,response,,,7,C,,,,,Space,keypress(Space),,,,instrumental,---- --------- ---------- - --- ------- -- --- ------------<br>----- -- -------- ------- ---- ------ - -------- ---- -----<br>--- ------- ---- -- --- -------- --- - ----- ------ ---- --<br>-------- --- -------- -------- --- released ---- -- ----- -<br>-------- ---- --- ---------- --------- -- ------- ------ -<br>--------- ----- -----,179899,179898.20000000298,179341.925,179347.40000000596,179358.595,179908.771,,36,released
screen,html.Screen,0_4_1_0_1_37,2021-11-05T11:43:32.073Z,,,,,,,,,,,,,,,,15,,,,,,,,,,,,,,621.5289999970119,,response,,,7,C,,,,,Space,keypress(Space),,,,instrumental,---- --------- ---------- - --- ------- -- --- ------------<br>----- -- -------- ------- ---- ------ - -------- ---- -----<br>--- ------- ---- -- --- -------- --- - ----- ------ ---- --<br>-------- --- -------- -------- --- -------- July -- ----- -<br>-------- ---- --- ---------- --------- -- ------- ------ -<br>--------- ----- -----,180531.10000000894,180530.29999999702,179892.101,179899.40000000596,179908.771,180542.376,,37,July
screen,html.Screen,0_4_1_0_1_38,2021-11-05T11:43:32.620Z,,,,,,,,,,,,,,,,15,,,,,,,,,,,,,,539.8240000029909,,response,,,7,C,,,,,Space,keypress(Space),,,,instrumental,---- --------- ---------- - --- ------- -- --- ------------<br>----- -- -------- ------- ---- ------ - -------- ---- -----<br>--- ------- ---- -- --- -------- --- - ----- ------ ---- --<br>-------- --- -------- -------- --- -------- ---- 20 ----- -<br>-------- ---- --- ---------- --------- -- ------- ------ -<br>--------- ----- -----,181083,181082.20000000298,180525.705,180531.29999999702,180542.376,181092.459,,38,20
screen,html.Screen,0_4_1_0_1_39,2021-11-05T11:43:33.613Z,,,,,,,,,,,,,,,,15,,,,,,,,,,,,,,982.2410000029777,,response,,,7,C,,,,,Space,keypress(Space),,,,instrumental,---- --------- ---------- - --- ------- -- --- ------------<br>----- -- -------- ------- ---- ------ - -------- ---- -----<br>--- ------- ---- -- --- -------- --- - ----- ------ ---- --<br>-------- --- -------- -------- --- -------- ---- -- after -<br>-------- ---- --- ---------- --------- -- ------- ------ -<br>--------- ----- -----,182075.40000000596,182074.70000000298,181075.789,181083.29999999702,181092.459,182092.675,,39,after
screen,html.Screen,0_4_1_0_1_40,2021-11-05T11:43:34.020Z,,,,,,,,,,,,,,,,15,,,,,,,,,,,,,,389.42500000895234,,response,,,7,C,,,,,Space,keypress(Space),,,,instrumental,---- --------- ---------- - --- ------- -- --- ------------<br>----- -- -------- ------- ---- ------ - -------- ---- -----<br>--- ------- ---- -- --- -------- --- - ----- ------ ---- --<br>-------- --- -------- -------- --- -------- ---- -- ----- a<br>-------- ---- --- ---------- --------- -- ------- ------ -<br>--------- ----- -----,182483,182482.10000000894,182076.005,182075.70000000298,182092.675,182492.824,,40,a
screen,html.Screen,0_4_1_0_1_41,2021-11-05T11:43:34.628Z,,,,,,,,,,,,,,,,15,,,,,,,,,,,,,,597.2760000089474,,response,,,7,C,,,,,Space,keypress(Space),,,,instrumental,---- --------- ---------- - --- ------- -- --- ------------<br>----- -- -------- ------- ---- ------ - -------- ---- -----<br>--- ------- ---- -- --- -------- --- - ----- ------ ---- --<br>-------- --- -------- -------- --- -------- ---- -- ----- -<br>two-week ---- --- ---------- --------- -- ------- ------ -<br>--------- ----- -----,183091,183090.10000000894,182476.154,182483.20000000298,182492.824,183092.971,,41,two-week
screen,html.Screen,0_4_1_0_1_42,2021-11-05T11:43:35.068Z,,,,,,,,,,,,,,,,15,,,,,,,,,,,,,,437.12900000895024,,response,,,7,C,,,,,Space,keypress(Space),,,,instrumental,---- --------- ---------- - --- ------- -- --- ------------<br>----- -- -------- ------- ---- ------ - -------- ---- -----<br>--- ------- ---- -- --- -------- --- - ----- ------ ---- --<br>-------- --- -------- -------- --- -------- ---- -- ----- -<br>-------- stay --- ---------- --------- -- ------- ------ -<br>--------- ----- -----,183530.90000000596,183530.10000000894,183076.301,183091.20000000298,183092.971,183543.098,,42,stay
screen,html.Screen,0_4_1_0_1_43,2021-11-05T11:43:35.428Z,,,,,,,,,,,,,,,,15,,,,,,,,,,,,,,346.90200000000186,,response,,,7,C,,,,,Space,keypress(Space),,,,instrumental,---- --------- ---------- - --- ------- -- --- ------------<br>----- -- -------- ------- ---- ------ - -------- ---- -----<br>--- ------- ---- -- --- -------- --- - ----- ------ ---- --<br>-------- --- -------- -------- --- -------- ---- -- ----- -<br>-------- ---- for ---------- --------- -- ------- ------ -<br>--------- ----- -----,183890.90000000596,183890,183526.428,183531.20000000298,183543.098,183893.088,,43,for
screen,html.Screen,0_4_1_0_1_44,2021-11-05T11:43:35.916Z,,,,,,,,,,,,,,,,15,,,,,,,,,,,,,,484.9120000000112,,response,,,7,C,,,,,Space,keypress(Space),,,,instrumental,---- --------- ---------- - --- ------- -- --- ------------<br>----- -- -------- ------- ---- ------ - -------- ---- -----<br>--- ------- ---- -- --- -------- --- - ----- ------ ---- --<br>-------- --- -------- -------- --- -------- ---- -- ----- -<br>-------- ---- --- previously --------- -- ------- ------ -<br>--------- ----- -----,184379,184378,183876.419,183892.29999999702,183893.088,184393.267,,44,previously
screen,html.Screen,0_4_1_0_1_45,2021-11-05T11:43:36.492Z,,,,,,,,,,,,,,,,15,,,,,,,,,,,,,,560.7330000000075,,response,,,7,C,,,,,Space,keypress(Space),,,,instrumental,---- --------- ---------- - --- ------- -- --- ------------<br>----- -- -------- ------- ---- ------ - -------- ---- -----<br>--- ------- ---- -- --- -------- --- - ----- ------ ---- --<br>-------- --- -------- -------- --- -------- ---- -- ----- -<br>-------- ---- --- ---------- declining -- ------- ------ -<br>--------- ----- -----,184954.79999999702,184954,184376.597,184379.20000000298,184393.267,184960.123,,45,declining
screen,html.Screen,0_4_1_0_1_46,2021-11-05T11:43:36.868Z,,,,,,,,,,,,,,,,15,,,,,,,,,,,,,,369.8770000000077,,response,,,7,C,,,,,Space,keypress(Space),,,,instrumental,---- --------- ---------- - --- ------- -- --- ------------<br>----- -- -------- ------- ---- ------ - -------- ---- -----<br>--- ------- ---- -- --- -------- --- - ----- ------ ---- --<br>-------- --- -------- -------- --- -------- ---- -- ----- -<br>-------- ---- --- ---------- --------- to ------- ------ -<br>--------- ----- -----,185330.79999999702,185330,184943.452,184955,184960.123,185343.654,,46,to
screen,html.Screen,0_4_1_0_1_47,2021-11-05T11:43:37.244Z,,,,,,,,,,,,,,,,15,,,,,,,,,,,,,,362.2460000059509,,response,,,7,C,,,,,Space,keypress(Space),,,,instrumental,---- --------- ---------- - --- ------- -- --- ------------<br>----- -- -------- ------- ---- ------ - -------- ---- -----<br>--- ------- ---- -- --- -------- --- - ----- ------ ---- --<br>-------- --- -------- -------- --- -------- ---- -- ----- -<br>-------- ---- --- ---------- --------- -- testify ------ -<br>--------- ----- -----,185706.79999999702,185705.90000000596,185326.982,185331.10000000894,185343.654,185710.314,,47,testify
screen,html.Screen,0_4_1_0_1_48,2021-11-05T11:43:37.660Z,,,,,,,,,,,,,,,,15,,,,,,,,,,,,,,411.48599999700673,,response,,,7,C,,,,,Space,keypress(Space),,,,instrumental,---- --------- ---------- - --- ------- -- --- ------------<br>----- -- -------- ------- ---- ------ - -------- ---- -----<br>--- ------- ---- -- --- -------- --- - ----- ------ ---- --<br>-------- --- -------- -------- --- -------- ---- -- ----- -<br>-------- ---- --- ---------- --------- -- ------- before -<br>--------- ----- -----,186122.60000000894,186121.79999999702,185693.644,185707,185710.314,186127.095,,48,before
screen,html.Screen,0_4_1_0_1_49,2021-11-05T11:43:38.140Z,,,,,,,,,,,,,,,,15,,,,,,,,,,,,,,474.8050000059593,,response,,,7,C,,,,,Space,keypress(Space),,,,instrumental,---- --------- ---------- - --- ------- -- --- ------------<br>----- -- -------- ------- ---- ------ - -------- ---- -----<br>--- ------- ---- -- --- -------- --- - ----- ------ ---- --<br>-------- --- -------- -------- --- -------- ---- -- ----- -<br>-------- ---- --- ---------- --------- -- ------- ------ a<br>--------- ----- -----,186602.60000000894,186601.90000000596,186110.425,186122.90000000596,186127.095,186610.483,,49,a
screen,html.Screen,0_4_1_0_1_50,2021-11-05T11:43:38.900Z,,,,,,,,,,,,,,,,15,,,,,,,,,,,,,,751.417000005953,,response,,,7,C,,,,,Space,keypress(Space),,,,instrumental,---- --------- ---------- - --- ------- -- --- ------------<br>----- -- -------- ------- ---- ------ - -------- ---- -----<br>--- ------- ---- -- --- -------- --- - ----- ------ ---- --<br>-------- --- -------- -------- --- -------- ---- -- ----- -<br>-------- ---- --- ---------- --------- -- ------- ------ -<br>different ----- -----,187362.60000000894,187361.90000000596,186593.814,186603,186610.483,187377.468,,50,different
screen,html.Screen,0_4_1_0_1_51,2021-11-05T11:43:39.356Z,,,,,,,,,,,,,,,,15,,,,,,,,,,,,,,440.3319999970263,,response,,,7,C,,,,,Space,keypress(Space),,,,instrumental,---- --------- ---------- - --- ------- -- --- ------------<br>----- -- -------- ------- ---- ------ - -------- ---- -----<br>--- ------- ---- -- --- -------- --- - ----- ------ ---- --<br>-------- --- -------- -------- --- -------- ---- -- ----- -<br>-------- ---- --- ---------- --------- -- ------- ------ -<br>--------- grand -----,187818.60000000894,187817.79999999702,187360.797,187362.90000000596,187377.468,187827.53,,51,grand
screen,html.Screen,0_4_1_0_1_52,2021-11-05T11:43:40.148Z,,,,,,,,,,,,,,,,15,,,,,,,,,,,,,,782.3700000059616,,response,,,7,C,,,,,Space,keypress(Space),,,,instrumental,---- --------- ---------- - --- ------- -- --- ------------<br>----- -- -------- ------- ---- ------ - -------- ---- -----<br>--- ------- ---- -- --- -------- --- - ----- ------ ---- --<br>-------- --- -------- -------- --- -------- ---- -- ----- -<br>-------- ---- --- ---------- --------- -- ------- ------ -<br>--------- ----- jury.,188610.70000000298,188609.90000000596,187810.86,187818.79999999702,187827.53,188627.722,,52,jury.
