sender,sender_type,sender_id,timestamp,meta,,Blues,Classical,Country,Dance,Electronic,Folk,Gospel,Hip-Hop,Jazz,Latin,Musical/Film,New-age,Pop,Provo_ID,R&B,Rap,Reggae,Religious,Rock,Soul,Swing,Traditional,age,artist_name,correct,correctResponse,distraction,duration,education,ended_on,familiarity,gender,item,list,music_frequency,offensiveness,pleasantness,preference,response,response_action,snippet_file,song_name,song_rating,sound,text,time_commit,time_end,time_render,time_run,time_show,time_switch,url,word,word_ID
Instructions,html.Page,0_0,2021-11-25T15:01:14.363Z,"{""labjs_version"":""20.2.3"",""labjs_build"":{""flavor"":""production"",""commit"":""7ea907d66ca8aeef8054924ca5d82ffbe11e34e5""},""location"":""https://run.pavlovia.org/mvasilev/lab_music_b/"",""userAgent"":""Mozilla/5.0 (Windows NT 6.1; Win64; x64) AppleWebKit/537.36 (KHTML, like Gecko) Chrome/96.0.4664.45 Safari/537.36"",""platform"":""Win32"",""language"":""en-US"",""locale"":""en-US"",""timeZone"":""Europe/London"",""timezoneOffset"":0,""screen_width"":1920,""screen_height"":1080,""scroll_width"":1904,""scroll_height"":900,""window_innerWidth"":1904,""window_innerHeight"":948,""devicePixelRatio"":1}",,,,,,,,,,,,,,,,,,,,,,,,,,,,,15322.494,,form submission,,,,,,,,,,,,,,,,25786.59999999404,25785.5,10446.336,10459.699999988079,10463.006,25783.905,{},,
Headphones,html.Page,0_1,2021-11-25T15:01:16.660Z,,,,,,,,,,,,,,,,,,,,,,,,,,,,,,2299.9950000059616,,form submission,,,,,,,,,,,,,,,,28084.40000000596,28083.90000000596,25767.235,25787.30000001192,25783.905,28084.571,,,
Holding screen,html.Screen,0_2_0_0,2021-11-25T15:01:26.652Z,,,,,,,,,,,,,,,,,,,,,,,,,,,,,,10019.090999999997,,timeout,,,,,,,,,,,,,,,,38076.30000001192,38070.322,28067.9,28085,28084.571,38103.662,,,
screen,html.Screen,0_2_0_1_0,2021-11-25T15:01:29.316Z,,,,,,,,,,,,,,,,53,,,,,,,,,,,,,,2635.0379999880824,,response,,,99,,,,,,Space,keypress(Space),,,,,When -- ----- -- ------ - ------- --- ----------<br>------------- ------ ------ ---- ---- ------- ----- -- ----<br>-------- ------- -- ---------- --- - --- ----- ----- ----<br>---- --- --- ----- --- ---- ---- ------- ----- ---- -------<br>--- --- -- ----- -- --- ---- -- --- ---- -- ------ ------<br>--- ----- -- ----,40740.09999999404,40738.69999998808,38070.322,38076.69999998808,38103.662,40754.441,,0,When
screen,html.Screen,0_2_0_1_1,2021-11-25T15:01:29.995Z,,,,,,,,,,,,,,,,53,,,,,,,,,,,,,,663.6589999940406,,response,,,99,,,,,,Space,keypress(Space),,,,,---- it ----- -- ------ - ------- --- ----------<br>------------- ------ ------ ---- ---- ------- ----- -- ----<br>-------- ------- -- ---------- --- - --- ----- ----- ----<br>---- --- --- ----- --- ---- ---- ------- ----- ---- -------<br>--- --- -- ----- -- --- ---- -- --- ---- -- ------ ------<br>--- ----- -- ----,41419,41418.09999999404,40737.77,40740.40000000596,40754.441,41421.315,,1,it
screen,html.Screen,0_2_0_1_2,2021-11-25T15:01:30.443Z,,,,,,,,,,,,,,,,53,,,,,,,,,,,,,,444.7849999940372,,response,,,99,,,,,,Space,keypress(Space),,,,,---- -- comes -- ------ - ------- --- ----------<br>------------- ------ ------ ---- ---- ------- ----- -- ----<br>-------- ------- -- ---------- --- - --- ----- ----- ----<br>---- --- --- ----- --- ---- ---- ------- ----- ---- -------<br>--- --- -- ----- -- --- ---- -- --- ---- -- ------ ------<br>--- ----- -- ----,41867.09999999404,41866.09999999404,41404.644,41419.40000000596,41421.315,41871.312,,2,comes
screen,html.Screen,0_2_0_1_3,2021-11-25T15:01:30.875Z,,,,,,,,,,,,,,,,53,,,,,,,,,,,,,,426.78799999404146,,response,,,99,,,,,,Space,keypress(Space),,,,,---- -- ----- to ------ - ------- --- ----------<br>------------- ------ ------ ---- ---- ------- ----- -- ----<br>-------- ------- -- ---------- --- - --- ----- ----- ----<br>---- --- --- ----- --- ---- ---- ------- ----- ---- -------<br>--- --- -- ----- -- --- ---- -- --- ---- -- ------ ------<br>--- ----- -- ----,42299.19999998808,42298.09999999404,41854.642,41867.40000000596,41871.312,42304.952,,3,to
screen,html.Screen,0_2_0_1_4,2021-11-25T15:01:31.331Z,,,,,,,,,,,,,,,,53,,,,,,,,,,,,,,449.14799999404204,,response,,,99,,,,,,Space,keypress(Space),,,,,---- -- ----- -- having - ------- --- ----------<br>------------- ------ ------ ---- ---- ------- ----- -- ----<br>-------- ------- -- ---------- --- - --- ----- ----- ----<br>---- --- --- ----- --- ---- ---- ------- ----- ---- -------<br>--- --- -- ----- -- --- ---- -- --- ---- -- ------ ------<br>--- ----- -- ----,42755.30000001192,42754.09999999404,42288.28,42299.69999998808,42304.952,42771.476,,4,having
screen,html.Screen,0_2_0_1_5,2021-11-25T15:01:31.723Z,,,,,,,,,,,,,,,,53,,,,,,,,,,,,,,374.62399999403715,,response,,,99,,,,,,Space,keypress(Space),,,,,---- -- ----- -- ------ a ------- --- ----------<br>------------- ------ ------ ---- ---- ------- ----- -- ----<br>-------- ------- -- ---------- --- - --- ----- ----- ----<br>---- --- --- ----- --- ---- ---- ------- ----- ---- -------<br>--- --- -- ----- -- --- ---- -- --- ---- -- ------ ------<br>--- ----- -- ----,43147,43146.09999999404,42754.808,42755.59999999404,42771.476,43155.14,,5,a
screen,html.Screen,0_2_0_1_6,2021-11-25T15:01:32.115Z,,,,,,,,,,,,,,,,53,,,,,,,,,,,,,,382.8600000000006,,response,,,99,,,,,,Space,keypress(Space),,,,,---- -- ----- -- ------ - lasting --- ----------<br>------------- ------ ------ ---- ---- ------- ----- -- ----<br>-------- ------- -- ---------- --- - --- ----- ----- ----<br>---- --- --- ----- --- ---- ---- ------- ----- ---- -------<br>--- --- -- ----- -- --- ---- -- --- ---- -- ------ ------<br>--- ----- -- ----,43539.09999999404,43538,43138.468,43147.40000000596,43155.14,43555.201,,6,lasting
screen,html.Screen,0_2_0_1_7,2021-11-25T15:01:32.499Z,,,,,,,,,,,,,,,,53,,,,,,,,,,,,,,366.79899999999907,,response,,,99,,,,,,Space,keypress(Space),,,,,---- -- ----- -- ------ - ------- and ----------<br>------------- ------ ------ ---- ---- ------- ----- -- ----<br>-------- ------- -- ---------- --- - --- ----- ----- ----<br>---- --- --- ----- --- ---- ---- ------- ----- ---- -------<br>--- --- -- ----- -- --- ---- -- --- ---- -- ------ ------<br>--- ----- -- ----,43923,43922,43538.53,43539.30000001192,43555.201,43938.594,,7,and
screen,html.Screen,0_2_0_1_8,2021-11-25T15:01:32.891Z,,,,,,,,,,,,,,,,53,,,,,,,,,,,,,,375.4060000000027,,response,,,99,,,,,,Space,keypress(Space),,,,,---- -- ----- -- ------ - ------- --- fulfilling<br>------------- ------ ------ ---- ---- ------- ----- -- ----<br>-------- ------- -- ---------- --- - --- ----- ----- ----<br>---- --- --- ----- --- ---- ---- ------- ----- ---- -------<br>--- --- -- ----- -- --- ---- -- --- ---- -- ------ ------<br>--- ----- -- ----,44315,44314,43921.924,43923.30000001192,43938.594,44321.893,,8,fulfilling
screen,html.Screen,0_2_0_1_9,2021-11-25T15:01:33.275Z,,,,,,,,,,,,,,,,53,,,,,,,,,,,,,,376.1070000000036,,response,,,99,,,,,,Space,keypress(Space),,,,,"---- -- ----- -- ------ - ------- --- ----------<br>relationship, ------ ------ ---- ---- ------- ----- -- ----<br>-------- ------- -- ---------- --- - --- ----- ----- ----<br>---- --- --- ----- --- ---- ---- ------- ----- ---- -------<br>--- --- -- ----- -- --- ---- -- --- ---- -- ------ ------<br>--- ----- -- ----",44698.90000000596,44698,44305.225,44315.30000001192,44321.893,44705.556,,9,"relationship,"
screen,html.Screen,0_2_0_1_10,2021-11-25T15:01:33.635Z,,,,,,,,,,,,,,,,53,,,,,,,,,,,,,,352.3440000059636,,response,,,99,,,,,,Space,keypress(Space),,,,,---- -- ----- -- ------ - ------- --- ----------<br>------------- common ------ ---- ---- ------- ----- -- ----<br>-------- ------- -- ---------- --- - --- ----- ----- ----<br>---- --- --- ----- --- ---- ---- ------- ----- ---- -------<br>--- --- -- ----- -- --- ---- -- --- ---- -- ------ ------<br>--- ----- -- ----,45058.80000001192,45057.90000000596,44688.884,44699.19999998808,44705.556,45072.213,,10,common
screen,html.Screen,0_2_0_1_11,2021-11-25T15:01:34.019Z,,,,,,,,,,,,,,,,53,,,,,,,,,,,,,,369.6870000059571,,response,,,99,,,,,,Space,keypress(Space),,,,,---- -- ----- -- ------ - ------- --- ----------<br>------------- ------ wisdom ---- ---- ------- ----- -- ----<br>-------- ------- -- ---------- --- - --- ----- ----- ----<br>---- --- --- ----- --- ---- ---- ------- ----- ---- -------<br>--- --- -- ----- -- --- ---- -- --- ---- -- ------ ------<br>--- ----- -- ----,45442.80000001192,45441.90000000596,45055.543,45059.09999999404,45072.213,45455.625,,11,wisdom
screen,html.Screen,0_2_0_1_12,2021-11-25T15:01:34.355Z,,,,,,,,,,,,,,,,53,,,,,,,,,,,,,,322.27500000596046,,response,,,99,,,,,,Space,keypress(Space),,,,,---- -- ----- -- ------ - ------- --- ----------<br>------------- ------ ------ says ---- ------- ----- -- ----<br>-------- ------- -- ---------- --- - --- ----- ----- ----<br>---- --- --- ----- --- ---- ---- ------- ----- ---- -------<br>--- --- -- ----- -- --- ---- -- --- ---- -- ------ ------<br>--- ----- -- ----,45778.69999998808,45777.90000000596,45438.955,45443.09999999404,45455.625,45789.095,,12,says
screen,html.Screen,0_2_0_1_13,2021-11-25T15:01:34.691Z,,,,,,,,,,,,,,,,53,,,,,,,,,,,,,,324.8050000059593,,response,,,99,,,,,,Space,keypress(Space),,,,,---- -- ----- -- ------ - ------- --- ----------<br>------------- ------ ------ ---- that ------- ----- -- ----<br>-------- ------- -- ---------- --- - --- ----- ----- ----<br>---- --- --- ----- --- ---- ---- ------- ----- ---- -------<br>--- --- -- ----- -- --- ---- -- --- ---- -- ------ ------<br>--- ----- -- ----,46114.80000001192,46113.90000000596,45772.424,45779,45789.095,46122.491,,13,that
screen,html.Screen,0_2_0_1_14,2021-11-25T15:01:35.019Z,,,,,,,,,,,,,,,,53,,,,,,,,,,,,,,319.40900000595866,,response,,,99,,,,,,Space,keypress(Space),,,,,---- -- ----- -- ------ - ------- --- ----------<br>------------- ------ ------ ---- ---- feeling ----- -- ----<br>-------- ------- -- ---------- --- - --- ----- ----- ----<br>---- --- --- ----- --- ---- ---- ------- ----- ---- -------<br>--- --- -- ----- -- --- ---- -- --- ---- -- ------ ------<br>--- ----- -- ----,46442.69999998808,46441.90000000596,46105.821,46115,46122.491,46455.831,,14,feeling
screen,html.Screen,0_2_0_1_15,2021-11-25T15:01:35.363Z,,,,,,,,,,,,,,,,53,,,,,,,,,,,,,,329.9690000119226,,response,,,99,,,,,,Space,keypress(Space),,,,,---- -- ----- -- ------ - ------- --- ----------<br>------------- ------ ------ ---- ---- ------- close -- ----<br>-------- ------- -- ---------- --- - --- ----- ----- ----<br>---- --- --- ----- --- ---- ---- ------- ----- ---- -------<br>--- --- -- ----- -- --- ---- -- --- ---- -- ------ ------<br>--- ----- -- ----,46786.59999999404,46785.80000001192,46439.162,46442.90000000596,46455.831,46789.385,,15,close
screen,html.Screen,0_2_0_1_16,2021-11-25T15:01:35.715Z,,,,,,,,,,,,,,,,53,,,,,,,,,,,,,,348.4150000119189,,response,,,99,,,,,,Space,keypress(Space),,,,,---- -- ----- -- ------ - ------- --- ----------<br>------------- ------ ------ ---- ---- ------- ----- to ----<br>-------- ------- -- ---------- --- - --- ----- ----- ----<br>---- --- --- ----- --- ---- ---- ------- ----- ---- -------<br>--- --- -- ----- -- --- ---- -- --- ---- -- ------ ------<br>--- ----- -- ----,47138.59999999404,47137.80000001192,46772.713,46786.90000000596,46789.385,47156.137,,16,to
screen,html.Screen,0_2_0_1_17,2021-11-25T15:01:36.067Z,,,,,,,,,,,,,,,,53,,,,,,,,,,,,,,333.763000005958,,response,,,99,,,,,,Space,keypress(Space),,,,,---- -- ----- -- ------ - ------- --- ----------<br>------------- ------ ------ ---- ---- ------- ----- -- your<br>-------- ------- -- ---------- --- - --- ----- ----- ----<br>---- --- --- ----- --- ---- ---- ------- ----- ---- -------<br>--- --- -- ----- -- --- ---- -- --- ---- -- ------ ------<br>--- ----- -- ----,47490.69999998808,47489.90000000596,47139.466,47138.80000001192,47156.137,47506.179,,17,your
screen,html.Screen,0_2_0_1_18,2021-11-25T15:01:36.387Z,,,,,,,,,,,,,,,,53,,,,,,,,,,,,,,303.6210000119245,,response,,,99,,,,,,Space,keypress(Space),,,,,---- -- ----- -- ------ - ------- --- ----------<br>------------- ------ ------ ---- ---- ------- ----- -- ----<br>romantic ------- -- ---------- --- - --- ----- ----- ----<br>---- --- --- ----- --- ---- ---- ------- ----- ---- -------<br>--- --- -- ----- -- --- ---- -- --- ---- -- ------ ------<br>--- ----- -- ----,47810.5,47809.80000001192,47489.509,47491,47506.179,47822.844,,18,romantic
screen,html.Screen,0_2_0_1_19,2021-11-25T15:01:36.715Z,,,,,,,,,,,,,,,,53,,,,,,,,,,,,,,314.9560000119236,,response,,,99,,,,,,Space,keypress(Space),,,,,---- -- ----- -- ------ - ------- --- ----------<br>------------- ------ ------ ---- ---- ------- ----- -- ----<br>-------- partner -- ---------- --- - --- ----- ----- ----<br>---- --- --- ----- --- ---- ---- ------- ----- ---- -------<br>--- --- -- ----- -- --- ---- -- --- ---- -- ------ ------<br>--- ----- -- ----,48138.5,48137.80000001192,47806.175,47810.80000001192,47822.844,48139.734,,19,partner
screen,html.Screen,0_2_0_1_20,2021-11-25T15:01:37.027Z,,,,,,,,,,,,,,,,53,,,,,,,,,,,,,,309.96599998808233,,response,,,99,,,,,,Space,keypress(Space),,,,,---- -- ----- -- ------ - ------- --- ----------<br>------------- ------ ------ ---- ---- ------- ----- -- ----<br>-------- ------- is ---------- --- - --- ----- ----- ----<br>---- --- --- ----- --- ---- ---- ------- ----- ---- -------<br>--- --- -- ----- -- --- ---- -- --- ---- -- ------ ------<br>--- ----- -- ----,48450.59999999404,48449.69999998808,48123.062,48138.80000001192,48139.734,48456.452,,20,is
screen,html.Screen,0_2_0_1_21,2021-11-25T15:01:37.354Z,,,,,,,,,,,,,,,,53,,,,,,,,,,,,,,321.14799999404204,,response,,,99,,,,,,Space,keypress(Space),,,,,---- -- ----- -- ------ - ------- --- ----------<br>------------- ------ ------ ---- ---- ------- ----- -- ----<br>-------- ------- -- paramount. --- - --- ----- ----- ----<br>---- --- --- ----- --- ---- ---- ------- ----- ---- -------<br>--- --- -- ----- -- --- ---- -- --- ---- -- ------ ------<br>--- ----- -- ----,48778.5,48777.59999999404,48439.781,48450.80000001192,48456.452,48789.875,,21,paramount.
screen,html.Screen,0_2_0_1_22,2021-11-25T15:01:37.674Z,,,,,,,,,,,,,,,,53,,,,,,,,,,,,,,307.82499998807907,,response,,,99,,,,,,Space,keypress(Space),,,,,---- -- ----- -- ------ - ------- --- ----------<br>------------- ------ ------ ---- ---- ------- ----- -- ----<br>-------- ------- -- ---------- But - --- ----- ----- ----<br>---- --- --- ----- --- ---- ---- ------- ----- ---- -------<br>--- --- -- ----- -- --- ---- -- --- ---- -- ------ ------<br>--- ----- -- ----,49098.59999999404,49097.69999998808,48773.204,48779,48789.875,49106.581,,22,But
screen,html.Screen,0_2_0_1_23,2021-11-25T15:01:38.026Z,,,,,,,,,,,,,,,,53,,,,,,,,,,,,,,343.0189999940412,,response,,,99,,,,,,Space,keypress(Space),,,,,---- -- ----- -- ------ - ------- --- ----------<br>------------- ------ ------ ---- ---- ------- ----- -- ----<br>-------- ------- -- ---------- --- a --- ----- ----- ----<br>---- --- --- ----- --- ---- ---- ------- ----- ---- -------<br>--- --- -- ----- -- --- ---- -- --- ---- -- ------ ------<br>--- ----- -- ----,49450.40000000596,49449.59999999404,49089.911,49098.80000001192,49106.581,49456.68,,23,a
screen,html.Screen,0_2_0_1_24,2021-11-25T15:01:38.378Z,,,,,,,,,,,,,,,,53,,,,,,,,,,,,,,344.91999999403924,,response,,,99,,,,,,Space,keypress(Space),,,,,---- -- ----- -- ------ - ------- --- ----------<br>------------- ------ ------ ---- ---- ------- ----- -- ----<br>-------- ------- -- ---------- --- - new ----- ----- ----<br>---- --- --- ----- --- ---- ---- ------- ----- ---- -------<br>--- --- -- ----- -- --- ---- -- --- ---- -- ------ ------<br>--- ----- -- ----,49802.40000000596,49801.59999999404,49440.01,49450.69999998808,49456.68,49806.683,,24,new
screen,html.Screen,0_2_0_1_25,2021-11-25T15:01:38.682Z,,,,,,,,,,,,,,,,53,,,,,,,,,,,,,,298.91699999404227,,response,,,99,,,,,,Space,keypress(Space),,,,,---- -- ----- -- ------ - ------- --- ----------<br>------------- ------ ------ ---- ---- ------- ----- -- ----<br>-------- ------- -- ---------- --- - --- study ----- ----<br>---- --- --- ----- --- ---- ---- ------- ----- ---- -------<br>--- --- -- ----- -- --- ---- -- --- ---- -- ------ ------<br>--- ----- -- ----,50106.40000000596,50105.59999999404,49790.014,49802.59999999404,49806.683,50123.544,,25,study
screen,html.Screen,0_2_0_1_26,2021-11-25T15:01:39.018Z,,,,,,,,,,,,,,,,53,,,,,,,,,,,,,,318.1559999880774,,response,,,99,,,,,,Space,keypress(Space),,,,,---- -- ----- -- ------ - ------- --- ----------<br>------------- ------ ------ ---- ---- ------- ----- -- ----<br>-------- ------- -- ---------- --- - --- ----- finds ----<br>---- --- --- ----- --- ---- ---- ------- ----- ---- -------<br>--- --- -- ----- -- --- ---- -- --- ---- -- ------ ------<br>--- ----- -- ----,50442.40000000596,50441.69999998808,50106.873,50106.69999998808,50123.544,50456.966,,26,finds
screen,html.Screen,0_2_0_1_27,2021-11-25T15:01:39.355Z,,,,,,,,,,,,,,,,53,,,,,,,,,,,,,,321.03399999999965,,response,,,99,,,,,,Space,keypress(Space),,,,,---- -- ----- -- ------ - ------- --- ----------<br>------------- ------ ------ ---- ---- ------- ----- -- ----<br>-------- ------- -- ---------- --- - --- ----- ----- that<br>---- --- --- ----- --- ---- ---- ------- ----- ---- -------<br>--- --- -- ----- -- --- ---- -- --- ---- -- ------ ------<br>--- ----- -- ----,50778.80000001192,50778,50440.295,50442.80000001192,50456.966,50790.387,,27,that
screen,html.Screen,0_2_0_1_28,2021-11-25T15:01:39.650Z,,,,,,,,,,,,,,,,53,,,,,,,,,,,,,,283.2129999940371,,response,,,99,,,,,,Space,keypress(Space),,,,,---- -- ----- -- ------ - ------- --- ----------<br>------------- ------ ------ ---- ---- ------- ----- -- ----<br>-------- ------- -- ---------- --- - --- ----- ----- ----<br>it's --- --- ----- --- ---- ---- ------- ----- ---- -------<br>--- --- -- ----- -- --- ---- -- --- ---- -- ------ ------<br>--- ----- -- ----,51074.5,51073.59999999404,50773.716,50779.09999999404,50790.387,51090.473,,28,it's
screen,html.Screen,0_2_0_1_29,2021-11-25T15:01:39.978Z,,,,,,,,,,,,,,,,53,,,,,,,,,,,,,,311.1269999940414,,response,,,99,,,,,,Space,keypress(Space),,,,,---- -- ----- -- ------ - ------- --- ----------<br>------------- ------ ------ ---- ---- ------- ----- -- ----<br>-------- ------- -- ---------- --- - --- ----- ----- ----<br>---- not --- ----- --- ---- ---- ------- ----- ---- -------<br>--- --- -- ----- -- --- ---- -- --- ---- -- ------ ------<br>--- ----- -- ----,51402.40000000596,51401.59999999404,51073.802,51074.69999998808,51090.473,51407.081,,29,not
screen,html.Screen,0_2_0_1_30,2021-11-25T15:01:40.298Z,,,,,,,,,,,,,,,,53,,,,,,,,,,,,,,314.5189999940412,,response,,,99,,,,,,Space,keypress(Space),,,,,---- -- ----- -- ------ - ------- --- ----------<br>------------- ------ ------ ---- ---- ------- ----- -- ----<br>-------- ------- -- ---------- --- - --- ----- ----- ----<br>---- --- how ----- --- ---- ---- ------- ----- ---- -------<br>--- --- -- ----- -- --- ---- -- --- ---- -- ------ ------<br>--- ----- -- ----,51722.40000000596,51721.59999999404,51390.413,51402.69999998808,51407.081,51724.003,,30,how
screen,html.Screen,0_2_0_1_31,2021-11-25T15:01:40.610Z,,,,,,,,,,,,,,,,53,,,,,,,,,,,,,,309.59699999404256,,response,,,99,,,,,,Space,keypress(Space),,,,,---- -- ----- -- ------ - ------- --- ----------<br>------------- ------ ------ ---- ---- ------- ----- -- ----<br>-------- ------- -- ---------- --- - --- ----- ----- ----<br>---- --- --- close --- ---- ---- ------- ----- ---- -------<br>--- --- -- ----- -- --- ---- -- --- ---- -- ------ ------<br>--- ----- -- ----,52034.30000001192,52033.59999999404,51707.331,51722.69999998808,51724.003,52040.681,,31,close
screen,html.Screen,0_2_0_1_32,2021-11-25T15:01:40.930Z,,,,,,,,,,,,,,,,53,,,,,,,,,,,,,,312.9189999940427,,response,,,99,,,,,,Space,keypress(Space),,,,,---- -- ----- -- ------ - ------- --- ----------<br>------------- ------ ------ ---- ---- ------- ----- -- ----<br>-------- ------- -- ---------- --- - --- ----- ----- ----<br>---- --- --- ----- you ---- ---- ------- ----- ---- -------<br>--- --- -- ----- -- --- ---- -- --- ---- -- ------ ------<br>--- ----- -- ----,52354.30000001192,52353.59999999404,52024.011,52034.59999999404,52040.681,52357.429,,32,you
screen,html.Screen,0_2_0_1_33,2021-11-25T15:01:41.258Z,,,,,,,,,,,,,,,,53,,,,,,,,,,,,,,324.07100000000355,,response,,,99,,,,,,Space,keypress(Space),,,,,---- -- ----- -- ------ - ------- --- ----------<br>------------- ------ ------ ---- ---- ------- ----- -- ----<br>-------- ------- -- ---------- --- - --- ----- ----- ----<br>---- --- --- ----- --- feel ---- ------- ----- ---- -------<br>--- --- -- ----- -- --- ---- -- --- ---- -- ------ ------<br>--- ----- -- ----,52682.30000001192,52681.5,52340.759,52354.59999999404,52357.429,52690.773,,33,feel
screen,html.Screen,0_2_0_1_34,2021-11-25T15:01:41.562Z,,,,,,,,,,,,,,,,53,,,,,,,,,,,,,,294.72699999999895,,response,,,99,,,,,,Space,keypress(Space),,,,,---- -- ----- -- ------ - ------- --- ----------<br>------------- ------ ------ ---- ---- ------- ----- -- ----<br>-------- ------- -- ---------- --- - --- ----- ----- ----<br>---- --- --- ----- --- ---- that ------- ----- ---- -------<br>--- --- -- ----- -- --- ---- -- --- ---- -- ------ ------<br>--- ----- -- ----,52986.30000001192,52985.5,52674.104,52682.5,52690.773,52990.999,,34,that
screen,html.Screen,0_2_0_1_35,2021-11-25T15:01:41.898Z,,,,,,,,,,,,,,,,53,,,,,,,,,,,,,,330.50099999999657,,response,,,99,,,,,,Space,keypress(Space),,,,,---- -- ----- -- ------ - ------- --- ----------<br>------------- ------ ------ ---- ---- ------- ----- -- ----<br>-------- ------- -- ---------- --- - --- ----- ----- ----<br>---- --- --- ----- --- ---- ---- matters ----- ---- -------<br>--- --- -- ----- -- --- ---- -- --- ---- -- ------ ------<br>--- ----- -- ----,53322.19999998808,53321.5,52974.327,52986.5,52990.999,53324.38,,35,matters
screen,html.Screen,0_2_0_1_36,2021-11-25T15:01:42.186Z,,,,,,,,,,,,,,,,53,,,,,,,,,,,,,,285.0200000059631,,response,,,99,,,,,,Space,keypress(Space),,,,,"---- -- ----- -- ------ - ------- --- ----------<br>------------- ------ ------ ---- ---- ------- ----- -- ----<br>-------- ------- -- ---------- --- - --- ----- ----- ----<br>---- --- --- ----- --- ---- ---- ------- most, ---- -------<br>--- --- -- ----- -- --- ---- -- --- ---- -- ------ ------<br>--- ----- -- ----",53610.5,53609.40000000596,53307.709,53322.5,53324.38,53624.425,,36,"most,"
screen,html.Screen,0_2_0_1_37,2021-11-25T15:01:42.490Z,,,,,,,,,,,,,,,,53,,,,,,,,,,,,,,289.0749999999971,,response,,,99,,,,,,Space,keypress(Space),,,,,---- -- ----- -- ------ - ------- --- ----------<br>------------- ------ ------ ---- ---- ------- ----- -- ----<br>-------- ------- -- ---------- --- - --- ----- ----- ----<br>---- --- --- ----- --- ---- ---- ------- ----- it's -------<br>--- --- -- ----- -- --- ---- -- --- ---- -- ------ ------<br>--- ----- -- ----,53914.30000001192,53913.5,53607.755,53610.69999998808,53624.425,53924.488,,37,it's
screen,html.Screen,0_2_0_1_38,2021-11-25T15:01:42.890Z,,,,,,,,,,,,,,,,53,,,,,,,,,,,,,,389.01200000000244,,response,,,99,,,,,,Space,keypress(Space),,,,,---- -- ----- -- ------ - ------- --- ----------<br>------------- ------ ------ ---- ---- ------- ----- -- ----<br>-------- ------- -- ---------- --- - --- ----- ----- ----<br>---- --- --- ----- --- ---- ---- ------- ----- ---- whether<br>--- --- -- ----- -- --- ---- -- --- ---- -- ------ ------<br>--- ----- -- ----,54314.40000000596,54313.5,53907.818,53914.40000000596,53924.488,54324.469,,38,whether
screen,html.Screen,0_2_0_1_39,2021-11-25T15:01:43.154Z,,,,,,,,,,,,,,,,53,,,,,,,,,,,,,,252.93100000596314,,response,,,99,,,,,,Space,keypress(Space),,,,,---- -- ----- -- ------ - ------- --- ----------<br>------------- ------ ------ ---- ---- ------- ----- -- ----<br>-------- ------- -- ---------- --- - --- ----- ----- ----<br>---- --- --- ----- --- ---- ---- ------- ----- ---- -------<br>you --- -- ----- -- --- ---- -- --- ---- -- ------ ------<br>--- ----- -- ----,54578.19999998808,54577.40000000596,54307.801,54314.59999999404,54324.469,54591.454,,39,you
screen,html.Screen,0_2_0_1_40,2021-11-25T15:01:43.474Z,,,,,,,,,,,,,,,,53,,,,,,,,,,,,,,305.94600000596256,,response,,,99,,,,,,Space,keypress(Space),,,,,---- -- ----- -- ------ - ------- --- ----------<br>------------- ------ ------ ---- ---- ------- ----- -- ----<br>-------- ------- -- ---------- --- - --- ----- ----- ----<br>---- --- --- ----- --- ---- ---- ------- ----- ---- -------<br>--- are -- ----- -- --- ---- -- --- ---- -- ------ ------<br>--- ----- -- ----,54898.09999999404,54897.40000000596,54574.781,54578.40000000596,54591.454,54908.079,,40,are
screen,html.Screen,0_2_0_1_41,2021-11-25T15:01:43.794Z,,,,,,,,,,,,,,,,53,,,,,,,,,,,,,,309.32100000596256,,response,,,99,,,,,,Space,keypress(Space),,,,,---- -- ----- -- ------ - ------- --- ----------<br>------------- ------ ------ ---- ---- ------- ----- -- ----<br>-------- ------- -- ---------- --- - --- ----- ----- ----<br>---- --- --- ----- --- ---- ---- ------- ----- ---- -------<br>--- --- as ----- -- --- ---- -- --- ---- -- ------ ------<br>--- ----- -- ----,55218.19999998808,55217.40000000596,54891.409,54898.40000000596,54908.079,55224.714,,41,as
screen,html.Screen,0_2_0_1_42,2021-11-25T15:01:44.122Z,,,,,,,,,,,,,,,,53,,,,,,,,,,,,,,320.6860000059605,,response,,,99,,,,,,Space,keypress(Space),,,,,---- -- ----- -- ------ - ------- --- ----------<br>------------- ------ ------ ---- ---- ------- ----- -- ----<br>-------- ------- -- ---------- --- - --- ----- ----- ----<br>---- --- --- ----- --- ---- ---- ------- ----- ---- -------<br>--- --- -- close -- --- ---- -- --- ---- -- ------ ------<br>--- ----- -- ----,55546.09999999404,55545.40000000596,55208.046,55218.40000000596,55224.714,55558.33,,42,close
screen,html.Screen,0_2_0_1_43,2021-11-25T15:01:44.426Z,,,,,,,,,,,,,,,,53,,,,,,,,,,,,,,291.0700000059587,,response,,,99,,,,,,Space,keypress(Space),,,,,---- -- ----- -- ------ - ------- --- ----------<br>------------- ------ ------ ---- ---- ------- ----- -- ----<br>-------- ------- -- ---------- --- - --- ----- ----- ----<br>---- --- --- ----- --- ---- ---- ------- ----- ---- -------<br>--- --- -- ----- as --- ---- -- --- ---- -- ------ ------<br>--- ----- -- ----,55850.09999999404,55849.40000000596,55541.658,55546.40000000596,55558.33,55858.361,,43,as
screen,html.Screen,0_2_0_1_44,2021-11-25T15:01:44.778Z,,,,,,,,,,,,,,,,53,,,,,,,,,,,,,,343.0390000059633,,response,,,99,,,,,,Space,keypress(Space),,,,,---- -- ----- -- ------ - ------- --- ----------<br>------------- ------ ------ ---- ---- ------- ----- -- ----<br>-------- ------- -- ---------- --- - --- ----- ----- ----<br>---- --- --- ----- --- ---- ---- ------- ----- ---- -------<br>--- --- -- ----- -- you ---- -- --- ---- -- ------ ------<br>--- ----- -- ----,56202.09999999404,56201.40000000596,55841.69,55850.40000000596,55858.361,56208.364,,44,you
screen,html.Screen,0_2_0_1_45,2021-11-25T15:01:45.098Z,,,,,,,,,,,,,,,,53,,,,,,,,,,,,,,312.93600001191953,,response,,,99,,,,,,Space,keypress(Space),,,,,---- -- ----- -- ------ - ------- --- ----------<br>------------- ------ ------ ---- ---- ------- ----- -- ----<br>-------- ------- -- ---------- --- - --- ----- ----- ----<br>---- --- --- ----- --- ---- ---- ------- ----- ---- -------<br>--- --- -- ----- -- --- want -- --- ---- -- ------ ------<br>--- ----- -- ----,56522.09999999404,56521.30000001192,56191.695,56202.30000001192,56208.364,56525.08,,45,want
screen,html.Screen,0_2_0_1_46,2021-11-25T15:01:45.690Z,,,,,,,,,,,,,,,,53,,,,,,,,,,,,,,588.2200000119192,,response,,,99,,,,,,Space,keypress(Space),,,,,---- -- ----- -- ------ - ------- --- ----------<br>------------- ------ ------ ---- ---- ------- ----- -- ----<br>-------- ------- -- ---------- --- - --- ----- ----- ----<br>---- --- --- ----- --- ---- ---- ------- ----- ---- -------<br>--- --- -- ----- -- --- ---- to --- ---- -- ------ ------<br>--- ----- -- ----,57114,57113.30000001192,56508.411,56522.30000001192,56525.08,57125.423,,46,to
screen,html.Screen,0_2_0_1_47,2021-11-25T15:01:45.994Z,,,,,,,,,,,,,,,,53,,,,,,,,,,,,,,291.77699998807657,,response,,,99,,,,,,Space,keypress(Space),,,,,"---- -- ----- -- ------ - ------- --- ----------<br>------------- ------ ------ ---- ---- ------- ----- -- ----<br>-------- ------- -- ---------- --- - --- ----- ----- ----<br>---- --- --- ----- --- ---- ---- ------- ----- ---- -------<br>--- --- -- ----- -- --- ---- -- be, ---- -- ------ ------<br>--- ----- -- ----",57418.09999999404,57417.19999998808,57108.751,57114.30000001192,57125.423,57425.41,,47,"be,"
screen,html.Screen,0_2_0_1_48,2021-11-25T15:01:46.330Z,,,,,,,,,,,,,,,,53,,,,,,,,,,,,,,327.7899999880756,,response,,,99,,,,,,Space,keypress(Space),,,,,---- -- ----- -- ------ - ------- --- ----------<br>------------- ------ ------ ---- ---- ------- ----- -- ----<br>-------- ------- -- ---------- --- - --- ----- ----- ----<br>---- --- --- ----- --- ---- ---- ------- ----- ---- -------<br>--- --- -- ----- -- --- ---- -- --- even -- ------ ------<br>--- ----- -- ----,57754,57753.19999998808,57408.74,57418.19999998808,57425.41,57758.749,,48,even
screen,html.Screen,0_2_0_1_49,2021-11-25T15:01:46.618Z,,,,,,,,,,,,,,,,53,,,,,,,,,,,,,,282.45099998807564,,response,,,99,,,,,,Space,keypress(Space),,,,,---- -- ----- -- ------ - ------- --- ----------<br>------------- ------ ------ ---- ---- ------- ----- -- ----<br>-------- ------- -- ---------- --- - --- ----- ----- ----<br>---- --- --- ----- --- ---- ---- ------- ----- ---- -------<br>--- --- -- ----- -- --- ---- -- --- ---- if ------ ------<br>--- ----- -- ----,58042,58041.19999998808,57742.08,57754.30000001192,57758.749,58058.971,,49,if
screen,html.Screen,0_2_0_1_50,2021-11-25T15:01:46.986Z,,,,,,,,,,,,,,,,53,,,,,,,,,,,,,,350.22899998808134,,response,,,99,,,,,,Space,keypress(Space),,,,,---- -- ----- -- ------ - ------- --- ----------<br>------------- ------ ------ ---- ---- ------- ----- -- ----<br>-------- ------- -- ---------- --- - --- ----- ----- ----<br>---- --- --- ----- --- ---- ---- ------- ----- ---- -------<br>--- --- -- ----- -- --- ---- -- --- ---- -- that's ------<br>--- ----- -- ----,58410,58409.19999998808,58042.299,58042.30000001192,58058.971,58425.652,,50,that's
screen,html.Screen,0_2_0_1_51,2021-11-25T15:01:47.306Z,,,,,,,,,,,,,,,,53,,,,,,,,,,,,,,303.5479999880772,,response,,,99,,,,,,Space,keypress(Space),,,,,---- -- ----- -- ------ - ------- --- ----------<br>------------- ------ ------ ---- ---- ------- ----- -- ----<br>-------- ------- -- ---------- --- - --- ----- ----- ----<br>---- --- --- ----- --- ---- ---- ------- ----- ---- -------<br>--- --- -- ----- -- --- ---- -- --- ---- -- ------ really<br>--- ----- -- ----,58730,58729.19999998808,58408.982,58410.19999998808,58425.652,58742.405,,51,really
screen,html.Screen,0_2_0_1_52,2021-11-25T15:01:47.666Z,,,,,,,,,,,,,,,,53,,,,,,,,,,,,,,346.79499998808024,,response,,,99,,,,,,Space,keypress(Space),,,,,---- -- ----- -- ------ - ------- --- ----------<br>------------- ------ ------ ---- ---- ------- ----- -- ----<br>-------- ------- -- ---------- --- - --- ----- ----- ----<br>---- --- --- ----- --- ---- ---- ------- ----- ---- -------<br>--- --- -- ----- -- --- ---- -- --- ---- -- ------ ------<br>not ----- -- ----,59090,59089.19999998808,58725.735,58730.19999998808,58742.405,59092.526,,52,not
screen,html.Screen,0_2_0_1_53,2021-11-25T15:01:47.994Z,,,,,,,,,,,,,,,,53,,,,,,,,,,,,,,324.5739999940415,,response,,,99,,,,,,Space,keypress(Space),,,,,---- -- ----- -- ------ - ------- --- ----------<br>------------- ------ ------ ---- ---- ------- ----- -- ----<br>-------- ------- -- ---------- --- - --- ----- ----- ----<br>---- --- --- ----- --- ---- ---- ------- ----- ---- -------<br>--- --- -- ----- -- --- ---- -- --- ---- -- ------ ------<br>--- close -- ----,59417.90000000596,59417.09999999404,59075.855,59090.19999998808,59092.526,59425.896,,53,close
screen,html.Screen,0_2_0_1_54,2021-11-25T15:01:48.338Z,,,,,,,,,,,,,,,,53,,,,,,,,,,,,,,335.2039999940389,,response,,,99,,,,,,Space,keypress(Space),,,,,---- -- ----- -- ------ - ------- --- ----------<br>------------- ------ ------ ---- ---- ------- ----- -- ----<br>-------- ------- -- ---------- --- - --- ----- ----- ----<br>---- --- --- ----- --- ---- ---- ------- ----- ---- -------<br>--- --- -- ----- -- --- ---- -- --- ---- -- ------ ------<br>--- ----- at ----,59761.90000000596,59761.09999999404,59409.226,59418.09999999404,59425.896,59776.044,,54,at
screen,html.Screen,0_2_0_1_55,2021-11-25T15:01:48.925Z,,,,,,,,,,,,,,,,53,,,,,,,,,,,,,,569.0559999940378,,response,,,99,,,,,,Space,keypress(Space),,,,,---- -- ----- -- ------ - ------- --- ----------<br>------------- ------ ------ ---- ---- ------- ----- -- ----<br>-------- ------- -- ---------- --- - --- ----- ----- ----<br>---- --- --- ----- --- ---- ---- ------- ----- ---- -------<br>--- --- -- ----- -- --- ---- -- --- ---- -- ------ ------<br>--- ----- -- all.,60345.90000000596,60345.09999999404,59759.373,59762.09999999404,59776.044,60359.46,,55,all.
Item 99,flow.Loop,0_2_0_1,2021-11-25T15:01:48.929Z,,,,,,,,,,,,,,,,,,,,,,,,,,,,,,22241.437999994043,,completion,,,,B,,,,,,,,,,silence,,60350.19999998808,60345.09999999404,38070.322,38076.59999999404,38103.662,60359.46,,,
Question 1,html.Screen,0_2_0_2,2021-11-25T15:01:55.469Z,,,,,,,,,,,,,,,,,,,,,,,,,,,true,FALSE,,6529.040000000001,,response,,,99,B,,,,,FALSE,click #choice-2,,,,silence,,66889.90000000596,66888.5,60342.79,60350.40000000596,60359.46,66895.29,,,
Question 2,html.Screen,0_2_0_3,2021-11-25T15:01:58.773Z,,,,,,,,,,,,,,,,,,,,,,,,,,,true,TRUE,,3297.0100000119273,,response,,,99,B,,,,,TRUE,click #choice-1,,,,silence,,70193.40000000596,70192.30000001192,66878.596,66890.19999998808,66895.29,70195.224,,,
Item 99,flow.Sequence,0_2_0,2021-11-25T15:01:58.773Z,,,,,,,,,,,,,,,,,,,,,,,,,,,,,,42107.729000011925,,completion,,,,,,,,,,,,,,,,70193.80000001192,70192.30000001192,28067.9,28084.90000000596,28084.571,70195.224,,,
Holding screen,html.Screen,0_2_1_0,2021-11-25T15:02:08.762Z,,,,,,,,,,,,,,,,,,,,,,,,,,,,,,10002.61,,timeout,,,,,,,,,,,,,,,,80182.5,80181.164,70178.555,70194.09999999404,70195.224,80197.834,,,
screen,html.Screen,0_2_1_1_0,2021-11-25T15:02:10.244Z,,,,,,,,,,,,,,,,54,,,,,,,,,,,,,,1466.6659999999974,,response,,,100,,,,,,Space,keypress(Space),,,,,At --- ---- --- ------ ----- ------- ---- -- --- ------- --<br>------- ---------- ------ -- ----- -- ----- -- ---- ------<br>--- ----- --- --- ------ -------- ----- --- ------ ----- --<br>----- ----- ---------- --- --- ------ ------ ---- -- ------<br>------- --- ------ ----- --- ---- ------- -- ---- --- --<br>------- ------,81665.30000001192,81664.5,80181.164,80182.90000000596,80197.834,81665.039,,0,At
screen,html.Screen,0_2_1_1_1,2021-11-25T15:02:11.188Z,,,,,,,,,,,,,,,,54,,,,,,,,,,,,,,942.8610000059562,,response,,,100,,,,,,Space,keypress(Space),,,,,-- the ---- --- ------ ----- ------- ---- -- --- ------- --<br>------- ---------- ------ -- ----- -- ----- -- ---- ------<br>--- ----- --- --- ------ -------- ----- --- ------ ----- --<br>----- ----- ---------- --- --- ------ ------ ---- -- ------<br>------- --- ------ ----- --- ---- ------- -- ---- --- --<br>------- ------,82608.59999999404,82607.90000000596,81648.368,81665.59999999404,81665.039,82615.172,,1,the
screen,html.Screen,0_2_1_1_2,2021-11-25T15:02:11.852Z,,,,,,,,,,,,,,,,54,,,,,,,,,,,,,,656.7280000059545,,response,,,100,,,,,,Space,keypress(Space),,,,,-- --- time --- ------ ----- ------- ---- -- --- ------- --<br>------- ---------- ------ -- ----- -- ----- -- ---- ------<br>--- ----- --- --- ------ -------- ----- --- ------ ----- --<br>----- ----- ---------- --- --- ------ ------ ---- -- ------<br>------- --- ------ ----- --- ---- ------- -- ---- --- --<br>------- ------,83272.59999999404,83271.90000000596,82598.502,82608.90000000596,82615.172,83282.032,,2,time
screen,html.Screen,0_2_1_1_3,2021-11-25T15:02:12.620Z,,,,,,,,,,,,,,,,54,,,,,,,,,,,,,,757.7680000119144,,response,,,100,,,,,,Space,keypress(Space),,,,,-- --- ---- the ------ ----- ------- ---- -- --- ------- --<br>------- ---------- ------ -- ----- -- ----- -- ---- ------<br>--- ----- --- --- ------ -------- ----- --- ------ ----- --<br>----- ----- ---------- --- --- ------ ------ ---- -- ------<br>------- --- ------ ----- --- ---- ------- -- ---- --- --<br>------- ------,84040.59999999404,84039.80000001192,83265.362,83272.90000000596,83282.032,84048.869,,3,the
screen,html.Screen,0_2_1_1_4,2021-11-25T15:02:13.380Z,,,,,,,,,,,,,,,,54,,,,,,,,,,,,,,750.9310000119149,,response,,,100,,,,,,Space,keypress(Space),,,,,-- --- ---- --- French ----- ------- ---- -- --- ------- --<br>------- ---------- ------ -- ----- -- ----- -- ---- ------<br>--- ----- --- --- ------ -------- ----- --- ------ ----- --<br>----- ----- ---------- --- --- ------ ------ ---- -- ------<br>------- --- ------ ----- --- ---- ------- -- ---- --- --<br>------- ------,84800.5,84799.80000001192,84032.199,84040.80000001192,84048.869,84815.746,,4,French
screen,html.Screen,0_2_1_1_5,2021-11-25T15:02:13.988Z,,,,,,,,,,,,,,,,54,,,,,,,,,,,,,,592.0540000119217,,response,,,100,,,,,,Space,keypress(Space),,,,,-- --- ---- --- ------ crown ------- ---- -- --- ------- --<br>------- ---------- ------ -- ----- -- ----- -- ---- ------<br>--- ----- --- --- ------ -------- ----- --- ------ ----- --<br>----- ----- ---------- --- --- ------ ------ ---- -- ------<br>------- --- ------ ----- --- ---- ------- -- ---- --- --<br>------- ------,85408.5,85407.80000001192,84799.076,84800.80000001192,84815.746,85415.969,,5,crown
screen,html.Screen,0_2_1_1_6,2021-11-25T15:02:14.772Z,,,,,,,,,,,,,,,,54,,,,,,,,,,,,,,775.6309999940422,,response,,,100,,,,,,Space,keypress(Space),,,,,-- --- ---- --- ------ ----- secured ---- -- --- ------- --<br>------- ---------- ------ -- ----- -- ----- -- ---- ------<br>--- ----- --- --- ------ -------- ----- --- ------ ----- --<br>----- ----- ---------- --- --- ------ ------ ---- -- ------<br>------- --- ------ ----- --- ---- ------- -- ---- --- --<br>------- ------,86192.40000000596,86191.59999999404,85399.298,85408.69999998808,85415.969,86199.452,,6,secured
screen,html.Screen,0_2_1_1_7,2021-11-25T15:02:15.356Z,,,,,,,,,,,,,,,,54,,,,,,,,,,,,,,576.1479999940348,,response,,,100,,,,,,Space,keypress(Space),,,,,-- --- ---- --- ------ ----- ------- much -- --- ------- --<br>------- ---------- ------ -- ----- -- ----- -- ---- ------<br>--- ----- --- --- ------ -------- ----- --- ------ ----- --<br>----- ----- ---------- --- --- ------ ------ ---- -- ------<br>------- --- ------ ----- --- ---- ------- -- ---- --- --<br>------- ------,86776.5,86775.59999999404,86182.782,86192.69999998808,86199.452,86782.922,,7,much
screen,html.Screen,0_2_1_1_8,2021-11-25T15:02:16.116Z,,,,,,,,,,,,,,,,54,,,,,,,,,,,,,,752.6779999940336,,response,,,100,,,,,,Space,keypress(Space),,,,,-- --- ---- --- ------ ----- ------- ---- of --- ------- --<br>------- ---------- ------ -- ----- -- ----- -- ---- ------<br>--- ----- --- --- ------ -------- ----- --- ------ ----- --<br>----- ----- ---------- --- --- ------ ------ ---- -- ------<br>------- --- ------ ----- --- ---- ------- -- ---- --- --<br>------- ------,87536.40000000596,87535.59999999404,86766.252,86776.69999998808,86782.922,87549.789,,8,of
screen,html.Screen,0_2_1_1_9,2021-11-25T15:02:16.684Z,,,,,,,,,,,,,,,,54,,,,,,,,,,,,,,553.8109999940352,,response,,,100,,,,,,Space,keypress(Space),,,,,-- --- ---- --- ------ ----- ------- ---- -- its ------- --<br>------- ---------- ------ -- ----- -- ----- -- ---- ------<br>--- ----- --- --- ------ -------- ----- --- ------ ----- --<br>----- ----- ---------- --- --- ------ ------ ---- -- ------<br>------- --- ------ ----- --- ---- ------- -- ---- --- --<br>------- ------,88104.30000001192,88103.59999999404,87533.119,87536.59999999404,87549.789,88116.666,,9,its
screen,html.Screen,0_2_1_1_10,2021-11-25T15:02:17.323Z,,,,,,,,,,,,,,,,54,,,,,,,,,,,,,,626.8340000000026,,response,,,100,,,,,,Space,keypress(Space),,,,,-- --- ---- --- ------ ----- ------- ---- -- --- revenue --<br>------- ---------- ------ -- ----- -- ----- -- ---- ------<br>--- ----- --- --- ------ -------- ----- --- ------ ----- --<br>----- ----- ---------- --- --- ------ ------ ---- -- ------<br>------- --- ------ ----- --- ---- ------- -- ---- --- --<br>------- ------,88744.30000001192,88743.5,88099.995,88104.59999999404,88116.666,88750.12,,10,revenue
screen,html.Screen,0_2_1_1_11,2021-11-25T15:02:17.915Z,,,,,,,,,,,,,,,,54,,,,,,,,,,,,,,585.3800000000047,,response,,,100,,,,,,Space,keypress(Space),,,,,-- --- ---- --- ------ ----- ------- ---- -- --- ------- by<br>------- ---------- ------ -- ----- -- ----- -- ---- ------<br>--- ----- --- --- ------ -------- ----- --- ------ ----- --<br>----- ----- ---------- --- --- ------ ------ ---- -- ------<br>------- --- ------ ----- --- ---- ------- -- ---- --- --<br>------- ------,89336.30000001192,89335.5,88733.45,88744.5,88750.12,89350.121,,11,by
screen,html.Screen,0_2_1_1_12,2021-11-25T15:02:18.611Z,,,,,,,,,,,,,,,,54,,,,,,,,,,,,,,681.3790000000008,,response,,,100,,,,,,Space,keypress(Space),,,,,-- --- ---- --- ------ ----- ------- ---- -- --- ------- --<br>issuing ---------- ------ -- ----- -- ----- -- ---- ------<br>--- ----- --- --- ------ -------- ----- --- ------ ----- --<br>----- ----- ---------- --- --- ------ ------ ---- -- ------<br>------- --- ------ ----- --- ---- ------- -- ---- --- --<br>------- ------,90032.30000001192,90031.5,89333.452,89336.5,89350.121,90033.912,,12,issuing
screen,html.Screen,0_2_1_1_13,2021-11-25T15:02:19.243Z,,,,,,,,,,,,,,,,54,,,,,,,,,,,,,,629.5880000000034,,response,,,100,,,,,,Space,keypress(Space),,,,,-- --- ---- --- ------ ----- ------- ---- -- --- ------- --<br>------- government ------ -- ----- -- ----- -- ---- ------<br>--- ----- --- --- ------ -------- ----- --- ------ ----- --<br>----- ----- ---------- --- --- ------ ------ ---- -- ------<br>------- --- ------ ----- --- ---- ------- -- ---- --- --<br>------- ------,90664.19999998808,90663.5,90017.24,90032.5,90033.912,90667.255,,13,government
screen,html.Screen,0_2_1_1_14,2021-11-25T15:02:19.923Z,,,,,,,,,,,,,,,,54,,,,,,,,,,,,,,676.1450000059558,,response,,,100,,,,,,Space,keypress(Space),,,,,-- --- ---- --- ------ ----- ------- ---- -- --- ------- --<br>------- ---------- bonds. -- ----- -- ----- -- ---- ------<br>--- ----- --- --- ------ -------- ----- --- ------ ----- --<br>----- ----- ---------- --- --- ------ ------ ---- -- ------<br>------- --- ------ ----- --- ---- ------- -- ---- --- --<br>------- ------,91344.09999999404,91343.40000000596,90650.585,90664.5,90667.255,91350.772,,14,bonds.
screen,html.Screen,0_2_1_1_15,2021-11-25T15:02:20.524Z,,,,,,,,,,,,,,,,54,,,,,,,,,,,,,,592.9279999880819,,response,,,100,,,,,,Space,keypress(Space),,,,,-- --- ---- --- ------ ----- ------- ---- -- --- ------- --<br>------- ---------- ------ In ----- -- ----- -- ---- ------<br>--- ----- --- --- ------ -------- ----- --- ------ ----- --<br>----- ----- ---------- --- --- ------ ------ ---- -- ------<br>------- --- ------ ----- --- ---- ------- -- ---- --- --<br>------- ------,91944.5,91943.69999998808,91334.102,91344.40000000596,91350.772,91950.81,,15,In
screen,html.Screen,0_2_1_1_16,2021-11-25T15:02:21.539Z,,,,,,,,,,,,,,,,54,,,,,,,,,,,,,,1008.3899999880814,,response,,,100,,,,,,Space,keypress(Space),,,,,"-- --- ---- --- ------ ----- ------- ---- -- --- ------- --<br>------- ---------- ------ -- 1727, -- ----- -- ---- ------<br>--- ----- --- --- ------ -------- ----- --- ------ ----- --<br>----- ----- ---------- --- --- ------ ------ ---- -- ------<br>------- --- ------ ----- --- ---- ------- -- ---- --- --<br>------- ------",92960.09999999404,92959.19999998808,91934.141,91944.80000001192,91950.81,92967.928,,16,"1727,"
screen,html.Screen,0_2_1_1_17,2021-11-25T15:02:22.227Z,,,,,,,,,,,,,,,,54,,,,,,,,,,,,,,679.372000011921,,response,,,100,,,,,,Space,keypress(Space),,,,,-- --- ---- --- ------ ----- ------- ---- -- --- ------- --<br>------- ---------- ------ -- ----- in ----- -- ---- ------<br>--- ----- --- --- ------ -------- ----- --- ------ ----- --<br>----- ----- ---------- --- --- ------ ------ ---- -- ------<br>------- --- ------ ----- --- ---- ------- -- ---- --- --<br>------- ------,93648,93647.30000001192,92951.257,92960.30000001192,92967.928,93651.43,,17,in
screen,html.Screen,0_2_1_1_18,2021-11-25T15:02:22.867Z,,,,,,,,,,,,,,,,54,,,,,,,,,,,,,,635.769999988086,,response,,,100,,,,,,Space,keypress(Space),,,,,-- --- ---- --- ------ ----- ------- ---- -- --- ------- --<br>------- ---------- ------ -- ----- -- order -- ---- ------<br>--- ----- --- --- ------ -------- ----- --- ------ ----- --<br>----- ----- ---------- --- --- ------ ------ ---- -- ------<br>------- --- ------ ----- --- ---- ------- -- ---- --- --<br>------- ------,94288.19999998808,94287.19999998808,93634.759,93648.30000001192,93651.43,94301.547,,18,order
screen,html.Screen,0_2_1_1_19,2021-11-25T15:02:23.539Z,,,,,,,,,,,,,,,,54,,,,,,,,,,,,,,657.6529999880731,,response,,,100,,,,,,Space,keypress(Space),,,,,-- --- ---- --- ------ ----- ------- ---- -- --- ------- --<br>------- ---------- ------ -- ----- -- ----- to ---- ------<br>--- ----- --- --- ------ -------- ----- --- ------ ----- --<br>----- ----- ---------- --- --- ------ ------ ---- -- ------<br>------- --- ------ ----- --- ---- ------- -- ---- --- --<br>------- ------,94960,94959.19999998808,94284.877,94288.40000000596,94301.547,94968.357,,19,to
screen,html.Screen,0_2_1_1_20,2021-11-25T15:02:24.155Z,,,,,,,,,,,,,,,,54,,,,,,,,,,,,,,606.8429999880755,,response,,,100,,,,,,Space,keypress(Space),,,,,-- --- ---- --- ------ ----- ------- ---- -- --- ------- --<br>------- ---------- ------ -- ----- -- ----- -- save ------<br>--- ----- --- --- ------ -------- ----- --- ------ ----- --<br>----- ----- ---------- --- --- ------ ------ ---- -- ------<br>------- --- ------ ----- --- ---- ------- -- ---- --- --<br>------- ------,95575.90000000596,95575.19999998808,94951.687,94960.19999998808,94968.357,95585.257,,20,save
screen,html.Screen,0_2_1_1_21,2021-11-25T15:02:24.835Z,,,,,,,,,,,,,,,,54,,,,,,,,,,,,,,669.8429999940417,,response,,,100,,,,,,Space,keypress(Space),,,,,"-- --- ---- --- ------ ----- ------- ---- -- --- ------- --<br>------- ---------- ------ -- ----- -- ----- -- ---- money,<br>--- ----- --- --- ------ -------- ----- --- ------ ----- --<br>----- ----- ---------- --- --- ------ ------ ---- -- ------<br>------- --- ------ ----- --- ---- ------- -- ---- --- --<br>------- ------",96256,96255.09999999404,95568.586,95576.19999998808,95585.257,96268.583,,21,"money,"
screen,html.Screen,0_2_1_1_22,2021-11-25T15:02:25.491Z,,,,,,,,,,,,,,,,54,,,,,,,,,,,,,,642.5169999940408,,response,,,100,,,,,,Space,keypress(Space),,,,,-- --- ---- --- ------ ----- ------- ---- -- --- ------- --<br>------- ---------- ------ -- ----- -- ----- -- ---- ------<br>the ----- --- --- ------ -------- ----- --- ------ ----- --<br>----- ----- ---------- --- --- ------ ------ ---- -- ------<br>------- --- ------ ----- --- ---- ------- -- ---- --- --<br>------- ------,96911.90000000596,96911.09999999404,96251.914,96256.19999998808,96268.583,96918.943,,22,the
screen,html.Screen,0_2_1_1_23,2021-11-25T15:02:26.084Z,,,,,,,,,,,,,,,,54,,,,,,,,,,,,,,584.6569999940402,,response,,,100,,,,,,Space,keypress(Space),,,,,-- --- ---- --- ------ ----- ------- ---- -- --- ------- --<br>------- ---------- ------ -- ----- -- ----- -- ---- ------<br>--- state --- --- ------ -------- ----- --- ------ ----- --<br>----- ----- ---------- --- --- ------ ------ ---- -- ------<br>------- --- ------ ----- --- ---- ------- -- ---- --- --<br>------- ------,97504.30000001192,97503.59999999404,96902.272,96912.09999999404,96918.943,97519.031,,23,state
screen,html.Screen,0_2_1_1_24,2021-11-25T15:02:26.683Z,,,,,,,,,,,,,,,,54,,,,,,,,,,,,,,584.0689999940369,,response,,,100,,,,,,Space,keypress(Space),,,,,-- --- ---- --- ------ ----- ------- ---- -- --- ------- --<br>------- ---------- ------ -- ----- -- ----- -- ---- ------<br>--- ----- cut --- ------ -------- ----- --- ------ ----- --<br>----- ----- ---------- --- --- ------ ------ ---- -- ------<br>------- --- ------ ----- --- ---- ------- -- ---- --- --<br>------- ------,98103.90000000596,98103.09999999404,97502.361,97504.59999999404,97519.031,98119.192,,24,cut
screen,html.Screen,0_2_1_1_25,2021-11-25T15:02:27.291Z,,,,,,,,,,,,,,,,54,,,,,,,,,,,,,,591.8080000000045,,response,,,100,,,,,,Space,keypress(Space),,,,,-- --- ---- --- ------ ----- ------- ---- -- --- ------- --<br>------- ---------- ------ -- ----- -- ----- -- ---- ------<br>--- ----- --- the ------ -------- ----- --- ------ ----- --<br>----- ----- ---------- --- --- ------ ------ ---- -- ------<br>------- --- ------ ----- --- ---- ------- -- ---- --- --<br>------- ------,98711.69999998808,98711,98102.522,98104,98119.192,98719.324,,25,the
screen,html.Screen,0_2_1_1_26,2021-11-25T15:02:27.843Z,,,,,,,,,,,,,,,,54,,,,,,,,,,,,,,543.6760000000068,,response,,,100,,,,,,Space,keypress(Space),,,,,-- --- ---- --- ------ ----- ------- ---- -- --- ------- --<br>------- ---------- ------ -- ----- -- ----- -- ---- ------<br>--- ----- --- --- bonds' -------- ----- --- ------ ----- --<br>----- ----- ---------- --- --- ------ ------ ---- -- ------<br>------- --- ------ ----- --- ---- ------- -- ---- --- --<br>------- ------,99263.69999998808,99263,98702.654,98712,98719.324,99269.535,,26,bonds'
screen,html.Screen,0_2_1_1_27,2021-11-25T15:02:28.451Z,,,,,,,,,,,,,,,,54,,,,,,,,,,,,,,601.365000005957,,response,,,100,,,,,,Space,keypress(Space),,,,,-- --- ---- --- ------ ----- ------- ---- -- --- ------- --<br>------- ---------- ------ -- ----- -- ----- -- ---- ------<br>--- ----- --- --- ------ interest ----- --- ------ ----- --<br>----- ----- ---------- --- --- ------ ------ ---- -- ------<br>------- --- ------ ----- --- ---- ------- -- ---- --- --<br>------- ------,99871.69999998808,99870.90000000596,99252.864,99263.90000000596,99269.535,99886.275,,27,interest
screen,html.Screen,0_2_1_1_28,2021-11-25T15:02:29.027Z,,,,,,,,,,,,,,,,54,,,,,,,,,,,,,,560.6250000059663,,response,,,100,,,,,,Space,keypress(Space),,,,,-- --- ---- --- ------ ----- ------- ---- -- --- ------- --<br>------- ---------- ------ -- ----- -- ----- -- ---- ------<br>--- ----- --- --- ------ -------- rate. --- ------ ----- --<br>----- ----- ---------- --- --- ------ ------ ---- -- ------<br>------- --- ------ ----- --- ---- ------- -- ---- --- --<br>------- ------,100447.69999998808,100446.90000000596,99869.605,99871.90000000596,99886.275,100453.181,,28,rate.
screen,html.Screen,0_2_1_1_29,2021-11-25T15:02:29.627Z,,,,,,,,,,,,,,,,54,,,,,,,,,,,,,,593.7190000059636,,response,,,100,,,,,,Space,keypress(Space),,,,,-- --- ---- --- ------ ----- ------- ---- -- --- ------- --<br>------- ---------- ------ -- ----- -- ----- -- ---- ------<br>--- ----- --- --- ------ -------- ----- The ------ ----- --<br>----- ----- ---------- --- --- ------ ------ ---- -- ------<br>------- --- ------ ----- --- ---- ------- -- ---- --- --<br>------- ------,101047.69999998808,101046.90000000596,100436.51,100447.90000000596,100453.181,101053.332,,29,The
screen,html.Screen,0_2_1_1_30,2021-11-25T15:02:30.203Z,,,,,,,,,,,,,,,,54,,,,,,,,,,,,,,569.5680000059656,,response,,,100,,,,,,Space,keypress(Space),,,,,-- --- ---- --- ------ ----- ------- ---- -- --- ------- --<br>------- ---------- ------ -- ----- -- ----- -- ---- ------<br>--- ----- --- --- ------ -------- ----- --- market ----- --<br>----- ----- ---------- --- --- ------ ------ ---- -- ------<br>------- --- ------ ----- --- ---- ------- -- ---- --- --<br>------- ------,101623.59999999404,101622.90000000596,101036.661,101047.90000000596,101053.332,101636.776,,30,market
screen,html.Screen,0_2_1_1_31,2021-11-25T15:02:30.787Z,,,,,,,,,,,,,,,,54,,,,,,,,,,,,,,570.5240000119229,,response,,,100,,,,,,Space,keypress(Space),,,,,-- --- ---- --- ------ ----- ------- ---- -- --- ------- --<br>------- ---------- ------ -- ----- -- ----- -- ---- ------<br>--- ----- --- --- ------ -------- ----- --- ------ value --<br>----- ----- ---------- --- --- ------ ------ ---- -- ------<br>------- --- ------ ----- --- ---- ------- -- ---- --- --<br>------- ------,102208,102207.30000001192,101620.106,101623.90000000596,101636.776,102220.143,,31,value
screen,html.Screen,0_2_1_1_32,2021-11-25T15:02:31.307Z,,,,,,,,,,,,,,,,54,,,,,,,,,,,,,,506.65700001192454,,response,,,100,,,,,,Space,keypress(Space),,,,,-- --- ---- --- ------ ----- ------- ---- -- --- ------- --<br>------- ---------- ------ -- ----- -- ----- -- ---- ------<br>--- ----- --- --- ------ -------- ----- --- ------ ----- of<br>----- ----- ---------- --- --- ------ ------ ---- -- ------<br>------- --- ------ ----- --- ---- ------- -- ---- --- --<br>------- ------,102727.5,102726.80000001192,102203.474,102208.19999998808,102220.143,102737.113,,32,of
screen,html.Screen,0_2_1_1_33,2021-11-25T15:02:32.683Z,,,,,,,,,,,,,,,,54,,,,,,,,,,,,,,1365.5869999880815,,response,,,100,,,,,,Space,keypress(Space),,,,,-- --- ---- --- ------ ----- ------- ---- -- --- ------- --<br>------- ---------- ------ -- ----- -- ----- -- ---- ------<br>--- ----- --- --- ------ -------- ----- --- ------ ----- --<br>these ----- ---------- --- --- ------ ------ ---- -- ------<br>------- --- ------ ----- --- ---- ------- -- ---- --- --<br>------- ------,104103.5,104102.69999998808,102720.442,102727.80000001192,102737.113,104120.693,,33,these
screen,html.Screen,0_2_1_1_34,2021-11-25T15:02:33.243Z,,,,,,,,,,,,,,,,54,,,,,,,,,,,,,,541.9069999940402,,response,,,100,,,,,,Space,keypress(Space),,,,,-- --- ---- --- ------ ----- ------- ---- -- --- ------- --<br>------- ---------- ------ -- ----- -- ----- -- ---- ------<br>--- ----- --- --- ------ -------- ----- --- ------ ----- --<br>----- bonds ---------- --- --- ------ ------ ---- -- ------<br>------- --- ------ ----- --- ---- ------- -- ---- --- --<br>------- ------,104663.40000000596,104662.59999999404,104104.023,104103.69999998808,104120.693,104670.843,,34,bonds
screen,html.Screen,0_2_1_1_35,2021-11-25T15:02:33.915Z,,,,,,,,,,,,,,,,54,,,,,,,,,,,,,,663.756999994046,,response,,,100,,,,,,Space,keypress(Space),,,,,"-- --- ---- --- ------ ----- ------- ---- -- --- ------- --<br>------- ---------- ------ -- ----- -- ----- -- ---- ------<br>--- ----- --- --- ------ -------- ----- --- ------ ----- --<br>----- ----- plummeted, --- --- ------ ------ ---- -- ------<br>------- --- ------ ----- --- ---- ------- -- ---- --- --<br>------- ------",105335.40000000596,105334.59999999404,104654.173,104663.59999999404,104670.843,105337.647,,35,"plummeted,"
screen,html.Screen,0_2_1_1_36,2021-11-25T15:02:34.474Z,,,,,,,,,,,,,,,,54,,,,,,,,,,,,,,556.9529999940423,,response,,,100,,,,,,Space,keypress(Space),,,,,-- --- ---- --- ------ ----- ------- ---- -- --- ------- --<br>------- ---------- ------ -- ----- -- ----- -- ---- ------<br>--- ----- --- --- ------ -------- ----- --- ------ ----- --<br>----- ----- ---------- and --- ------ ------ ---- -- ------<br>------- --- ------ ----- --- ---- ------- -- ---- --- --<br>------- ------,105895.30000001192,105894.59999999404,105320.977,105335.59999999404,105337.647,105904.64,,36,and
screen,html.Screen,0_2_1_1_37,2021-11-25T15:02:35.042Z,,,,,,,,,,,,,,,,54,,,,,,,,,,,,,,557.8600000000006,,response,,,100,,,,,,Space,keypress(Space),,,,,-- --- ---- --- ------ ----- ------- ---- -- --- ------- --<br>------- ---------- ------ -- ----- -- ----- -- ---- ------<br>--- ----- --- --- ------ -------- ----- --- ------ ----- --<br>----- ----- ---------- --- the ------ ------ ---- -- ------<br>------- --- ------ ----- --- ---- ------- -- ---- --- --<br>------- ------,106463.19999998808,106462.5,105887.968,105895.59999999404,105904.64,106471.326,,37,the
screen,html.Screen,0_2_1_1_38,2021-11-25T15:02:35.586Z,,,,,,,,,,,,,,,,54,,,,,,,,,,,,,,535.1739999999991,,response,,,100,,,,,,Space,keypress(Space),,,,,-- --- ---- --- ------ ----- ------- ---- -- --- ------- --<br>------- ---------- ------ -- ----- -- ----- -- ---- ------<br>--- ----- --- --- ------ -------- ----- --- ------ ----- --<br>----- ----- ---------- --- --- market ------ ---- -- ------<br>------- --- ------ ----- --- ---- ------- -- ---- --- --<br>------- ------,107007.30000001192,107006.5,106454.656,106463.5,106471.326,107021.48,,38,market
screen,html.Screen,0_2_1_1_39,2021-11-25T15:02:36.202Z,,,,,,,,,,,,,,,,54,,,,,,,,,,,,,,600.9200000059645,,response,,,100,,,,,,Space,keypress(Space),,,,,-- --- ---- --- ------ ----- ------- ---- -- --- ------- --<br>------- ---------- ------ -- ----- -- ----- -- ---- ------<br>--- ----- --- --- ------ -------- ----- --- ------ ----- --<br>----- ----- ---------- --- --- ------ became ---- -- ------<br>------- --- ------ ----- --- ---- ------- -- ---- --- --<br>------- ------,107623.19999998808,107622.40000000596,107004.81,107007.59999999404,107021.48,107638.204,,39,became
screen,html.Screen,0_2_1_1_40,2021-11-25T15:02:36.730Z,,,,,,,,,,,,,,,,54,,,,,,,,,,,,,,512.1960000059626,,response,,,100,,,,,,Space,keypress(Space),,,,,-- --- ---- --- ------ ----- ------- ---- -- --- ------- --<br>------- ---------- ------ -- ----- -- ----- -- ---- ------<br>--- ----- --- --- ------ -------- ----- --- ------ ----- --<br>----- ----- ---------- --- --- ------ ------ wary -- ------<br>------- --- ------ ----- --- ---- ------- -- ---- --- --<br>------- ------,108151.19999998808,108150.40000000596,107621.535,107623.5,107638.204,108155.22,,40,wary
screen,html.Screen,0_2_1_1_41,2021-11-25T15:02:37.242Z,,,,,,,,,,,,,,,,54,,,,,,,,,,,,,,507.1800000059593,,response,,,100,,,,,,Space,keypress(Space),,,,,-- --- ---- --- ------ ----- ------- ---- -- --- ------- --<br>------- ---------- ------ -- ----- -- ----- -- ---- ------<br>--- ----- --- --- ------ -------- ----- --- ------ ----- --<br>----- ----- ---------- --- --- ------ ------ ---- of ------<br>------- --- ------ ----- --- ---- ------- -- ---- --- --<br>------- ------,108663.19999998808,108662.40000000596,108138.548,108151.40000000596,108155.22,108671.896,,41,of
screen,html.Screen,0_2_1_1_42,2021-11-25T15:02:37.706Z,,,,,,,,,,,,,,,,54,,,,,,,,,,,,,,454.5040000059671,,response,,,100,,,,,,Space,keypress(Space),,,,,-- --- ---- --- ------ ----- ------- ---- -- --- ------- --<br>------- ---------- ------ -- ----- -- ----- -- ---- ------<br>--- ----- --- --- ------ -------- ----- --- ------ ----- --<br>----- ----- ---------- --- --- ------ ------ ---- -- French<br>------- --- ------ ----- --- ---- ------- -- ---- --- --<br>------- ------,109127.30000001192,109126.40000000596,108655.226,108663.40000000596,108671.896,109138.738,,42,French
screen,html.Screen,0_2_1_1_43,2021-11-25T15:02:38.266Z,,,,,,,,,,,,,,,,54,,,,,,,,,,,,,,547.6620000059629,,response,,,100,,,,,,Space,keypress(Space),,,,,-- --- ---- --- ------ ----- ------- ---- -- --- ------- --<br>------- ---------- ------ -- ----- -- ----- -- ---- ------<br>--- ----- --- --- ------ -------- ----- --- ------ ----- --<br>----- ----- ---------- --- --- ------ ------ ---- -- ------<br>credit. --- ------ ----- --- ---- ------- -- ---- --- --<br>------- ------,109687.09999999404,109686.40000000596,109122.067,109127.5,109138.738,109688.823,,43,credit.
screen,html.Screen,0_2_1_1_44,2021-11-25T15:02:38.778Z,,,,,,,,,,,,,,,,54,,,,,,,,,,,,,,509.47700001191697,,response,,,100,,,,,,Space,keypress(Space),,,,,-- --- ---- --- ------ ----- ------- ---- -- --- ------- --<br>------- ---------- ------ -- ----- -- ----- -- ---- ------<br>--- ----- --- --- ------ -------- ----- --- ------ ----- --<br>----- ----- ---------- --- --- ------ ------ ---- -- ------<br>------- The ------ ----- --- ---- ------- -- ---- --- --<br>------- ------,110199.19999998808,110198.30000001192,109672.153,109687.40000000596,109688.823,110205.682,,44,The
screen,html.Screen,0_2_1_1_45,2021-11-25T15:02:39.282Z,,,,,,,,,,,,,,,,54,,,,,,,,,,,,,,496.61800001192023,,response,,,100,,,,,,Space,keypress(Space),,,,,-- --- ---- --- ------ ----- ------- ---- -- --- ------- --<br>------- ---------- ------ -- ----- -- ----- -- ---- ------<br>--- ----- --- --- ------ -------- ----- --- ------ ----- --<br>----- ----- ---------- --- --- ------ ------ ---- -- ------<br>------- --- French ----- --- ---- ------- -- ---- --- --<br>------- ------,110703,110702.30000001192,110189.011,110199.40000000596,110205.682,110705.774,,45,French
screen,html.Screen,0_2_1_1_46,2021-11-25T15:02:39.738Z,,,,,,,,,,,,,,,,54,,,,,,,,,,,,,,452.52600001191604,,response,,,100,,,,,,Space,keypress(Space),,,,,-- --- ---- --- ------ ----- ------- ---- -- --- ------- --<br>------- ---------- ------ -- ----- -- ----- -- ---- ------<br>--- ----- --- --- ------ -------- ----- --- ------ ----- --<br>----- ----- ---------- --- --- ------ ------ ---- -- ------<br>------- --- ------ state --- ---- ------- -- ---- --- --<br>------- ------,111159,111158.30000001192,110689.104,110703.30000001192,110705.774,111172.543,,46,state
screen,html.Screen,0_2_1_1_47,2021-11-25T15:02:40.242Z,,,,,,,,,,,,,,,,54,,,,,,,,,,,,,,489.7570000119158,,response,,,100,,,,,,Space,keypress(Space),,,,,-- --- ---- --- ------ ----- ------- ---- -- --- ------- --<br>------- ---------- ------ -- ----- -- ----- -- ---- ------<br>--- ----- --- --- ------ -------- ----- --- ------ ----- --<br>----- ----- ---------- --- --- ------ ------ ---- -- ------<br>------- --- ------ ----- was ---- ------- -- ---- --- --<br>------- ------,111663,111662.30000001192,111155.873,111159.30000001192,111172.543,111672.683,,47,was
screen,html.Screen,0_2_1_1_48,2021-11-25T15:02:40.730Z,,,,,,,,,,,,,,,,54,,,,,,,,,,,,,,477.51699998807453,,response,,,100,,,,,,Space,keypress(Space),,,,,-- --- ---- --- ------ ----- ------- ---- -- --- ------- --<br>------- ---------- ------ -- ----- -- ----- -- ---- ------<br>--- ----- --- --- ------ -------- ----- --- ------ ----- --<br>----- ----- ---------- --- --- ------ ------ ---- -- ------<br>------- --- ------ ----- --- left ------- -- ---- --- --<br>------- ------,112151,112150.19999998808,111656.013,111663.19999998808,111672.683,112156.017,,48,left
screen,html.Screen,0_2_1_1_49,2021-11-25T15:02:41.187Z,,,,,,,,,,,,,,,,54,,,,,,,,,,,,,,450.68299998807197,,response,,,100,,,,,,Space,keypress(Space),,,,,-- --- ---- --- ------ ----- ------- ---- -- --- ------- --<br>------- ---------- ------ -- ----- -- ----- -- ---- ------<br>--- ----- --- --- ------ -------- ----- --- ------ ----- --<br>----- ----- ---------- --- --- ------ ------ ---- -- ------<br>------- --- ------ ----- --- ---- without -- ---- --- --<br>------- ------,112607.40000000596,112606.69999998808,112139.348,112151.19999998808,112156.017,112622.886,,49,without
screen,html.Screen,0_2_1_1_50,2021-11-25T15:02:41.642Z,,,,,,,,,,,,,,,,54,,,,,,,,,,,,,,439.31399998808047,,response,,,100,,,,,,Space,keypress(Space),,,,,-- --- ---- --- ------ ----- ------- ---- -- --- ------- --<br>------- ---------- ------ -- ----- -- ----- -- ---- ------<br>--- ----- --- --- ------ -------- ----- --- ------ ----- --<br>----- ----- ---------- --- --- ------ ------ ---- -- ------<br>------- --- ------ ----- --- ---- ------- an ---- --- --<br>------- ------,113062.90000000596,113062.19999998808,112606.216,112607.80000001192,112622.886,113073.003,,50,an
screen,html.Screen,0_2_1_1_51,2021-11-25T15:02:42.106Z,,,,,,,,,,,,,,,,54,,,,,,,,,,,,,,453.1969999880821,,response,,,100,,,,,,Space,keypress(Space),,,,,-- --- ---- --- ------ ----- ------- ---- -- --- ------- --<br>------- ---------- ------ -- ----- -- ----- -- ---- ------<br>--- ----- --- --- ------ -------- ----- --- ------ ----- --<br>----- ----- ---------- --- --- ------ ------ ---- -- ------<br>------- --- ------ ----- --- ---- ------- -- easy --- --<br>------- ------,113527,113526.19999998808,113056.333,113063.19999998808,113073.003,113539.868,,51,easy
screen,html.Screen,0_2_1_1_52,2021-11-25T15:02:42.626Z,,,,,,,,,,,,,,,,54,,,,,,,,,,,,,,506.2319999940373,,response,,,100,,,,,,Space,keypress(Space),,,,,-- --- ---- --- ------ ----- ------- ---- -- --- ------- --<br>------- ---------- ------ -- ----- -- ----- -- ---- ------<br>--- ----- --- --- ------ -------- ----- --- ------ ----- --<br>----- ----- ---------- --- --- ------ ------ ---- -- ------<br>------- --- ------ ----- --- ---- ------- -- ---- way --<br>------- ------,114046.90000000596,114046.09999999404,113523.197,113527.19999998808,113539.868,114056.612,,52,way
screen,html.Screen,0_2_1_1_53,2021-11-25T15:02:43.258Z,,,,,,,,,,,,,,,,54,,,,,,,,,,,,,,621.4879999940458,,response,,,100,,,,,,Space,keypress(Space),,,,,-- --- ---- --- ------ ----- ------- ---- -- --- ------- --<br>------- ---------- ------ -- ----- -- ----- -- ---- ------<br>--- ----- --- --- ------ -------- ----- --- ------ ----- --<br>----- ----- ---------- --- --- ------ ------ ---- -- ------<br>------- --- ------ ----- --- ---- ------- -- ---- --- of<br>------- ------,114678.80000001192,114678.09999999404,114039.942,114047.19999998808,114056.612,114690.191,,53,of
screen,html.Screen,0_2_1_1_54,2021-11-25T15:02:44.018Z,,,,,,,,,,,,,,,,54,,,,,,,,,,,,,,747.8089999999938,,response,,,100,,,,,,Space,keypress(Space),,,,,-- --- ---- --- ------ ----- ------- ---- -- --- ------- --<br>------- ---------- ------ -- ----- -- ----- -- ---- ------<br>--- ----- --- --- ------ -------- ----- --- ------ ----- --<br>----- ----- ---------- --- --- ------ ------ ---- -- ------<br>------- --- ------ ----- --- ---- ------- -- ---- --- --<br>raising ------,115438.80000001192,115438,114673.52,114679.09999999404,114690.191,115440.311,,54,raising
screen,html.Screen,0_2_1_1_55,2021-11-25T15:02:45.002Z,,,,,,,,,,,,,,,,54,,,,,,,,,,,,,,981.589000005959,,response,,,100,,,,,,Space,keypress(Space),,,,,-- --- ---- --- ------ ----- ------- ---- -- --- ------- --<br>------- ---------- ------ -- ----- -- ----- -- ---- ------<br>--- ----- --- --- ------ -------- ----- --- ------ ----- --<br>----- ----- ---------- --- --- ------ ------ ---- -- ------<br>------- --- ------ ----- --- ---- ------- -- ---- --- --<br>------- money.,116422.69999998808,116421.90000000596,115423.641,115439,115440.311,116423.861,,55,money.
Item 100,flow.Loop,0_2_1_1,2021-11-25T15:02:45.002Z,,,,,,,,,,,,,,,,,,,,,,,,,,,,,,36224.06600000596,,completion,,,,B,,,,,,,,,,silence,,116423.19999998808,116421.90000000596,80181.164,80182.69999998808,80197.834,116423.861,,,
Question 1,html.Screen,0_2_1_2,2021-11-25T15:02:47.770Z,,,,,,,,,,,,,,,,,,,,,,,,,,,true,TRUE,,2765.738999994035,,response,,,100,B,,,,,TRUE,click #choice-1,,,,silence,,119190.80000001192,119189.59999999404,116407.191,116423.30000001192,116423.861,119191.3,,,
Question 2,html.Screen,0_2_1_3,2021-11-25T15:02:52.357Z,,,,,,,,,,,,,,,,,,,,,,,,,,,false,FALSE,,4582.100000005958,,response,,,100,B,,,,,TRUE,click #choice-1,,,,silence,,123774.59999999404,123773.40000000596,119174.63,119191,119191.3,123775.939,,,
Item 100,flow.Sequence,0_2_1,2021-11-25T15:02:52.358Z,,,,,,,,,,,,,,,,,,,,,,,,,,,,,,53578.17600000596,,completion,,,,,,,,,,,,,,,,123775.09999999404,123773.40000000596,70178.555,70194,70195.224,123775.939,,,
End of Practice,html.Page,0_2_2,2021-11-25T15:02:55.750Z,,,,,,,,,,,,,,,,,,,,,,,,,,,,,,3390.5610000000015,,form submission,,,,,,,,,,,,,,,,127166.90000000596,127166.5,123759.266,123775.30000001192,123775.939,127176.656,,,
Practice,flow.Sequence,0_2,2021-11-25T15:02:55.750Z,,,,,,,,,,,,,,,,,,,,,,,,,,,,,,99081.929,,completion,,,,,,,,,,,,,,,,127167.30000001192,127166.5,28067.9,28084.80000001192,28084.571,127176.656,,,
Trap_instruction,html.Page,0_3_0,2021-11-25T15:03:00.653Z,,,,,,,,,,,,,,,,,,,,,,,,,,,,,,4893.543999988076,,form submission,,,,,,,,,,,,,,,,132070.69999998808,132070.19999998808,127159.985,127167.5,127176.656,132110.327,,,
trap_trial,html.Screen,0_3_1,2021-11-25T15:03:04.685Z,,,,,,,,,,,,,,,,,,,,,,,,,,,true,1,,3990.372999988089,,response,,,,,,,,,1,click #choice-1,,,,,,136102.09999999404,136100.69999998808,132060.347,132071,132110.327,136106.31,,,
end of trap trial,html.Page,0_3_2,2021-11-25T15:03:07.933Z,,,,,,,,,,,,,,,,,,,,,,,,,,,,,,3243.789999994042,,form submission,,,,,,,,,,,,,,,,139350.59999999404,139350.09999999404,136089.665,136102.30000001192,136106.31,139363.083,,,
Trap 1,flow.Sequence,0_3,2021-11-25T15:03:07.934Z,,,,,,,,,,,,,,,,,,,,,,,,,,,,,,12173.443999994037,,completion,,,,,,,,,,,,,,,,139351,139350.09999999404,127159.985,127167.5,127176.656,139363.083,,,
Standby,html.Page,0_4_0,2021-11-25T15:03:15.933Z,,,,,,,,,,,,,,,,,,,,,,,,,,,,,,8002.173999999999,,timeout,,,,,,,,,,,,,,,,147350.40000000596,147348.586,139346.413,139351.19999998808,139363.083,147365.257,,,
Holding screen,html.Screen,0_4_1_0_0,2021-11-25T15:03:22.935Z,,,,,,,,,,,,,,,,,,,,,,,,,,,,,,7001.645999999979,,timeout,,,,,,,,,,,,,,,,154351.90000000596,154350.233,147348.586,147350.80000001192,147365.257,154366.903,,,
screen,html.Screen,0_4_1_0_1_0,2021-11-25T15:03:23.948Z,,,,,,,,,,,,,,,,15,,,,,,,,,,,,,,997.3970000119298,,response,,,7,B,,,,,Space,keypress(Space),,,,lyrical,Greg --------- ---------- - --- ------- -- --- ------------<br>----- -- -------- ------- ---- ------ - -------- ---- -----<br>--- ------- ---- -- --- -------- --- - ----- ------ ---- --<br>-------- --- -------- -------- --- -------- ---- -- ----- -<br>-------- ---- --- ---------- --------- -- ------- ------ -<br>--------- ----- -----,155365.30000001192,155364.30000001192,154350.233,154352.40000000596,154366.903,155367.135,,0,Greg
screen,html.Screen,0_4_1_0_1_1,2021-11-25T15:03:24.763Z,,,,,,,,,,,,,,,,15,,,,,,,,,,,,,,812.6650000119116,,response,,,7,B,,,,,Space,keypress(Space),,,,lyrical,"---- Anderson, ---------- - --- ------- -- --- ------------<br>----- -- -------- ------- ---- ------ - -------- ---- -----<br>--- ------- ---- -- --- -------- --- - ----- ------ ---- --<br>-------- --- -------- -------- --- -------- ---- -- ----- -<br>-------- ---- --- ---------- --------- -- ------- ------ -<br>--------- ----- -----",156180.59999999404,156179.80000001192,155350.465,155365.59999999404,155367.135,156184.058,,1,"Anderson,"
screen,html.Screen,0_4_1_0_1_2,2021-11-25T15:03:25.435Z,,,,,,,,,,,,,,,,15,,,,,,,,,,,,,,667.7420000119309,,response,,,7,B,,,,,Space,keypress(Space),,,,lyrical,---- --------- considered - --- ------- -- --- ------------<br>----- -- -------- ------- ---- ------ - -------- ---- -----<br>--- ------- ---- -- --- -------- --- - ----- ------ ---- --<br>-------- --- -------- -------- --- -------- ---- -- ----- -<br>-------- ---- --- ---------- --------- -- ------- ------ -<br>--------- ----- -----,156852.59999999404,156851.80000001192,156167.388,156180.80000001192,156184.058,156867.643,,2,considered
screen,html.Screen,0_4_1_0_1_3,2021-11-25T15:03:26.003Z,,,,,,,,,,,,,,,,15,,,,,,,,,,,,,,551.9569999940286,,response,,,7,B,,,,,Space,keypress(Space),,,,lyrical,---- --------- ---------- a --- ------- -- --- ------------<br>----- -- -------- ------- ---- ------ - -------- ---- -----<br>--- ------- ---- -- --- -------- --- - ----- ------ ---- --<br>-------- --- -------- -------- --- -------- ---- -- ----- -<br>-------- ---- --- ---------- --------- -- ------- ------ -<br>--------- ----- -----,157420.30000001192,157419.59999999404,156850.972,156852.80000001192,156867.643,157451.193,,3,a
screen,html.Screen,0_4_1_0_1_4,2021-11-25T15:03:26.675Z,,,,,,,,,,,,,,,,15,,,,,,,,,,,,,,640.4069999940402,,response,,,7,B,,,,,Space,keypress(Space),,,,lyrical,---- --------- ---------- - key ------- -- --- ------------<br>----- -- -------- ------- ---- ------ - -------- ---- -----<br>--- ------- ---- -- --- -------- --- - ----- ------ ---- --<br>-------- --- -------- -------- --- -------- ---- -- ----- -<br>-------- ---- --- ---------- --------- -- ------- ------ -<br>--------- ----- -----,158092.40000000596,158091.59999999404,157434.522,157420.59999999404,157451.193,158117.959,,4,key
screen,html.Screen,0_4_1_0_1_5,2021-11-25T15:03:27.347Z,,,,,,,,,,,,,,,,15,,,,,,,,,,,,,,645.8410000119184,,response,,,7,B,,,,,Space,keypress(Space),,,,lyrical,---- --------- ---------- - --- witness -- --- ------------<br>----- -- -------- ------- ---- ------ - -------- ---- -----<br>--- ------- ---- -- --- -------- --- - ----- ------ ---- --<br>-------- --- -------- -------- --- -------- ---- -- ----- -<br>-------- ---- --- ---------- --------- -- ------- ------ -<br>--------- ----- -----,158764.69999998808,158763.80000001192,158101.289,158092.59999999404,158117.959,158784.651,,5,witness
screen,html.Screen,0_4_1_0_1_6,2021-11-25T15:03:27.915Z,,,,,,,,,,,,,,,,15,,,,,,,,,,,,,,546.948999994027,,response,,,7,B,,,,,Space,keypress(Space),,,,lyrical,---- --------- ---------- - --- ------- by --- ------------<br>----- -- -------- ------- ---- ------ - -------- ---- -----<br>--- ------- ---- -- --- -------- --- - ----- ------ ---- --<br>-------- --- -------- -------- --- -------- ---- -- ----- -<br>-------- ---- --- ---------- --------- -- ------- ------ -<br>--------- ----- -----,159332.30000001192,159331.59999999404,158767.982,158764.90000000596,158784.651,159335.052,,6,by
screen,html.Screen,0_4_1_0_1_7,2021-11-25T15:03:28.571Z,,,,,,,,,,,,,,,,15,,,,,,,,,,,,,,652.5479999940435,,response,,,7,B,,,,,Space,keypress(Space),,,,lyrical,---- --------- ---------- - --- ------- -- the ------------<br>----- -- -------- ------- ---- ------ - -------- ---- -----<br>--- ------- ---- -- --- -------- --- - ----- ------ ---- --<br>-------- --- -------- -------- --- -------- ---- -- ----- -<br>-------- ---- --- ---------- --------- -- ------- ------ -<br>--------- ----- -----,159988.40000000596,159987.59999999404,159318.38,159332.59999999404,159335.052,160001.771,,7,the
screen,html.Screen,0_4_1_0_1_8,2021-11-25T15:03:29.155Z,,,,,,,,,,,,,,,,15,,,,,,,,,,,,,,569.7289999999921,,response,,,7,B,,,,,Space,keypress(Space),,,,lyrical,"---- --------- ---------- - --- ------- -- --- prosecution,<br>----- -- -------- ------- ---- ------ - -------- ---- -----<br>--- ------- ---- -- --- -------- --- - ----- ------ ---- --<br>-------- --- -------- -------- --- -------- ---- -- ----- -<br>-------- ---- --- ---------- --------- -- ------- ------ -<br>--------- ----- -----",160572.30000001192,160571.5,159985.101,159988.59999999404,160001.771,160585.263,,8,"prosecution,"
screen,html.Screen,0_4_1_0_1_9,2021-11-25T15:03:29.755Z,,,,,,,,,,,,,,,,15,,,,,,,,,,,,,,586.2369999999937,,response,,,7,B,,,,,Space,keypress(Space),,,,lyrical,---- --------- ---------- - --- ------- -- --- ------------<br>vowed -- -------- ------- ---- ------ - -------- ---- -----<br>--- ------- ---- -- --- -------- --- - ----- ------ ---- --<br>-------- --- -------- -------- --- -------- ---- -- ----- -<br>-------- ---- --- ---------- --------- -- ------- ------ -<br>--------- ----- -----,161172.19999998808,161171.5,160568.593,160572.59999999404,160585.263,161185.424,,9,vowed
screen,html.Screen,0_4_1_0_1_10,2021-11-25T15:03:30.403Z,,,,,,,,,,,,,,,,15,,,,,,,,,,,,,,634.0760000000009,,response,,,7,B,,,,,Space,keypress(Space),,,,lyrical,---- --------- ---------- - --- ------- -- --- ------------<br>----- he -------- ------- ---- ------ - -------- ---- -----<br>--- ------- ---- -- --- -------- --- - ----- ------ ---- --<br>-------- --- -------- -------- --- -------- ---- -- ----- -<br>-------- ---- --- ---------- --------- -- ------- ------ -<br>--------- ----- -----,161820.5,161819.5,161168.754,161172.5,161185.424,161835.544,,10,he
screen,html.Screen,0_4_1_0_1_11,2021-11-25T15:03:31.099Z,,,,,,,,,,,,,,,,15,,,,,,,,,,,,,,679.9560000000056,,response,,,7,B,,,,,Space,keypress(Space),,,,lyrical,---- --------- ---------- - --- ------- -- --- ------------<br>----- -- wouldn't ------- ---- ------ - -------- ---- -----<br>--- ------- ---- -- --- -------- --- - ----- ------ ---- --<br>-------- --- -------- -------- --- -------- ---- -- ----- -<br>-------- ---- --- ---------- --------- -- ------- ------ -<br>--------- ----- -----,162516.19999998808,162515.5,161818.874,161820.69999998808,161835.544,162519.153,,11,wouldn't
screen,html.Screen,0_4_1_0_1_12,2021-11-25T15:03:31.667Z,,,,,,,,,,,,,,,,15,,,,,,,,,,,,,,564.2470000059693,,response,,,7,B,,,,,Space,keypress(Space),,,,lyrical,---- --------- ---------- - --- ------- -- --- ------------<br>----- -- -------- testify ---- ------ - -------- ---- -----<br>--- ------- ---- -- --- -------- --- - ----- ------ ---- --<br>-------- --- -------- -------- --- -------- ---- -- ----- -<br>-------- ---- --- ---------- --------- -- ------- ------ -<br>--------- ----- -----,163084.19999998808,163083.40000000596,162502.482,162516.5,162519.153,163085.891,,12,testify
screen,html.Screen,0_4_1_0_1_13,2021-11-25T15:03:32.131Z,,,,,,,,,,,,,,,,15,,,,,,,,,,,,,,461.5090000059572,,response,,,7,B,,,,,Space,keypress(Space),,,,lyrical,---- --------- ---------- - --- ------- -- --- ------------<br>----- -- -------- ------- when ------ - -------- ---- -----<br>--- ------- ---- -- --- -------- --- - ----- ------ ---- --<br>-------- --- -------- -------- --- -------- ---- -- ----- -<br>-------- ---- --- ---------- --------- -- ------- ------ -<br>--------- ----- -----,163548.09999999404,163547.40000000596,163069.221,163084.5,163085.891,163552.741,,13,when
screen,html.Screen,0_4_1_0_1_14,2021-11-25T15:03:32.579Z,,,,,,,,,,,,,,,,15,,,,,,,,,,,,,,442.55900001191185,,response,,,7,B,,,,,Space,keypress(Space),,,,lyrical,---- --------- ---------- - --- ------- -- --- ------------<br>----- -- -------- ------- ---- served - -------- ---- -----<br>--- ------- ---- -- --- -------- --- - ----- ------ ---- --<br>-------- --- -------- -------- --- -------- ---- -- ----- -<br>-------- ---- --- ---------- --------- -- ------- ------ -<br>--------- ----- -----,163996.19999998808,163995.30000001192,163536.07,163548.30000001192,163552.741,164002.709,,14,served
screen,html.Screen,0_4_1_0_1_15,2021-11-25T15:03:32.923Z,,,,,,,,,,,,,,,,15,,,,,,,,,,,,,,336.6910000059579,,response,,,7,B,,,,,Space,keypress(Space),,,,lyrical,---- --------- ---------- - --- ------- -- --- ------------<br>----- -- -------- ------- ---- ------ a -------- ---- -----<br>--- ------- ---- -- --- -------- --- - ----- ------ ---- --<br>-------- --- -------- -------- --- -------- ---- -- ----- -<br>-------- ---- --- ---------- --------- -- ------- ------ -<br>--------- ----- -----,164340.19999998808,164339.40000000596,163986.04,163996.30000001192,164002.709,164352.988,,15,a
screen,html.Screen,0_4_1_0_1_16,2021-11-25T15:03:33.267Z,,,,,,,,,,,,,,,,15,,,,,,,,,,,,,,330.41200000594836,,response,,,7,B,,,,,Space,keypress(Space),,,,lyrical,---- --------- ---------- - --- ------- -- --- ------------<br>----- -- -------- ------- ---- ------ - subpoena ---- -----<br>--- ------- ---- -- --- -------- --- - ----- ------ ---- --<br>-------- --- -------- -------- --- -------- ---- -- ----- -<br>-------- ---- --- ---------- --------- -- ------- ------ -<br>--------- ----- -----,164684.09999999404,164683.40000000596,164336.316,164340.40000000596,164352.988,164686.363,,16,subpoena
screen,html.Screen,0_4_1_0_1_17,2021-11-25T15:03:33.659Z,,,,,,,,,,,,,,,,15,,,,,,,,,,,,,,388.9370000119088,,response,,,7,B,,,,,Space,keypress(Space),,,,lyrical,---- --------- ---------- - --- ------- -- --- ------------<br>----- -- -------- ------- ---- ------ - -------- last -----<br>--- ------- ---- -- --- -------- --- - ----- ------ ---- --<br>-------- --- -------- -------- --- -------- ---- -- ----- -<br>-------- ---- --- ---------- --------- -- ------- ------ -<br>--------- ----- -----,165076.09999999404,165075.30000001192,164669.692,164684.30000001192,164686.363,165086.298,,17,last
screen,html.Screen,0_4_1_0_1_18,2021-11-25T15:03:34.099Z,,,,,,,,,,,,,,,,15,,,,,,,,,,,,,,429.4019999880693,,response,,,7,B,,,,,Space,keypress(Space),,,,lyrical,---- --------- ---------- - --- ------- -- --- ------------<br>----- -- -------- ------- ---- ------ - -------- ---- week.<br>--- ------- ---- -- --- -------- --- - ----- ------ ---- --<br>-------- --- -------- -------- --- -------- ---- -- ----- -<br>-------- ---- --- ---------- --------- -- ------- ------ -<br>--------- ----- -----,165516.5,165515.69999998808,165069.63,165076.40000000596,165086.298,165519.832,,18,week.
screen,html.Screen,0_4_1_0_1_19,2021-11-25T15:03:34.539Z,,,,,,,,,,,,,,,,15,,,,,,,,,,,,,,435.46800001192605,,response,,,7,B,,,,,Space,keypress(Space),,,,lyrical,---- --------- ---------- - --- ------- -- --- ------------<br>----- -- -------- ------- ---- ------ - -------- ---- -----<br>His ------- ---- -- --- -------- --- - ----- ------ ---- --<br>-------- --- -------- -------- --- -------- ---- -- ----- -<br>-------- ---- --- ---------- --------- -- ------- ------ -<br>--------- ----- -----,165956.09999999404,165955.30000001192,165503.162,165516.80000001192,165519.832,165970.101,,19,His
screen,html.Screen,0_4_1_0_1_20,2021-11-25T15:03:35.395Z,,,,,,,,,,,,,,,,15,,,,,,,,,,,,,,841.098999988084,,response,,,7,B,,,,,Space,keypress(Space),,,,lyrical,---- --------- ---------- - --- ------- -- --- ------------<br>----- -- -------- ------- ---- ------ - -------- ---- -----<br>--- lawyers ---- -- --- -------- --- - ----- ------ ---- --<br>-------- --- -------- -------- --- -------- ---- -- ----- -<br>-------- ---- --- ---------- --------- -- ------- ------ -<br>--------- ----- -----,166811.90000000596,166811.19999998808,165953.429,165956.30000001192,165970.101,166820.174,,20,lawyers
screen,html.Screen,0_4_1_0_1_21,2021-11-25T15:03:35.899Z,,,,,,,,,,,,,,,,15,,,,,,,,,,,,,,495.02599998808,,response,,,7,B,,,,,Space,keypress(Space),,,,lyrical,---- --------- ---------- - --- ------- -- --- ------------<br>----- -- -------- ------- ---- ------ - -------- ---- -----<br>--- ------- said -- --- -------- --- - ----- ------ ---- --<br>-------- --- -------- -------- --- -------- ---- -- ----- -<br>-------- ---- --- ---------- --------- -- ------- ------ -<br>--------- ----- -----,167316.09999999404,167315.19999998808,166803.504,166812.09999999404,166820.174,167320.286,,21,said
screen,html.Screen,0_4_1_0_1_22,2021-11-25T15:03:36.331Z,,,,,,,,,,,,,,,,15,,,,,,,,,,,,,,426.9139999880863,,response,,,7,B,,,,,Space,keypress(Space),,,,lyrical,---- --------- ---------- - --- ------- -- --- ------------<br>----- -- -------- ------- ---- ------ - -------- ---- -----<br>--- ------- ---- he --- -------- --- - ----- ------ ---- --<br>-------- --- -------- -------- --- -------- ---- -- ----- -<br>-------- ---- --- ---------- --------- -- ------- ------ -<br>--------- ----- -----,167748,167747.19999998808,167303.616,167316.30000001192,167320.286,167753.743,,22,he
screen,html.Screen,0_4_1_0_1_23,2021-11-25T15:03:36.779Z,,,,,,,,,,,,,,,,15,,,,,,,,,,,,,,441.4569999880914,,response,,,7,B,,,,,Space,keypress(Space),,,,lyrical,---- --------- ---------- - --- ------- -- --- ------------<br>----- -- -------- ------- ---- ------ - -------- ---- -----<br>--- ------- ---- -- was -------- --- - ----- ------ ---- --<br>-------- --- -------- -------- --- -------- ---- -- ----- -<br>-------- ---- --- ---------- --------- -- ------- ------ -<br>--------- ----- -----,168196,168195.19999998808,167737.073,167748.19999998808,167753.743,168203.941,,23,was
screen,html.Screen,0_4_1_0_1_24,2021-11-25T15:03:37.683Z,,,,,,,,,,,,,,,,15,,,,,,,,,,,,,,895.1589999940479,,response,,,7,B,,,,,Space,keypress(Space),,,,lyrical,---- --------- ---------- - --- ------- -- --- ------------<br>----- -- -------- ------- ---- ------ - -------- ---- -----<br>--- ------- ---- -- --- prepared --- - ----- ------ ---- --<br>-------- --- -------- -------- --- -------- ---- -- ----- -<br>-------- ---- --- ---------- --------- -- ------- ------ -<br>--------- ----- -----,169100.09999999404,169099.09999999404,168187.27,168196.30000001192,168203.941,169104.181,,24,prepared
screen,html.Screen,0_4_1_0_1_25,2021-11-25T15:03:38.499Z,,,,,,,,,,,,,,,,15,,,,,,,,,,,,,,810.9189999940281,,response,,,7,B,,,,,Space,keypress(Space),,,,lyrical,---- --------- ---------- - --- ------- -- --- ------------<br>----- -- -------- ------- ---- ------ - -------- ---- -----<br>--- ------- ---- -- --- -------- for - ----- ------ ---- --<br>-------- --- -------- -------- --- -------- ---- -- ----- -<br>-------- ---- --- ---------- --------- -- ------- ------ -<br>--------- ----- -----,169915.90000000596,169915.09999999404,169087.51,169100.30000001192,169104.181,169920.949,,25,for
screen,html.Screen,0_4_1_0_1_26,2021-11-25T15:03:38.931Z,,,,,,,,,,,,,,,,15,,,,,,,,,,,,,,426.1509999940463,,response,,,7,B,,,,,Space,keypress(Space),,,,lyrical,---- --------- ---------- - --- ------- -- --- ------------<br>----- -- -------- ------- ---- ------ - -------- ---- -----<br>--- ------- ---- -- --- -------- --- a ----- ------ ---- --<br>-------- --- -------- -------- --- -------- ---- -- ----- -<br>-------- ---- --- ---------- --------- -- ------- ------ -<br>--------- ----- -----,170347.80000001192,170347.09999999404,169904.279,169916.19999998808,169920.949,170354.39,,26,a
screen,html.Screen,0_4_1_0_1_27,2021-11-25T15:03:39.411Z,,,,,,,,,,,,,,,,15,,,,,,,,,,,,,,472.60999999998603,,response,,,7,B,,,,,Space,keypress(Space),,,,lyrical,---- --------- ---------- - --- ------- -- --- ------------<br>----- -- -------- ------- ---- ------ - -------- ---- -----<br>--- ------- ---- -- --- -------- --- - third ------ ---- --<br>-------- --- -------- -------- --- -------- ---- -- ----- -<br>-------- ---- --- ---------- --------- -- ------- ------ -<br>--------- ----- -----,170827.80000001192,170827,170337.72,170348.09999999404,170354.39,170837.97,,27,third
screen,html.Screen,0_4_1_0_1_28,2021-11-25T15:03:39.931Z,,,,,,,,,,,,,,,,15,,,,,,,,,,,,,,509.02999999999884,,response,,,7,B,,,,,Space,keypress(Space),,,,lyrical,---- --------- ---------- - --- ------- -- --- ------------<br>----- -- -------- ------- ---- ------ - -------- ---- -----<br>--- ------- ---- -- --- -------- --- - ----- prison ---- --<br>-------- --- -------- -------- --- -------- ---- -- ----- -<br>-------- ---- --- ---------- --------- -- ------- ------ -<br>--------- ----- -----,171347.80000001192,171347,170821.299,170828.09999999404,170837.97,171354.69,,28,prison
screen,html.Screen,0_4_1_0_1_29,2021-11-25T15:03:40.419Z,,,,,,,,,,,,,,,,15,,,,,,,,,,,,,,480.3099999999977,,response,,,7,B,,,,,Space,keypress(Space),,,,lyrical,---- --------- ---------- - --- ------- -- --- ------------<br>----- -- -------- ------- ---- ------ - -------- ---- -----<br>--- ------- ---- -- --- -------- --- - ----- ------ stay --<br>-------- --- -------- -------- --- -------- ---- -- ----- -<br>-------- ---- --- ---------- --------- -- ------- ------ -<br>--------- ----- -----,171835.80000001192,171835,171338.02,171348,171354.69,171838.167,,29,stay
screen,html.Screen,0_4_1_0_1_30,2021-11-25T15:03:40.978Z,,,,,,,,,,,,,,,,15,,,,,,,,,,,,,,556.7330000059737,,response,,,7,B,,,,,Space,keypress(Space),,,,lyrical,---- --------- ---------- - --- ------- -- --- ------------<br>----- -- -------- ------- ---- ------ - -------- ---- -----<br>--- ------- ---- -- --- -------- --- - ----- ------ ---- to<br>-------- --- -------- -------- --- -------- ---- -- ----- -<br>-------- ---- --- ---------- --------- -- ------- ------ -<br>--------- ----- -----,172395.69999998808,172394.90000000596,171821.497,171836,171838.167,172404.981,,30,to
screen,html.Screen,0_4_1_0_1_31,2021-11-25T15:03:41.642Z,,,,,,,,,,,,,,,,15,,,,,,,,,,,,,,653.9190000059607,,response,,,7,B,,,,,Space,keypress(Space),,,,lyrical,---- --------- ---------- - --- ------- -- --- ------------<br>----- -- -------- ------- ---- ------ - -------- ---- -----<br>--- ------- ---- -- --- -------- --- - ----- ------ ---- --<br>maintain --- -------- -------- --- -------- ---- -- ----- -<br>-------- ---- --- ---------- --------- -- ------- ------ -<br>--------- ----- -----,173059.69999998808,173058.90000000596,172388.311,172396,172404.981,173071.796,,31,maintain
screen,html.Screen,0_4_1_0_1_32,2021-11-25T15:03:42.218Z,,,,,,,,,,,,,,,,15,,,,,,,,,,,,,,563.1040000059584,,response,,,7,B,,,,,Space,keypress(Space),,,,lyrical,---- --------- ---------- - --- ------- -- --- ------------<br>----- -- -------- ------- ---- ------ - -------- ---- -----<br>--- ------- ---- -- --- -------- --- - ----- ------ ---- --<br>-------- his -------- -------- --- -------- ---- -- ----- -<br>-------- ---- --- ---------- --------- -- ------- ------ -<br>--------- ----- -----,173635.69999998808,173634.90000000596,173055.126,173060,173071.796,173638.629,,32,his
screen,html.Screen,0_4_1_0_1_33,2021-11-25T15:03:43.082Z,,,,,,,,,,,,,,,,15,,,,,,,,,,,,,,860.1710000119347,,response,,,7,B,,,,,Space,keypress(Space),,,,lyrical,---- --------- ---------- - --- ------- -- --- ------------<br>----- -- -------- ------- ---- ------ - -------- ---- -----<br>--- ------- ---- -- --- -------- --- - ----- ------ ---- --<br>-------- --- silence. -------- --- -------- ---- -- ----- -<br>-------- ---- --- ---------- --------- -- ------- ------ -<br>--------- ----- -----,174499.69999998808,174498.80000001192,173621.959,173635.90000000596,173638.629,174505.361,,33,silence.
screen,html.Screen,0_4_1_0_1_34,2021-11-25T15:03:43.906Z,,,,,,,,,,,,,,,,15,,,,,,,,,,,,,,817.4390000119165,,response,,,7,B,,,,,Space,keypress(Space),,,,lyrical,---- --------- ---------- - --- ------- -- --- ------------<br>----- -- -------- ------- ---- ------ - -------- ---- -----<br>--- ------- ---- -- --- -------- --- - ----- ------ ---- --<br>-------- --- -------- Anderson --- -------- ---- -- ----- -<br>-------- ---- --- ---------- --------- -- ------- ------ -<br>--------- ----- -----,175323.5,175322.80000001192,174488.692,174499.80000001192,174505.361,175339.197,,34,Anderson
screen,html.Screen,0_4_1_0_1_35,2021-11-25T15:03:44.435Z,,,,,,,,,,,,,,,,15,,,,,,,,,,,,,,511.90299999405397,,response,,,7,B,,,,,Space,keypress(Space),,,,lyrical,---- --------- ---------- - --- ------- -- --- ------------<br>----- -- -------- ------- ---- ------ - -------- ---- -----<br>--- ------- ---- -- --- -------- --- - ----- ------ ---- --<br>-------- --- -------- -------- was -------- ---- -- ----- -<br>-------- ---- --- ---------- --------- -- ------- ------ -<br>--------- ----- -----,175851.90000000596,175851.09999999404,175322.525,175323.80000001192,175339.197,175855.744,,35,was
screen,html.Screen,0_4_1_0_1_36,2021-11-25T15:03:44.930Z,,,,,,,,,,,,,,,,15,,,,,,,,,,,,,,490.955999988073,,response,,,7,B,,,,,Space,keypress(Space),,,,lyrical,---- --------- ---------- - --- ------- -- --- ------------<br>----- -- -------- ------- ---- ------ - -------- ---- -----<br>--- ------- ---- -- --- -------- --- - ----- ------ ---- --<br>-------- --- -------- -------- --- released ---- -- ----- -<br>-------- ---- --- ---------- --------- -- ------- ------ -<br>--------- ----- -----,176347.5,176346.69999998808,175839.075,175852.09999999404,175855.744,176356.054,,36,released
screen,html.Screen,0_4_1_0_1_37,2021-11-25T15:03:45.306Z,,,,,,,,,,,,,,,,15,,,,,,,,,,,,,,366.64599998807535,,response,,,7,B,,,,,Space,keypress(Space),,,,lyrical,---- --------- ---------- - --- ------- -- --- ------------<br>----- -- -------- ------- ---- ------ - -------- ---- -----<br>--- ------- ---- -- --- -------- --- - ----- ------ ---- --<br>-------- --- -------- -------- --- -------- July -- ----- -<br>-------- ---- --- ---------- --------- -- ------- ------ -<br>--------- ----- -----,176723.59999999404,176722.69999998808,176339.383,176347.80000001192,176356.054,176739.323,,37,July
screen,html.Screen,0_4_1_0_1_38,2021-11-25T15:03:45.674Z,,,,,,,,,,,,,,,,15,,,,,,,,,,,,,,351.17699999999604,,response,,,7,B,,,,,Space,keypress(Space),,,,lyrical,---- --------- ---------- - --- ------- -- --- ------------<br>----- -- -------- ------- ---- ------ - -------- ---- -----<br>--- ------- ---- -- --- -------- --- - ----- ------ ---- --<br>-------- --- -------- -------- --- -------- ---- 20 ----- -<br>-------- ---- --- ---------- --------- -- ------- ------ -<br>--------- ----- -----,177091.40000000596,177090.5,176722.654,176723.90000000596,176739.323,177106.15,,38,20
screen,html.Screen,0_4_1_0_1_39,2021-11-25T15:03:46.066Z,,,,,,,,,,,,,,,,15,,,,,,,,,,,,,,376.44999999404536,,response,,,7,B,,,,,Space,keypress(Space),,,,lyrical,---- --------- ---------- - --- ------- -- --- ------------<br>----- -- -------- ------- ---- ------ - -------- ---- -----<br>--- ------- ---- -- --- -------- --- - ----- ------ ---- --<br>-------- --- -------- -------- --- -------- ---- -- after -<br>-------- ---- --- ---------- --------- -- ------- ------ -<br>--------- ----- -----,177483.40000000596,177482.59999999404,177089.48,177091.59999999404,177106.15,177489.627,,39,after
screen,html.Screen,0_4_1_0_1_40,2021-11-25T15:03:46.482Z,,,,,,,,,,,,,,,,15,,,,,,,,,,,,,,408.97299999403185,,response,,,7,B,,,,,Space,keypress(Space),,,,lyrical,---- --------- ---------- - --- ------- -- --- ------------<br>----- -- -------- ------- ---- ------ - -------- ---- -----<br>--- ------- ---- -- --- -------- --- - ----- ------ ---- --<br>-------- --- -------- -------- --- -------- ---- -- ----- a<br>-------- ---- --- ---------- --------- -- ------- ------ -<br>--------- ----- -----,177899.40000000596,177898.59999999404,177472.956,177483.59999999404,177489.627,177906.482,,40,a
screen,html.Screen,0_4_1_0_1_41,2021-11-25T15:03:46.906Z,,,,,,,,,,,,,,,,15,,,,,,,,,,,,,,416.1179999940505,,response,,,7,B,,,,,Space,keypress(Space),,,,lyrical,---- --------- ---------- - --- ------- -- --- ------------<br>----- -- -------- ------- ---- ------ - -------- ---- -----<br>--- ------- ---- -- --- -------- --- - ----- ------ ---- --<br>-------- --- -------- -------- --- -------- ---- -- ----- -<br>two-week ---- --- ---------- --------- -- ------- ------ -<br>--------- ----- -----,178323.40000000596,178322.59999999404,177889.81,177899.69999998808,177906.482,178339.889,,41,two-week
screen,html.Screen,0_4_1_0_1_42,2021-11-25T15:03:47.282Z,,,,,,,,,,,,,,,,15,,,,,,,,,,,,,,358.6110000000044,,response,,,7,B,,,,,Space,keypress(Space),,,,lyrical,---- --------- ---------- - --- ------- -- --- ------------<br>----- -- -------- ------- ---- ------ - -------- ---- -----<br>--- ------- ---- -- --- -------- --- - ----- ------ ---- --<br>-------- --- -------- -------- --- -------- ---- -- ----- -<br>-------- stay --- ---------- --------- -- ------- ------ -<br>--------- ----- -----,178699.40000000596,178698.5,178323.218,178323.69999998808,178339.889,178706.461,,42,stay
screen,html.Screen,0_4_1_0_1_43,2021-11-25T15:03:47.666Z,,,,,,,,,,,,,,,,15,,,,,,,,,,,,,,376.1389999940293,,response,,,7,B,,,,,Space,keypress(Space),,,,lyrical,---- --------- ---------- - --- ------- -- --- ------------<br>----- -- -------- ------- ---- ------ - -------- ---- -----<br>--- ------- ---- -- --- -------- --- - ----- ------ ---- --<br>-------- --- -------- -------- --- -------- ---- -- ----- -<br>-------- ---- for ---------- --------- -- ------- ------ -<br>--------- ----- -----,179083.40000000596,179082.59999999404,178689.793,178699.59999999404,178706.461,179090.119,,43,for
screen,html.Screen,0_4_1_0_1_44,2021-11-25T15:03:48.122Z,,,,,,,,,,,,,,,,15,,,,,,,,,,,,,,448.38099999999395,,response,,,7,B,,,,,Space,keypress(Space),,,,lyrical,---- --------- ---------- - --- ------- -- --- ------------<br>----- -- -------- ------- ---- ------ - -------- ---- -----<br>--- ------- ---- -- --- -------- --- - ----- ------ ---- --<br>-------- --- -------- -------- --- -------- ---- -- ----- -<br>-------- ---- --- previously --------- -- ------- ------ -<br>--------- ----- -----,179539.30000001192,179538.5,179073.447,179083.5,179090.119,179556.711,,44,previously
screen,html.Screen,0_4_1_0_1_45,2021-11-25T15:03:48.642Z,,,,,,,,,,,,,,,,15,,,,,,,,,,,,,,501.78899999998976,,response,,,7,B,,,,,Space,keypress(Space),,,,lyrical,---- --------- ---------- - --- ------- -- --- ------------<br>----- -- -------- ------- ---- ------ - -------- ---- -----<br>--- ------- ---- -- --- -------- --- - ----- ------ ---- --<br>-------- --- -------- -------- --- -------- ---- -- ----- -<br>-------- ---- --- ---------- declining -- ------- ------ -<br>--------- ----- -----,180059.30000001192,180058.5,179540.042,179539.5,179556.711,180073.721,,45,declining
screen,html.Screen,0_4_1_0_1_46,2021-11-25T15:03:49.083Z,,,,,,,,,,,,,,,,15,,,,,,,,,,,,,,424.77900000000955,,response,,,7,B,,,,,Space,keypress(Space),,,,lyrical,---- --------- ---------- - --- ------- -- --- ------------<br>----- -- -------- ------- ---- ------ - -------- ---- -----<br>--- ------- ---- -- --- -------- --- - ----- ------ ---- --<br>-------- --- -------- -------- --- -------- ---- -- ----- -<br>-------- ---- --- ---------- --------- to ------- ------ -<br>--------- ----- -----,180499.19999998808,180498.5,180057.049,180059.5,180073.721,180507.051,,46,to
screen,html.Screen,0_4_1_0_1_47,2021-11-25T15:03:49.531Z,,,,,,,,,,,,,,,,15,,,,,,,,,,,,,,439.44899999999325,,response,,,7,B,,,,,Space,keypress(Space),,,,lyrical,---- --------- ---------- - --- ------- -- --- ------------<br>----- -- -------- ------- ---- ------ - -------- ---- -----<br>--- ------- ---- -- --- -------- --- - ----- ------ ---- --<br>-------- --- -------- -------- --- -------- ---- -- ----- -<br>-------- ---- --- ---------- --------- -- testify ------ -<br>--------- ----- -----,180947.19999998808,180946.5,180490.381,180499.5,180507.051,180957.08,,47,testify
screen,html.Screen,0_4_1_0_1_48,2021-11-25T15:03:49.955Z,,,,,,,,,,,,,,,,15,,,,,,,,,,,,,,413.82000000597327,,response,,,7,B,,,,,Space,keypress(Space),,,,lyrical,---- --------- ---------- - --- ------- -- --- ------------<br>----- -- -------- ------- ---- ------ - -------- ---- -----<br>--- ------- ---- -- --- -------- --- - ----- ------ ---- --<br>-------- --- -------- -------- --- -------- ---- -- ----- -<br>-------- ---- --- ---------- --------- -- ------- before -<br>--------- ----- -----,181371.59999999404,181370.90000000596,180940.411,180947.40000000596,180957.08,181374.038,,48,before
screen,html.Screen,0_4_1_0_1_49,2021-11-25T15:03:50.435Z,,,,,,,,,,,,,,,,15,,,,,,,,,,,,,,476.26200001192046,,response,,,7,B,,,,,Space,keypress(Space),,,,lyrical,---- --------- ---------- - --- ------- -- --- ------------<br>----- -- -------- ------- ---- ------ - -------- ---- -----<br>--- ------- ---- -- --- -------- --- - ----- ------ ---- --<br>-------- --- -------- -------- --- -------- ---- -- ----- -<br>-------- ---- --- ---------- --------- -- ------- ------ a<br>--------- ----- -----,181851.09999999404,181850.30000001192,181357.366,181371.80000001192,181374.038,181857.321,,49,a
screen,html.Screen,0_4_1_0_1_50,2021-11-25T15:03:51.011Z,,,,,,,,,,,,,,,,15,,,,,,,,,,,,,,569.0790000059642,,response,,,7,B,,,,,Space,keypress(Space),,,,lyrical,---- --------- ---------- - --- ------- -- --- ------------<br>----- -- -------- ------- ---- ------ - -------- ---- -----<br>--- ------- ---- -- --- -------- --- - ----- ------ ---- --<br>-------- --- -------- -------- --- -------- ---- -- ----- -<br>-------- ---- --- ---------- --------- -- ------- ------ -<br>different ----- -----,182427.19999998808,182426.40000000596,181840.652,181851.30000001192,181857.321,182440.987,,50,different
screen,html.Screen,0_4_1_0_1_51,2021-11-25T15:03:51.443Z,,,,,,,,,,,,,,,,15,,,,,,,,,,,,,,417.41300000596675,,response,,,7,B,,,,,Space,keypress(Space),,,,lyrical,---- --------- ---------- - --- ------- -- --- ------------<br>----- -- -------- ------- ---- ------ - -------- ---- -----<br>--- ------- ---- -- --- -------- --- - ----- ------ ---- --<br>-------- --- -------- -------- --- -------- ---- -- ----- -<br>-------- ---- --- ---------- --------- -- ------- ------ -<br>--------- grand -----,182859.19999998808,182858.40000000596,182424.315,182427.40000000596,182440.987,182874.401,,51,grand
screen,html.Screen,0_4_1_0_1_52,2021-11-25T15:03:52.490Z,,,,,,,,,,,,,,,,15,,,,,,,,,,,,,,1031.8990000119084,,response,,,7,B,,,,,Space,keypress(Space),,,,lyrical,---- --------- ---------- - --- ------- -- --- ------------<br>----- -- -------- ------- ---- ------ - -------- ---- -----<br>--- ------- ---- -- --- -------- --- - ----- ------ ---- --<br>-------- --- -------- -------- --- -------- ---- -- ----- -<br>-------- ---- --- ---------- --------- -- ------- ------ -<br>--------- ----- jury.,183907.09999999404,183906.30000001192,182857.73,182859.40000000596,182874.401,183924.559,,52,jury.
Item 7,flow.Loop,0_4_1_0_1,2021-11-25T15:03:52.491Z,,,,,,,,,,,,,,,,,,,,,,,,,,,,,,29539.39700001193,,completion,,,,,,,,,,,,,,,,183907.5,183906.30000001192,154350.233,154352.30000001192,154366.903,183924.559,,,
Question 1,html.Screen,0_4_1_0_2,2021-11-25T15:03:54.523Z,,,,,,,,,,,,,,,,,,,,,,,,,,,true,FALSE,,2013.4409999999916,,response,,,7,B,,,,,FALSE,click #choice-2,,,,lyrical,,185939.09999999404,185938,183907.889,183907.69999998808,183924.559,185941.709,,,
