sender,sender_type,sender_id,timestamp,meta,,Blues,Classical,Country,Dance,Electronic,Folk,Gospel,Hip-Hop,Jazz,Latin,Musical/Film,New-age,Pop,Provo_ID,R&B,Rap,Reggae,Religious,Rock,Soul,Swing,Traditional,age,artist_name,correct,correctResponse,distraction,duration,education,ended_on,familiarity,gender,item,list,music_frequency,offensiveness,pleasantness,preference,response,response_action,snippet_file,song_name,song_rating,sound,text,time_commit,time_end,time_render,time_run,time_show,time_switch,url,word,word_ID
Instructions,html.Page,0_0,2021-12-10T12:35:03.262Z,"{""labjs_version"":""20.2.3"",""labjs_build"":{""flavor"":""production"",""commit"":""7ea907d66ca8aeef8054924ca5d82ffbe11e34e5""},""location"":""https://run.pavlovia.org/mvasilev/lab_music_f/"",""userAgent"":""Mozilla/5.0 (Windows NT 6.1; Win64; x64) AppleWebKit/537.36 (KHTML, like Gecko) Chrome/96.0.4664.93 Safari/537.36"",""platform"":""Win32"",""language"":""en-US"",""locale"":""en-US"",""timeZone"":""Europe/London"",""timezoneOffset"":0,""screen_width"":1920,""screen_height"":1080,""scroll_width"":1920,""scroll_height"":959,""window_innerWidth"":1920,""window_innerHeight"":1007,""devicePixelRatio"":1}",,,,,,,,,,,,,,,,,,,,,,,,,,,,,18114.360000047684,,form submission,,,,,,,,,,,,,,,,28708.900000035763,28707.700000047684,10543.33,10560.100000023842,10593.34,28716.869,{},,
Headphones,html.Page,0_1,2021-12-10T12:35:08.400Z,,,,,,,,,,,,,,,,,,,,,,,,,,,,,,5129.531000035764,,form submission,,,,,,,,,,,,,,,,33846.90000003576,33846.40000003576,28700.152,28709.700000047684,28716.869,33866.642,,,
Holding screen,html.Screen,0_2_0_0,2021-12-10T12:35:18.412Z,,,,,,,,,,,,,,,,,,,,,,,,,,,,,,10002.374000000003,,timeout,,,,,,,,,,,,,,,,43858.40000003576,43852.347,33833.3,33847.700000047684,33866.642,43869.016,,,
screen,html.Screen,0_2_0_1_0,2021-12-10T12:35:19.311Z,,,,,,,,,,,,,,,,53,,,,,,,,,,,,,,887.5840000238386,,response,,,99,,,,,,Space,keypress(Space),,,,,When -- ----- -- ------ - ------- --- ----------<br>------------- ------ ------ ---- ---- ------- ----- -- ----<br>-------- ------- -- ---------- --- - --- ----- ----- ----<br>---- --- --- ----- --- ---- ---- ------- ----- ---- -------<br>--- --- -- ----- -- --- ---- -- --- ---- -- ------ ------<br>--- ----- -- ----,44758.10000002384,44756.60000002384,43852.347,43858.80000001192,43869.016,44769.585,,0,When
screen,html.Screen,0_2_0_1_1,2021-12-10T12:35:19.703Z,,,,,,,,,,,,,,,,53,,,,,,,,,,,,,,379.01500002384273,,response,,,99,,,,,,Space,keypress(Space),,,,,---- it ----- -- ------ - ------- --- ----------<br>------------- ------ ------ ---- ---- ------- ----- -- ----<br>-------- ------- -- ---------- --- - --- ----- ----- ----<br>---- --- --- ----- --- ---- ---- ------- ----- ---- -------<br>--- --- -- ----- -- --- ---- -- --- ---- -- ------ ------<br>--- ----- -- ----,45149.60000002384,45148.60000002384,44752.914,44758.5,44769.585,45152.867,,1,it
screen,html.Screen,0_2_0_1_2,2021-12-10T12:35:20.071Z,,,,,,,,,,,,,,,,53,,,,,,,,,,,,,,363.7330000238435,,response,,,99,,,,,,Space,keypress(Space),,,,,---- -- comes -- ------ - ------- --- ----------<br>------------- ------ ------ ---- ---- ------- ----- -- ----<br>-------- ------- -- ---------- --- - --- ----- ----- ----<br>---- --- --- ----- --- ---- ---- ------- ----- ---- -------<br>--- --- -- ----- -- --- ---- -- --- ---- -- ------ ------<br>--- ----- -- ----,45517.60000002384,45516.60000002384,45136.197,45149.80000001192,45152.867,45519.774,,2,comes
screen,html.Screen,0_2_0_1_3,2021-12-10T12:35:20.439Z,,,,,,,,,,,,,,,,53,,,,,,,,,,,,,,364.82600002384424,,response,,,99,,,,,,Space,keypress(Space),,,,,---- -- ----- to ------ - ------- --- ----------<br>------------- ------ ------ ---- ---- ------- ----- -- ----<br>-------- ------- -- ---------- --- - --- ----- ----- ----<br>---- --- --- ----- --- ---- ---- ------- ----- ---- -------<br>--- --- -- ----- -- --- ---- -- --- ---- -- ------ ------<br>--- ----- -- ----,45885.60000002384,45884.60000002384,45503.103,45517.80000001192,45519.774,45903.158,,3,to
screen,html.Screen,0_2_0_1_4,2021-12-10T12:35:20.847Z,,,,,,,,,,,,,,,,53,,,,,,,,,,,,,,389.4420000238388,,response,,,99,,,,,,Space,keypress(Space),,,,,---- -- ----- -- having - ------- --- ----------<br>------------- ------ ------ ---- ---- ------- ----- -- ----<br>-------- ------- -- ---------- --- - --- ----- ----- ----<br>---- --- --- ----- --- ---- ---- ------- ----- ---- -------<br>--- --- -- ----- -- --- ---- -- --- ---- -- ------ ------<br>--- ----- -- ----,46293.80000001192,46292.60000002384,45886.488,45886.10000002384,45903.158,46303.181,,4,having
screen,html.Screen,0_2_0_1_5,2021-12-10T12:35:21.207Z,,,,,,,,,,,,,,,,53,,,,,,,,,,,,,,349.51900004768686,,response,,,99,,,,,,Space,keypress(Space),,,,,---- -- ----- -- ------ a ------- --- ----------<br>------------- ------ ------ ---- ---- ------- ----- -- ----<br>-------- ------- -- ---------- --- - --- ----- ----- ----<br>---- --- --- ----- --- ---- ---- ------- ----- ---- -------<br>--- --- -- ----- -- --- ---- -- --- ---- -- ------ ------<br>--- ----- -- ----,46653.60000002384,46652.700000047684,46286.512,46294.10000002384,46303.181,46670.113,,5,a
screen,html.Screen,0_2_0_1_6,2021-12-10T12:35:21.607Z,,,,,,,,,,,,,,,,53,,,,,,,,,,,,,,382.4870000238443,,response,,,99,,,,,,Space,keypress(Space),,,,,---- -- ----- -- ------ - lasting --- ----------<br>------------- ------ ------ ---- ---- ------- ----- -- ----<br>-------- ------- -- ---------- --- - --- ----- ----- ----<br>---- --- --- ----- --- ---- ---- ------- ----- ---- -------<br>--- --- -- ----- -- --- ---- -- --- ---- -- ------ ------<br>--- ----- -- ----,47053.60000002384,47052.60000002384,46653.441,46654.200000047684,46670.113,47070.187,,6,lasting
screen,html.Screen,0_2_0_1_7,2021-12-10T12:35:21.999Z,,,,,,,,,,,,,,,,53,,,,,,,,,,,,,,374.4130000238438,,response,,,99,,,,,,Space,keypress(Space),,,,,---- -- ----- -- ------ - ------- and ----------<br>------------- ------ ------ ---- ---- ------- ----- -- ----<br>-------- ------- -- ---------- --- - --- ----- ----- ----<br>---- --- --- ----- --- ---- ---- ------- ----- ---- -------<br>--- --- -- ----- -- --- ---- -- --- ---- -- ------ ------<br>--- ----- -- ----,47445.5,47444.60000002384,47053.516,47054,47070.187,47453.571,,7,and
screen,html.Screen,0_2_0_1_8,2021-12-10T12:35:22.431Z,,,,,,,,,,,,,,,,53,,,,,,,,,,,,,,422.92899999999645,,response,,,99,,,,,,Space,keypress(Space),,,,,---- -- ----- -- ------ - ------- --- fulfilling<br>------------- ------ ------ ---- ---- ------- ----- -- ----<br>-------- ------- -- ---------- --- - --- ----- ----- ----<br>---- --- --- ----- --- ---- ---- ------- ----- ---- -------<br>--- --- -- ----- -- --- ---- -- --- ---- -- ------ ------<br>--- ----- -- ----,47877.60000002384,47876.5,47436.901,47445.90000003576,47453.571,47887.03,,8,fulfilling
screen,html.Screen,0_2_0_1_9,2021-12-10T12:35:22.919Z,,,,,,,,,,,,,,,,53,,,,,,,,,,,,,,477.47000000000116,,response,,,99,,,,,,Space,keypress(Space),,,,,"---- -- ----- -- ------ - ------- --- ----------<br>relationship, ------ ------ ---- ---- ------- ----- -- ----<br>-------- ------- -- ---------- --- - --- ----- ----- ----<br>---- --- --- ----- --- ---- ---- ------- ----- ---- -------<br>--- --- -- ----- -- --- ---- -- --- ---- -- ------ ------<br>--- ----- -- ----",48365.60000002384,48364.5,47870.36,47878,47887.03,48370.462,,9,"relationship,"
screen,html.Screen,0_2_0_1_10,2021-12-10T12:35:23.327Z,,,,,,,,,,,,,,,,53,,,,,,,,,,,,,,402.1380000238423,,response,,,99,,,,,,Space,keypress(Space),,,,,---- -- ----- -- ------ - ------- --- ----------<br>------------- common ------ ---- ---- ------- ----- -- ----<br>-------- ------- -- ---------- --- - --- ----- ----- ----<br>---- --- --- ----- --- ---- ---- ------- ----- ---- -------<br>--- --- -- ----- -- --- ---- -- --- ---- -- ------ ------<br>--- ----- -- ----,48773.5,48772.60000002384,48353.792,48365.90000003576,48370.462,48787.246,,10,common
screen,html.Screen,0_2_0_1_11,2021-12-10T12:35:23.735Z,,,,,,,,,,,,,,,,53,,,,,,,,,,,,,,393.6540000357636,,response,,,99,,,,,,Space,keypress(Space),,,,,---- -- ----- -- ------ - ------- --- ----------<br>------------- ------ wisdom ---- ---- ------- ----- -- ----<br>-------- ------- -- ---------- --- - --- ----- ----- ----<br>---- --- --- ----- --- ---- ---- ------- ----- ---- -------<br>--- --- -- ----- -- --- ---- -- --- ---- -- ------ ------<br>--- ----- -- ----,49181.90000003576,49180.90000003576,48770.576,48773.80000001192,48787.246,49187.401,,11,wisdom
screen,html.Screen,0_2_0_1_12,2021-12-10T12:35:24.191Z,,,,,,,,,,,,,,,,53,,,,,,,,,,,,,,449.099000000002,,response,,,99,,,,,,Space,keypress(Space),,,,,---- -- ----- -- ------ - ------- --- ----------<br>------------- ------ ------ says ---- ------- ----- -- ----<br>-------- ------- -- ---------- --- - --- ----- ----- ----<br>---- --- --- ----- --- ---- ---- ------- ----- ---- -------<br>--- --- -- ----- -- --- ---- -- --- ---- -- ------ ------<br>--- ----- -- ----,49637.40000003576,49636.5,49170.73,49182.200000047684,49187.401,49654.156,,12,says
screen,html.Screen,0_2_0_1_13,2021-12-10T12:35:24.615Z,,,,,,,,,,,,,,,,53,,,,,,,,,,,,,,406.3439999999973,,response,,,99,,,,,,Space,keypress(Space),,,,,---- -- ----- -- ------ - ------- --- ----------<br>------------- ------ ------ ---- that ------- ----- -- ----<br>-------- ------- -- ---------- --- - --- ----- ----- ----<br>---- --- --- ----- --- ---- ---- ------- ----- ---- -------<br>--- --- -- ----- -- --- ---- -- --- ---- -- ------ ------<br>--- ----- -- ----,50061.30000001192,50060.5,49637.486,49637.60000002384,49654.156,50070.974,,13,that
screen,html.Screen,0_2_0_1_14,2021-12-10T12:35:25.079Z,,,,,,,,,,,,,,,,53,,,,,,,,,,,,,,453.525999999998,,response,,,99,,,,,,Space,keypress(Space),,,,,---- -- ----- -- ------ - ------- --- ----------<br>------------- ------ ------ ---- ---- feeling ----- -- ----<br>-------- ------- -- ---------- --- - --- ----- ----- ----<br>---- --- --- ----- --- ---- ---- ------- ----- ---- -------<br>--- --- -- ----- -- --- ---- -- --- ---- -- ------ ------<br>--- ----- -- ----,50525.40000003576,50524.5,50054.303,50061.60000002384,50070.974,50537.727,,14,feeling
screen,html.Screen,0_2_0_1_15,2021-12-10T12:35:25.535Z,,,,,,,,,,,,,,,,53,,,,,,,,,,,,,,442.67300003576383,,response,,,99,,,,,,Space,keypress(Space),,,,,---- -- ----- -- ------ - ------- --- ----------<br>------------- ------ ------ ---- ---- ------- close -- ----<br>-------- ------- -- ---------- --- - --- ----- ----- ----<br>---- --- --- ----- --- ---- ---- ------- ----- ---- -------<br>--- --- -- ----- -- --- ---- -- --- ---- -- ------ ------<br>--- ----- -- ----,50981.200000047684,50980.40000003576,50521.057,50525.60000002384,50537.727,50987.846,,15,close
screen,html.Screen,0_2_0_1_16,2021-12-10T12:35:25.879Z,,,,,,,,,,,,,,,,53,,,,,,,,,,,,,,336.55400003576506,,response,,,99,,,,,,Space,keypress(Space),,,,,---- -- ----- -- ------ - ------- --- ----------<br>------------- ------ ------ ---- ---- ------- ----- to ----<br>-------- ------- -- ---------- --- - --- ----- ----- ----<br>---- --- --- ----- --- ---- ---- ------- ----- ---- -------<br>--- --- -- ----- -- --- ---- -- --- ---- -- ------ ------<br>--- ----- -- ----,51325.30000001192,51324.40000003576,50971.176,50981.5,50987.846,51337.947,,16,to
screen,html.Screen,0_2_0_1_17,2021-12-10T12:35:26.246Z,,,,,,,,,,,,,,,,53,,,,,,,,,,,,,,354.3530000119208,,response,,,99,,,,,,Space,keypress(Space),,,,,---- -- ----- -- ------ - ------- --- ----------<br>------------- ------ ------ ---- ---- ------- ----- -- your<br>-------- ------- -- ---------- --- - --- ----- ----- ----<br>---- --- --- ----- --- ---- ---- ------- ----- ---- -------<br>--- --- -- ----- -- --- ---- -- --- ---- -- ------ ------<br>--- ----- -- ----,51693.200000047684,51692.30000001192,51321.277,51325.5,51337.947,51704.693,,17,your
screen,html.Screen,0_2_0_1_18,2021-12-10T12:35:26.638Z,,,,,,,,,,,,,,,,53,,,,,,,,,,,,,,379.7070000357635,,response,,,99,,,,,,Space,keypress(Space),,,,,---- -- ----- -- ------ - ------- --- ----------<br>------------- ------ ------ ---- ---- ------- ----- -- ----<br>romantic ------- -- ---------- --- - --- ----- ----- ----<br>---- --- --- ----- --- ---- ---- ------- ----- ---- -------<br>--- --- -- ----- -- --- ---- -- --- ---- -- ------ ------<br>--- ----- -- ----,52085.30000001192,52084.40000003576,51688.023,51693.40000003576,51704.693,52088.19,,18,romantic
screen,html.Screen,0_2_0_1_19,2021-12-10T12:35:27.062Z,,,,,,,,,,,,,,,,53,,,,,,,,,,,,,,420.21000003576046,,response,,,99,,,,,,Space,keypress(Space),,,,,---- -- ----- -- ------ - ------- --- ----------<br>------------- ------ ------ ---- ---- ------- ----- -- ----<br>-------- partner -- ---------- --- - --- ----- ----- ----<br>---- --- --- ----- --- ---- ---- ------- ----- ---- -------<br>--- --- -- ----- -- --- ---- -- --- ---- -- ------ ------<br>--- ----- -- ----,52509.200000047684,52508.40000003576,52071.519,52085.5,52088.19,52521.572,,19,partner
screen,html.Screen,0_2_0_1_20,2021-12-10T12:35:27.470Z,,,,,,,,,,,,,,,,53,,,,,,,,,,,,,,394.7280000119208,,response,,,99,,,,,,Space,keypress(Space),,,,,---- -- ----- -- ------ - ------- --- ----------<br>------------- ------ ------ ---- ---- ------- ----- -- ----<br>-------- ------- is ---------- --- - --- ----- ----- ----<br>---- --- --- ----- --- ---- ---- ------- ----- ---- -------<br>--- --- -- ----- -- --- ---- -- --- ---- -- ------ ------<br>--- ----- -- ----,52917.200000047684,52916.30000001192,52504.902,52509.40000003576,52521.572,52921.743,,20,is
screen,html.Screen,0_2_0_1_21,2021-12-10T12:35:27.942Z,,,,,,,,,,,,,,,,53,,,,,,,,,,,,,,466.6570000357606,,response,,,99,,,,,,Space,keypress(Space),,,,,---- -- ----- -- ------ - ------- --- ----------<br>------------- ------ ------ ---- ---- ------- ----- -- ----<br>-------- ------- -- paramount. --- - --- ----- ----- ----<br>---- --- --- ----- --- ---- ---- ------- ----- ---- -------<br>--- --- -- ----- -- --- ---- -- --- ---- -- ------ ------<br>--- ----- -- ----,53389.200000047684,53388.40000003576,52905.072,52917.40000003576,52921.743,53405.123,,21,paramount.
screen,html.Screen,0_2_0_1_22,2021-12-10T12:35:28.406Z,,,,,,,,,,,,,,,,53,,,,,,,,,,,,,,447.0770000476841,,response,,,99,,,,,,Space,keypress(Space),,,,,---- -- ----- -- ------ - ------- --- ----------<br>------------- ------ ------ ---- ---- ------- ----- -- ----<br>-------- ------- -- ---------- But - --- ----- ----- ----<br>---- --- --- ----- --- ---- ---- ------- ----- ---- -------<br>--- --- -- ----- -- --- ---- -- --- ---- -- ------ ------<br>--- ----- -- ----,53853.10000002384,53852.200000047684,53388.453,53389.80000001192,53405.123,53855.337,,22,But
screen,html.Screen,0_2_0_1_23,2021-12-10T12:35:28.814Z,,,,,,,,,,,,,,,,53,,,,,,,,,,,,,,404.9630000119214,,response,,,99,,,,,,Space,keypress(Space),,,,,---- -- ----- -- ------ - ------- --- ----------<br>------------- ------ ------ ---- ---- ------- ----- -- ----<br>-------- ------- -- ---------- --- a --- ----- ----- ----<br>---- --- --- ----- --- ---- ---- ------- ----- ---- -------<br>--- --- -- ----- -- --- ---- -- --- ---- -- ------ ------<br>--- ----- -- ----,54261.10000002384,54260.30000001192,53838.666,53853.30000001192,53855.337,54272.034,,23,a
screen,html.Screen,0_2_0_1_24,2021-12-10T12:35:29.230Z,,,,,,,,,,,,,,,,53,,,,,,,,,,,,,,404.2660000119213,,response,,,99,,,,,,Space,keypress(Space),,,,,---- -- ----- -- ------ - ------- --- ----------<br>------------- ------ ------ ---- ---- ------- ----- -- ----<br>-------- ------- -- ---------- --- - new ----- ----- ----<br>---- --- --- ----- --- ---- ---- ------- ----- ---- -------<br>--- --- -- ----- -- --- ---- -- --- ---- -- ------ ------<br>--- ----- -- ----,54677.10000002384,54676.30000001192,54255.364,54261.30000001192,54272.034,54688.868,,24,new
screen,html.Screen,0_2_0_1_25,2021-12-10T12:35:29.678Z,,,,,,,,,,,,,,,,53,,,,,,,,,,,,,,435.4320000119187,,response,,,99,,,,,,Space,keypress(Space),,,,,---- -- ----- -- ------ - ------- --- ----------<br>------------- ------ ------ ---- ---- ------- ----- -- ----<br>-------- ------- -- ---------- --- - --- study ----- ----<br>---- --- --- ----- --- ---- ---- ------- ----- ---- -------<br>--- --- -- ----- -- --- ---- -- --- ---- -- ------ ------<br>--- ----- -- ----,55125,55124.30000001192,54672.197,54677.30000001192,54688.868,55138.942,,25,study
screen,html.Screen,0_2_0_1_26,2021-12-10T12:35:30.070Z,,,,,,,,,,,,,,,,53,,,,,,,,,,,,,,377.258000047681,,response,,,99,,,,,,Space,keypress(Space),,,,,---- -- ----- -- ------ - ------- --- ----------<br>------------- ------ ------ ---- ---- ------- ----- -- ----<br>-------- ------- -- ---------- --- - --- ----- finds ----<br>---- --- --- ----- --- ---- ---- ------- ----- ---- -------<br>--- --- -- ----- -- --- ---- -- --- ---- -- ------ ------<br>--- ----- -- ----,55517,55516.200000047684,55122.272,55125.30000001192,55138.942,55522.377,,26,finds
screen,html.Screen,0_2_0_1_27,2021-12-10T12:35:30.470Z,,,,,,,,,,,,,,,,53,,,,,,,,,,,,,,393.8230000476833,,response,,,99,,,,,,Space,keypress(Space),,,,,---- -- ----- -- ------ - ------- --- ----------<br>------------- ------ ------ ---- ---- ------- ----- -- ----<br>-------- ------- -- ---------- --- - --- ----- ----- that<br>---- --- --- ----- --- ---- ---- ------- ----- ---- -------<br>--- --- -- ----- -- --- ---- -- --- ---- -- ------ ------<br>--- ----- -- ----,55917,55916.200000047684,55505.707,55517.30000001192,55522.377,55922.495,,27,that
screen,html.Screen,0_2_0_1_28,2021-12-10T12:35:30.950Z,,,,,,,,,,,,,,,,53,,,,,,,,,,,,,,473.7050000476811,,response,,,99,,,,,,Space,keypress(Space),,,,,---- -- ----- -- ------ - ------- --- ----------<br>------------- ------ ------ ---- ---- ------- ----- -- ----<br>-------- ------- -- ---------- --- - --- ----- ----- ----<br>it's --- --- ----- --- ---- ---- ------- ----- ---- -------<br>--- --- -- ----- -- --- ---- -- --- ---- -- ------ ------<br>--- ----- -- ----,56397.10000002384,56396.200000047684,55905.825,55917.200000047684,55922.495,56405.781,,28,it's
screen,html.Screen,0_2_0_1_29,2021-12-10T12:35:31.374Z,,,,,,,,,,,,,,,,53,,,,,,,,,,,,,,414.41900004768104,,response,,,99,,,,,,Space,keypress(Space),,,,,---- -- ----- -- ------ - ------- --- ----------<br>------------- ------ ------ ---- ---- ------- ----- -- ----<br>-------- ------- -- ---------- --- - --- ----- ----- ----<br>---- not --- ----- --- ---- ---- ------- ----- ---- -------<br>--- --- -- ----- -- --- ---- -- --- ---- -- ------ ------<br>--- ----- -- ----,56821,56820.200000047684,56389.113,56397.30000001192,56405.781,56822.811,,29,not
screen,html.Screen,0_2_0_1_30,2021-12-10T12:35:31.790Z,,,,,,,,,,,,,,,,53,,,,,,,,,,,,,,413.28900002384034,,response,,,99,,,,,,Space,keypress(Space),,,,,---- -- ----- -- ------ - ------- --- ----------<br>------------- ------ ------ ---- ---- ------- ----- -- ----<br>-------- ------- -- ---------- --- - --- ----- ----- ----<br>---- --- how ----- --- ---- ---- ------- ----- ---- -------<br>--- --- -- ----- -- --- ---- -- --- ---- -- ------ ------<br>--- ----- -- ----,57237.200000047684,57236.10000002384,56806.139,56821.30000001192,56822.811,57239.51,,30,how
screen,html.Screen,0_2_0_1_31,2021-12-10T12:35:32.166Z,,,,,,,,,,,,,,,,53,,,,,,,,,,,,,,372.5900000238398,,response,,,99,,,,,,Space,keypress(Space),,,,,---- -- ----- -- ------ - ------- --- ----------<br>------------- ------ ------ ---- ---- ------- ----- -- ----<br>-------- ------- -- ---------- --- - --- ----- ----- ----<br>---- --- --- close --- ---- ---- ------- ----- ---- -------<br>--- --- -- ----- -- --- ---- -- --- ---- -- ------ ------<br>--- ----- -- ----,57612.90000003576,57612.10000002384,57222.84,57237.30000001192,57239.51,57622.988,,31,close
screen,html.Screen,0_2_0_1_32,2021-12-10T12:35:33.446Z,,,,,,,,,,,,,,,,53,,,,,,,,,,,,,,1269.1120000238443,,response,,,99,,,,,,Space,keypress(Space),,,,,---- -- ----- -- ------ - ------- --- ----------<br>------------- ------ ------ ---- ---- ------- ----- -- ----<br>-------- ------- -- ---------- --- - --- ----- ----- ----<br>---- --- --- ----- you ---- ---- ------- ----- ---- -------<br>--- --- -- ----- -- --- ---- -- --- ---- -- ------ ------<br>--- ----- -- ----,58892.90000003576,58892.10000002384,57606.317,57613.200000047684,57622.988,58906.563,,32,you
screen,html.Screen,0_2_0_1_33,2021-12-10T12:35:33.958Z,,,,,,,,,,,,,,,,53,,,,,,,,,,,,,,497.9369999999981,,response,,,99,,,,,,Space,keypress(Space),,,,,---- -- ----- -- ------ - ------- --- ----------<br>------------- ------ ------ ---- ---- ------- ----- -- ----<br>-------- ------- -- ---------- --- - --- ----- ----- ----<br>---- --- --- ----- --- feel ---- ------- ----- ---- -------<br>--- --- -- ----- -- --- ---- -- --- ---- -- ------ ------<br>--- ----- -- ----,59405.200000047684,59404.5,58889.893,58893.10000002384,58906.563,59406.691,,33,feel
screen,html.Screen,0_2_0_1_34,2021-12-10T12:35:34.414Z,,,,,,,,,,,,,,,,53,,,,,,,,,,,,,,453.3090000000011,,response,,,99,,,,,,Space,keypress(Space),,,,,---- -- ----- -- ------ - ------- --- ----------<br>------------- ------ ------ ---- ---- ------- ----- -- ----<br>-------- ------- -- ---------- --- - --- ----- ----- ----<br>---- --- --- ----- --- ---- that ------- ----- ---- -------<br>--- --- -- ----- -- --- ---- -- --- ---- -- ------ ------<br>--- ----- -- ----,59860.80000001192,59860,59390.021,59405.40000003576,59406.691,59873.535,,34,that
screen,html.Screen,0_2_0_1_35,2021-12-10T12:35:34.864Z,,,,,,,,,,,,,,,,53,,,,,,,,,,,,,,434.4649999999965,,response,,,99,,,,,,Space,keypress(Space),,,,,---- -- ----- -- ------ - ------- --- ----------<br>------------- ------ ------ ---- ---- ------- ----- -- ----<br>-------- ------- -- ---------- --- - --- ----- ----- ----<br>---- --- --- ----- --- ---- ---- matters ----- ---- -------<br>--- --- -- ----- -- --- ---- -- --- ---- -- ------ ------<br>--- ----- -- ----,60308.90000003576,60308,59856.865,59861.10000002384,59873.535,60323.713,,35,matters
screen,html.Screen,0_2_0_1_36,2021-12-10T12:35:35.337Z,,,,,,,,,,,,,,,,53,,,,,,,,,,,,,,456.2869999999966,,response,,,99,,,,,,Space,keypress(Space),,,,,"---- -- ----- -- ------ - ------- --- ----------<br>------------- ------ ------ ---- ---- ------- ----- -- ----<br>-------- ------- -- ---------- --- - --- ----- ----- ----<br>---- --- --- ----- --- ---- ---- ------- most, ---- -------<br>--- --- -- ----- -- --- ---- -- --- ---- -- ------ ------<br>--- ----- -- ----",60781,60780,60307.042,60309.10000002384,60323.713,60790.295,,36,"most,"
screen,html.Screen,0_2_0_1_37,2021-12-10T12:35:35.784Z,,,,,,,,,,,,,,,,53,,,,,,,,,,,,,,437.70500000000175,,response,,,99,,,,,,Space,keypress(Space),,,,,---- -- ----- -- ------ - ------- --- ----------<br>------------- ------ ------ ---- ---- ------- ----- -- ----<br>-------- ------- -- ---------- --- - --- ----- ----- ----<br>---- --- --- ----- --- ---- ---- ------- ----- it's -------<br>--- --- -- ----- -- --- ---- -- --- ---- -- ------ ------<br>--- ----- -- ----,61228.700000047684,61228,60773.627,60781.30000001192,60790.295,61240.658,,37,it's
screen,html.Screen,0_2_0_1_38,2021-12-10T12:35:36.312Z,,,,,,,,,,,,,,,,53,,,,,,,,,,,,,,515.1420000119178,,response,,,99,,,,,,Space,keypress(Space),,,,,---- -- ----- -- ------ - ------- --- ----------<br>------------- ------ ------ ---- ---- ------- ----- -- ----<br>-------- ------- -- ---------- --- - --- ----- ----- ----<br>---- --- --- ----- --- ---- ---- ------- ----- ---- whether<br>--- --- -- ----- -- --- ---- -- --- ---- -- ------ ------<br>--- ----- -- ----,61756.700000047684,61755.80000001192,61223.986,61229,61240.658,61774.087,,38,whether
screen,html.Screen,0_2_0_1_39,2021-12-10T12:35:36.744Z,,,,,,,,,,,,,,,,53,,,,,,,,,,,,,,413.7130000119214,,response,,,99,,,,,,Space,keypress(Space),,,,,---- -- ----- -- ------ - ------- --- ----------<br>------------- ------ ------ ---- ---- ------- ----- -- ----<br>-------- ------- -- ---------- --- - --- ----- ----- ----<br>---- --- --- ----- --- ---- ---- ------- ----- ---- -------<br>you --- -- ----- -- --- ---- -- --- ---- -- ------ ------<br>--- ----- -- ----,62188.700000047684,62187.80000001192,61757.416,61756.90000003576,61774.087,62190.665,,39,you
screen,html.Screen,0_2_0_1_40,2021-12-10T12:35:37.144Z,,,,,,,,,,,,,,,,53,,,,,,,,,,,,,,397.13500001192006,,response,,,99,,,,,,Space,keypress(Space),,,,,---- -- ----- -- ------ - ------- --- ----------<br>------------- ------ ------ ---- ---- ------- ----- -- ----<br>-------- ------- -- ---------- --- - --- ----- ----- ----<br>---- --- --- ----- --- ---- ---- ------- ----- ---- -------<br>--- are -- ----- -- --- ---- -- --- ---- -- ------ ------<br>--- ----- -- ----,62588.60000002384,62587.80000001192,62173.997,62188.90000003576,62190.665,62591.032,,40,are
screen,html.Screen,0_2_0_1_41,2021-12-10T12:35:37.560Z,,,,,,,,,,,,,,,,53,,,,,,,,,,,,,,412.7680000119217,,response,,,99,,,,,,Space,keypress(Space),,,,,---- -- ----- -- ------ - ------- --- ----------<br>------------- ------ ------ ---- ---- ------- ----- -- ----<br>-------- ------- -- ---------- --- - --- ----- ----- ----<br>---- --- --- ----- --- ---- ---- ------- ----- ---- -------<br>--- --- as ----- -- --- ---- -- --- ---- -- ------ ------<br>--- ----- -- ----,63004.60000002384,63003.80000001192,62574.36,62588.80000001192,62591.032,63007.705,,41,as
screen,html.Screen,0_2_0_1_42,2021-12-10T12:35:37.976Z,,,,,,,,,,,,,,,,53,,,,,,,,,,,,,,412.19500003576104,,response,,,99,,,,,,Space,keypress(Space),,,,,---- -- ----- -- ------ - ------- --- ----------<br>------------- ------ ------ ---- ---- ------- ----- -- ----<br>-------- ------- -- ---------- --- - --- ----- ----- ----<br>---- --- --- ----- --- ---- ---- ------- ----- ---- -------<br>--- --- -- close -- --- ---- -- --- ---- -- ------ ------<br>--- ----- -- ----,63420.60000002384,63419.90000003576,62991.035,63004.90000003576,63007.705,63424.383,,42,close
screen,html.Screen,0_2_0_1_43,2021-12-10T12:35:38.352Z,,,,,,,,,,,,,,,,53,,,,,,,,,,,,,,371.4170000119193,,response,,,99,,,,,,Space,keypress(Space),,,,,---- -- ----- -- ------ - ------- --- ----------<br>------------- ------ ------ ---- ---- ------- ----- -- ----<br>-------- ------- -- ---------- --- - --- ----- ----- ----<br>---- --- --- ----- --- ---- ---- ------- ----- ---- -------<br>--- --- -- ----- as --- ---- -- --- ---- -- ------ ------<br>--- ----- -- ----,63796.60000002384,63795.80000001192,63407.714,63420.90000003576,63424.383,63808.007,,43,as
screen,html.Screen,0_2_0_1_44,2021-12-10T12:35:38.736Z,,,,,,,,,,,,,,,,53,,,,,,,,,,,,,,371.893000035765,,response,,,99,,,,,,Space,keypress(Space),,,,,---- -- ----- -- ------ - ------- --- ----------<br>------------- ------ ------ ---- ---- ------- ----- -- ----<br>-------- ------- -- ---------- --- - --- ----- ----- ----<br>---- --- --- ----- --- ---- ---- ------- ----- ---- -------<br>--- --- -- ----- -- you ---- -- --- ---- -- ------ ------<br>--- ----- -- ----,64180.700000047684,64179.90000003576,63791.335,63796.90000003576,63808.007,64191.364,,44,you
screen,html.Screen,0_2_0_1_45,2021-12-10T12:35:39.552Z,,,,,,,,,,,,,,,,53,,,,,,,,,,,,,,804.3360000476823,,response,,,99,,,,,,Space,keypress(Space),,,,,---- -- ----- -- ------ - ------- --- ----------<br>------------- ------ ------ ---- ---- ------- ----- -- ----<br>-------- ------- -- ---------- --- - --- ----- ----- ----<br>---- --- --- ----- --- ---- ---- ------- ----- ---- -------<br>--- --- -- ----- -- --- want -- --- ---- -- ------ ------<br>--- ----- -- ----,64996.60000002384,64995.700000047684,64174.694,64180.90000003576,64191.364,65008.197,,45,want
screen,html.Screen,0_2_0_1_46,2021-12-10T12:35:40.056Z,,,,,,,,,,,,,,,,53,,,,,,,,,,,,,,491.6030000119208,,response,,,99,,,,,,Space,keypress(Space),,,,,---- -- ----- -- ------ - ------- --- ----------<br>------------- ------ ------ ---- ---- ------- ----- -- ----<br>-------- ------- -- ---------- --- - --- ----- ----- ----<br>---- --- --- ----- --- ---- ---- ------- ----- ---- -------<br>--- --- -- ----- -- --- ---- to --- ---- -- ------ ------<br>--- ----- -- ----,65500.60000002384,65499.80000001192,64991.527,64996.80000001192,65008.197,65508.421,,46,to
screen,html.Screen,0_2_0_1_47,2021-12-10T12:35:40.496Z,,,,,,,,,,,,,,,,53,,,,,,,,,,,,,,431.2790000476816,,response,,,99,,,,,,Space,keypress(Space),,,,,"---- -- ----- -- ------ - ------- --- ----------<br>------------- ------ ------ ---- ---- ------- ----- -- ----<br>-------- ------- -- ---------- --- - --- ----- ----- ----<br>---- --- --- ----- --- ---- ---- ------- ----- ---- -------<br>--- --- -- ----- -- --- ---- -- be, ---- -- ------ ------<br>--- ----- -- ----",65940.5,65939.70000004768,65491.75,65500.80000001192,65508.421,65941.787,,47,"be,"
screen,html.Screen,0_2_0_1_48,2021-12-10T12:35:40.952Z,,,,,,,,,,,,,,,,53,,,,,,,,,,,,,,454.0130000119243,,response,,,99,,,,,,Space,keypress(Space),,,,,---- -- ----- -- ------ - ------- --- ----------<br>------------- ------ ------ ---- ---- ------- ----- -- ----<br>-------- ------- -- ---------- --- - --- ----- ----- ----<br>---- --- --- ----- --- ---- ---- ------- ----- ---- -------<br>--- --- -- ----- -- --- ---- -- --- even -- ------ ------<br>--- ----- -- ----,66396.5,66395.80000001192,65925.117,65940.80000001192,65941.787,66408.651,,48,even
screen,html.Screen,0_2_0_1_49,2021-12-10T12:35:41.352Z,,,,,,,,,,,,,,,,53,,,,,,,,,,,,,,387.0490000476857,,response,,,99,,,,,,Space,keypress(Space),,,,,---- -- ----- -- ------ - ------- --- ----------<br>------------- ------ ------ ---- ---- ------- ----- -- ----<br>-------- ------- -- ---------- --- - --- ----- ----- ----<br>---- --- --- ----- --- ---- ---- ------- ----- ---- -------<br>--- --- -- ----- -- --- ---- -- --- ---- if ------ ------<br>--- ----- -- ----,66796.40000003576,66795.70000004768,66391.98,66396.70000004768,66408.651,66808.765,,49,if
screen,html.Screen,0_2_0_1_50,2021-12-10T12:35:41.768Z,,,,,,,,,,,,,,,,53,,,,,,,,,,,,,,402.83500002384244,,response,,,99,,,,,,Space,keypress(Space),,,,,---- -- ----- -- ------ - ------- --- ----------<br>------------- ------ ------ ---- ---- ------- ----- -- ----<br>-------- ------- -- ---------- --- - --- ----- ----- ----<br>---- --- --- ----- --- ---- ---- ------- ----- ---- -------<br>--- --- -- ----- -- --- ---- -- --- ---- -- that's ------<br>--- ----- -- ----,67212.5,67211.60000002384,66792.094,66796.70000004768,66808.765,67225.347,,50,that's
screen,html.Screen,0_2_0_1_51,2021-12-10T12:35:42.680Z,,,,,,,,,,,,,,,,53,,,,,,,,,,,,,,898.2530000238476,,response,,,99,,,,,,Space,keypress(Space),,,,,---- -- ----- -- ------ - ------- --- ----------<br>------------- ------ ------ ---- ---- ------- ----- -- ----<br>-------- ------- -- ---------- --- - --- ----- ----- ----<br>---- --- --- ----- --- ---- ---- ------- ----- ---- -------<br>--- --- -- ----- -- --- ---- -- --- ---- -- ------ really<br>--- ----- -- ----,68124.5,68123.60000002384,67208.679,67212.70000004768,67225.347,68125.85,,51,really
screen,html.Screen,0_2_0_1_52,2021-12-10T12:35:43.144Z,,,,,,,,,,,,,,,,53,,,,,,,,,,,,,,461.75000002383604,,response,,,99,,,,,,Space,keypress(Space),,,,,---- -- ----- -- ------ - ------- --- ----------<br>------------- ------ ------ ---- ---- ------- ----- -- ----<br>-------- ------- -- ---------- --- - --- ----- ----- ----<br>---- --- --- ----- --- ---- ---- ------- ----- ---- -------<br>--- --- -- ----- -- --- ---- -- --- ---- -- ------ ------<br>not ----- -- ----,68588.40000003576,68587.60000002384,68109.178,68124.70000004768,68125.85,68592.571,,52,not
screen,html.Screen,0_2_0_1_53,2021-12-10T12:35:43.536Z,,,,,,,,,,,,,,,,53,,,,,,,,,,,,,,387.0290000238456,,response,,,99,,,,,,Space,keypress(Space),,,,,---- -- ----- -- ------ - ------- --- ----------<br>------------- ------ ------ ---- ---- ------- ----- -- ----<br>-------- ------- -- ---------- --- - --- ----- ----- ----<br>---- --- --- ----- --- ---- ---- ------- ----- ---- -------<br>--- --- -- ----- -- --- ---- -- --- ---- -- ------ ------<br>--- close -- ----,68980.40000003576,68979.60000002384,68575.9,68588.60000002384,68592.571,68992.623,,53,close
screen,html.Screen,0_2_0_1_54,2021-12-10T12:35:43.880Z,,,,,,,,,,,,,,,,53,,,,,,,,,,,,,,330.977000023835,,response,,,99,,,,,,Space,keypress(Space),,,,,---- -- ----- -- ------ - ------- --- ----------<br>------------- ------ ------ ---- ---- ------- ----- -- ----<br>-------- ------- -- ---------- --- - --- ----- ----- ----<br>---- --- --- ----- --- ---- ---- ------- ----- ---- -------<br>--- --- -- ----- -- --- ---- -- --- ---- -- ------ ------<br>--- ----- at ----,69324.40000003576,69323.60000002384,68975.953,68980.60000002384,68992.623,69326.058,,54,at
screen,html.Screen,0_2_0_1_55,2021-12-10T12:35:44.352Z,,,,,,,,,,,,,,,,53,,,,,,,,,,,,,,469.94199999999546,,response,,,99,,,,,,Space,keypress(Space),,,,,---- -- ----- -- ------ - ------- --- ----------<br>------------- ------ ------ ---- ---- ------- ----- -- ----<br>-------- ------- -- ---------- --- - --- ----- ----- ----<br>---- --- --- ----- --- ---- ---- ------- ----- ---- -------<br>--- --- -- ----- -- --- ---- -- --- ---- -- ------ ------<br>--- ----- -- all.,69796.80000001192,69796,69309.388,69324.70000004768,69326.058,69809.5,,55,all.
Item 99,flow.Loop,0_2_0_1,2021-12-10T12:35:44.357Z,,,,,,,,,,,,,,,,,,,,,,,,,,,,,,25926.983999999997,,completion,,,,F,,,,,,,,,,silence,,69801.10000002384,69796,43852.347,43858.700000047684,43869.016,69809.5,,,
Question 1,html.Screen,0_2_0_2,2021-12-10T12:35:49.064Z,,,,,,,,,,,,,,,,,,,,,,,,,,,true,FALSE,,4697.600000023842,,response,,,99,F,,,,,FALSE,click #choice-2,,,,silence,,74508.5,74507.10000002384,69792.83,69801.40000003576,69809.5,74510.775,,,
Question 2,html.Screen,0_2_0_3,2021-12-10T12:35:53.440Z,,,,,,,,,,,,,,,,,,,,,,,,,,,true,TRUE,,4372.125000035769,,response,,,99,F,,,,,TRUE,click #choice-1,,,,silence,,78884.10000002384,78882.90000003576,74494.104,74508.80000001192,74510.775,78895.242,,,
Item 99,flow.Sequence,0_2_0,2021-12-10T12:35:53.440Z,,,,,,,,,,,,,,,,,,,,,,,,,,,,,,45016.25800003576,,completion,,,,,,,,,,,,,,,,78884.5,78882.90000003576,33833.3,33847.60000002384,33866.642,78895.242,,,
Holding screen,html.Screen,0_2_1_0,2021-12-10T12:36:03.438Z,,,,,,,,,,,,,,,,,,,,,,,,,,,,,,10002.515,,timeout,,,,,,,,,,,,,,,,88882.30000001192,88881.087,78878.572,78884.90000003576,78895.242,88897.757,,,
screen,html.Screen,0_2_1_1_0,2021-12-10T12:36:04.135Z,,,,,,,,,,,,,,,,54,,,,,,,,,,,,,,680.8430000238441,,response,,,100,,,,,,Space,keypress(Space),,,,,At --- ---- --- ------ ----- ------- ---- -- --- ------- --<br>------- ---------- ------ -- ----- -- ----- -- ---- ------<br>--- ----- --- --- ------ -------- ----- --- ------ ----- --<br>----- ----- ---------- --- --- ------ ------ ---- -- ------<br>------- --- ------ ----- --- ---- ------- -- ---- --- --<br>------- ------,89579.60000002384,89578.60000002384,88881.087,88882.70000004768,88897.757,89581.523,,0,At
screen,html.Screen,0_2_1_1_1,2021-12-10T12:36:04.599Z,,,,,,,,,,,,,,,,54,,,,,,,,,,,,,,461.0770000238408,,response,,,100,,,,,,Space,keypress(Space),,,,,-- the ---- --- ------ ----- ------- ---- -- --- ------- --<br>------- ---------- ------ -- ----- -- ----- -- ---- ------<br>--- ----- --- --- ------ -------- ----- --- ------ ----- --<br>----- ----- ---------- --- --- ------ ------ ---- -- ------<br>------- --- ------ ----- --- ---- ------- -- ---- --- --<br>------- ------,90043.40000003576,90042.60000002384,89564.851,89579.90000003576,89581.523,90048.204,,1,the
screen,html.Screen,0_2_1_1_2,2021-12-10T12:36:05.039Z,,,,,,,,,,,,,,,,54,,,,,,,,,,,,,,434.89600002384395,,response,,,100,,,,,,Space,keypress(Space),,,,,-- --- time --- ------ ----- ------- ---- -- --- ------- --<br>------- ---------- ------ -- ----- -- ----- -- ---- ------<br>--- ----- --- --- ------ -------- ----- --- ------ ----- --<br>----- ----- ---------- --- --- ------ ------ ---- -- ------<br>------- --- ------ ----- --- ---- ------- -- ---- --- --<br>------- ------,90483.80000001192,90483.10000002384,90031.534,90043.60000002384,90048.204,90498.381,,2,time
screen,html.Screen,0_2_1_1_3,2021-12-10T12:36:05.487Z,,,,,,,,,,,,,,,,54,,,,,,,,,,,,,,432.2190000238479,,response,,,100,,,,,,Space,keypress(Space),,,,,-- --- ---- the ------ ----- ------- ---- -- --- ------- --<br>------- ---------- ------ -- ----- -- ----- -- ---- ------<br>--- ----- --- --- ------ -------- ----- --- ------ ----- --<br>----- ----- ---------- --- --- ------ ------ ---- -- ------<br>------- --- ------ ----- --- ---- ------- -- ---- --- --<br>------- ------,90931.40000003576,90930.60000002384,90481.71,90484.10000002384,90498.381,90948.437,,3,the
screen,html.Screen,0_2_1_1_4,2021-12-10T12:36:06.048Z,,,,,,,,,,,,,,,,54,,,,,,,,,,,,,,542.1630000238365,,response,,,100,,,,,,Space,keypress(Space),,,,,-- --- ---- --- French ----- ------- ---- -- --- ------- --<br>------- ---------- ------ -- ----- -- ----- -- ---- ------<br>--- ----- --- --- ------ -------- ----- --- ------ ----- --<br>----- ----- ---------- --- --- ------ ------ ---- -- ------<br>------- --- ------ ----- --- ---- ------- -- ---- --- --<br>------- ------,91492.90000003576,91490.60000002384,90931.767,90931.60000002384,90948.437,91498.632,,4,French
screen,html.Screen,0_2_1_1_5,2021-12-10T12:36:06.567Z,,,,,,,,,,,,,,,,54,,,,,,,,,,,,,,511.8680000000022,,response,,,100,,,,,,Space,keypress(Space),,,,,-- --- ---- --- ------ crown ------- ---- -- --- ------- --<br>------- ---------- ------ -- ----- -- ----- -- ---- ------<br>--- ----- --- --- ------ -------- ----- --- ------ ----- --<br>----- ----- ---------- --- --- ------ ------ ---- -- ------<br>------- --- ------ ----- --- ---- ------- -- ---- --- --<br>------- ------,92011.30000001192,92010.5,91481.961,91493.10000002384,91498.632,92015.309,,5,crown
screen,html.Screen,0_2_1_1_6,2021-12-10T12:36:07.079Z,,,,,,,,,,,,,,,,54,,,,,,,,,,,,,,507.19100000000617,,response,,,100,,,,,,Space,keypress(Space),,,,,-- --- ---- --- ------ ----- secured ---- -- --- ------- --<br>------- ---------- ------ -- ----- -- ----- -- ---- ------<br>--- ----- --- --- ------ -------- ----- --- ------ ----- --<br>----- ----- ---------- --- --- ------ ------ ---- -- ------<br>------- --- ------ ----- --- ---- ------- -- ---- --- --<br>------- ------,92523.30000001192,92522.5,91998.64,92011.60000002384,92015.309,92532.318,,6,secured
screen,html.Screen,0_2_1_1_7,2021-12-10T12:36:07.567Z,,,,,,,,,,,,,,,,54,,,,,,,,,,,,,,478.0820000357635,,response,,,100,,,,,,Space,keypress(Space),,,,,-- --- ---- --- ------ ----- ------- much -- --- ------- --<br>------- ---------- ------ -- ----- -- ----- -- ---- ------<br>--- ----- --- --- ------ -------- ----- --- ------ ----- --<br>----- ----- ---------- --- --- ------ ------ ---- -- ------<br>------- --- ------ ----- --- ---- ------- -- ---- --- --<br>------- ------,93011.30000001192,93010.40000003576,92515.646,92523.5,92532.318,93015.672,,7,much
screen,html.Screen,0_2_1_1_8,2021-12-10T12:36:08.031Z,,,,,,,,,,,,,,,,54,,,,,,,,,,,,,,458.72800003575685,,response,,,100,,,,,,Space,keypress(Space),,,,,-- --- ---- --- ------ ----- ------- ---- of --- ------- --<br>------- ---------- ------ -- ----- -- ----- -- ---- ------<br>--- ----- --- --- ------ -------- ----- --- ------ ----- --<br>----- ----- ---------- --- --- ------ ------ ---- -- ------<br>------- --- ------ ----- --- ---- ------- -- ---- --- --<br>------- ------,93475.30000001192,93474.40000003576,92999.002,93011.40000003576,93015.672,93482.468,,8,of
screen,html.Screen,0_2_1_1_9,2021-12-10T12:36:08.511Z,,,,,,,,,,,,,,,,54,,,,,,,,,,,,,,471.9320000357693,,response,,,100,,,,,,Space,keypress(Space),,,,,-- --- ---- --- ------ ----- ------- ---- -- its ------- --<br>------- ---------- ------ -- ----- -- ----- -- ---- ------<br>--- ----- --- --- ------ -------- ----- --- ------ ----- --<br>----- ----- ---------- --- --- ------ ------ ---- -- ------<br>------- --- ------ ----- --- ---- ------- -- ---- --- --<br>------- ------,93955.20000004768,93954.40000003576,93465.798,93475.5,93482.468,93965.939,,9,its
screen,html.Screen,0_2_1_1_10,2021-12-10T12:36:08.999Z,,,,,,,,,,,,,,,,54,,,,,,,,,,,,,,476.4610000357643,,response,,,100,,,,,,Space,keypress(Space),,,,,-- --- ---- --- ------ ----- ------- ---- -- --- revenue --<br>------- ---------- ------ -- ----- -- ----- -- ---- ------<br>--- ----- --- --- ------ -------- ----- --- ------ ----- --<br>----- ----- ---------- --- --- ------ ------ ---- -- ------<br>------- --- ------ ----- --- ---- ------- -- ---- --- --<br>------- ------,94443.40000003576,94442.40000003576,93949.269,93955.40000003576,93965.939,94449.384,,10,revenue
screen,html.Screen,0_2_1_1_11,2021-12-10T12:36:09.383Z,,,,,,,,,,,,,,,,54,,,,,,,,,,,,,,377.0160000357573,,response,,,100,,,,,,Space,keypress(Space),,,,,-- --- ---- --- ------ ----- ------- ---- -- --- ------- by<br>------- ---------- ------ -- ----- -- ----- -- ---- ------<br>--- ----- --- --- ------ -------- ----- --- ------ ----- --<br>----- ----- ---------- --- --- ------ ------ ---- -- ------<br>------- --- ------ ----- --- ---- ------- -- ---- --- --<br>------- ------,94827.20000004768,94826.40000003576,94432.714,94443.70000004768,94449.384,94832.804,,11,by
screen,html.Screen,0_2_1_1_12,2021-12-10T12:36:09.991Z,,,,,,,,,,,,,,,,54,,,,,,,,,,,,,,601.5960000357591,,response,,,100,,,,,,Space,keypress(Space),,,,,-- --- ---- --- ------ ----- ------- ---- -- --- ------- --<br>issuing ---------- ------ -- ----- -- ----- -- ---- ------<br>--- ----- --- --- ------ -------- ----- --- ------ ----- --<br>----- ----- ---------- --- --- ------ ------ ---- -- ------<br>------- --- ------ ----- --- ---- ------- -- ---- --- --<br>------- ------,95435.20000004768,95434.40000003576,94816.134,94827.40000003576,94832.804,95449.691,,12,issuing
screen,html.Screen,0_2_1_1_13,2021-12-10T12:36:10.567Z,,,,,,,,,,,,,,,,54,,,,,,,,,,,,,,560.5090000476775,,response,,,100,,,,,,Space,keypress(Space),,,,,-- --- ---- --- ------ ----- ------- ---- -- --- ------- --<br>------- government ------ -- ----- -- ----- -- ---- ------<br>--- ----- --- --- ------ -------- ----- --- ------ ----- --<br>----- ----- ---------- --- --- ------ ------ ---- -- ------<br>------- --- ------ ----- --- ---- ------- -- ---- --- --<br>------- ------,96011,96010.20000004768,95433.02,95435.5,95449.691,96016.519,,13,government
screen,html.Screen,0_2_1_1_14,2021-12-10T12:36:11.327Z,,,,,,,,,,,,,,,,54,,,,,,,,,,,,,,753.6810000476835,,response,,,100,,,,,,Space,keypress(Space),,,,,-- --- ---- --- ------ ----- ------- ---- -- --- ------- --<br>------- ---------- bonds. -- ----- -- ----- -- ---- ------<br>--- ----- --- --- ------ -------- ----- --- ------ ----- --<br>----- ----- ---------- --- --- ------ ------ ---- -- ------<br>------- --- ------ ----- --- ---- ------- -- ---- --- --<br>------- ------,96771,96770.20000004768,95999.848,96011.30000001192,96016.519,96783.337,,14,bonds.
screen,html.Screen,0_2_1_1_15,2021-12-10T12:36:11.863Z,,,,,,,,,,,,,,,,54,,,,,,,,,,,,,,522.8630000476842,,response,,,100,,,,,,Space,keypress(Space),,,,,-- --- ---- --- ------ ----- ------- ---- -- --- ------- --<br>------- ---------- ------ In ----- -- ----- -- ---- ------<br>--- ----- --- --- ------ -------- ----- --- ------ ----- --<br>----- ----- ---------- --- --- ------ ------ ---- -- ------<br>------- --- ------ ----- --- ---- ------- -- ---- --- --<br>------- ------,97307,97306.20000004768,96766.667,96771.20000004768,96783.337,97316.802,,15,In
screen,html.Screen,0_2_1_1_16,2021-12-10T12:36:12.903Z,,,,,,,,,,,,,,,,54,,,,,,,,,,,,,,1029.3980000476877,,response,,,100,,,,,,Space,keypress(Space),,,,,"-- --- ---- --- ------ ----- ------- ---- -- --- ------- --<br>------- ---------- ------ -- 1727, -- ----- -- ---- ------<br>--- ----- --- --- ------ -------- ----- --- ------ ----- --<br>----- ----- ---------- --- --- ------ ------ ---- -- ------<br>------- --- ------ ----- --- ---- ------- -- ---- --- --<br>------- ------",98347,98346.20000004768,97300.132,97307.20000004768,97316.802,98350.363,,16,"1727,"
screen,html.Screen,0_2_1_1_17,2021-12-10T12:36:13.487Z,,,,,,,,,,,,,,,,54,,,,,,,,,,,,,,579.8370000476862,,response,,,100,,,,,,Space,keypress(Space),,,,,-- --- ---- --- ------ ----- ------- ---- -- --- ------- --<br>------- ---------- ------ -- ----- in ----- -- ---- ------<br>--- ----- --- --- ------ -------- ----- --- ------ ----- --<br>----- ----- ---------- --- --- ------ ------ ---- -- ------<br>------- --- ------ ----- --- ---- ------- -- ---- --- --<br>------- ------,98931,98930.20000004768,98333.693,98347.20000004768,98350.363,98933.888,,17,in
screen,html.Screen,0_2_1_1_18,2021-12-10T12:36:14.079Z,,,,,,,,,,,,,,,,54,,,,,,,,,,,,,,588.2120000238356,,response,,,100,,,,,,Space,keypress(Space),,,,,-- --- ---- --- ------ ----- ------- ---- -- --- ------- --<br>------- ---------- ------ -- ----- -- order -- ---- ------<br>--- ----- --- --- ------ -------- ----- --- ------ ----- --<br>----- ----- ---------- --- --- ------ ------ ---- -- ------<br>------- --- ------ ----- --- ---- ------- -- ---- --- --<br>------- ------,99523,99522.10000002384,98917.218,98931.20000004768,98933.888,99534.046,,18,order
screen,html.Screen,0_2_1_1_19,2021-12-10T12:36:14.502Z,,,,,,,,,,,,,,,,54,,,,,,,,,,,,,,412.05400002383976,,response,,,100,,,,,,Space,keypress(Space),,,,,-- --- ---- --- ------ ----- ------- ---- -- --- ------- --<br>------- ---------- ------ -- ----- -- ----- to ---- ------<br>--- ----- --- --- ------ -------- ----- --- ------ ----- --<br>----- ----- ---------- --- --- ------ ------ ---- -- ------<br>------- --- ------ ----- --- ---- ------- -- ---- --- --<br>------- ------,99947,99946.10000002384,99517.376,99523.20000004768,99534.046,99950.908,,19,to
screen,html.Screen,0_2_1_1_20,2021-12-10T12:36:14.927Z,,,,,,,,,,,,,,,,54,,,,,,,,,,,,,,419.2920000476879,,response,,,100,,,,,,Space,keypress(Space),,,,,-- --- ---- --- ------ ----- ------- ---- -- --- ------- --<br>------- ---------- ------ -- ----- -- ----- -- save ------<br>--- ----- --- --- ------ -------- ----- --- ------ ----- --<br>----- ----- ---------- --- --- ------ ------ ---- -- ------<br>------- --- ------ ----- --- ---- ------- -- ---- --- --<br>------- ------,100371,100370.20000004768,99934.237,99947.20000004768,99950.908,100384.28,,20,save
screen,html.Screen,0_2_1_1_21,2021-12-10T12:36:15.335Z,,,,,,,,,,,,,,,,54,,,,,,,,,,,,,,394.22000000000116,,response,,,100,,,,,,Space,keypress(Space),,,,,"-- --- ---- --- ------ ----- ------- ---- -- --- ------- --<br>------- ---------- ------ -- ----- -- ----- -- ---- money,<br>--- ----- --- --- ------ -------- ----- --- ------ ----- --<br>----- ----- ---------- --- --- ------ ------ ---- -- ------<br>------- --- ------ ----- --- ---- ------- -- ---- --- --<br>------- ------",100779.30000001192,100778.5,100367.61,100371.20000004768,100384.28,100784.452,,21,"money,"
screen,html.Screen,0_2_1_1_22,2021-12-10T12:36:15.830Z,,,,,,,,,,,,,,,,54,,,,,,,,,,,,,,489.6480000238371,,response,,,100,,,,,,Space,keypress(Space),,,,,-- --- ---- --- ------ ----- ------- ---- -- --- ------- --<br>------- ---------- ------ -- ----- -- ----- -- ---- ------<br>the ----- --- --- ------ -------- ----- --- ------ ----- --<br>----- ----- ---------- --- --- ------ ------ ---- -- ------<br>------- --- ------ ----- --- ---- ------- -- ---- --- --<br>------- ------,101274.90000003576,101274.10000002384,100767.781,100779.60000002384,100784.452,101284.551,,22,the
screen,html.Screen,0_2_1_1_23,2021-12-10T12:36:16.742Z,,,,,,,,,,,,,,,,54,,,,,,,,,,,,,,901.4489999999932,,response,,,100,,,,,,Space,keypress(Space),,,,,-- --- ---- --- ------ ----- ------- ---- -- --- ------- --<br>------- ---------- ------ -- ----- -- ----- -- ---- ------<br>--- state --- --- ------ -------- ----- --- ------ ----- --<br>----- ----- ---------- --- --- ------ ------ ---- -- ------<br>------- --- ------ ----- --- ---- ------- -- ---- --- --<br>------- ------,102186.90000003576,102186,101267.881,101275.20000004768,101284.551,102201.405,,23,state
screen,html.Screen,0_2_1_1_24,2021-12-10T12:36:17.310Z,,,,,,,,,,,,,,,,54,,,,,,,,,,,,,,552.695000023843,,response,,,100,,,,,,Space,keypress(Space),,,,,-- --- ---- --- ------ ----- ------- ---- -- --- ------- --<br>------- ---------- ------ -- ----- -- ----- -- ---- ------<br>--- ----- cut --- ------ -------- ----- --- ------ ----- --<br>----- ----- ---------- --- --- ------ ------ ---- -- ------<br>------- --- ------ ----- --- ---- ------- -- ---- --- --<br>------- ------,102754.90000003576,102754.10000002384,102184.735,102187.10000002384,102201.405,102768.209,,24,cut
screen,html.Screen,0_2_1_1_25,2021-12-10T12:36:17.830Z,,,,,,,,,,,,,,,,54,,,,,,,,,,,,,,505.79099999999744,,response,,,100,,,,,,Space,keypress(Space),,,,,-- --- ---- --- ------ ----- ------- ---- -- --- ------- --<br>------- ---------- ------ -- ----- -- ----- -- ---- ------<br>--- ----- --- the ------ -------- ----- --- ------ ----- --<br>----- ----- ---------- --- --- ------ ------ ---- -- ------<br>------- --- ------ ----- --- ---- ------- -- ---- --- --<br>------- ------,103274.80000001192,103274,102751.539,102755.10000002384,102768.209,103285.073,,25,the
screen,html.Screen,0_2_1_1_26,2021-12-10T12:36:18.366Z,,,,,,,,,,,,,,,,54,,,,,,,,,,,,,,524.8270000357588,,response,,,100,,,,,,Space,keypress(Space),,,,,-- --- ---- --- ------ ----- ------- ---- -- --- ------- --<br>------- ---------- ------ -- ----- -- ----- -- ---- ------<br>--- ----- --- --- bonds' -------- ----- --- ------ ----- --<br>----- ----- ---------- --- --- ------ ------ ---- -- ------<br>------- --- ------ ----- --- ---- ------- -- ---- --- --<br>------- ------,103810.70000004768,103809.90000003576,103268.403,103275.10000002384,103285.073,103818.548,,26,bonds'
screen,html.Screen,0_2_1_1_27,2021-12-10T12:36:18.878Z,,,,,,,,,,,,,,,,54,,,,,,,,,,,,,,503.4520000000048,,response,,,100,,,,,,Space,keypress(Space),,,,,-- --- ---- --- ------ ----- ------- ---- -- --- ------- --<br>------- ---------- ------ -- ----- -- ----- -- ---- ------<br>--- ----- --- --- ------ interest ----- --- ------ ----- --<br>----- ----- ---------- --- --- ------ ------ ---- -- ------<br>------- --- ------ ----- --- ---- ------- -- ---- --- --<br>------- ------,104322.80000001192,104322,103801.878,103810.90000003576,103818.548,104335.314,,27,interest
screen,html.Screen,0_2_1_1_28,2021-12-10T12:36:19.382Z,,,,,,,,,,,,,,,,54,,,,,,,,,,,,,,490.5860000357643,,response,,,100,,,,,,Space,keypress(Space),,,,,-- --- ---- --- ------ ----- ------- ---- -- --- ------- --<br>------- ---------- ------ -- ----- -- ----- -- ---- ------<br>--- ----- --- --- ------ -------- rate. --- ------ ----- --<br>----- ----- ---------- --- --- ------ ------ ---- -- ------<br>------- --- ------ ----- --- ---- ------- -- ---- --- --<br>------- ------,104826.70000004768,104825.90000003576,104318.644,104322.90000003576,104335.314,104835.379,,28,rate.
screen,html.Screen,0_2_1_1_29,2021-12-10T12:36:19.854Z,,,,,,,,,,,,,,,,54,,,,,,,,,,,,,,462.521000035762,,response,,,100,,,,,,Space,keypress(Space),,,,,-- --- ---- --- ------ ----- ------- ---- -- --- ------- --<br>------- ---------- ------ -- ----- -- ----- -- ---- ------<br>--- ----- --- --- ------ -------- ----- The ------ ----- --<br>----- ----- ---------- --- --- ------ ------ ---- -- ------<br>------- --- ------ ----- --- ---- ------- -- ---- --- --<br>------- ------,105298.70000004768,105297.90000003576,104818.71,104827,104835.379,105302.36,,29,The
screen,html.Screen,0_2_1_1_30,2021-12-10T12:36:20.342Z,,,,,,,,,,,,,,,,54,,,,,,,,,,,,,,483.44000001192035,,response,,,100,,,,,,Space,keypress(Space),,,,,-- --- ---- --- ------ ----- ------- ---- -- --- ------- --<br>------- ---------- ------ -- ----- -- ----- -- ---- ------<br>--- ----- --- --- ------ -------- ----- --- market ----- --<br>----- ----- ---------- --- --- ------ ------ ---- -- ------<br>------- --- ------ ----- --- ---- ------- -- ---- --- --<br>------- ------,105786.70000004768,105785.80000001192,105285.688,105299,105302.36,105802.409,,30,market
screen,html.Screen,0_2_1_1_31,2021-12-10T12:36:20.798Z,,,,,,,,,,,,,,,,54,,,,,,,,,,,,,,439.49100003576314,,response,,,100,,,,,,Space,keypress(Space),,,,,-- --- ---- --- ------ ----- ------- ---- -- --- ------- --<br>------- ---------- ------ -- ----- -- ----- -- ---- ------<br>--- ----- --- --- ------ -------- ----- --- ------ value --<br>----- ----- ---------- --- --- ------ ------ ---- -- ------<br>------- --- ------ ----- --- ---- ------- -- ---- --- --<br>------- ------,106242.70000004768,106241.90000003576,105785.739,105786.80000001192,105802.409,106252.44,,31,value
screen,html.Screen,0_2_1_1_32,2021-12-10T12:36:21.286Z,,,,,,,,,,,,,,,,54,,,,,,,,,,,,,,477.3600000119186,,response,,,100,,,,,,Space,keypress(Space),,,,,-- --- ---- --- ------ ----- ------- ---- -- --- ------- --<br>------- ---------- ------ -- ----- -- ----- -- ---- ------<br>--- ----- --- --- ------ -------- ----- --- ------ ----- of<br>----- ----- ---------- --- --- ------ ------ ---- -- ------<br>------- --- ------ ----- --- ---- ------- -- ---- --- --<br>------- ------,106730.60000002384,106729.80000001192,106235.771,106242.90000003576,106252.44,106736.041,,32,of
screen,html.Screen,0_2_1_1_33,2021-12-10T12:36:21.742Z,,,,,,,,,,,,,,,,54,,,,,,,,,,,,,,449.7590000119235,,response,,,100,,,,,,Space,keypress(Space),,,,,-- --- ---- --- ------ ----- ------- ---- -- --- ------- --<br>------- ---------- ------ -- ----- -- ----- -- ---- ------<br>--- ----- --- --- ------ -------- ----- --- ------ ----- --<br>these ----- ---------- --- --- ------ ------ ---- -- ------<br>------- --- ------ ----- --- ---- ------- -- ---- --- --<br>------- ------,107186.60000002384,107185.80000001192,106719.37,106730.80000001192,106736.041,107202.827,,33,these
screen,html.Screen,0_2_1_1_34,2021-12-10T12:36:22.222Z,,,,,,,,,,,,,,,,54,,,,,,,,,,,,,,462.97300001191616,,response,,,100,,,,,,Space,keypress(Space),,,,,-- --- ---- --- ------ ----- ------- ---- -- --- ------- --<br>------- ---------- ------ -- ----- -- ----- -- ---- ------<br>--- ----- --- --- ------ -------- ----- --- ------ ----- --<br>----- bonds ---------- --- --- ------ ------ ---- -- ------<br>------- --- ------ ----- --- ---- ------- -- ---- --- --<br>------- ------,107666.60000002384,107665.80000001192,107186.156,107186.90000003576,107202.827,107669.579,,34,bonds
screen,html.Screen,0_2_1_1_35,2021-12-10T12:36:22.710Z,,,,,,,,,,,,,,,,54,,,,,,,,,,,,,,484.221000011923,,response,,,100,,,,,,Space,keypress(Space),,,,,"-- --- ---- --- ------ ----- ------- ---- -- --- ------- --<br>------- ---------- ------ -- ----- -- ----- -- ---- ------<br>--- ----- --- --- ------ -------- ----- --- ------ ----- --<br>----- ----- plummeted, --- --- ------ ------ ---- -- ------<br>------- --- ------ ----- --- ---- ------- -- ---- --- --<br>------- ------",108154.60000002384,108153.80000001192,107652.909,107666.80000001192,107669.579,108169.754,,35,"plummeted,"
screen,html.Screen,0_2_1_1_36,2021-12-10T12:36:23.190Z,,,,,,,,,,,,,,,,54,,,,,,,,,,,,,,464.0460000119201,,response,,,100,,,,,,Space,keypress(Space),,,,,-- --- ---- --- ------ ----- ------- ---- -- --- ------- --<br>------- ---------- ------ -- ----- -- ----- -- ---- ------<br>--- ----- --- --- ------ -------- ----- --- ------ ----- --<br>----- ----- ---------- and --- ------ ------ ---- -- ------<br>------- --- ------ ----- --- ---- ------- -- ---- --- --<br>------- ------,108634.60000002384,108633.80000001192,108153.083,108154.80000001192,108169.754,108636.494,,36,and
screen,html.Screen,0_2_1_1_37,2021-12-10T12:36:23.630Z,,,,,,,,,,,,,,,,54,,,,,,,,,,,,,,437.20600004767766,,response,,,100,,,,,,Space,keypress(Space),,,,,-- --- ---- --- ------ ----- ------- ---- -- --- ------- --<br>------- ---------- ------ -- ----- -- ----- -- ---- ------<br>--- ----- --- --- ------ -------- ----- --- ------ ----- --<br>----- ----- ---------- --- the ------ ------ ---- -- ------<br>------- --- ------ ----- --- ---- ------- -- ---- --- --<br>------- ------,109074.40000003576,109073.70000004768,108619.824,108634.80000001192,108636.494,109086.666,,37,the
screen,html.Screen,0_2_1_1_38,2021-12-10T12:36:24.102Z,,,,,,,,,,,,,,,,54,,,,,,,,,,,,,,459.0340000476863,,response,,,100,,,,,,Space,keypress(Space),,,,,-- --- ---- --- ------ ----- ------- ---- -- --- ------- --<br>------- ---------- ------ -- ----- -- ----- -- ---- ------<br>--- ----- --- --- ------ -------- ----- --- ------ ----- --<br>----- ----- ---------- --- --- market ------ ---- -- ------<br>------- --- ------ ----- --- ---- ------- -- ---- --- --<br>------- ------,109546.60000002384,109545.70000004768,109069.995,109074.70000004768,109086.666,109553.29,,38,market
screen,html.Screen,0_2_1_1_39,2021-12-10T12:36:24.606Z,,,,,,,,,,,,,,,,54,,,,,,,,,,,,,,496.31000002384826,,response,,,100,,,,,,Space,keypress(Space),,,,,-- --- ---- --- ------ ----- ------- ---- -- --- ------- --<br>------- ---------- ------ -- ----- -- ----- -- ---- ------<br>--- ----- --- --- ------ -------- ----- --- ------ ----- --<br>----- ----- ---------- --- --- ------ became ---- -- ------<br>------- --- ------ ----- --- ---- ------- -- ---- --- --<br>------- ------,110050.5,110049.60000002384,109536.621,109546.90000003576,109553.29,110053.655,,39,became
screen,html.Screen,0_2_1_1_40,2021-12-10T12:36:25.086Z,,,,,,,,,,,,,,,,54,,,,,,,,,,,,,,475.945000023843,,response,,,100,,,,,,Space,keypress(Space),,,,,-- --- ---- --- ------ ----- ------- ---- -- --- ------- --<br>------- ---------- ------ -- ----- -- ----- -- ---- ------<br>--- ----- --- --- ------ -------- ----- --- ------ ----- --<br>----- ----- ---------- --- --- ------ ------ wary -- ------<br>------- --- ------ ----- --- ---- ------- -- ---- --- --<br>------- ------,110530.40000003576,110529.60000002384,110036.983,110050.80000001192,110053.655,110536.882,,40,wary
screen,html.Screen,0_2_1_1_41,2021-12-10T12:36:25.486Z,,,,,,,,,,,,,,,,54,,,,,,,,,,,,,,393.1180000000022,,response,,,100,,,,,,Space,keypress(Space),,,,,-- --- ---- --- ------ ----- ------- ---- -- --- ------- --<br>------- ---------- ------ -- ----- -- ----- -- ---- ------<br>--- ----- --- --- ------ -------- ----- --- ------ ----- --<br>----- ----- ---------- --- --- ------ ------ ---- of ------<br>------- --- ------ ----- --- ---- ------- -- ---- --- --<br>------- ------,110930.80000001192,110930,110520.213,110530.60000002384,110536.882,110937.19,,41,of
screen,html.Screen,0_2_1_1_42,2021-12-10T12:36:25.942Z,,,,,,,,,,,,,,,,54,,,,,,,,,,,,,,448.41000002383953,,response,,,100,,,,,,Space,keypress(Space),,,,,-- --- ---- --- ------ ----- ------- ---- -- --- ------- --<br>------- ---------- ------ -- ----- -- ----- -- ---- ------<br>--- ----- --- --- ------ -------- ----- --- ------ ----- --<br>----- ----- ---------- --- --- ------ ------ ---- -- French<br>------- --- ------ ----- --- ---- ------- -- ---- --- --<br>------- ------,111386.40000003576,111385.60000002384,110920.518,110931.10000002384,110937.19,111403.901,,42,French
screen,html.Screen,0_2_1_1_43,2021-12-10T12:36:26.430Z,,,,,,,,,,,,,,,,54,,,,,,,,,,,,,,469.69900002384384,,response,,,100,,,,,,Space,keypress(Space),,,,,-- --- ---- --- ------ ----- ------- ---- -- --- ------- --<br>------- ---------- ------ -- ----- -- ----- -- ---- ------<br>--- ----- --- --- ------ -------- ----- --- ------ ----- --<br>----- ----- ---------- --- --- ------ ------ ---- -- ------<br>credit. --- ------ ----- --- ---- ------- -- ---- --- --<br>------- ------,111874.40000003576,111873.60000002384,111387.231,111386.60000002384,111403.901,111887.36,,43,credit.
screen,html.Screen,0_2_1_1_44,2021-12-10T12:36:26.846Z,,,,,,,,,,,,,,,,54,,,,,,,,,,,,,,402.2400000238413,,response,,,100,,,,,,Space,keypress(Space),,,,,-- --- ---- --- ------ ----- ------- ---- -- --- ------- --<br>------- ---------- ------ -- ----- -- ----- -- ---- ------<br>--- ----- --- --- ------ -------- ----- --- ------ ----- --<br>----- ----- ---------- --- --- ------ ------ ---- -- ------<br>------- The ------ ----- --- ---- ------- -- ---- --- --<br>------- ------,112290.40000003576,112289.60000002384,111870.69,111874.60000002384,111887.36,112304.185,,44,The
screen,html.Screen,0_2_1_1_45,2021-12-10T12:36:27.270Z,,,,,,,,,,,,,,,,54,,,,,,,,,,,,,,409.3150000000023,,response,,,100,,,,,,Space,keypress(Space),,,,,-- --- ---- --- ------ ----- ------- ---- -- --- ------- --<br>------- ---------- ------ -- ----- -- ----- -- ---- ------<br>--- ----- --- --- ------ -------- ----- --- ------ ----- --<br>----- ----- ---------- --- --- ------ ------ ---- -- ------<br>------- --- French ----- --- ---- ------- -- ---- --- --<br>------- ------,112714.40000003576,112713.5,112287.514,112290.60000002384,112304.185,112720.916,,45,French
screen,html.Screen,0_2_1_1_46,2021-12-10T12:36:27.678Z,,,,,,,,,,,,,,,,54,,,,,,,,,,,,,,400.6840000238444,,response,,,100,,,,,,Space,keypress(Space),,,,,-- --- ---- --- ------ ----- ------- ---- -- --- ------- --<br>------- ---------- ------ -- ----- -- ----- -- ---- ------<br>--- ----- --- --- ------ -------- ----- --- ------ ----- --<br>----- ----- ---------- --- --- ------ ------ ---- -- ------<br>------- --- ------ state --- ---- ------- -- ---- --- --<br>------- ------,113122.40000003576,113121.60000002384,112704.246,112714.60000002384,112720.916,113137.69,,46,state
screen,html.Screen,0_2_1_1_47,2021-12-10T12:36:28.078Z,,,,,,,,,,,,,,,,54,,,,,,,,,,,,,,383.8099999999977,,response,,,100,,,,,,Space,keypress(Space),,,,,-- --- ---- --- ------ ----- ------- ---- -- --- ------- --<br>------- ---------- ------ -- ----- -- ----- -- ---- ------<br>--- ----- --- --- ------ -------- ----- --- ------ ----- --<br>----- ----- ---------- --- --- ------ ------ ---- -- ------<br>------- --- ------ ----- was ---- ------- -- ---- --- --<br>------- ------,113522.30000001192,113521.5,113121.02,113122.60000002384,113137.69,113537.842,,47,was
screen,html.Screen,0_2_1_1_48,2021-12-10T12:36:28.478Z,,,,,,,,,,,,,,,,54,,,,,,,,,,,,,,383.6579999999958,,response,,,100,,,,,,Space,keypress(Space),,,,,-- --- ---- --- ------ ----- ------- ---- -- --- ------- --<br>------- ---------- ------ -- ----- -- ----- -- ---- ------<br>--- ----- --- --- ------ -------- ----- --- ------ ----- --<br>----- ----- ---------- --- --- ------ ------ ---- -- ------<br>------- --- ------ ----- --- left ------- -- ---- --- --<br>------- ------,113922.30000001192,113921.5,113521.171,113522.60000002384,113537.842,113937.92,,48,left
screen,html.Screen,0_2_1_1_49,2021-12-10T12:36:28.910Z,,,,,,,,,,,,,,,,54,,,,,,,,,,,,,,415.48000003576453,,response,,,100,,,,,,Space,keypress(Space),,,,,-- --- ---- --- ------ ----- ------- ---- -- --- ------- --<br>------- ---------- ------ -- ----- -- ----- -- ---- ------<br>--- ----- --- --- ------ -------- ----- --- ------ ----- --<br>----- ----- ---------- --- --- ------ ------ ---- -- ------<br>------- --- ------ ----- --- ---- without -- ---- --- --<br>------- ------,114354.20000004768,114353.40000003576,113921.25,113922.5,113937.92,114371.351,,49,without
screen,html.Screen,0_2_1_1_50,2021-12-10T12:36:29.326Z,,,,,,,,,,,,,,,,54,,,,,,,,,,,,,,398.0490000357677,,response,,,100,,,,,,Space,keypress(Space),,,,,-- --- ---- --- ------ ----- ------- ---- -- --- ------- --<br>------- ---------- ------ -- ----- -- ----- -- ---- ------<br>--- ----- --- --- ------ -------- ----- --- ------ ----- --<br>----- ----- ---------- --- --- ------ ------ ---- -- ------<br>------- --- ------ ----- --- ---- ------- an ---- --- --<br>------- ------,114770.20000004768,114769.40000003576,114354.681,114354.40000003576,114371.351,114771.467,,50,an
screen,html.Screen,0_2_1_1_51,2021-12-10T12:36:29.742Z,,,,,,,,,,,,,,,,54,,,,,,,,,,,,,,413.9330000357586,,response,,,100,,,,,,Space,keypress(Space),,,,,-- --- ---- --- ------ ----- ------- ---- -- --- ------- --<br>------- ---------- ------ -- ----- -- ----- -- ---- ------<br>--- ----- --- --- ------ -------- ----- --- ------ ----- --<br>----- ----- ---------- --- --- ------ ------ ---- -- ------<br>------- --- ------ ----- --- ---- ------- -- easy --- --<br>------- ------,115186.20000004768,115185.40000003576,114754.797,114770.40000003576,114771.467,115188.235,,51,easy
screen,html.Screen,0_2_1_1_52,2021-12-10T12:36:30.174Z,,,,,,,,,,,,,,,,54,,,,,,,,,,,,,,429.06500001192035,,response,,,100,,,,,,Space,keypress(Space),,,,,-- --- ---- --- ------ ----- ------- ---- -- --- ------- --<br>------- ---------- ------ -- ----- -- ----- -- ---- ------<br>--- ----- --- --- ------ -------- ----- --- ------ ----- --<br>----- ----- ---------- --- --- ------ ------ ---- -- ------<br>------- --- ------ ----- --- ---- ------- -- ---- way --<br>------- ------,115618.20000004768,115617.30000001192,115171.565,115186.40000003576,115188.235,115621.663,,52,way
screen,html.Screen,0_2_1_1_53,2021-12-10T12:36:30.590Z,,,,,,,,,,,,,,,,54,,,,,,,,,,,,,,411.7370000357623,,response,,,100,,,,,,Space,keypress(Space),,,,,-- --- ---- --- ------ ----- ------- ---- -- --- ------- --<br>------- ---------- ------ -- ----- -- ----- -- ---- ------<br>--- ----- --- --- ------ -------- ----- --- ------ ----- --<br>----- ----- ---------- --- --- ------ ------ ---- -- ------<br>------- --- ------ ----- --- ---- ------- -- ---- --- of<br>------- ------,116034.20000004768,116033.40000003576,115604.993,115618.40000003576,115621.663,116038.513,,53,of
screen,html.Screen,0_2_1_1_54,2021-12-10T12:36:31.062Z,,,,,,,,,,,,,,,,54,,,,,,,,,,,,,,466.78700001191464,,response,,,100,,,,,,Space,keypress(Space),,,,,-- --- ---- --- ------ ----- ------- ---- -- --- ------- --<br>------- ---------- ------ -- ----- -- ----- -- ---- ------<br>--- ----- --- --- ------ -------- ----- --- ------ ----- --<br>----- ----- ---------- --- --- ------ ------ ---- -- ------<br>------- --- ------ ----- --- ---- ------- -- ---- --- --<br>raising ------,116506.10000002384,116505.30000001192,116021.842,116034.40000003576,116038.513,116521.931,,54,raising
screen,html.Screen,0_2_1_1_55,2021-12-10T12:36:31.534Z,,,,,,,,,,,,,,,,54,,,,,,,,,,,,,,455.3690000119241,,response,,,100,,,,,,Space,keypress(Space),,,,,-- --- ---- --- ------ ----- ------- ---- -- --- ------- --<br>------- ---------- ------ -- ----- -- ----- -- ---- ------<br>--- ----- --- --- ------ -------- ----- --- ------ ----- --<br>----- ----- ---------- --- --- ------ ------ ---- -- ------<br>------- --- ------ ----- --- ---- ------- -- ---- --- --<br>------- money.,116978.20000004768,116977.30000001192,116505.261,116506.40000003576,116521.931,116988.68,,55,money.
Item 100,flow.Loop,0_2_1_1,2021-12-10T12:36:31.534Z,,,,,,,,,,,,,,,,,,,,,,,,,,,,,,28079.543000011923,,completion,,,,F,,,,,,,,,,silence,,116978.60000002384,116977.30000001192,88881.087,88882.5,88897.757,116988.68,,,
Question 1,html.Screen,0_2_1_2,2021-12-10T12:36:34.905Z,,,,,,,,,,,,,,,,,,,,,,,,,,,true,TRUE,,3356.320000000007,,response,,,100,F,,,,,TRUE,click #choice-1,,,,silence,,120346.10000002384,120345,116972.01,116978.80000001192,116988.68,120356.254,,,
Question 2,html.Screen,0_2_1_3,2021-12-10T12:36:37.449Z,,,,,,,,,,,,,,,,,,,,,,,,,,,true,FALSE,,2532.646000035762,,response,,,100,F,,,,,FALSE,click #choice-2,,,,silence,,122890,122888.90000003576,120339.584,120346.30000001192,120356.254,122906.901,,,
Item 100,flow.Sequence,0_2_1,2021-12-10T12:36:37.449Z,,,,,,,,,,,,,,,,,,,,,,,,,,,,,,43993.658000035764,,completion,,,,,,,,,,,,,,,,122890.40000003576,122888.90000003576,78878.572,78884.80000001192,78895.242,122906.901,,,
End of Practice,html.Page,0_2_2,2021-12-10T12:36:47.905Z,,,,,,,,,,,,,,,,,,,,,,,,,,,,,,10439.099000000002,,form submission,,,,,,,,,,,,,,,,133346.70000004768,133346,122890.231,122890.5,122906.901,133359.501,,,
Practice,flow.Sequence,0_2,2021-12-10T12:36:47.906Z,,,,,,,,,,,,,,,,,,,,,,,,,,,,,,99479.35800000001,,completion,,,,,,,,,,,,,,,,133347.20000004768,133346,33833.3,33847.40000003576,33866.642,133359.501,,,
Trap_instruction,html.Page,0_3_0,2021-12-10T12:36:53.529Z,,,,,,,,,,,,,,,,,,,,,,,,,,,,,,5610.499000000011,,form submission,,,,,,,,,,,,,,,,138970.70000004768,138970,133342.831,133347.60000002384,133359.501,139011.251,,,
trap_trial,html.Screen,0_3_1,2021-12-10T12:36:56.384Z,,,,,,,,,,,,,,,,,,,,,,,,,,,true,1,,2812.7490000000107,,response,,,,,,,,,1,click #choice-1,,,,,,141825.40000003576,141824,138961.238,138971,139011.251,141828.446,,,
end of trap trial,html.Page,0_3_2,2021-12-10T12:36:57.976Z,,,,,,,,,,,,,,,,,,,,,,,,,,,,,,1588.8540000119247,,form submission,,,,,,,,,,,,,,,,143417.80000001192,143417.30000001192,141811.776,141825.80000001192,141828.446,143429.055,,,
Trap 1,flow.Sequence,0_3,2021-12-10T12:36:57.977Z,,,,,,,,,,,,,,,,,,,,,,,,,,,,,,10057.799000011932,,completion,,,,,,,,,,,,,,,,143418.30000001192,143417.30000001192,133342.831,133347.40000003576,133359.501,143429.055,,,
Standby,html.Page,0_4_0,2021-12-10T12:37:05.974Z,,,,,,,,,,,,,,,,,,,,,,,,,,,,,,8001.6050000000105,,timeout,,,,,,,,,,,,,,,,151415.70000004768,151413.99,143412.385,143418.70000004768,143429.055,151430.66,,,
Holding screen,html.Screen,0_4_1_0_0,2021-12-10T12:37:12.976Z,,,,,,,,,,,,,,,,,,,,,,,,,,,,,,7002.268000000011,,timeout,,,,,,,,,,,,,,,,158417.40000003576,158416.258,151413.99,151416,151430.66,158432.928,,,
screen,html.Screen,0_4_1_0_1_0,2021-12-10T12:37:14.264Z,,,,,,,,,,,,,,,,15,,,,,,,,,,,,,,1270.9720000357484,,response,,,7,F,,,,,Space,keypress(Space),,,,instrumental,Greg --------- ---------- - --- ------- -- --- ------------<br>----- -- -------- ------- ---- ------ - -------- ---- -----<br>--- ------- ---- -- --- -------- --- - ----- ------ ---- --<br>-------- --- -------- -------- --- -------- ---- -- ----- -<br>-------- ---- --- ---------- --------- -- ------- ------ -<br>--------- ----- -----,159704.90000003576,159703.90000003576,158416.258,158417.80000001192,158432.928,159716.646,,0,Greg
screen,html.Screen,0_4_1_0_1_1,2021-12-10T12:37:14.807Z,,,,,,,,,,,,,,,,15,,,,,,,,,,,,,,530.7540000357549,,response,,,7,F,,,,,Space,keypress(Space),,,,instrumental,"---- Anderson, ---------- - --- ------- -- --- ------------<br>----- -- -------- ------- ---- ------ - -------- ---- -----<br>--- ------- ---- -- --- -------- --- - ----- ------ ---- --<br>-------- --- -------- -------- --- -------- ---- -- ----- -<br>-------- ---- --- ---------- --------- -- ------- ------ -<br>--------- ----- -----",160248.20000004768,160247.40000003576,159699.976,159705.20000004768,159716.646,160250.131,,1,"Anderson,"
screen,html.Screen,0_4_1_0_1_2,2021-12-10T12:37:15.335Z,,,,,,,,,,,,,,,,15,,,,,,,,,,,,,,525.0690000476898,,response,,,7,F,,,,,Space,keypress(Space),,,,instrumental,---- --------- considered - --- ------- -- --- ------------<br>----- -- -------- ------- ---- ------ - -------- ---- -----<br>--- ------- ---- -- --- -------- --- - ----- ------ ---- --<br>-------- --- -------- -------- --- -------- ---- -- ----- -<br>-------- ---- --- ---------- --------- -- ------- ------ -<br>--------- ----- -----,160776,160775.20000004768,160233.461,160248.5,160250.131,160783.646,,2,considered
screen,html.Screen,0_4_1_0_1_3,2021-12-10T12:37:15.807Z,,,,,,,,,,,,,,,,15,,,,,,,,,,,,,,463.654000011913,,response,,,7,F,,,,,Space,keypress(Space),,,,instrumental,---- --------- ---------- a --- ------- -- --- ------------<br>----- -- -------- ------- ---- ------ - -------- ---- -----<br>--- ------- ---- -- --- -------- --- - ----- ------ ---- --<br>-------- --- -------- -------- --- -------- ---- -- ----- -<br>-------- ---- --- ---------- --------- -- ------- ------ -<br>--------- ----- -----,161248.10000002384,161247.30000001192,160766.976,160776.30000001192,160783.646,161250.411,,3,a
screen,html.Screen,0_4_1_0_1_4,2021-12-10T12:37:16.263Z,,,,,,,,,,,,,,,,15,,,,,,,,,,,,,,452.88900001192815,,response,,,7,F,,,,,Space,keypress(Space),,,,instrumental,---- --------- ---------- - key ------- -- --- ------------<br>----- -- -------- ------- ---- ------ - -------- ---- -----<br>--- ------- ---- -- --- -------- --- - ----- ------ ---- --<br>-------- --- -------- -------- --- -------- ---- -- ----- -<br>-------- ---- --- ---------- --------- -- ------- ------ -<br>--------- ----- -----,161704.20000004768,161703.30000001192,161233.741,161248.5,161250.411,161717.379,,4,key
screen,html.Screen,0_4_1_0_1_5,2021-12-10T12:37:16.815Z,,,,,,,,,,,,,,,,15,,,,,,,,,,,,,,537.8210000476975,,response,,,7,F,,,,,Space,keypress(Space),,,,instrumental,---- --------- ---------- - --- witness -- --- ------------<br>----- -- -------- ------- ---- ------ - -------- ---- -----<br>--- ------- ---- -- --- -------- --- - ----- ------ ---- --<br>-------- --- -------- -------- --- -------- ---- -- ----- -<br>-------- ---- --- ---------- --------- -- ------- ------ -<br>--------- ----- -----,162256,162255.20000004768,161700.707,161704.30000001192,161717.379,162267.295,,5,witness
screen,html.Screen,0_4_1_0_1_6,2021-12-10T12:37:17.199Z,,,,,,,,,,,,,,,,15,,,,,,,,,,,,,,371.9050000476709,,response,,,7,F,,,,,Space,keypress(Space),,,,instrumental,---- --------- ---------- - --- ------- by --- ------------<br>----- -- -------- ------- ---- ------ - -------- ---- -----<br>--- ------- ---- -- --- -------- --- - ----- ------ ---- --<br>-------- --- -------- -------- --- -------- ---- -- ----- -<br>-------- ---- --- ---------- --------- -- ------- ------ -<br>--------- ----- -----,162640.10000002384,162639.20000004768,162250.626,162256.30000001192,162267.295,162650.818,,6,by
screen,html.Screen,0_4_1_0_1_7,2021-12-10T12:37:17.687Z,,,,,,,,,,,,,,,,15,,,,,,,,,,,,,,476.3820000476844,,response,,,7,F,,,,,Space,keypress(Space),,,,instrumental,---- --------- ---------- - --- ------- -- the ------------<br>----- -- -------- ------- ---- ------ - -------- ---- -----<br>--- ------- ---- -- --- -------- --- - ----- ------ ---- --<br>-------- --- -------- -------- --- -------- ---- -- ----- -<br>-------- ---- --- ---------- --------- -- ------- ------ -<br>--------- ----- -----,163128.10000002384,163127.20000004768,162634.148,162640.20000004768,162650.818,163134.275,,7,the
screen,html.Screen,0_4_1_0_1_8,2021-12-10T12:37:18.447Z,,,,,,,,,,,,,,,,15,,,,,,,,,,,,,,752.9250000476895,,response,,,7,F,,,,,Space,keypress(Space),,,,instrumental,"---- --------- ---------- - --- ------- -- --- prosecution,<br>----- -- -------- ------- ---- ------ - -------- ---- -----<br>--- ------- ---- -- --- -------- --- - ----- ------ ---- --<br>-------- --- -------- -------- --- -------- ---- -- ----- -<br>-------- ---- --- ---------- --------- -- ------- ------ -<br>--------- ----- -----",163888.10000002384,163887.20000004768,163117.605,163128.30000001192,163134.275,163901.289,,8,"prosecution,"
screen,html.Screen,0_4_1_0_1_9,2021-12-10T12:37:19.111Z,,,,,,,,,,,,,,,,15,,,,,,,,,,,,,,649.911000047694,,response,,,7,F,,,,,Space,keypress(Space),,,,instrumental,---- --------- ---------- - --- ------- -- --- ------------<br>vowed -- -------- ------- ---- ------ - -------- ---- -----<br>--- ------- ---- -- --- -------- --- - ----- ------ ---- --<br>-------- --- -------- -------- --- -------- ---- -- ----- -<br>-------- ---- --- ---------- --------- -- ------- ------ -<br>--------- ----- -----,164551.90000003576,164551.20000004768,163884.617,163888.30000001192,163901.289,164568.02,,9,vowed
screen,html.Screen,0_4_1_0_1_10,2021-12-10T12:37:19.535Z,,,,,,,,,,,,,,,,15,,,,,,,,,,,,,,407.08000002385234,,response,,,7,F,,,,,Space,keypress(Space),,,,instrumental,---- --------- ---------- - --- ------- -- --- ------------<br>----- he -------- ------- ---- ------ - -------- ---- -----<br>--- ------- ---- -- --- -------- --- - ----- ------ ---- --<br>-------- --- -------- -------- --- -------- ---- -- ----- -<br>-------- ---- --- ---------- --------- -- ------- ------ -<br>--------- ----- -----,164975.80000001192,164975.10000002384,164551.35,164552.20000004768,164568.02,164984.82,,10,he
screen,html.Screen,0_4_1_0_1_11,2021-12-10T12:37:20.047Z,,,,,,,,,,,,,,,,15,,,,,,,,,,,,,,502.2800000238349,,response,,,7,F,,,,,Space,keypress(Space),,,,instrumental,---- --------- ---------- - --- ------- -- --- ------------<br>----- -- wouldn't ------- ---- ------ - -------- ---- -----<br>--- ------- ---- -- --- -------- --- - ----- ------ ---- --<br>-------- --- -------- -------- --- -------- ---- -- ----- -<br>-------- ---- --- ---------- --------- -- ------- ------ -<br>--------- ----- -----,165487.90000003576,165487.10000002384,164968.15,164976.10000002384,164984.82,165501.582,,11,wouldn't
screen,html.Screen,0_4_1_0_1_12,2021-12-10T12:37:20.495Z,,,,,,,,,,,,,,,,15,,,,,,,,,,,,,,433.4180000000051,,response,,,7,F,,,,,Space,keypress(Space),,,,instrumental,---- --------- ---------- - --- ------- -- --- ------------<br>----- -- -------- testify ---- ------ - -------- ---- -----<br>--- ------- ---- -- --- -------- --- - ----- ------ ---- --<br>-------- --- -------- -------- --- -------- ---- -- ----- -<br>-------- ---- --- ---------- --------- -- ------- ------ -<br>--------- ----- -----,165935.90000003576,165935,165484.912,165488.10000002384,165501.582,165951.774,,12,testify
screen,html.Screen,0_4_1_0_1_13,2021-12-10T12:37:20.887Z,,,,,,,,,,,,,,,,15,,,,,,,,,,,,,,375.32600002383697,,response,,,7,F,,,,,Space,keypress(Space),,,,instrumental,---- --------- ---------- - --- ------- -- --- ------------<br>----- -- -------- ------- when ------ - -------- ---- -----<br>--- ------- ---- -- --- -------- --- - ----- ------ ---- --<br>-------- --- -------- -------- --- -------- ---- -- ----- -<br>-------- ---- --- ---------- --------- -- ------- ------ -<br>--------- ----- -----,166327.90000003576,166327.10000002384,165935.103,165936.20000004768,165951.774,166335.092,,13,when
screen,html.Screen,0_4_1_0_1_14,2021-12-10T12:37:21.311Z,,,,,,,,,,,,,,,,15,,,,,,,,,,,,,,415.9079999999958,,response,,,7,F,,,,,Space,keypress(Space),,,,instrumental,---- --------- ---------- - --- ------- -- --- ------------<br>----- -- -------- ------- ---- served - -------- ---- -----<br>--- ------- ---- -- --- -------- --- - ----- ------ ---- --<br>-------- --- -------- -------- --- -------- ---- -- ----- -<br>-------- ---- --- ---------- --------- -- ------- ------ -<br>--------- ----- -----,166751.90000003576,166751,166318.423,166328.20000004768,166335.092,166768.642,,14,served
screen,html.Screen,0_4_1_0_1_15,2021-12-10T12:37:21.743Z,,,,,,,,,,,,,,,,15,,,,,,,,,,,,,,414.35800000000745,,response,,,7,F,,,,,Space,keypress(Space),,,,instrumental,---- --------- ---------- - --- ------- -- --- ------------<br>----- -- -------- ------- ---- ------ a -------- ---- -----<br>--- ------- ---- -- --- -------- --- - ----- ------ ---- --<br>-------- --- -------- -------- --- -------- ---- -- ----- -<br>-------- ---- --- ---------- --------- -- ------- ------ -<br>--------- ----- -----,167183.90000003576,167183,166751.971,166752.10000002384,166768.642,167185.433,,15,a
screen,html.Screen,0_4_1_0_1_16,2021-12-10T12:37:22.870Z,,,,,,,,,,,,,,,,15,,,,,,,,,,,,,,1125.56700000001,,response,,,7,F,,,,,Space,keypress(Space),,,,instrumental,---- --------- ---------- - --- ------- -- --- ------------<br>----- -- -------- ------- ---- ------ - subpoena ---- -----<br>--- ------- ---- -- --- -------- --- - ----- ------ ---- --<br>-------- --- -------- -------- --- -------- ---- -- ----- -<br>-------- ---- --- ---------- --------- -- ------- ------ -<br>--------- ----- -----,168311.80000001192,168311,167168.762,167184.10000002384,167185.433,168318.85,,16,subpoena
screen,html.Screen,0_4_1_0_1_17,2021-12-10T12:37:23.254Z,,,,,,,,,,,,,,,,15,,,,,,,,,,,,,,375.9500000119151,,response,,,7,F,,,,,Space,keypress(Space),,,,instrumental,---- --------- ---------- - --- ------- -- --- ------------<br>----- -- -------- ------- ---- ------ - -------- last -----<br>--- ------- ---- -- --- -------- --- - ----- ------ ---- --<br>-------- --- -------- -------- --- -------- ---- -- ----- -<br>-------- ---- --- ---------- --------- -- ------- ------ -<br>--------- ----- -----,168695.70000004768,168694.80000001192,168302.181,168312,168318.85,168702.587,,17,last
screen,html.Screen,0_4_1_0_1_18,2021-12-10T12:37:23.646Z,,,,,,,,,,,,,,,,15,,,,,,,,,,,,,,384.41300000000047,,response,,,7,F,,,,,Space,keypress(Space),,,,instrumental,---- --------- ---------- - --- ------- -- --- ------------<br>----- -- -------- ------- ---- ------ - -------- ---- week.<br>--- ------- ---- -- --- -------- --- - ----- ------ ---- --<br>-------- --- -------- -------- --- -------- ---- -- ----- -<br>-------- ---- --- ---------- --------- -- ------- ------ -<br>--------- ----- -----,169087.70000004768,169087,168685.915,168695.90000003576,168702.587,169102.511,,18,week.
screen,html.Screen,0_4_1_0_1_19,2021-12-10T12:37:24.094Z,,,,,,,,,,,,,,,,15,,,,,,,,,,,,,,432.2890000119223,,response,,,7,F,,,,,Space,keypress(Space),,,,instrumental,---- --------- ---------- - --- ------- -- --- ------------<br>----- -- -------- ------- ---- ------ - -------- ---- -----<br>His ------- ---- -- --- -------- --- - ----- ------ ---- --<br>-------- --- -------- -------- --- -------- ---- -- ----- -<br>-------- ---- --- ---------- --------- -- ------- ------ -<br>--------- ----- -----,169535.80000001192,169534.80000001192,169085.841,169088,169102.511,169552.785,,19,His
screen,html.Screen,0_4_1_0_1_20,2021-12-10T12:37:24.479Z,,,,,,,,,,,,,,,,15,,,,,,,,,,,,,,366.51500001191744,,response,,,7,F,,,,,Space,keypress(Space),,,,instrumental,---- --------- ---------- - --- ------- -- --- ------------<br>----- -- -------- ------- ---- ------ - -------- ---- -----<br>--- lawyers ---- -- --- -------- --- - ----- ------ ---- --<br>-------- --- -------- -------- --- -------- ---- -- ----- -<br>-------- ---- --- ---------- --------- -- ------- ------ -<br>--------- ----- -----,169920.10000002384,169919.30000001192,169536.113,169536,169552.785,169936.117,,20,lawyers
screen,html.Screen,0_4_1_0_1_21,2021-12-10T12:37:24.838Z,,,,,,,,,,,,,,,,15,,,,,,,,,,,,,,342.7830000357644,,response,,,7,F,,,,,Space,keypress(Space),,,,instrumental,---- --------- ---------- - --- ------- -- --- ------------<br>----- -- -------- ------- ---- ------ - -------- ---- -----<br>--- ------- said -- --- -------- --- - ----- ------ ---- --<br>-------- --- -------- -------- --- -------- ---- -- ----- -<br>-------- ---- --- ---------- --------- -- ------- ------ -<br>--------- ----- -----,170279.70000004768,170278.90000003576,169919.447,169920.30000001192,169936.117,170286.223,,21,said
screen,html.Screen,0_4_1_0_1_22,2021-12-10T12:37:25.158Z,,,,,,,,,,,,,,,,15,,,,,,,,,,,,,,312.67700003576465,,response,,,7,F,,,,,Space,keypress(Space),,,,instrumental,---- --------- ---------- - --- ------- -- --- ------------<br>----- -- -------- ------- ---- ------ - -------- ---- -----<br>--- ------- ---- he --- -------- --- - ----- ------ ---- --<br>-------- --- -------- -------- --- -------- ---- -- ----- -<br>-------- ---- --- ---------- --------- -- ------- ------ -<br>--------- ----- -----,170599.80000001192,170598.90000003576,170269.553,170280,170286.223,170602.958,,22,he
screen,html.Screen,0_4_1_0_1_23,2021-12-10T12:37:25.494Z,,,,,,,,,,,,,,,,15,,,,,,,,,,,,,,331.74200004767044,,response,,,7,F,,,,,Space,keypress(Space),,,,instrumental,---- --------- ---------- - --- ------- -- --- ------------<br>----- -- -------- ------- ---- ------ - -------- ---- -----<br>--- ------- ---- -- was -------- --- - ----- ------ ---- --<br>-------- --- -------- -------- --- -------- ---- -- ----- -<br>-------- ---- --- ---------- --------- -- ------- ------ -<br>--------- ----- -----,170935.60000002384,170934.70000004768,170586.288,170600,170602.958,170953.073,,23,was
screen,html.Screen,0_4_1_0_1_24,2021-12-10T12:37:25.926Z,,,,,,,,,,,,,,,,15,,,,,,,,,,,,,,413.72700001191697,,response,,,7,F,,,,,Space,keypress(Space),,,,instrumental,---- --------- ---------- - --- ------- -- --- ------------<br>----- -- -------- ------- ---- ------ - -------- ---- -----<br>--- ------- ---- -- --- prepared --- - ----- ------ ---- --<br>-------- --- -------- -------- --- -------- ---- -- ----- -<br>-------- ---- --- ---------- --------- -- ------- ------ -<br>--------- ----- -----,171367.70000004768,171366.80000001192,170936.403,170935.90000003576,170953.073,171369.835,,24,prepared
screen,html.Screen,0_4_1_0_1_25,2021-12-10T12:37:26.278Z,,,,,,,,,,,,,,,,15,,,,,,,,,,,,,,348.9650000119291,,response,,,7,F,,,,,Space,keypress(Space),,,,instrumental,---- --------- ---------- - --- ------- -- --- ------------<br>----- -- -------- ------- ---- ------ - -------- ---- -----<br>--- ------- ---- -- --- -------- for - ----- ------ ---- --<br>-------- --- -------- -------- --- -------- ---- -- ----- -<br>-------- ---- --- ---------- --------- -- ------- ------ -<br>--------- ----- -----,171719.60000002384,171718.80000001192,171353.165,171367.90000003576,171369.835,171736.657,,25,for
screen,html.Screen,0_4_1_0_1_26,2021-12-10T12:37:26.590Z,,,,,,,,,,,,,,,,15,,,,,,,,,,,,,,294.1430000119144,,response,,,7,F,,,,,Space,keypress(Space),,,,instrumental,---- --------- ---------- - --- ------- -- --- ------------<br>----- -- -------- ------- ---- ------ - -------- ---- -----<br>--- ------- ---- -- --- -------- --- a ----- ------ ---- --<br>-------- --- -------- -------- --- -------- ---- -- ----- -<br>-------- ---- --- ---------- --------- -- ------- ------ -<br>--------- ----- -----,172031.70000004768,172030.80000001192,171719.986,171719.90000003576,171736.657,172036.579,,26,a
screen,html.Screen,0_4_1_0_1_27,2021-12-10T12:37:26.934Z,,,,,,,,,,,,,,,,15,,,,,,,,,,,,,,338.1210000476858,,response,,,7,F,,,,,Space,keypress(Space),,,,instrumental,---- --------- ---------- - --- ------- -- --- ------------<br>----- -- -------- ------- ---- ------ - -------- ---- -----<br>--- ------- ---- -- --- -------- --- - third ------ ---- --<br>-------- --- -------- -------- --- -------- ---- -- ----- -<br>-------- ---- --- ---------- --------- -- ------- ------ -<br>--------- ----- -----,172375.40000003576,172374.70000004768,172019.911,172032,172036.579,172386.738,,27,third
screen,html.Screen,0_4_1_0_1_28,2021-12-10T12:37:27.350Z,,,,,,,,,,,,,,,,15,,,,,,,,,,,,,,403.9620000476716,,response,,,7,F,,,,,Space,keypress(Space),,,,instrumental,---- --------- ---------- - --- ------- -- --- ------------<br>----- -- -------- ------- ---- ------ - -------- ---- -----<br>--- ------- ---- -- --- -------- --- - ----- prison ---- --<br>-------- --- -------- -------- --- -------- ---- -- ----- -<br>-------- ---- --- ---------- --------- -- ------- ------ -<br>--------- ----- -----,172791.60000002384,172790.70000004768,172370.068,172375.70000004768,172386.738,172803.561,,28,prison
screen,html.Screen,0_4_1_0_1_29,2021-12-10T12:37:27.766Z,,,,,,,,,,,,,,,,15,,,,,,,,,,,,,,403.13900004769675,,response,,,7,F,,,,,Space,keypress(Space),,,,instrumental,---- --------- ---------- - --- ------- -- --- ------------<br>----- -- -------- ------- ---- ------ - -------- ---- -----<br>--- ------- ---- -- --- -------- --- - ----- ------ stay --<br>-------- --- -------- -------- --- -------- ---- -- ----- -<br>-------- ---- --- ---------- --------- -- ------- ------ -<br>--------- ----- -----,173207.60000002384,173206.70000004768,172786.89,172791.90000003576,172803.561,173220.279,,29,stay
screen,html.Screen,0_4_1_0_1_30,2021-12-10T12:37:28.102Z,,,,,,,,,,,,,,,,15,,,,,,,,,,,,,,322.42100004767417,,response,,,7,F,,,,,Space,keypress(Space),,,,instrumental,---- --------- ---------- - --- ------- -- --- ------------<br>----- -- -------- ------- ---- ------ - -------- ---- -----<br>--- ------- ---- -- --- -------- --- - ----- ------ ---- to<br>-------- --- -------- -------- --- -------- ---- -- ----- -<br>-------- ---- --- ---------- --------- -- ------- ------ -<br>--------- ----- -----,173543.70000004768,173542.70000004768,173203.609,173207.90000003576,173220.279,173553.845,,30,to
screen,html.Screen,0_4_1_0_1_31,2021-12-10T12:37:28.598Z,,,,,,,,,,,,,,,,15,,,,,,,,,,,,,,484.85500004768255,,response,,,7,F,,,,,Space,keypress(Space),,,,instrumental,---- --------- ---------- - --- ------- -- --- ------------<br>----- -- -------- ------- ---- ------ - -------- ---- -----<br>--- ------- ---- -- --- -------- --- - ----- ------ ---- --<br>maintain --- -------- -------- --- -------- ---- -- ----- -<br>-------- ---- --- ---------- --------- -- ------- ------ -<br>--------- ----- -----,174039.5,174038.70000004768,173537.173,173543.80000001192,173553.845,174053.844,,31,maintain
screen,html.Screen,0_4_1_0_1_32,2021-12-10T12:37:28.974Z,,,,,,,,,,,,,,,,15,,,,,,,,,,,,,,360.75600002383,,response,,,7,F,,,,,Space,keypress(Space),,,,instrumental,---- --------- ---------- - --- ------- -- --- ------------<br>----- -- -------- ------- ---- ------ - -------- ---- -----<br>--- ------- ---- -- --- -------- --- - ----- ------ ---- --<br>-------- his -------- -------- --- -------- ---- -- ----- -<br>-------- ---- --- ---------- --------- -- ------- ------ -<br>--------- ----- -----,174415.5,174414.60000002384,174037.174,174039.80000001192,174053.844,174420.735,,32,his
screen,html.Screen,0_4_1_0_1_33,2021-12-10T12:37:29.422Z,,,,,,,,,,,,,,,,15,,,,,,,,,,,,,,441.8650000238558,,response,,,7,F,,,,,Space,keypress(Space),,,,instrumental,---- --------- ---------- - --- ------- -- --- ------------<br>----- -- -------- ------- ---- ------ - -------- ---- -----<br>--- ------- ---- -- --- -------- --- - ----- ------ ---- --<br>-------- --- silence. -------- --- -------- ---- -- ----- -<br>-------- ---- --- ---------- --------- -- ------- ------ -<br>--------- ----- -----,174863.40000003576,174862.60000002384,174404.063,174415.70000004768,174420.735,174870.673,,33,silence.
screen,html.Screen,0_4_1_0_1_34,2021-12-10T12:37:29.942Z,,,,,,,,,,,,,,,,15,,,,,,,,,,,,,,512.0270000476739,,response,,,7,F,,,,,Space,keypress(Space),,,,instrumental,---- --------- ---------- - --- ------- -- --- ------------<br>----- -- -------- ------- ---- ------ - -------- ---- -----<br>--- ------- ---- -- --- -------- --- - ----- ------ ---- --<br>-------- --- -------- Anderson --- -------- ---- -- ----- -<br>-------- ---- --- ---------- --------- -- ------- ------ -<br>--------- ----- -----,175383.5,175382.70000004768,174854.004,174863.70000004768,174870.673,175387.505,,34,Anderson
screen,html.Screen,0_4_1_0_1_35,2021-12-10T12:37:30.438Z,,,,,,,,,,,,,,,,15,,,,,,,,,,,,,,491.0950000238372,,response,,,7,F,,,,,Space,keypress(Space),,,,instrumental,---- --------- ---------- - --- ------- -- --- ------------<br>----- -- -------- ------- ---- ------ - -------- ---- -----<br>--- ------- ---- -- --- -------- --- - ----- ------ ---- --<br>-------- --- -------- -------- was -------- ---- -- ----- -<br>-------- ---- --- ---------- --------- -- ------- ------ -<br>--------- ----- -----,175879.40000003576,175878.60000002384,175370.835,175383.80000001192,175387.505,175887.818,,35,was
screen,html.Screen,0_4_1_0_1_36,2021-12-10T12:37:30.902Z,,,,,,,,,,,,,,,,15,,,,,,,,,,,,,,454.6820000000007,,response,,,7,F,,,,,Space,keypress(Space),,,,instrumental,---- --------- ---------- - --- ------- -- --- ------------<br>----- -- -------- ------- ---- ------ - -------- ---- -----<br>--- ------- ---- -- --- -------- --- - ----- ------ ---- --<br>-------- --- -------- -------- --- released ---- -- ----- -<br>-------- ---- --- ---------- --------- -- ------- ------ -<br>--------- ----- -----,176343.40000003576,176342.5,175871.146,175879.70000004768,175887.818,176354.385,,36,released
screen,html.Screen,0_4_1_0_1_37,2021-12-10T12:37:31.398Z,,,,,,,,,,,,,,,,15,,,,,,,,,,,,,,484.21500002383254,,response,,,7,F,,,,,Space,keypress(Space),,,,instrumental,---- --------- ---------- - --- ------- -- --- ------------<br>----- -- -------- ------- ---- ------ - -------- ---- -----<br>--- ------- ---- -- --- -------- --- - ----- ------ ---- --<br>-------- --- -------- -------- --- -------- July -- ----- -<br>-------- ---- --- ---------- --------- -- ------- ------ -<br>--------- ----- -----,176839.40000003576,176838.60000002384,176337.716,176343.60000002384,176354.385,176854.684,,37,July
screen,html.Screen,0_4_1_0_1_38,2021-12-10T12:37:32.662Z,,,,,,,,,,,,,,,,15,,,,,,,,,,,,,,1247.8159999999916,,response,,,7,F,,,,,Space,keypress(Space),,,,instrumental,---- --------- ---------- - --- ------- -- --- ------------<br>----- -- -------- ------- ---- ------ - -------- ---- -----<br>--- ------- ---- -- --- -------- --- - ----- ------ ---- --<br>-------- --- -------- -------- --- -------- ---- 20 ----- -<br>-------- ---- --- ---------- --------- -- ------- ------ -<br>--------- ----- -----,178103.5,178102.5,176838.013,176839.60000002384,176854.684,178104.918,,38,20
screen,html.Screen,0_4_1_0_1_39,2021-12-10T12:37:33.166Z,,,,,,,,,,,,,,,,15,,,,,,,,,,,,,,501.5819999999949,,response,,,7,F,,,,,Space,keypress(Space),,,,instrumental,---- --------- ---------- - --- ------- -- --- ------------<br>----- -- -------- ------- ---- ------ - -------- ---- -----<br>--- ------- ---- -- --- -------- --- - ----- ------ ---- --<br>-------- --- -------- -------- --- -------- ---- -- after -<br>-------- ---- --- ---------- --------- -- ------- ------ -<br>--------- ----- -----,178607.30000001192,178606.5,178088.248,178103.70000004768,178104.918,178621.768,,39,after
screen,html.Screen,0_4_1_0_1_40,2021-12-10T12:37:33.646Z,,,,,,,,,,,,,,,,15,,,,,,,,,,,,,,464.73199999998906,,response,,,7,F,,,,,Space,keypress(Space),,,,instrumental,---- --------- ---------- - --- ------- -- --- ------------<br>----- -- -------- ------- ---- ------ - -------- ---- -----<br>--- ------- ---- -- --- -------- --- - ----- ------ ---- --<br>-------- --- -------- -------- --- -------- ---- -- ----- a<br>-------- ---- --- ---------- --------- -- ------- ------ -<br>--------- ----- -----,179087.30000001192,179086.5,178605.098,178607.5,178621.768,179088.549,,40,a
screen,html.Screen,0_4_1_0_1_41,2021-12-10T12:37:34.318Z,,,,,,,,,,,,,,,,15,,,,,,,,,,,,,,669.9510000000009,,response,,,7,F,,,,,Space,keypress(Space),,,,instrumental,---- --------- ---------- - --- ------- -- --- ------------<br>----- -- -------- ------- ---- ------ - -------- ---- -----<br>--- ------- ---- -- --- -------- --- - ----- ------ ---- --<br>-------- --- -------- -------- --- -------- ---- -- ----- -<br>two-week ---- --- ---------- --------- -- ------- ------ -<br>--------- ----- -----,179759.30000001192,179758.5,179071.879,179087.5,179088.549,179772.063,,41,two-week
screen,html.Screen,0_4_1_0_1_42,2021-12-10T12:37:34.718Z,,,,,,,,,,,,,,,,15,,,,,,,,,,,,,,386.83700003576814,,response,,,7,F,,,,,Space,keypress(Space),,,,instrumental,---- --------- ---------- - --- ------- -- --- ------------<br>----- -- -------- ------- ---- ------ - -------- ---- -----<br>--- ------- ---- -- --- -------- --- - ----- ------ ---- --<br>-------- --- -------- -------- --- -------- ---- -- ----- -<br>-------- stay --- ---------- --------- -- ------- ------ -<br>--------- ----- -----,180159.60000002384,180158.90000003576,179755.393,179759.5,179772.063,180172.046,,42,stay
screen,html.Screen,0_4_1_0_1_43,2021-12-10T12:37:35.077Z,,,,,,,,,,,,,,,,15,,,,,,,,,,,,,,346.3540000357607,,response,,,7,F,,,,,Space,keypress(Space),,,,instrumental,---- --------- ---------- - --- ------- -- --- ------------<br>----- -- -------- ------- ---- ------ - -------- ---- -----<br>--- ------- ---- -- --- -------- --- - ----- ------ ---- --<br>-------- --- -------- -------- --- -------- ---- -- ----- -<br>-------- ---- for ---------- --------- -- ------- ------ -<br>--------- ----- -----,180519.30000001192,180518.40000003576,180155.377,180159.90000003576,180172.046,180522.238,,43,for
screen,html.Screen,0_4_1_0_1_44,2021-12-10T12:37:35.501Z,,,,,,,,,,,,,,,,15,,,,,,,,,,,,,,420.1620000357507,,response,,,7,F,,,,,Space,keypress(Space),,,,instrumental,---- --------- ---------- - --- ------- -- --- ------------<br>----- -- -------- ------- ---- ------ - -------- ---- -----<br>--- ------- ---- -- --- -------- --- - ----- ------ ---- --<br>-------- --- -------- -------- --- -------- ---- -- ----- -<br>-------- ---- --- previously --------- -- ------- ------ -<br>--------- ----- -----,180943.30000001192,180942.40000003576,180505.568,180519.5,180522.238,180955.722,,44,previously
screen,html.Screen,0_4_1_0_1_45,2021-12-10T12:37:36.045Z,,,,,,,,,,,,,,,,15,,,,,,,,,,,,,,530.5780000119121,,response,,,7,F,,,,,Space,keypress(Space),,,,instrumental,---- --------- ---------- - --- ------- -- --- ------------<br>----- -- -------- ------- ---- ------ - -------- ---- -----<br>--- ------- ---- -- --- -------- --- - ----- ------ ---- --<br>-------- --- -------- -------- --- -------- ---- -- ----- -<br>-------- ---- --- ---------- declining -- ------- ------ -<br>--------- ----- -----,181487.20000004768,181486.30000001192,180939.051,180943.5,180955.722,181489.331,,45,declining
screen,html.Screen,0_4_1_0_1_46,2021-12-10T12:37:36.412Z,,,,,,,,,,,,,,,,15,,,,,,,,,,,,,,364.96900001191534,,response,,,7,F,,,,,Space,keypress(Space),,,,instrumental,---- --------- ---------- - --- ------- -- --- ------------<br>----- -- -------- ------- ---- ------ - -------- ---- -----<br>--- ------- ---- -- --- -------- --- - ----- ------ ---- --<br>-------- --- -------- -------- --- -------- ---- -- ----- -<br>-------- ---- --- ---------- --------- to ------- ------ -<br>--------- ----- -----,181855,181854.30000001192,181472.658,181487.40000003576,181489.331,181872.485,,46,to
screen,html.Screen,0_4_1_0_1_47,2021-12-10T12:37:36.892Z,,,,,,,,,,,,,,,,15,,,,,,,,,,,,,,461.8150000119349,,response,,,7,F,,,,,Space,keypress(Space),,,,instrumental,---- --------- ---------- - --- ------- -- --- ------------<br>----- -- -------- ------- ---- ------ - -------- ---- -----<br>--- ------- ---- -- --- -------- --- - ----- ------ ---- --<br>-------- --- -------- -------- --- -------- ---- -- ----- -<br>-------- ---- --- ---------- --------- -- testify ------ -<br>--------- ----- -----,182335,182334.30000001192,181855.817,181855.30000001192,181872.485,182339.359,,47,testify
screen,html.Screen,0_4_1_0_1_48,2021-12-10T12:37:37.252Z,,,,,,,,,,,,,,,,15,,,,,,,,,,,,,,354.841000047687,,response,,,7,F,,,,,Space,keypress(Space),,,,instrumental,---- --------- ---------- - --- ------- -- --- ------------<br>----- -- -------- ------- ---- ------ - -------- ---- -----<br>--- ------- ---- -- --- -------- --- - ----- ------ ---- --<br>-------- --- -------- -------- --- -------- ---- -- ----- -<br>-------- ---- --- ---------- --------- -- ------- before -<br>--------- ----- -----,182695,182694.20000004768,182322.689,182335.30000001192,182339.359,182706.284,,48,before
screen,html.Screen,0_4_1_0_1_49,2021-12-10T12:37:37.708Z,,,,,,,,,,,,,,,,15,,,,,,,,,,,,,,443.9160000476695,,response,,,7,F,,,,,Space,keypress(Space),,,,instrumental,---- --------- ---------- - --- ------- -- --- ------------<br>----- -- -------- ------- ---- ------ - -------- ---- -----<br>--- ------- ---- -- --- -------- --- - ----- ------ ---- --<br>-------- --- -------- -------- --- -------- ---- -- ----- -<br>-------- ---- --- ---------- --------- -- ------- ------ a<br>--------- ----- -----,183151.10000002384,183150.20000004768,182689.612,182695.20000004768,182706.284,183156.211,,49,a
screen,html.Screen,0_4_1_0_1_50,2021-12-10T12:37:38.212Z,,,,,,,,,,,,,,,,15,,,,,,,,,,,,,,498.0890000119107,,response,,,7,F,,,,,Space,keypress(Space),,,,instrumental,---- --------- ---------- - --- ------- -- --- ------------<br>----- -- -------- ------- ---- ------ - -------- ---- -----<br>--- ------- ---- -- --- -------- --- - ----- ------ ---- --<br>-------- --- -------- -------- --- -------- ---- -- ----- -<br>-------- ---- --- ---------- --------- -- ------- ------ -<br>different ----- -----,183655.10000002384,183654.30000001192,183139.542,183151.30000001192,183156.211,183656.396,,50,different
screen,html.Screen,0_4_1_0_1_51,2021-12-10T12:37:38.684Z,,,,,,,,,,,,,,,,15,,,,,,,,,,,,,,469.404000011913,,response,,,7,F,,,,,Space,keypress(Space),,,,instrumental,---- --------- ---------- - --- ------- -- --- ------------<br>----- -- -------- ------- ---- ------ - -------- ---- -----<br>--- ------- ---- -- --- -------- --- - ----- ------ ---- --<br>-------- --- -------- -------- --- -------- ---- -- ----- -<br>-------- ---- --- ---------- --------- -- ------- ------ -<br>--------- grand -----,184126.30000001192,184125.80000001192,183639.726,183655.30000001192,183656.396,184139.858,,51,grand
screen,html.Screen,0_4_1_0_1_52,2021-12-10T12:37:39.117Z,,,,,,,,,,,,,,,,15,,,,,,,,,,,,,,418.34200004767627,,response,,,7,F,,,,,Space,keypress(Space),,,,instrumental,---- --------- ---------- - --- ------- -- --- ------------<br>----- -- -------- ------- ---- ------ - -------- ---- -----<br>--- ------- ---- -- --- -------- --- - ----- ------ ---- --<br>-------- --- -------- -------- --- -------- ---- -- ----- -<br>-------- ---- --- ---------- --------- -- ------- ------ -<br>--------- ----- jury.,184559.20000004768,184558.20000004768,184123.188,184126.5,184139.858,184573.385,,52,jury.
