sender,sender_type,sender_id,timestamp,meta,,Blues,Classical,Country,Dance,Electronic,Folk,Gospel,Hip-Hop,Jazz,Latin,Musical/Film,New-age,Pop,Provo_ID,R&B,Rap,Reggae,Religious,Rock,Soul,Swing,Traditional,age,artist_name,correct,correctResponse,distraction,duration,education,ended_on,familiarity,gender,item,list,music_frequency,offensiveness,pleasantness,preference,response,response_action,snippet_file,song_name,song_rating,sound,text,time_commit,time_end,time_render,time_run,time_show,time_switch,url,word,word_ID
Instructions,html.Page,0_0,2021-12-03T11:27:05.276Z,"{""labjs_version"":""20.2.3"",""labjs_build"":{""flavor"":""production"",""commit"":""7ea907d66ca8aeef8054924ca5d82ffbe11e34e5""},""location"":""https://run.pavlovia.org/mvasilev/lab_music_b/"",""userAgent"":""Mozilla/5.0 (Windows NT 6.1; Win64; x64) AppleWebKit/537.36 (KHTML, like Gecko) Chrome/96.0.4664.45 Safari/537.36"",""platform"":""Win32"",""language"":""en-US"",""locale"":""en-US"",""timeZone"":""Europe/London"",""timezoneOffset"":0,""screen_width"":1920,""screen_height"":1080,""scroll_width"":1920,""scroll_height"":959,""window_innerWidth"":1920,""window_innerHeight"":1007,""devicePixelRatio"":1}",,,,,,,,,,,,,,,,,,,,,,,,,,,,,42542.30500004768,,form submission,,,,,,,,,,,,,,,,50378.5,50377.700000047684,7818.73,7827.600000023842,7835.395,50385.411,{},,
Headphones,html.Page,0_1,2021-12-03T11:27:09.196Z,,,,,,,,,,,,,,,,,,,,,,,,,,,,,,3913.089,,form submission,,,,,,,,,,,,,,,,54298.90000003576,54298.5,50368.7,50378.90000003576,50385.411,54300.473,,,
Holding screen,html.Screen,0_2_0_0,2021-12-03T11:27:19.187Z,,,,,,,,,,,,,,,,,,,,,,,,,,,,,,9999.631000000001,,timeout,,,,,,,,,,,,,,,,64287.200000047684,64283.439,54283.808,54299.200000047684,54300.473,64300.104,,,
screen,html.Screen,0_2_0_1_0,2021-12-03T11:27:20.001Z,,,,,,,,,,,,,,,,53,,,,,,,,,,,,,,800.4960000238425,,response,,,99,,,,,,Space,keypress(Space),,,,,When -- ----- -- ------ - ------- --- ----------<br>------------- ------ ------ ---- ---- ------- ----- -- ----<br>-------- ------- -- ---------- --- - --- ----- ----- ----<br>---- --- --- ----- --- ---- ---- ------- ----- ---- -------<br>--- --- -- ----- -- --- ---- -- --- ---- -- ------ ------<br>--- ----- -- ----,65101.700000047684,65100.60000002384,64283.439,64287.5,64300.104,65116.822,,0,When
screen,html.Screen,0_2_0_1_1,2021-12-03T11:27:20.328Z,,,,,,,,,,,,,,,,53,,,,,,,,,,,,,,311.77800002384174,,response,,,99,,,,,,Space,keypress(Space),,,,,---- it ----- -- ------ - ------- --- ----------<br>------------- ------ ------ ---- ---- ------- ----- -- ----<br>-------- ------- -- ---------- --- - --- ----- ----- ----<br>---- --- --- ----- --- ---- ---- ------- ----- ---- -------<br>--- --- -- ----- -- --- ---- -- --- ---- -- ------ ------<br>--- ----- -- ----,65429.200000047684,65428.60000002384,65100.156,65102,65116.822,65433.52,,1,it
screen,html.Screen,0_2_0_1_2,2021-12-03T11:27:20.680Z,,,,,,,,,,,,,,,,53,,,,,,,,,,,,,,347.08000002384506,,response,,,99,,,,,,Space,keypress(Space),,,,,---- -- comes -- ------ - ------- --- ----------<br>------------- ------ ------ ---- ---- ------- ----- -- ----<br>-------- ------- -- ---------- --- - --- ----- ----- ----<br>---- --- --- ----- --- ---- ---- ------- ----- ---- -------<br>--- --- -- ----- -- --- ---- -- --- ---- -- ------ ------<br>--- ----- -- ----,65781.20000004768,65780.60000002384,65416.854,65429.40000003576,65433.52,65783.434,,2,comes
screen,html.Screen,0_2_0_1_3,2021-12-03T11:27:21.129Z,,,,,,,,,,,,,,,,53,,,,,,,,,,,,,,445.166000023848,,response,,,99,,,,,,Space,keypress(Space),,,,,---- -- ----- to ------ - ------- --- ----------<br>------------- ------ ------ ---- ---- ------- ----- -- ----<br>-------- ------- -- ---------- --- - --- ----- ----- ----<br>---- --- --- ----- --- ---- ---- ------- ----- ---- -------<br>--- --- -- ----- -- --- ---- -- --- ---- -- ------ ------<br>--- ----- -- ----,66229.30000001192,66228.60000002384,65766.769,65781.40000003576,65783.434,66233.464,,3,to
screen,html.Screen,0_2_0_1_4,2021-12-03T11:27:21.529Z,,,,,,,,,,,,,,,,53,,,,,,,,,,,,,,395.0359999999928,,response,,,99,,,,,,Space,keypress(Space),,,,,---- -- ----- -- having - ------- --- ----------<br>------------- ------ ------ ---- ---- ------- ----- -- ----<br>-------- ------- -- ---------- --- - --- ----- ----- ----<br>---- --- --- ----- --- ---- ---- ------- ----- ---- -------<br>--- --- -- ----- -- --- ---- -- --- ---- -- ------ ------<br>--- ----- -- ----,66629.30000001192,66628.5,66216.798,66229.60000002384,66233.464,66633.394,,4,having
screen,html.Screen,0_2_0_1_5,2021-12-03T11:27:21.864Z,,,,,,,,,,,,,,,,53,,,,,,,,,,,,,,331.2060000238416,,response,,,99,,,,,,Space,keypress(Space),,,,,---- -- ----- -- ------ a ------- --- ----------<br>------------- ------ ------ ---- ---- ------- ----- -- ----<br>-------- ------- -- ---------- --- - --- ----- ----- ----<br>---- --- --- ----- --- ---- ---- ------- ----- ---- -------<br>--- --- -- ----- -- --- ---- -- --- ---- -- ------ ------<br>--- ----- -- ----,66965.20000004768,66964.60000002384,66616.729,66629.5,66633.394,66966.821,,5,a
screen,html.Screen,0_2_0_1_6,2021-12-03T11:27:22.200Z,,,,,,,,,,,,,,,,53,,,,,,,,,,,,,,333.6790000000037,,response,,,99,,,,,,Space,keypress(Space),,,,,---- -- ----- -- ------ - lasting --- ----------<br>------------- ------ ------ ---- ---- ------- ----- -- ----<br>-------- ------- -- ---------- --- - --- ----- ----- ----<br>---- --- --- ----- --- ---- ---- ------- ----- ---- -------<br>--- --- -- ----- -- --- ---- -- --- ---- -- ------ ------<br>--- ----- -- ----,67301.10000002384,67300.5,66950.154,66965.5,66966.821,67316.741,,6,lasting
screen,html.Screen,0_2_0_1_7,2021-12-03T11:27:22.712Z,,,,,,,,,,,,,,,,53,,,,,,,,,,,,,,495.75900000000547,,response,,,99,,,,,,Space,keypress(Space),,,,,---- -- ----- -- ------ - ------- and ----------<br>------------- ------ ------ ---- ---- ------- ----- -- ----<br>-------- ------- -- ---------- --- - --- ----- ----- ----<br>---- --- --- ----- --- ---- ---- ------- ----- ---- -------<br>--- --- -- ----- -- --- ---- -- --- ---- -- ------ ------<br>--- ----- -- ----,67813.10000002384,67812.5,67300.076,67301.40000003576,67316.741,67816.629,,7,and
screen,html.Screen,0_2_0_1_8,2021-12-03T11:27:23.113Z,,,,,,,,,,,,,,,,53,,,,,,,,,,,,,,395.8709999999992,,response,,,99,,,,,,Space,keypress(Space),,,,,---- -- ----- -- ------ - ------- --- fulfilling<br>------------- ------ ------ ---- ---- ------- ----- -- ----<br>-------- ------- -- ---------- --- - --- ----- ----- ----<br>---- --- --- ----- --- ---- ---- ------- ----- ---- -------<br>--- --- -- ----- -- --- ---- -- --- ---- -- ------ ------<br>--- ----- -- ----,68213.30000001192,68212.5,67799.965,67813.40000003576,67816.629,68216.768,,8,fulfilling
screen,html.Screen,0_2_0_1_9,2021-12-03T11:27:23.648Z,,,,,,,,,,,,,,,,53,,,,,,,,,,,,,,531.6320000357664,,response,,,99,,,,,,Space,keypress(Space),,,,,"---- -- ----- -- ------ - ------- --- ----------<br>relationship, ------ ------ ---- ---- ------- ----- -- ----<br>-------- ------- -- ---------- --- - --- ----- ----- ----<br>---- --- --- ----- --- ---- ---- ------- ----- ---- -------<br>--- --- -- ----- -- --- ---- -- --- ---- -- ------ ------<br>--- ----- -- ----",68749.20000004768,68748.40000003576,68200.101,68213.40000003576,68216.768,68749.903,,9,"relationship,"
screen,html.Screen,0_2_0_1_10,2021-12-03T11:27:24.145Z,,,,,,,,,,,,,,,,53,,,,,,,,,,,,,,494.4970000357571,,response,,,99,,,,,,Space,keypress(Space),,,,,---- -- ----- -- ------ - ------- --- ----------<br>------------- common ------ ---- ---- ------- ----- -- ----<br>-------- ------- -- ---------- --- - --- ----- ----- ----<br>---- --- --- ----- --- ---- ---- ------- ----- ---- -------<br>--- --- -- ----- -- --- ---- -- --- ---- -- ------ ------<br>--- ----- -- ----,69245.30000001192,69244.40000003576,68733.239,68749.40000003576,68749.903,69250.1,,10,common
screen,html.Screen,0_2_0_1_11,2021-12-03T11:27:24.480Z,,,,,,,,,,,,,,,,53,,,,,,,,,,,,,,330.3999999999942,,response,,,99,,,,,,Space,keypress(Space),,,,,---- -- ----- -- ------ - ------- --- ----------<br>------------- ------ wisdom ---- ---- ------- ----- -- ----<br>-------- ------- -- ---------- --- - --- ----- ----- ----<br>---- --- --- ----- --- ---- ---- ------- ----- ---- -------<br>--- --- -- ----- -- --- ---- -- --- ---- -- ------ ------<br>--- ----- -- ----,69581.20000004768,69580.5,69233.433,69245.40000003576,69250.1,69583.249,,11,wisdom
screen,html.Screen,0_2_0_1_12,2021-12-03T11:27:24.968Z,,,,,,,,,,,,,,,,53,,,,,,,,,,,,,,485.15100003576663,,response,,,99,,,,,,Space,keypress(Space),,,,,---- -- ----- -- ------ - ------- --- ----------<br>------------- ------ ------ says ---- ------- ----- -- ----<br>-------- ------- -- ---------- --- - --- ----- ----- ----<br>---- --- --- ----- --- ---- ---- ------- ----- ---- -------<br>--- --- -- ----- -- --- ---- -- --- ---- -- ------ ------<br>--- ----- -- ----,70069.10000002384,70068.40000003576,69566.585,69581.40000003576,69583.249,70083.305,,12,says
screen,html.Screen,0_2_0_1_13,2021-12-03T11:27:25.705Z,,,,,,,,,,,,,,,,53,,,,,,,,,,,,,,721.3950000476907,,response,,,99,,,,,,Space,keypress(Space),,,,,---- -- ----- -- ------ - ------- --- ----------<br>------------- ------ ------ ---- that ------- ----- -- ----<br>-------- ------- -- ---------- --- - --- ----- ----- ----<br>---- --- --- ----- --- ---- ---- ------- ----- ---- -------<br>--- --- -- ----- -- --- ---- -- --- ---- -- ------ ------<br>--- ----- -- ----,70805.30000001192,70804.70000004768,70066.639,70069.20000004768,70083.305,70816.716,,13,that
screen,html.Screen,0_2_0_1_14,2021-12-03T11:27:26.320Z,,,,,,,,,,,,,,,,53,,,,,,,,,,,,,,603.6840000357624,,response,,,99,,,,,,Space,keypress(Space),,,,,---- -- ----- -- ------ - ------- --- ----------<br>------------- ------ ------ ---- ---- feeling ----- -- ----<br>-------- ------- -- ---------- --- - --- ----- ----- ----<br>---- --- --- ----- --- ---- ---- ------- ----- ---- -------<br>--- --- -- ----- -- --- ---- -- --- ---- -- ------ ------<br>--- ----- -- ----,71421,71420.40000003576,70800.049,70805.40000003576,70816.716,71433.233,,14,feeling
screen,html.Screen,0_2_0_1_15,2021-12-03T11:27:26.768Z,,,,,,,,,,,,,,,,53,,,,,,,,,,,,,,435.2670000000071,,response,,,99,,,,,,Space,keypress(Space),,,,,---- -- ----- -- ------ - ------- --- ----------<br>------------- ------ ------ ---- ---- ------- close -- ----<br>-------- ------- -- ---------- --- - --- ----- ----- ----<br>---- --- --- ----- --- ---- ---- ------- ----- ---- -------<br>--- --- -- ----- -- --- ---- -- --- ---- -- ------ ------<br>--- ----- -- ----,71869.10000002384,71868.5,71416.568,71421.20000004768,71433.233,71883.193,,15,close
screen,html.Screen,0_2_0_1_16,2021-12-03T11:27:27.128Z,,,,,,,,,,,,,,,,53,,,,,,,,,,,,,,345.1070000119216,,response,,,99,,,,,,Space,keypress(Space),,,,,---- -- ----- -- ------ - ------- --- ----------<br>------------- ------ ------ ---- ---- ------- ----- to ----<br>-------- ------- -- ---------- --- - --- ----- ----- ----<br>---- --- --- ----- --- ---- ---- ------- ----- ---- -------<br>--- --- -- ----- -- --- ---- -- --- ---- -- ------ ------<br>--- ----- -- ----,72228.90000003576,72228.30000001192,71866.528,71869.20000004768,71883.193,72233.26,,16,to
screen,html.Screen,0_2_0_1_17,2021-12-03T11:27:27.816Z,,,,,,,,,,,,,,,,53,,,,,,,,,,,,,,683.0400000119262,,response,,,99,,,,,,Space,keypress(Space),,,,,---- -- ----- -- ------ - ------- --- ----------<br>------------- ------ ------ ---- ---- ------- ----- -- your<br>-------- ------- -- ---------- --- - --- ----- ----- ----<br>---- --- --- ----- --- ---- ---- ------- ----- ---- -------<br>--- --- -- ----- -- --- ---- -- --- ---- -- ------ ------<br>--- ----- -- ----,72917,72916.30000001192,72216.594,72229.10000002384,72233.26,72933.228,,17,your
screen,html.Screen,0_2_0_1_18,2021-12-03T11:27:28.384Z,,,,,,,,,,,,,,,,53,,,,,,,,,,,,,,551.0720000119181,,response,,,99,,,,,,Space,keypress(Space),,,,,---- -- ----- -- ------ - ------- --- ----------<br>------------- ------ ------ ---- ---- ------- ----- -- ----<br>romantic ------- -- ---------- --- - --- ----- ----- ----<br>---- --- --- ----- --- ---- ---- ------- ----- ---- -------<br>--- --- -- ----- -- --- ---- -- --- ---- -- ------ ------<br>--- ----- -- ----,73484.90000003576,73484.30000001192,72916.562,72917.20000004768,72933.228,73499.826,,18,romantic
screen,html.Screen,0_2_0_1_19,2021-12-03T11:27:28.864Z,,,,,,,,,,,,,,,,53,,,,,,,,,,,,,,464.47400001192,,response,,,99,,,,,,Space,keypress(Space),,,,,---- -- ----- -- ------ - ------- --- ----------<br>------------- ------ ------ ---- ---- ------- ----- -- ----<br>-------- partner -- ---------- --- - --- ----- ----- ----<br>---- --- --- ----- --- ---- ---- ------- ----- ---- -------<br>--- --- -- ----- -- --- ---- -- --- ---- -- ------ ------<br>--- ----- -- ----,73964.90000003576,73964.30000001192,73483.161,73485.10000002384,73499.826,73966.527,,19,partner
screen,html.Screen,0_2_0_1_20,2021-12-03T11:27:29.320Z,,,,,,,,,,,,,,,,53,,,,,,,,,,,,,,453.77300001191907,,response,,,99,,,,,,Space,keypress(Space),,,,,---- -- ----- -- ------ - ------- --- ----------<br>------------- ------ ------ ---- ---- ------- ----- -- ----<br>-------- ------- is ---------- --- - --- ----- ----- ----<br>---- --- --- ----- --- ---- ---- ------- ----- ---- -------<br>--- --- -- ----- -- --- ---- -- --- ---- -- ------ ------<br>--- ----- -- ----,74421.10000002384,74420.30000001192,73949.861,73965,73966.527,74433.054,,20,is
screen,html.Screen,0_2_0_1_21,2021-12-03T11:27:31.800Z,,,,,,,,,,,,,,,,53,,,,,,,,,,,,,,2467.14600004768,,response,,,99,,,,,,Space,keypress(Space),,,,,---- -- ----- -- ------ - ------- --- ----------<br>------------- ------ ------ ---- ---- ------- ----- -- ----<br>-------- ------- -- paramount. --- - --- ----- ----- ----<br>---- --- --- ----- --- ---- ---- ------- ----- ---- -------<br>--- --- -- ----- -- --- ---- -- --- ---- -- ------ ------<br>--- ----- -- ----,76900.80000001192,76900.20000004768,74416.39,74421.20000004768,74433.054,76916.398,,21,paramount.
screen,html.Screen,0_2_0_1_22,2021-12-03T11:27:32.344Z,,,,,,,,,,,,,,,,53,,,,,,,,,,,,,,527.8020000476827,,response,,,99,,,,,,Space,keypress(Space),,,,,---- -- ----- -- ------ - ------- --- ----------<br>------------- ------ ------ ---- ---- ------- ----- -- ----<br>-------- ------- -- ---------- But - --- ----- ----- ----<br>---- --- --- ----- --- ---- ---- ------- ----- ---- -------<br>--- --- -- ----- -- --- ---- -- --- ---- -- ------ ------<br>--- ----- -- ----,77444.80000001192,77444.20000004768,76899.732,76901.10000002384,76916.398,77449.728,,22,But
screen,html.Screen,0_2_0_1_23,2021-12-03T11:27:32.720Z,,,,,,,,,,,,,,,,53,,,,,,,,,,,,,,370.37200002383906,,response,,,99,,,,,,Space,keypress(Space),,,,,---- -- ----- -- ------ - ------- --- ----------<br>------------- ------ ------ ---- ---- ------- ----- -- ----<br>-------- ------- -- ---------- --- a --- ----- ----- ----<br>---- --- --- ----- --- ---- ---- ------- ----- ---- -------<br>--- --- -- ----- -- --- ---- -- --- ---- -- ------ ------<br>--- ----- -- ----,77820.70000004768,77820.10000002384,77433.062,77445,77449.728,77832.993,,23,a
screen,html.Screen,0_2_0_1_24,2021-12-03T11:27:33.072Z,,,,,,,,,,,,,,,,53,,,,,,,,,,,,,,339.10700002383965,,response,,,99,,,,,,Space,keypress(Space),,,,,---- -- ----- -- ------ - ------- --- ----------<br>------------- ------ ------ ---- ---- ------- ----- -- ----<br>-------- ------- -- ---------- --- - new ----- ----- ----<br>---- --- --- ----- --- ---- ---- ------- ----- ---- -------<br>--- --- -- ----- -- --- ---- -- --- ---- -- ------ ------<br>--- ----- -- ----,78172.70000004768,78172.10000002384,77816.328,77820.90000003576,77832.993,78182.976,,24,new
screen,html.Screen,0_2_0_1_25,2021-12-03T11:27:33.448Z,,,,,,,,,,,,,,,,53,,,,,,,,,,,,,,365.12400002384675,,response,,,99,,,,,,Space,keypress(Space),,,,,---- -- ----- -- ------ - ------- --- ----------<br>------------- ------ ------ ---- ---- ------- ----- -- ----<br>-------- ------- -- ---------- --- - --- study ----- ----<br>---- --- --- ----- --- ---- ---- ------- ----- ---- -------<br>--- --- -- ----- -- --- ---- -- --- ---- -- ------ ------<br>--- ----- -- ----,78548.70000004768,78548.10000002384,78166.311,78172.90000003576,78182.976,78549.723,,25,study
screen,html.Screen,0_2_0_1_26,2021-12-03T11:27:33.864Z,,,,,,,,,,,,,,,,53,,,,,,,,,,,,,,414.3770000238437,,response,,,99,,,,,,Space,keypress(Space),,,,,---- -- ----- -- ------ - ------- --- ----------<br>------------- ------ ------ ---- ---- ------- ----- -- ----<br>-------- ------- -- ---------- --- - --- ----- finds ----<br>---- --- --- ----- --- ---- ---- ------- ----- ---- -------<br>--- --- -- ----- -- --- ---- -- --- ---- -- ------ ------<br>--- ----- -- ----,78964.70000004768,78964.10000002384,78533.056,78548.90000003576,78549.723,78966.338,,26,finds
screen,html.Screen,0_2_0_1_27,2021-12-03T11:27:34.392Z,,,,,,,,,,,,,,,,53,,,,,,,,,,,,,,525.7620000238385,,response,,,99,,,,,,Space,keypress(Space),,,,,---- -- ----- -- ------ - ------- --- ----------<br>------------- ------ ------ ---- ---- ------- ----- -- ----<br>-------- ------- -- ---------- --- - --- ----- ----- that<br>---- --- --- ----- --- ---- ---- ------- ----- ---- -------<br>--- --- -- ----- -- --- ---- -- --- ---- -- ------ ------<br>--- ----- -- ----,79492.70000004768,79492.10000002384,78949.672,78964.90000003576,78966.338,79499.521,,27,that
screen,html.Screen,0_2_0_1_28,2021-12-03T11:27:34.888Z,,,,,,,,,,,,,,,,53,,,,,,,,,,,,,,488.5790000238485,,response,,,99,,,,,,Space,keypress(Space),,,,,---- -- ----- -- ------ - ------- --- ----------<br>------------- ------ ------ ---- ---- ------- ----- -- ----<br>-------- ------- -- ---------- --- - --- ----- ----- ----<br>it's --- --- ----- --- ---- ---- ------- ----- ---- -------<br>--- --- -- ----- -- --- ---- -- --- ---- -- ------ ------<br>--- ----- -- ----,79988.70000004768,79988.10000002384,79482.857,79492.90000003576,79499.521,79999.547,,28,it's
screen,html.Screen,0_2_0_1_29,2021-12-03T11:27:35.296Z,,,,,,,,,,,,,,,,53,,,,,,,,,,,,,,396.45299999999406,,response,,,99,,,,,,Space,keypress(Space),,,,,---- -- ----- -- ------ - ------- --- ----------<br>------------- ------ ------ ---- ---- ------- ----- -- ----<br>-------- ------- -- ---------- --- - --- ----- ----- ----<br>---- not --- ----- --- ---- ---- ------- ----- ---- -------<br>--- --- -- ----- -- --- ---- -- --- ---- -- ------ ------<br>--- ----- -- ----,80396.70000004768,80396,79982.882,79988.80000001192,79999.547,80399.586,,29,not
screen,html.Screen,0_2_0_1_30,2021-12-03T11:27:35.720Z,,,,,,,,,,,,,,,,53,,,,,,,,,,,,,,420.614000047688,,response,,,99,,,,,,Space,keypress(Space),,,,,---- -- ----- -- ------ - ------- --- ----------<br>------------- ------ ------ ---- ---- ------- ----- -- ----<br>-------- ------- -- ---------- --- - --- ----- ----- ----<br>---- --- how ----- --- ---- ---- ------- ----- ---- -------<br>--- --- -- ----- -- --- ---- -- --- ---- -- ------ ------<br>--- ----- -- ----,80820.80000001192,80820.20000004768,80382.92,80396.80000001192,80399.586,80832.872,,30,how
screen,html.Screen,0_2_0_1_31,2021-12-03T11:27:36.064Z,,,,,,,,,,,,,,,,53,,,,,,,,,,,,,,331.22800002383883,,response,,,99,,,,,,Space,keypress(Space),,,,,---- -- ----- -- ------ - ------- --- ----------<br>------------- ------ ------ ---- ---- ------- ----- -- ----<br>-------- ------- -- ---------- --- - --- ----- ----- ----<br>---- --- --- close --- ---- ---- ------- ----- ---- -------<br>--- --- -- ----- -- --- ---- -- --- ---- -- ------ ------<br>--- ----- -- ----,81164.70000004768,81164.10000002384,80816.207,80820.90000003576,80832.872,81166.197,,31,close
screen,html.Screen,0_2_0_1_32,2021-12-03T11:27:36.328Z,,,,,,,,,,,,,,,,53,,,,,,,,,,,,,,261.8029999999999,,response,,,99,,,,,,Space,keypress(Space),,,,,---- -- ----- -- ------ - ------- --- ----------<br>------------- ------ ------ ---- ---- ------- ----- -- ----<br>-------- ------- -- ---------- --- - --- ----- ----- ----<br>---- --- --- ----- you ---- ---- ------- ----- ---- -------<br>--- --- -- ----- -- --- ---- -- --- ---- -- ------ ------<br>--- ----- -- ----,81428.5,81428,81149.532,81164.80000001192,81166.197,81432.945,,32,you
screen,html.Screen,0_2_0_1_33,2021-12-03T11:27:36.632Z,,,,,,,,,,,,,,,,53,,,,,,,,,,,,,,299.054999999993,,response,,,99,,,,,,Space,keypress(Space),,,,,---- -- ----- -- ------ - ------- --- ----------<br>------------- ------ ------ ---- ---- ------- ----- -- ----<br>-------- ------- -- ---------- --- - --- ----- ----- ----<br>---- --- --- ----- --- feel ---- ------- ----- ---- -------<br>--- --- -- ----- -- --- ---- -- --- ---- -- ------ ------<br>--- ----- -- ----,81732.60000002384,81732,81416.278,81428.80000001192,81432.945,81749.479,,33,feel
screen,html.Screen,0_2_0_1_34,2021-12-03T11:27:36.936Z,,,,,,,,,,,,,,,,53,,,,,,,,,,,,,,286.42100003575615,,response,,,99,,,,,,Space,keypress(Space),,,,,---- -- ----- -- ------ - ------- --- ----------<br>------------- ------ ------ ---- ---- ------- ----- -- ----<br>-------- ------- -- ---------- --- - --- ----- ----- ----<br>---- --- --- ----- --- ---- that ------- ----- ---- -------<br>--- --- -- ----- -- --- ---- -- --- ---- -- ------ ------<br>--- ----- -- ----,82036.5,82035.90000003576,81732.815,81732.80000001192,81749.479,82049.564,,34,that
screen,html.Screen,0_2_0_1_35,2021-12-03T11:27:37.352Z,,,,,,,,,,,,,,,,53,,,,,,,,,,,,,,402.3360000357643,,response,,,99,,,,,,Space,keypress(Space),,,,,---- -- ----- -- ------ - ------- --- ----------<br>------------- ------ ------ ---- ---- ------- ----- -- ----<br>-------- ------- -- ---------- --- - --- ----- ----- ----<br>---- --- --- ----- --- ---- ---- matters ----- ---- -------<br>--- --- -- ----- -- --- ---- -- --- ---- -- ------ ------<br>--- ----- -- ----,82452.60000002384,82451.90000003576,82032.897,82036.70000004768,82049.564,82466.206,,35,matters
screen,html.Screen,0_2_0_1_36,2021-12-03T11:27:38.016Z,,,,,,,,,,,,,,,,53,,,,,,,,,,,,,,649.7939999999944,,response,,,99,,,,,,Space,keypress(Space),,,,,"---- -- ----- -- ------ - ------- --- ----------<br>------------- ------ ------ ---- ---- ------- ----- -- ----<br>-------- ------- -- ---------- --- - --- ----- ----- ----<br>---- --- --- ----- --- ---- ---- ------- most, ---- -------<br>--- --- -- ----- -- --- ---- -- --- ---- -- ------ ------<br>--- ----- -- ----",83116.60000002384,83116,82449.54,82452.80000001192,82466.206,83132.694,,36,"most,"
screen,html.Screen,0_2_0_1_37,2021-12-03T11:27:38.528Z,,,,,,,,,,,,,,,,53,,,,,,,,,,,,,,495.20600003575964,,response,,,99,,,,,,Space,keypress(Space),,,,,---- -- ----- -- ------ - ------- --- ----------<br>------------- ------ ------ ---- ---- ------- ----- -- ----<br>-------- ------- -- ---------- --- - --- ----- ----- ----<br>---- --- --- ----- --- ---- ---- ------- ----- it's -------<br>--- --- -- ----- -- --- ---- -- --- ---- -- ------ ------<br>--- ----- -- ----,83628.5,83627.90000003576,83116.03,83116.80000001192,83132.694,83632.754,,37,it's
screen,html.Screen,0_2_0_1_38,2021-12-03T11:27:38.936Z,,,,,,,,,,,,,,,,53,,,,,,,,,,,,,,403.146000035762,,response,,,99,,,,,,Space,keypress(Space),,,,,---- -- ----- -- ------ - ------- --- ----------<br>------------- ------ ------ ---- ---- ------- ----- -- ----<br>-------- ------- -- ---------- --- - --- ----- ----- ----<br>---- --- --- ----- --- ---- ---- ------- ----- ---- whether<br>--- --- -- ----- -- --- ---- -- --- ---- -- ------ ------<br>--- ----- -- ----,84036.5,84035.90000003576,83616.089,83628.60000002384,83632.754,84049.499,,38,whether
screen,html.Screen,0_2_0_1_39,2021-12-03T11:27:39.296Z,,,,,,,,,,,,,,,,53,,,,,,,,,,,,,,346.30100001192477,,response,,,99,,,,,,Space,keypress(Space),,,,,---- -- ----- -- ------ - ------- --- ----------<br>------------- ------ ------ ---- ---- ------- ----- -- ----<br>-------- ------- -- ---------- --- - --- ----- ----- ----<br>---- --- --- ----- --- ---- ---- ------- ----- ---- -------<br>you --- -- ----- -- --- ---- -- --- ---- -- ------ ------<br>--- ----- -- ----,84396.40000003576,84395.80000001192,84032.833,84036.70000004768,84049.499,84399.439,,39,you
screen,html.Screen,0_2_0_1_40,2021-12-03T11:27:39.624Z,,,,,,,,,,,,,,,,53,,,,,,,,,,,,,,324.4610000357643,,response,,,99,,,,,,Space,keypress(Space),,,,,---- -- ----- -- ------ - ------- --- ----------<br>------------- ------ ------ ---- ---- ------- ----- -- ----<br>-------- ------- -- ---------- --- - --- ----- ----- ----<br>---- --- --- ----- --- ---- ---- ------- ----- ---- -------<br>--- are -- ----- -- --- ---- -- --- ---- -- ------ ------<br>--- ----- -- ----,84724.5,84723.90000003576,84382.774,84396.60000002384,84399.439,84732.696,,40,are
screen,html.Screen,0_2_0_1_41,2021-12-03T11:27:39.880Z,,,,,,,,,,,,,,,,53,,,,,,,,,,,,,,247.2040000357665,,response,,,99,,,,,,Space,keypress(Space),,,,,---- -- ----- -- ------ - ------- --- ----------<br>------------- ------ ------ ---- ---- ------- ----- -- ----<br>-------- ------- -- ---------- --- - --- ----- ----- ----<br>---- --- --- ----- --- ---- ---- ------- ----- ---- -------<br>--- --- as ----- -- --- ---- -- --- ---- -- ------ ------<br>--- ----- -- ----,84980.40000003576,84979.90000003576,84716.032,84724.60000002384,84732.696,84982.73,,41,as
screen,html.Screen,0_2_0_1_42,2021-12-03T11:27:40.112Z,,,,,,,,,,,,,,,,53,,,,,,,,,,,,,,229.070000011925,,response,,,99,,,,,,Space,keypress(Space),,,,,---- -- ----- -- ------ - ------- --- ----------<br>------------- ------ ------ ---- ---- ------- ----- -- ----<br>-------- ------- -- ---------- --- - --- ----- ----- ----<br>---- --- --- ----- --- ---- ---- ------- ----- ---- -------<br>--- --- -- close -- --- ---- -- --- ---- -- ------ ------<br>--- ----- -- ----,85212.60000002384,85211.80000001192,84966.065,84980.60000002384,84982.73,85216.133,,42,close
screen,html.Screen,0_2_0_1_43,2021-12-03T11:27:40.424Z,,,,,,,,,,,,,,,,53,,,,,,,,,,,,,,307.6670000119193,,response,,,99,,,,,,Space,keypress(Space),,,,,---- -- ----- -- ------ - ------- --- ----------<br>------------- ------ ------ ---- ---- ------- ----- -- ----<br>-------- ------- -- ---------- --- - --- ----- ----- ----<br>---- --- --- ----- --- ---- ---- ------- ----- ---- -------<br>--- --- -- ----- as --- ---- -- --- ---- -- ------ ------<br>--- ----- -- ----,85524.40000003576,85523.80000001192,85199.466,85212.70000004768,85216.133,85532.736,,43,as
screen,html.Screen,0_2_0_1_44,2021-12-03T11:27:40.928Z,,,,,,,,,,,,,,,,53,,,,,,,,,,,,,,495.0640000119165,,response,,,99,,,,,,Space,keypress(Space),,,,,---- -- ----- -- ------ - ------- --- ----------<br>------------- ------ ------ ---- ---- ------- ----- -- ----<br>-------- ------- -- ---------- --- - --- ----- ----- ----<br>---- --- --- ----- --- ---- ---- ------- ----- ---- -------<br>--- --- -- ----- -- you ---- -- --- ---- -- ------ ------<br>--- ----- -- ----,86028.5,86027.80000001192,85516.071,85524.5,85532.736,86032.744,,44,you
screen,html.Screen,0_2_0_1_45,2021-12-03T11:27:41.328Z,,,,,,,,,,,,,,,,53,,,,,,,,,,,,,,395.0560000119149,,response,,,99,,,,,,Space,keypress(Space),,,,,---- -- ----- -- ------ - ------- --- ----------<br>------------- ------ ------ ---- ---- ------- ----- -- ----<br>-------- ------- -- ---------- --- - --- ----- ----- ----<br>---- --- --- ----- --- ---- ---- ------- ----- ---- -------<br>--- --- -- ----- -- --- want -- --- ---- -- ------ ------<br>--- ----- -- ----,86428.40000003576,86427.80000001192,86016.078,86028.60000002384,86032.744,86432.683,,45,want
screen,html.Screen,0_2_0_1_46,2021-12-03T11:27:41.608Z,,,,,,,,,,,,,,,,53,,,,,,,,,,,,,,275.1170000119164,,response,,,99,,,,,,Space,keypress(Space),,,,,---- -- ----- -- ------ - ------- --- ----------<br>------------- ------ ------ ---- ---- ------- ----- -- ----<br>-------- ------- -- ---------- --- - --- ----- ----- ----<br>---- --- --- ----- --- ---- ---- ------- ----- ---- -------<br>--- --- -- ----- -- --- ---- to --- ---- -- ------ ------<br>--- ----- -- ----,86708.40000003576,86707.80000001192,86416.018,86428.60000002384,86432.683,86715.987,,46,to
screen,html.Screen,0_2_0_1_47,2021-12-03T11:27:42.232Z,,,,,,,,,,,,,,,,53,,,,,,,,,,,,,,615.9130000357691,,response,,,99,,,,,,Space,keypress(Space),,,,,"---- -- ----- -- ------ - ------- --- ----------<br>------------- ------ ------ ---- ---- ------- ----- -- ----<br>-------- ------- -- ---------- --- - --- ----- ----- ----<br>---- --- --- ----- --- ---- ---- ------- ----- ---- -------<br>--- --- -- ----- -- --- ---- -- be, ---- -- ------ ------<br>--- ----- -- ----",87332.40000003576,87331.90000003576,86699.322,86708.70000004768,86715.987,87349.288,,47,"be,"
screen,html.Screen,0_2_0_1_48,2021-12-03T11:27:42.624Z,,,,,,,,,,,,,,,,53,,,,,,,,,,,,,,374.41200004768325,,response,,,99,,,,,,Space,keypress(Space),,,,,---- -- ----- -- ------ - ------- --- ----------<br>------------- ------ ------ ---- ---- ------- ----- -- ----<br>-------- ------- -- ---------- --- - --- ----- ----- ----<br>---- --- --- ----- --- ---- ---- ------- ----- ---- -------<br>--- --- -- ----- -- --- ---- -- --- even -- ------ ------<br>--- ----- -- ----,87724.30000001192,87723.70000004768,87332.623,87332.60000002384,87349.288,87732.746,,48,even
screen,html.Screen,0_2_0_1_49,2021-12-03T11:27:42.904Z,,,,,,,,,,,,,,,,53,,,,,,,,,,,,,,270.95400004768453,,response,,,99,,,,,,Space,keypress(Space),,,,,---- -- ----- -- ------ - ------- --- ----------<br>------------- ------ ------ ---- ---- ------- ----- -- ----<br>-------- ------- -- ---------- --- - --- ----- ----- ----<br>---- --- --- ----- --- ---- ---- ------- ----- ---- -------<br>--- --- -- ----- -- --- ---- -- --- ---- if ------ ------<br>--- ----- -- ----,88004.30000001192,88003.70000004768,87716.079,87724.5,87732.746,88015.946,,49,if
screen,html.Screen,0_2_0_1_50,2021-12-03T11:27:43.208Z,,,,,,,,,,,,,,,,53,,,,,,,,,,,,,,291.75400004768744,,response,,,99,,,,,,Space,keypress(Space),,,,,---- -- ----- -- ------ - ------- --- ----------<br>------------- ------ ------ ---- ---- ------- ----- -- ----<br>-------- ------- -- ---------- --- - --- ----- ----- ----<br>---- --- --- ----- --- ---- ---- ------- ----- ---- -------<br>--- --- -- ----- -- --- ---- -- --- ---- -- that's ------<br>--- ----- -- ----,88308.30000001192,88307.70000004768,87999.281,88004.5,88015.946,88315.998,,50,that's
screen,html.Screen,0_2_0_1_51,2021-12-03T11:27:43.712Z,,,,,,,,,,,,,,,,53,,,,,,,,,,,,,,495.70200004767685,,response,,,99,,,,,,Space,keypress(Space),,,,,---- -- ----- -- ------ - ------- --- ----------<br>------------- ------ ------ ---- ---- ------- ----- -- ----<br>-------- ------- -- ---------- --- - --- ----- ----- ----<br>---- --- --- ----- --- ---- ---- ------- ----- ---- -------<br>--- --- -- ----- -- --- ---- -- --- ---- -- ------ really<br>--- ----- -- ----,88812.30000001192,88811.70000004768,88299.332,88308.5,88315.998,88815.97,,51,really
screen,html.Screen,0_2_0_1_52,2021-12-03T11:27:44.192Z,,,,,,,,,,,,,,,,53,,,,,,,,,,,,,,475.73000004768255,,response,,,99,,,,,,Space,keypress(Space),,,,,---- -- ----- -- ------ - ------- --- ----------<br>------------- ------ ------ ---- ---- ------- ----- -- ----<br>-------- ------- -- ---------- --- - --- ----- ----- ----<br>---- --- --- ----- --- ---- ---- ------- ----- ---- -------<br>--- --- -- ----- -- --- ---- -- --- ---- -- ------ ------<br>not ----- -- ----,89292.30000001192,89291.70000004768,88799.304,88812.40000003576,88815.97,89299.29,,52,not
screen,html.Screen,0_2_0_1_53,2021-12-03T11:27:44.600Z,,,,,,,,,,,,,,,,53,,,,,,,,,,,,,,400.31000002384826,,response,,,99,,,,,,Space,keypress(Space),,,,,---- -- ----- -- ------ - ------- --- ----------<br>------------- ------ ------ ---- ---- ------- ----- -- ----<br>-------- ------- -- ---------- --- - --- ----- ----- ----<br>---- --- --- ----- --- ---- ---- ------- ----- ---- -------<br>--- --- -- ----- -- --- ---- -- --- ---- -- ------ ------<br>--- close -- ----,89700.30000001192,89699.60000002384,89282.624,89292.40000003576,89299.29,89715.829,,53,close
screen,html.Screen,0_2_0_1_54,2021-12-03T11:27:45.008Z,,,,,,,,,,,,,,,,53,,,,,,,,,,,,,,391.8710000476858,,response,,,99,,,,,,Space,keypress(Space),,,,,---- -- ----- -- ------ - ------- --- ----------<br>------------- ------ ------ ---- ---- ------- ----- -- ----<br>-------- ------- -- ---------- --- - --- ----- ----- ----<br>---- --- --- ----- --- ---- ---- ------- ----- ---- -------<br>--- --- -- ----- -- --- ---- -- --- ---- -- ------ ------<br>--- ----- at ----,90108.30000001192,90107.70000004768,89699.165,89700.5,89715.829,90115.861,,54,at
screen,html.Screen,0_2_0_1_55,2021-12-03T11:27:45.936Z,,,,,,,,,,,,,,,,53,,,,,,,,,,,,,,920.0390000357584,,response,,,99,,,,,,Space,keypress(Space),,,,,---- -- ----- -- ------ - ------- --- ----------<br>------------- ------ ------ ---- ---- ------- ----- -- ----<br>-------- ------- -- ---------- --- - --- ----- ----- ----<br>---- --- --- ----- --- ---- ---- ------- ----- ---- -------<br>--- --- -- ----- -- --- ---- -- --- ---- -- ------ ------<br>--- ----- -- all.,91036.5,91035.90000003576,90099.196,90108.5,90115.861,91049.298,,55,all.
Item 99,flow.Loop,0_2_0_1,2021-12-03T11:27:45.939Z,,,,,,,,,,,,,,,,,,,,,,,,,,,,,,26735.796000035763,,completion,,,,B,,,,,,,,,,silence,,91039.30000001192,91035.90000003576,64283.439,64287.5,64300.104,91049.298,,,
Question 1,html.Screen,0_2_0_2,2021-12-03T11:27:51.115Z,,,,,,,,,,,,,,,,,,,,,,,,,,,true,FALSE,,5164.802000023847,,response,,,99,B,,,,,FALSE,click #choice-2,,,,silence,,96215.20000004768,96214.10000002384,91032.631,91039.5,91049.298,96215.712,,,
Question 2,html.Screen,0_2_0_3,2021-12-03T11:27:55.245Z,,,,,,,,,,,,,,,,,,,,,,,,,,,true,TRUE,,4129.188000035763,,response,,,99,B,,,,,TRUE,click #choice-1,,,,silence,,100345.60000002384,100344.90000003576,96199.045,96215.5,96215.712,100348.766,,,
Item 99,flow.Sequence,0_2_0,2021-12-03T11:27:55.245Z,,,,,,,,,,,,,,,,,,,,,,,,,,,,,,46044.427000035765,,completion,,,,,,,,,,,,,,,,100345.90000003576,100344.90000003576,54283.808,54299.200000047684,54300.473,100348.766,,,
Holding screen,html.Screen,0_2_1_0,2021-12-03T11:28:05.232Z,,,,,,,,,,,,,,,,,,,,,,,,,,,,,,9999.709999999992,,timeout,,,,,,,,,,,,,,,,110332.90000003576,110331.81,100332.102,100346.20000004768,100348.766,110348.476,,,
screen,html.Screen,0_2_1_1_0,2021-12-03T11:28:05.959Z,,,,,,,,,,,,,,,,54,,,,,,,,,,,,,,710.7240000476886,,response,,,100,,,,,,Space,keypress(Space),,,,,At --- ---- --- ------ ----- ------- ---- -- --- ------- --<br>------- ---------- ------ -- ----- -- ----- -- ---- ------<br>--- ----- --- --- ------ -------- ----- --- ------ ----- --<br>----- ----- ---------- --- --- ------ ------ ---- -- ------<br>------- --- ------ ----- --- ---- ------- -- ---- --- --<br>------- ------,111059.90000003576,111059.20000004768,110331.81,110333.10000002384,110348.476,111065.053,,0,At
screen,html.Screen,0_2_1_1_1,2021-12-03T11:28:06.343Z,,,,,,,,,,,,,,,,54,,,,,,,,,,,,,,377.8470000357629,,response,,,100,,,,,,Space,keypress(Space),,,,,-- the ---- --- ------ ----- ------- ---- -- --- ------- --<br>------- ---------- ------ -- ----- -- ----- -- ---- ------<br>--- ----- --- --- ------ -------- ----- --- ------ ----- --<br>----- ----- ---------- --- --- ------ ------ ---- -- ------<br>------- --- ------ ----- --- ---- ------- -- ---- --- --<br>------- ------,111443.40000003576,111442.90000003576,111048.388,111060.10000002384,111065.053,111448.436,,1,the
screen,html.Screen,0_2_1_1_2,2021-12-03T11:28:06.687Z,,,,,,,,,,,,,,,,54,,,,,,,,,,,,,,338.4640000357613,,response,,,100,,,,,,Space,keypress(Space),,,,,-- --- time --- ------ ----- ------- ---- -- --- ------- --<br>------- ---------- ------ -- ----- -- ----- -- ---- ------<br>--- ----- --- --- ------ -------- ----- --- ------ ----- --<br>----- ----- ---------- --- --- ------ ------ ---- -- ------<br>------- --- ------ ----- --- ---- ------- -- ---- --- --<br>------- ------,111787.5,111786.90000003576,111431.77,111443.60000002384,111448.436,111798.457,,2,time
screen,html.Screen,0_2_1_1_3,2021-12-03T11:28:07.159Z,,,,,,,,,,,,,,,,54,,,,,,,,,,,,,,460.4430000357679,,response,,,100,,,,,,Space,keypress(Space),,,,,-- --- ---- the ------ ----- ------- ---- -- --- ------- --<br>------- ---------- ------ -- ----- -- ----- -- ---- ------<br>--- ----- --- --- ------ -------- ----- --- ------ ----- --<br>----- ----- ---------- --- --- ------ ------ ---- -- ------<br>------- --- ------ ----- --- ---- ------- -- ---- --- --<br>------- ------,112259.5,112258.90000003576,111781.791,111787.60000002384,111798.457,112264.93,,3,the
screen,html.Screen,0_2_1_1_4,2021-12-03T11:28:07.511Z,,,,,,,,,,,,,,,,54,,,,,,,,,,,,,,345.8700000119279,,response,,,100,,,,,,Space,keypress(Space),,,,,-- --- ---- --- French ----- ------- ---- -- --- ------- --<br>------- ---------- ------ -- ----- -- ----- -- ---- ------<br>--- ----- --- --- ------ -------- ----- --- ------ ----- --<br>----- ----- ---------- --- --- ------ ------ ---- -- ------<br>------- --- ------ ----- --- ---- ------- -- ---- --- --<br>------- ------,112611.30000001192,112610.80000001192,112248.267,112259.70000004768,112264.93,112615.075,,4,French
screen,html.Screen,0_2_1_1_5,2021-12-03T11:28:07.895Z,,,,,,,,,,,,,,,,54,,,,,,,,,,,,,,379.8250000357657,,response,,,100,,,,,,Space,keypress(Space),,,,,-- --- ---- --- ------ crown ------- ---- -- --- ------- --<br>------- ---------- ------ -- ----- -- ----- -- ---- ------<br>--- ----- --- --- ------ -------- ----- --- ------ ----- --<br>----- ----- ---------- --- --- ------ ------ ---- -- ------<br>------- --- ------ ----- --- ---- ------- -- ---- --- --<br>------- ------,112995.60000002384,112994.90000003576,112598.409,112611.5,112615.075,112998.379,,5,crown
screen,html.Screen,0_2_1_1_6,2021-12-03T11:28:08.239Z,,,,,,,,,,,,,,,,54,,,,,,,,,,,,,,340.4210000119201,,response,,,100,,,,,,Space,keypress(Space),,,,,-- --- ---- --- ------ ----- secured ---- -- --- ------- --<br>------- ---------- ------ -- ----- -- ----- -- ---- ------<br>--- ----- --- --- ------ -------- ----- --- ------ ----- --<br>----- ----- ---------- --- --- ------ ------ ---- -- ------<br>------- --- ------ ----- --- ---- ------- -- ---- --- --<br>------- ------,113339.40000003576,113338.80000001192,112981.713,112995.80000001192,112998.379,113348.37,,6,secured
screen,html.Screen,0_2_1_1_7,2021-12-03T11:28:08.734Z,,,,,,,,,,,,,,,,54,,,,,,,,,,,,,,486.3300000476884,,response,,,100,,,,,,Space,keypress(Space),,,,,-- --- ---- --- ------ ----- ------- much -- --- ------- --<br>------- ---------- ------ -- ----- -- ----- -- ---- ------<br>--- ----- --- --- ------ -------- ----- --- ------ ----- --<br>----- ----- ---------- --- --- ------ ------ ---- -- ------<br>------- --- ------ ----- --- ---- ------- -- ---- --- --<br>------- ------,113835.10000002384,113834.70000004768,113331.704,113339.5,113348.37,113848.304,,7,much
screen,html.Screen,0_2_1_1_8,2021-12-03T11:28:09.359Z,,,,,,,,,,,,,,,,54,,,,,,,,,,,,,,610.5960000357591,,response,,,100,,,,,,Space,keypress(Space),,,,,-- --- ---- --- ------ ----- ------- ---- of --- ------- --<br>------- ---------- ------ -- ----- -- ----- -- ---- ------<br>--- ----- --- --- ------ -------- ----- --- ------ ----- --<br>----- ----- ---------- --- --- ------ ------ ---- -- ------<br>------- --- ------ ----- --- ---- ------- -- ---- --- --<br>------- ------,114459.40000003576,114458.90000003576,113831.639,113835.30000001192,113848.304,114464.94,,8,of
screen,html.Screen,0_2_1_1_9,2021-12-03T11:28:09.951Z,,,,,,,,,,,,,,,,54,,,,,,,,,,,,,,585.8600000119186,,response,,,100,,,,,,Space,keypress(Space),,,,,-- --- ---- --- ------ ----- ------- ---- -- its ------- --<br>------- ---------- ------ -- ----- -- ----- -- ---- ------<br>--- ----- --- --- ------ -------- ----- --- ------ ----- --<br>----- ----- ---------- --- --- ------ ------ ---- -- ------<br>------- --- ------ ----- --- ---- ------- -- ---- --- --<br>------- ------,115051.40000003576,115050.80000001192,114448.275,114459.5,114464.94,115064.914,,9,its
screen,html.Screen,0_2_1_1_10,2021-12-03T11:28:10.359Z,,,,,,,,,,,,,,,,54,,,,,,,,,,,,,,393.7860000476794,,response,,,100,,,,,,Space,keypress(Space),,,,,-- --- ---- --- ------ ----- ------- ---- -- --- revenue --<br>------- ---------- ------ -- ----- -- ----- -- ---- ------<br>--- ----- --- --- ------ -------- ----- --- ------ ----- --<br>----- ----- ---------- --- --- ------ ------ ---- -- ------<br>------- --- ------ ----- --- ---- ------- -- ---- --- --<br>------- ------,115459.30000001192,115458.70000004768,115048.249,115051.5,115064.914,115464.973,,10,revenue
screen,html.Screen,0_2_1_1_11,2021-12-03T11:28:10.999Z,,,,,,,,,,,,,,,,54,,,,,,,,,,,,,,633.6270000238437,,response,,,100,,,,,,Space,keypress(Space),,,,,-- --- ---- --- ------ ----- ------- ---- -- --- ------- by<br>------- ---------- ------ -- ----- -- ----- -- ---- ------<br>--- ----- --- --- ------ -------- ----- --- ------ ----- --<br>----- ----- ---------- --- --- ------ ------ ---- -- ------<br>------- --- ------ ----- --- ---- ------- -- ---- --- --<br>------- ------,116099.40000003576,116098.60000002384,115448.307,115459.60000002384,115464.973,116114.953,,11,by
screen,html.Screen,0_2_1_1_12,2021-12-03T11:28:11.567Z,,,,,,,,,,,,,,,,54,,,,,,,,,,,,,,551.8470000119269,,response,,,100,,,,,,Space,keypress(Space),,,,,-- --- ---- --- ------ ----- ------- ---- -- --- ------- --<br>issuing ---------- ------ -- ----- -- ----- -- ---- ------<br>--- ----- --- --- ------ -------- ----- --- ------ ----- --<br>----- ----- ---------- --- --- ------ ------ ---- -- ------<br>------- --- ------ ----- --- ---- ------- -- ---- --- --<br>------- ------,116667.40000003576,116666.80000001192,116098.287,116099.60000002384,116114.953,116681.44,,12,issuing
screen,html.Screen,0_2_1_1_13,2021-12-03T11:28:12.079Z,,,,,,,,,,,,,,,,54,,,,,,,,,,,,,,497.3600000119186,,response,,,100,,,,,,Space,keypress(Space),,,,,-- --- ---- --- ------ ----- ------- ---- -- --- ------- --<br>------- government ------ -- ----- -- ----- -- ---- ------<br>--- ----- --- --- ------ -------- ----- --- ------ ----- --<br>----- ----- ---------- --- --- ------ ------ ---- -- ------<br>------- --- ------ ----- --- ---- ------- -- ---- --- --<br>------- ------,117179.40000003576,117178.80000001192,116664.776,116667.70000004768,116681.44,117181.641,,13,government
screen,html.Screen,0_2_1_1_14,2021-12-03T11:28:12.598Z,,,,,,,,,,,,,,,,54,,,,,,,,,,,,,,516.9590000238386,,response,,,100,,,,,,Space,keypress(Space),,,,,-- --- ---- --- ------ ----- ------- ---- -- --- ------- --<br>------- ---------- bonds. -- ----- -- ----- -- ---- ------<br>--- ----- --- --- ------ -------- ----- --- ------ ----- --<br>----- ----- ---------- --- --- ------ ------ ---- -- ------<br>------- --- ------ ----- --- ---- ------- -- ---- --- --<br>------- ------,117699.10000002384,117698.60000002384,117164.974,117179.60000002384,117181.641,117714.857,,14,bonds.
screen,html.Screen,0_2_1_1_15,2021-12-03T11:28:13.143Z,,,,,,,,,,,,,,,,54,,,,,,,,,,,,,,527.7430000238382,,response,,,100,,,,,,Space,keypress(Space),,,,,-- --- ---- --- ------ ----- ------- ---- -- --- ------- --<br>------- ---------- ------ In ----- -- ----- -- ---- ------<br>--- ----- --- --- ------ -------- ----- --- ------ ----- --<br>----- ----- ---------- --- --- ------ ------ ---- -- ------<br>------- --- ------ ----- --- ---- ------- -- ---- --- --<br>------- ------,118243.30000001192,118242.60000002384,117698.192,117699.40000003576,117714.857,118248.147,,15,In
screen,html.Screen,0_2_1_1_16,2021-12-03T11:28:13.422Z,,,,,,,,,,,,,,,,54,,,,,,,,,,,,,,274.45300002384465,,response,,,100,,,,,,Space,keypress(Space),,,,,"-- --- ---- --- ------ ----- ------- ---- -- --- ------- --<br>------- ---------- ------ -- 1727, -- ----- -- ---- ------<br>--- ----- --- --- ------ -------- ----- --- ------ ----- --<br>----- ----- ---------- --- --- ------ ------ ---- -- ------<br>------- --- ------ ----- --- ---- ------- -- ---- --- --<br>------- ------",118523.20000004768,118522.60000002384,118231.482,118243.5,118248.147,118531.551,,16,"1727,"
screen,html.Screen,0_2_1_1_17,2021-12-03T11:28:15.384Z,,,,,,,,,,,,,,,,54,,,,,,,,,,,,,,1951.049000023835,,response,,,100,,,,,,Space,keypress(Space),,,,,-- --- ---- --- ------ ----- ------- ---- -- --- ------- --<br>------- ---------- ------ -- ----- in ----- -- ---- ------<br>--- ----- --- --- ------ -------- ----- --- ------ ----- --<br>----- ----- ---------- --- --- ------ ------ ---- -- ------<br>------- --- ------ ----- --- ---- ------- -- ---- --- --<br>------- ------,120483.20000004768,120482.60000002384,118514.885,118523.40000003576,118531.551,120497.815,,17,in
screen,html.Screen,0_2_1_1_18,2021-12-03T11:28:15.872Z,,,,,,,,,,,,,,,,54,,,,,,,,,,,,,,472.78500002383953,,response,,,100,,,,,,Space,keypress(Space),,,,,-- --- ---- --- ------ ----- ------- ---- -- --- ------- --<br>------- ---------- ------ -- ----- -- order -- ---- ------<br>--- ----- --- --- ------ -------- ----- --- ------ ----- --<br>----- ----- ---------- --- --- ------ ------ ---- -- ------<br>------- --- ------ ----- --- ---- ------- -- ---- --- --<br>------- ------,120971.10000002384,120970.60000002384,120481.151,120483.40000003576,120497.815,120981.51,,18,order
screen,html.Screen,0_2_1_1_19,2021-12-03T11:28:17.024Z,,,,,,,,,,,,,,,,54,,,,,,,,,,,,,,1141.2900000119262,,response,,,100,,,,,,Space,keypress(Space),,,,,-- --- ---- --- ------ ----- ------- ---- -- --- ------- --<br>------- ---------- ------ -- ----- -- ----- to ---- ------<br>--- ----- --- --- ------ -------- ----- --- ------ ----- --<br>----- ----- ---------- --- --- ------ ------ ---- -- ------<br>------- --- ------ ----- --- ---- ------- -- ---- --- --<br>------- ------,122123.30000001192,122122.80000001192,120964.842,120971.30000001192,120981.51,122131.292,,19,to
screen,html.Screen,0_2_1_1_20,2021-12-03T11:28:17.424Z,,,,,,,,,,,,,,,,54,,,,,,,,,,,,,,391.2079999999987,,response,,,100,,,,,,Space,keypress(Space),,,,,-- --- ---- --- ------ ----- ------- ---- -- --- ------- --<br>------- ---------- ------ -- ----- -- ----- -- save ------<br>--- ----- --- --- ------ -------- ----- --- ------ ----- --<br>----- ----- ---------- --- --- ------ ------ ---- -- ------<br>------- --- ------ ----- --- ---- ------- -- ---- --- --<br>------- ------,122523.10000002384,122522.5,122114.627,122123.40000003576,122131.292,122531.412,,20,save
screen,html.Screen,0_2_1_1_21,2021-12-03T11:28:17.944Z,,,,,,,,,,,,,,,,54,,,,,,,,,,,,,,510.98800003576616,,response,,,100,,,,,,Space,keypress(Space),,,,,"-- --- ---- --- ------ ----- ------- ---- -- --- ------- --<br>------- ---------- ------ -- ----- -- ----- -- ---- money,<br>--- ----- --- --- ------ -------- ----- --- ------ ----- --<br>----- ----- ---------- --- --- ------ ------ ---- -- ------<br>------- --- ------ ----- --- ---- ------- -- ---- --- --<br>------- ------",123043,123042.40000003576,122514.746,122523.20000004768,122531.412,123047.985,,21,"money,"
screen,html.Screen,0_2_1_1_22,2021-12-03T11:28:18.456Z,,,,,,,,,,,,,,,,54,,,,,,,,,,,,,,506.4150000357622,,response,,,100,,,,,,Space,keypress(Space),,,,,-- --- ---- --- ------ ----- ------- ---- -- --- ------- --<br>------- ---------- ------ -- ----- -- ----- -- ---- ------<br>the ----- --- --- ------ -------- ----- --- ------ ----- --<br>----- ----- ---------- --- --- ------ ------ ---- -- ------<br>------- --- ------ ----- --- ---- ------- -- ---- --- --<br>------- ------,123555,123554.40000003576,123031.32,123043.20000004768,123047.985,123564.55,,22,the
screen,html.Screen,0_2_1_1_23,2021-12-03T11:28:18.800Z,,,,,,,,,,,,,,,,54,,,,,,,,,,,,,,333.8500000357599,,response,,,100,,,,,,Space,keypress(Space),,,,,-- --- ---- --- ------ ----- ------- ---- -- --- ------- --<br>------- ---------- ------ -- ----- -- ----- -- ---- ------<br>--- state --- --- ------ -------- ----- --- ------ ----- --<br>----- ----- ---------- --- --- ------ ------ ---- -- ------<br>------- --- ------ ----- --- ---- ------- -- ---- --- --<br>------- ------,123898.90000003576,123898.40000003576,123547.886,123555.20000004768,123564.55,123914.64,,23,state
screen,html.Screen,0_2_1_1_24,2021-12-03T11:28:19.104Z,,,,,,,,,,,,,,,,54,,,,,,,,,,,,,,287.8600000000006,,response,,,100,,,,,,Space,keypress(Space),,,,,-- --- ---- --- ------ ----- ------- ---- -- --- ------- --<br>------- ---------- ------ -- ----- -- ----- -- ---- ------<br>--- ----- cut --- ------ -------- ----- --- ------ ----- --<br>----- ----- ---------- --- --- ------ ------ ---- -- ------<br>------- --- ------ ----- --- ---- ------- -- ---- --- --<br>------- ------,124203,124202.5,123897.974,123899.10000002384,123914.64,124214.648,,24,cut
screen,html.Screen,0_2_1_1_25,2021-12-03T11:28:19.720Z,,,,,,,,,,,,,,,,54,,,,,,,,,,,,,,603.7520000357617,,response,,,100,,,,,,Space,keypress(Space),,,,,-- --- ---- --- ------ ----- ------- ---- -- --- ------- --<br>------- ---------- ------ -- ----- -- ----- -- ---- ------<br>--- ----- --- the ------ -------- ----- --- ------ ----- --<br>----- ----- ---------- --- --- ------ ------ ---- -- ------<br>------- --- ------ ----- --- ---- ------- -- ---- --- --<br>------- ------,124819.10000002384,124818.40000003576,124197.982,124203.20000004768,124214.648,124831.226,,25,the
screen,html.Screen,0_2_1_1_26,2021-12-03T11:28:20.112Z,,,,,,,,,,,,,,,,54,,,,,,,,,,,,,,379.0740000119258,,response,,,100,,,,,,Space,keypress(Space),,,,,-- --- ---- --- ------ ----- ------- ---- -- --- ------- --<br>------- ---------- ------ -- ----- -- ----- -- ---- ------<br>--- ----- --- --- bonds' -------- ----- --- ------ ----- --<br>----- ----- ---------- --- --- ------ ------ ---- -- ------<br>------- --- ------ ----- --- ---- ------- -- ---- --- --<br>------- ------,125210.90000003576,125210.30000001192,124814.561,124819.20000004768,124831.226,125214.647,,26,bonds'
screen,html.Screen,0_2_1_1_27,2021-12-03T11:28:20.536Z,,,,,,,,,,,,,,,,54,,,,,,,,,,,,,,419.7530000357656,,response,,,100,,,,,,Space,keypress(Space),,,,,-- --- ---- --- ------ ----- ------- ---- -- --- ------- --<br>------- ---------- ------ -- ----- -- ----- -- ---- ------<br>--- ----- --- --- ------ interest ----- --- ------ ----- --<br>----- ----- ---------- --- --- ------ ------ ---- -- ------<br>------- --- ------ ----- --- ---- ------- -- ---- --- --<br>------- ------,125634.90000003576,125634.40000003576,125197.98,125211.10000002384,125214.647,125647.898,,27,interest
screen,html.Screen,0_2_1_1_28,2021-12-03T11:28:21.016Z,,,,,,,,,,,,,,,,54,,,,,,,,,,,,,,466.50200003576174,,response,,,100,,,,,,Space,keypress(Space),,,,,-- --- ---- --- ------ ----- ------- ---- -- --- ------- --<br>------- ---------- ------ -- ----- -- ----- -- ---- ------<br>--- ----- --- --- ------ -------- rate. --- ------ ----- --<br>----- ----- ---------- --- --- ------ ------ ---- -- ------<br>------- --- ------ ----- --- ---- ------- -- ---- --- --<br>------- ------,126114.90000003576,126114.40000003576,125631.233,125635.10000002384,125647.898,126131.178,,28,rate.
screen,html.Screen,0_2_1_1_29,2021-12-03T11:28:21.504Z,,,,,,,,,,,,,,,,54,,,,,,,,,,,,,,471.12200001192105,,response,,,100,,,,,,Space,keypress(Space),,,,,-- --- ---- --- ------ ----- ------- ---- -- --- ------- --<br>------- ---------- ------ -- ----- -- ----- -- ---- ------<br>--- ----- --- --- ------ -------- ----- The ------ ----- --<br>----- ----- ---------- --- --- ------ ------ ---- -- ------<br>------- --- ------ ----- --- ---- ------- -- ---- --- --<br>------- ------,126602.80000001192,126602.30000001192,126114.513,126115.20000004768,126131.178,126614.489,,29,The
screen,html.Screen,0_2_1_1_30,2021-12-03T11:28:21.944Z,,,,,,,,,,,,,,,,54,,,,,,,,,,,,,,427.9110000357614,,response,,,100,,,,,,Space,keypress(Space),,,,,-- --- ---- --- ------ ----- ------- ---- -- --- ------- --<br>------- ---------- ------ -- ----- -- ----- -- ---- ------<br>--- ----- --- --- ------ -------- ----- --- market ----- --<br>----- ----- ---------- --- --- ------ ------ ---- -- ------<br>------- --- ------ ----- --- ---- ------- -- ---- --- --<br>------- ------,127043,127042.40000003576,126597.824,126603.10000002384,126614.489,127047.931,,30,market
screen,html.Screen,0_2_1_1_31,2021-12-03T11:28:22.456Z,,,,,,,,,,,,,,,,54,,,,,,,,,,,,,,506.26900004768686,,response,,,100,,,,,,Space,keypress(Space),,,,,-- --- ---- --- ------ ----- ------- ---- -- --- ------- --<br>------- ---------- ------ -- ----- -- ----- -- ---- ------<br>--- ----- --- --- ------ -------- ----- --- ------ value --<br>----- ----- ---------- --- --- ------ ------ ---- -- ------<br>------- --- ------ ----- --- ---- ------- -- ---- --- --<br>------- ------,127554.80000001192,127554.20000004768,127031.264,127043.10000002384,127047.931,127564.493,,31,value
screen,html.Screen,0_2_1_1_32,2021-12-03T11:28:22.840Z,,,,,,,,,,,,,,,,54,,,,,,,,,,,,,,373.8070000119187,,response,,,100,,,,,,Space,keypress(Space),,,,,-- --- ---- --- ------ ----- ------- ---- -- --- ------- --<br>------- ---------- ------ -- ----- -- ----- -- ---- ------<br>--- ----- --- --- ------ -------- ----- --- ------ ----- of<br>----- ----- ---------- --- --- ------ ------ ---- -- ------<br>------- --- ------ ----- --- ---- ------- -- ---- --- --<br>------- ------,127938.80000001192,127938.30000001192,127547.828,127554.90000003576,127564.493,127947.742,,32,of
screen,html.Screen,0_2_1_1_33,2021-12-03T11:28:23.176Z,,,,,,,,,,,,,,,,54,,,,,,,,,,,,,,326.45800004768535,,response,,,100,,,,,,Space,keypress(Space),,,,,-- --- ---- --- ------ ----- ------- ---- -- --- ------- --<br>------- ---------- ------ -- ----- -- ----- -- ---- ------<br>--- ----- --- --- ------ -------- ----- --- ------ ----- --<br>these ----- ---------- --- --- ------ ------ ---- -- ------<br>------- --- ------ ----- --- ---- ------- -- ---- --- --<br>------- ------,128274.80000001192,128274.20000004768,127931.078,127938.90000003576,127947.742,128281.119,,33,these
screen,html.Screen,0_2_1_1_34,2021-12-03T11:28:23.688Z,,,,,,,,,,,,,,,,54,,,,,,,,,,,,,,505.1810000119149,,response,,,100,,,,,,Space,keypress(Space),,,,,-- --- ---- --- ------ ----- ------- ---- -- --- ------- --<br>------- ---------- ------ -- ----- -- ----- -- ---- ------<br>--- ----- --- --- ------ -------- ----- --- ------ ----- --<br>----- bonds ---------- --- --- ------ ------ ---- -- ------<br>------- --- ------ ----- --- ---- ------- -- ---- --- --<br>------- ------,128786.80000001192,128786.30000001192,128264.454,128274.90000003576,128281.119,128797.754,,34,bonds
screen,html.Screen,0_2_1_1_35,2021-12-03T11:28:24.200Z,,,,,,,,,,,,,,,,54,,,,,,,,,,,,,,500.5460000119201,,response,,,100,,,,,,Space,keypress(Space),,,,,"-- --- ---- --- ------ ----- ------- ---- -- --- ------- --<br>------- ---------- ------ -- ----- -- ----- -- ---- ------<br>--- ----- --- --- ------ -------- ----- --- ------ ----- --<br>----- ----- plummeted, --- --- ------ ------ ---- -- ------<br>------- --- ------ ----- --- ---- ------- -- ---- --- --<br>------- ------",129298.80000001192,129298.30000001192,128781.089,128787,128797.754,129314.533,,35,"plummeted,"
screen,html.Screen,0_2_1_1_36,2021-12-03T11:28:24.640Z,,,,,,,,,,,,,,,,54,,,,,,,,,,,,,,423.6670000476879,,response,,,100,,,,,,Space,keypress(Space),,,,,-- --- ---- --- ------ ----- ------- ---- -- --- ------- --<br>------- ---------- ------ -- ----- -- ----- -- ---- ------<br>--- ----- --- --- ------ -------- ----- --- ------ ----- --<br>----- ----- ---------- and --- ------ ------ ---- -- ------<br>------- --- ------ ----- --- ---- ------- -- ---- --- --<br>------- ------,129738.70000004768,129738.20000004768,129297.866,129299,129314.533,129747.666,,36,and
screen,html.Screen,0_2_1_1_37,2021-12-03T11:28:25.024Z,,,,,,,,,,,,,,,,54,,,,,,,,,,,,,,374.5340000476863,,response,,,100,,,,,,Space,keypress(Space),,,,,-- --- ---- --- ------ ----- ------- ---- -- --- ------- --<br>------- ---------- ------ -- ----- -- ----- -- ---- ------<br>--- ----- --- --- ------ -------- ----- --- ------ ----- --<br>----- ----- ---------- --- the ------ ------ ---- -- ------<br>------- --- ------ ----- --- ---- ------- -- ---- --- --<br>------- ------,130122.70000004768,130122.20000004768,129731.002,129738.90000003576,129747.666,130131.112,,37,the
screen,html.Screen,0_2_1_1_38,2021-12-03T11:28:25.304Z,,,,,,,,,,,,,,,,54,,,,,,,,,,,,,,271.08800004769,,response,,,100,,,,,,Space,keypress(Space),,,,,-- --- ---- --- ------ ----- ------- ---- -- --- ------- --<br>------- ---------- ------ -- ----- -- ----- -- ---- ------<br>--- ----- --- --- ------ -------- ----- --- ------ ----- --<br>----- ----- ---------- --- --- market ------ ---- -- ------<br>------- --- ------ ----- --- ---- ------- -- ---- --- --<br>------- ------,130402.70000004768,130402.20000004768,130114.446,130122.90000003576,130131.112,130414.361,,38,market
screen,html.Screen,0_2_1_1_39,2021-12-03T11:28:25.808Z,,,,,,,,,,,,,,,,54,,,,,,,,,,,,,,491.8390000476793,,response,,,100,,,,,,Space,keypress(Space),,,,,-- --- ---- --- ------ ----- ------- ---- -- --- ------- --<br>------- ---------- ------ -- ----- -- ----- -- ---- ------<br>--- ----- --- --- ------ -------- ----- --- ------ ----- --<br>----- ----- ---------- --- --- ------ became ---- -- ------<br>------- --- ------ ----- --- ---- ------- -- ---- --- --<br>------- ------,130906.80000001192,130906.20000004768,130397.696,130402.80000001192,130414.361,130914.45,,39,became
screen,html.Screen,0_2_1_1_40,2021-12-03T11:28:26.312Z,,,,,,,,,,,,,,,,54,,,,,,,,,,,,,,495.7500000476866,,response,,,100,,,,,,Space,keypress(Space),,,,,-- --- ---- --- ------ ----- ------- ---- -- --- ------- --<br>------- ---------- ------ -- ----- -- ----- -- ---- ------<br>--- ----- --- --- ------ -------- ----- --- ------ ----- --<br>----- ----- ---------- --- --- ------ ------ wary -- ------<br>------- --- ------ ----- --- ---- ------- -- ---- --- --<br>------- ------,131410.70000004768,131410.20000004768,130897.783,130907,130914.45,131414.406,,40,wary
screen,html.Screen,0_2_1_1_41,2021-12-03T11:28:26.800Z,,,,,,,,,,,,,,,,54,,,,,,,,,,,,,,483.7940000476956,,response,,,100,,,,,,Space,keypress(Space),,,,,-- --- ---- --- ------ ----- ------- ---- -- --- ------- --<br>------- ---------- ------ -- ----- -- ----- -- ---- ------<br>--- ----- --- --- ------ -------- ----- --- ------ ----- --<br>----- ----- ---------- --- --- ------ ------ ---- of ------<br>------- --- ------ ----- --- ---- ------- -- ---- --- --<br>------- ------,131898.90000003576,131898.20000004768,131397.74,131410.90000003576,131414.406,131914.338,,41,of
screen,html.Screen,0_2_1_1_42,2021-12-03T11:28:27.272Z,,,,,,,,,,,,,,,,54,,,,,,,,,,,,,,455.9620000119321,,response,,,100,,,,,,Space,keypress(Space),,,,,-- --- ---- --- ------ ----- ------- ---- -- --- ------- --<br>------- ---------- ------ -- ----- -- ----- -- ---- ------<br>--- ----- --- --- ------ -------- ----- --- ------ ----- --<br>----- ----- ---------- --- --- ------ ------ ---- -- French<br>------- --- ------ ----- --- ---- ------- -- ---- --- --<br>------- ------,132370.90000003576,132370.30000001192,131897.673,131899,131914.338,132380.989,,42,French
screen,html.Screen,0_2_1_1_43,2021-12-03T11:28:27.703Z,,,,,,,,,,,,,,,,54,,,,,,,,,,,,,,421.0109999999986,,response,,,100,,,,,,Space,keypress(Space),,,,,-- --- ---- --- ------ ----- ------- ---- -- --- ------- --<br>------- ---------- ------ -- ----- -- ----- -- ---- ------<br>--- ----- --- --- ------ -------- ----- --- ------ ----- --<br>----- ----- ---------- --- --- ------ ------ ---- -- ------<br>credit. --- ------ ----- --- ---- ------- -- ---- --- --<br>------- ------,132802.70000004768,132802,132364.324,132371.10000002384,132380.989,132814.308,,43,credit.
screen,html.Screen,0_2_1_1_44,2021-12-03T11:28:28.224Z,,,,,,,,,,,,,,,,54,,,,,,,,,,,,,,507.79200002385187,,response,,,100,,,,,,Space,keypress(Space),,,,,-- --- ---- --- ------ ----- ------- ---- -- --- ------- --<br>------- ---------- ------ -- ----- -- ----- -- ---- ------<br>--- ----- --- --- ------ -------- ----- --- ------ ----- --<br>----- ----- ---------- --- --- ------ ------ ---- -- ------<br>------- The ------ ----- --- ---- ------- -- ---- --- --<br>------- ------,133322.70000004768,133322.10000002384,132797.643,132802.70000004768,132814.308,133330.946,,44,The
screen,html.Screen,0_2_1_1_45,2021-12-03T11:28:28.447Z,,,,,,,,,,,,,,,,54,,,,,,,,,,,,,,215.05400000000373,,response,,,100,,,,,,Space,keypress(Space),,,,,-- --- ---- --- ------ ----- ------- ---- -- --- ------- --<br>------- ---------- ------ -- ----- -- ----- -- ---- ------<br>--- ----- --- --- ------ -------- ----- --- ------ ----- --<br>----- ----- ---------- --- --- ------ ------ ---- -- ------<br>------- --- French ----- --- ---- ------- -- ---- --- --<br>------- ------,133546.60000002384,133546,133314.281,133322.90000003576,133330.946,133547.649,,45,French
screen,html.Screen,0_2_1_1_46,2021-12-03T11:28:28.951Z,,,,,,,,,,,,,,,,54,,,,,,,,,,,,,,502.3509999999951,,response,,,100,,,,,,Space,keypress(Space),,,,,-- --- ---- --- ------ ----- ------- ---- -- --- ------- --<br>------- ---------- ------ -- ----- -- ----- -- ---- ------<br>--- ----- --- --- ------ -------- ----- --- ------ ----- --<br>----- ----- ---------- --- --- ------ ------ ---- -- ------<br>------- --- ------ state --- ---- ------- -- ---- --- --<br>------- ------,134050.70000004768,134050,133530.983,133546.80000001192,133547.649,134064.255,,46,state
screen,html.Screen,0_2_1_1_47,2021-12-03T11:28:29.415Z,,,,,,,,,,,,,,,,54,,,,,,,,,,,,,,449.74499999999534,,response,,,100,,,,,,Space,keypress(Space),,,,,-- --- ---- --- ------ ----- ------- ---- -- --- ------- --<br>------- ---------- ------ -- ----- -- ----- -- ---- ------<br>--- ----- --- --- ------ -------- ----- --- ------ ----- --<br>----- ----- ---------- --- --- ------ ------ ---- -- ------<br>------- --- ------ ----- was ---- ------- -- ---- --- --<br>------- ------,134514.60000002384,134514,134047.59,134050.80000001192,134064.255,134530.661,,47,was
screen,html.Screen,0_2_1_1_48,2021-12-03T11:28:29.999Z,,,,,,,,,,,,,,,,54,,,,,,,,,,,,,,567.4390000238491,,response,,,100,,,,,,Space,keypress(Space),,,,,-- --- ---- --- ------ ----- ------- ---- -- --- ------- --<br>------- ---------- ------ -- ----- -- ----- -- ---- ------<br>--- ----- --- --- ------ -------- ----- --- ------ ----- --<br>----- ----- ---------- --- --- ------ ------ ---- -- ------<br>------- --- ------ ----- --- left ------- -- ---- --- --<br>------- ------,135098.60000002384,135098.10000002384,134513.999,134514.80000001192,134530.661,135114.247,,48,left
screen,html.Screen,0_2_1_1_49,2021-12-03T11:28:30.703Z,,,,,,,,,,,,,,,,54,,,,,,,,,,,,,,687.752999999997,,response,,,100,,,,,,Space,keypress(Space),,,,,-- --- ---- --- ------ ----- ------- ---- -- --- ------- --<br>------- ---------- ------ -- ----- -- ----- -- ---- ------<br>--- ----- --- --- ------ -------- ----- --- ------ ----- --<br>----- ----- ---------- --- --- ------ ------ ---- -- ------<br>------- --- ------ ----- --- ---- without -- ---- --- --<br>------- ------,135802.5,135802,135097.581,135098.80000001192,135114.247,135814.251,,49,without
screen,html.Screen,0_2_1_1_50,2021-12-03T11:28:31.223Z,,,,,,,,,,,,,,,,54,,,,,,,,,,,,,,507.7490000000107,,response,,,100,,,,,,Space,keypress(Space),,,,,-- --- ---- --- ------ ----- ------- ---- -- --- ------- --<br>------- ---------- ------ -- ----- -- ----- -- ---- ------<br>--- ----- --- --- ------ -------- ----- --- ------ ----- --<br>----- ----- ---------- --- --- ------ ------ ---- -- ------<br>------- --- ------ ----- --- ---- ------- an ---- --- --<br>------- ------,136322.60000002384,136322,135797.585,135802.70000004768,135814.251,136330.88,,50,an
screen,html.Screen,0_2_1_1_51,2021-12-03T11:28:31.607Z,,,,,,,,,,,,,,,,54,,,,,,,,,,,,,,375.11999999999534,,response,,,100,,,,,,Space,keypress(Space),,,,,-- --- ---- --- ------ ----- ------- ---- -- --- ------- --<br>------- ---------- ------ -- ----- -- ----- -- ---- ------<br>--- ----- --- --- ------ -------- ----- --- ------ ----- --<br>----- ----- ---------- --- --- ------ ------ ---- -- ------<br>------- --- ------ ----- --- ---- ------- -- easy --- --<br>------- ------,136706.60000002384,136706,136314.214,136322.70000004768,136330.88,136714.166,,51,easy
screen,html.Screen,0_2_1_1_52,2021-12-03T11:28:32.023Z,,,,,,,,,,,,,,,,54,,,,,,,,,,,,,,407.83400000000256,,response,,,100,,,,,,Space,keypress(Space),,,,,-- --- ---- --- ------ ----- ------- ---- -- --- ------- --<br>------- ---------- ------ -- ----- -- ----- -- ---- ------<br>--- ----- --- --- ------ -------- ----- --- ------ ----- --<br>----- ----- ---------- --- --- ------ ------ ---- -- ------<br>------- --- ------ ----- --- ---- ------- -- ---- way --<br>------- ------,137122.60000002384,137122,136697.501,136706.70000004768,136714.166,137130.779,,52,way
screen,html.Screen,0_2_1_1_53,2021-12-03T11:28:32.439Z,,,,,,,,,,,,,,,,54,,,,,,,,,,,,,,407.12100003575324,,response,,,100,,,,,,Space,keypress(Space),,,,,-- --- ---- --- ------ ----- ------- ---- -- --- ------- --<br>------- ---------- ------ -- ----- -- ----- -- ---- ------<br>--- ----- --- --- ------ -------- ----- --- ------ ----- --<br>----- ----- ---------- --- --- ------ ------ ---- -- ------<br>------- --- ------ ----- --- ---- ------- -- ---- --- of<br>------- ------,137538.5,137537.90000003576,137114.114,137122.80000001192,137130.779,137547.505,,53,of
screen,html.Screen,0_2_1_1_54,2021-12-03T11:28:32.815Z,,,,,,,,,,,,,,,,54,,,,,,,,,,,,,,366.39500003575813,,response,,,100,,,,,,Space,keypress(Space),,,,,-- --- ---- --- ------ ----- ------- ---- -- --- ------- --<br>------- ---------- ------ -- ----- -- ----- -- ---- ------<br>--- ----- --- --- ------ -------- ----- --- ------ ----- --<br>----- ----- ---------- --- --- ------ ------ ---- -- ------<br>------- --- ------ ----- --- ---- ------- -- ---- --- --<br>raising ------,137914.5,137913.90000003576,137530.839,137538.70000004768,137547.505,137930.643,,54,raising
screen,html.Screen,0_2_1_1_55,2021-12-03T11:28:33.247Z,,,,,,,,,,,,,,,,54,,,,,,,,,,,,,,415.25700003575184,,response,,,100,,,,,,Space,keypress(Space),,,,,-- --- ---- --- ------ ----- ------- ---- -- --- ------- --<br>------- ---------- ------ -- ----- -- ----- -- ---- ------<br>--- ----- --- --- ------ -------- ----- --- ------ ----- --<br>----- ----- ---------- --- --- ------ ------ ---- -- ------<br>------- --- ------ ----- --- ---- ------- -- ---- --- --<br>------- money.,138346.5,138345.90000003576,137913.98,137914.70000004768,137930.643,138364.113,,55,money.
Item 100,flow.Loop,0_2_1_1,2021-12-03T11:28:33.248Z,,,,,,,,,,,,,,,,,,,,,,,,,,,,,,27997.424000035768,,completion,,,,B,,,,,,,,,,silence,,138346.80000001192,138345.90000003576,110331.81,110333,110348.476,138364.113,,,
Question 1,html.Screen,0_2_1_2,2021-12-03T11:28:38.683Z,,,,,,,,,,,,,,,,,,,,,,,,,,,true,TRUE,,5417.687000011909,,response,,,100,B,,,,,TRUE,click #choice-1,,,,silence,,143782.70000004768,143781.80000001192,138347.447,138347,138364.113,143797.19,,,
Question 2,html.Screen,0_2_1_3,2021-12-03T11:28:40.641Z,,,,,,,,,,,,,,,,,,,,,,,,,,,true,FALSE,,1942.2100000357605,,response,,,100,B,,,,,FALSE,click #choice-2,,,,silence,,145740.20000004768,145739.40000003576,143780.525,143782.80000001192,143797.19,145744.234,,,
Item 100,flow.Sequence,0_2_1,2021-12-03T11:28:40.641Z,,,,,,,,,,,,,,,,,,,,,,,,,,,,,,45390.63400003576,,completion,,,,,,,,,,,,,,,,145740.5,145739.40000003576,100332.102,100346.10000002384,100348.766,145744.234,,,
End of Practice,html.Page,0_2_2,2021-12-03T11:28:47.401Z,,,,,,,,,,,,,,,,,,,,,,,,,,,,,,6755.866000023845,,form submission,,,,,,,,,,,,,,,,152500.5,152500.10000002384,145727.621,145740.70000004768,145744.234,152513.82,,,
Practice,flow.Sequence,0_2,2021-12-03T11:28:47.402Z,,,,,,,,,,,,,,,,,,,,,,,,,,,,,,98199.62700002384,,completion,,,,,,,,,,,,,,,,152500.80000001192,152500.10000002384,54283.808,54299.10000002384,54300.473,152513.82,,,
Trap_instruction,html.Page,0_3_0,2021-12-03T11:28:52.604Z,,,,,,,,,,,,,,,,,,,,,,,,,,,,,,5188.580000035756,,form submission,,,,,,,,,,,,,,,,157702.80000001192,157702.40000003576,152497.144,152500.90000003576,152513.82,157713.196,,,
trap_trial,html.Screen,0_3_1,2021-12-03T11:28:55.301Z,,,,,,,,,,,,,,,,,,,,,,,,,,,true,1,,2686.2040000357665,,response,,,,,,,,,1,click #choice-1,,,,,,160400.20000004768,160399.40000003576,157696.531,157702.90000003576,157713.196,160412.94,,,
end of trap trial,html.Page,0_3_2,2021-12-03T11:29:03.269Z,,,,,,,,,,,,,,,,,,,,,,,,,,,,,,7954.760000047681,,form submission,,,,,,,,,,,,,,,,168368.10000002384,168367.70000004768,160396.276,160400.30000001192,160412.94,168379.555,,,
Trap 1,flow.Sequence,0_3,2021-12-03T11:29:03.269Z,,,,,,,,,,,,,,,,,,,,,,,,,,,,,,15853.880000047677,,completion,,,,,,,,,,,,,,,,168368.40000003576,168367.70000004768,152497.144,152500.90000003576,152513.82,168379.555,,,
Standby,html.Page,0_4_0,2021-12-03T11:29:11.265Z,,,,,,,,,,,,,,,,,,,,,,,,,,,,,,7999.7970000000205,,timeout,,,,,,,,,,,,,,,,176363.80000001192,176362.686,168362.892,168368.5,168379.555,176379.352,,,
Holding screen,html.Screen,0_4_1_0_0,2021-12-03T11:29:18.267Z,,,,,,,,,,,,,,,,,,,,,,,,,,,,,,6999.697999999975,,timeout,,,,,,,,,,,,,,,,183363.80000001192,183362.385,176362.686,176364.20000004768,176379.352,183379.05,,,
screen,html.Screen,0_4_1_0_1_0,2021-12-03T11:29:19.112Z,,,,,,,,,,,,,,,,15,,,,,,,,,,,,,,829.4500000000116,,response,,,7,B,,,,,Space,keypress(Space),,,,lyrical,Greg --------- ---------- - --- ------- -- --- ------------<br>----- -- -------- ------- ---- ------ - -------- ---- -----<br>--- ------- ---- -- --- -------- --- - ----- ------ ---- --<br>-------- --- -------- -------- --- -------- ---- -- ----- -<br>-------- ---- --- ---------- --------- -- ------- ------ -<br>--------- ----- -----,184209.40000003576,184208.5,183362.385,183364.10000002384,183379.05,184212.349,,0,Greg
screen,html.Screen,0_4_1_0_1_1,2021-12-03T11:29:19.480Z,,,,,,,,,,,,,,,,15,,,,,,,,,,,,,,363.8510000476963,,response,,,7,B,,,,,Space,keypress(Space),,,,lyrical,"---- Anderson, ---------- - --- ------- -- --- ------------<br>----- -- -------- ------- ---- ------ - -------- ---- -----<br>--- ------- ---- -- --- -------- --- - ----- ------ ---- --<br>-------- --- -------- -------- --- -------- ---- -- ----- -<br>-------- ---- --- ---------- --------- -- ------- ------ -<br>--------- ----- -----",184576.80000001192,184576.20000004768,184195.684,184209.60000002384,184212.349,184579.03,,1,"Anderson,"
screen,html.Screen,0_4_1_0_1_2,2021-12-03T11:29:19.896Z,,,,,,,,,,,,,,,,15,,,,,,,,,,,,,,413.070000023843,,response,,,7,B,,,,,Space,keypress(Space),,,,lyrical,---- --------- considered - --- ------- -- --- ------------<br>----- -- -------- ------- ---- ------ - -------- ---- -----<br>--- ------- ---- -- --- -------- --- - ----- ------ ---- --<br>-------- --- -------- -------- --- -------- ---- -- ----- -<br>-------- ---- --- ---------- --------- -- ------- ------ -<br>--------- ----- -----,184992.80000001192,184992.10000002384,184562.365,184576.90000003576,184579.03,184995.661,,2,considered
screen,html.Screen,0_4_1_0_1_3,2021-12-03T11:29:20.224Z,,,,,,,,,,,,,,,,15,,,,,,,,,,,,,,324.4390000238491,,response,,,7,B,,,,,Space,keypress(Space),,,,lyrical,---- --------- ---------- a --- ------- -- --- ------------<br>----- -- -------- ------- ---- ------ - -------- ---- -----<br>--- ------- ---- -- --- -------- --- - ----- ------ ---- --<br>-------- --- -------- -------- --- -------- ---- -- ----- -<br>-------- ---- --- ---------- --------- -- ------- ------ -<br>--------- ----- -----,185320.70000004768,185320.10000002384,184978.996,184992.90000003576,184995.661,185329.025,,3,a
screen,html.Screen,0_4_1_0_1_4,2021-12-03T11:29:20.503Z,,,,,,,,,,,,,,,,15,,,,,,,,,,,,,,271.0750000238477,,response,,,7,B,,,,,Space,keypress(Space),,,,lyrical,---- --------- ---------- - key ------- -- --- ------------<br>----- -- -------- ------- ---- ------ - -------- ---- -----<br>--- ------- ---- -- --- -------- --- - ----- ------ ---- --<br>-------- --- -------- -------- --- -------- ---- -- ----- -<br>-------- ---- --- ---------- --------- -- ------- ------ -<br>--------- ----- -----,185600.70000004768,185600.10000002384,185312.359,185320.80000001192,185329.025,185612.326,,4,key
screen,html.Screen,0_4_1_0_1_5,2021-12-03T11:29:20.847Z,,,,,,,,,,,,,,,,15,,,,,,,,,,,,,,331.7740000238409,,response,,,7,B,,,,,Space,keypress(Space),,,,lyrical,---- --------- ---------- - --- witness -- --- ------------<br>----- -- -------- ------- ---- ------ - -------- ---- -----<br>--- ------- ---- -- --- -------- --- - ----- ------ ---- --<br>-------- --- -------- -------- --- -------- ---- -- ----- -<br>-------- ---- --- ---------- --------- -- ------- ------ -<br>--------- ----- -----,185944.70000004768,185944.10000002384,185595.661,185600.90000003576,185612.326,185945.671,,5,witness
screen,html.Screen,0_4_1_0_1_6,2021-12-03T11:29:21.472Z,,,,,,,,,,,,,,,,15,,,,,,,,,,,,,,622.5290000476816,,response,,,7,B,,,,,Space,keypress(Space),,,,lyrical,---- --------- ---------- - --- ------- by --- ------------<br>----- -- -------- ------- ---- ------ - -------- ---- -----<br>--- ------- ---- -- --- -------- --- - ----- ------ ---- --<br>-------- --- -------- -------- --- -------- ---- -- ----- -<br>-------- ---- --- ---------- --------- -- ------- ------ -<br>--------- ----- -----,186568.70000004768,186568.20000004768,185929.005,185944.80000001192,185945.671,186579.039,,6,by
screen,html.Screen,0_4_1_0_1_7,2021-12-03T11:29:21.807Z,,,,,,,,,,,,,,,,15,,,,,,,,,,,,,,325.0610000238521,,response,,,7,B,,,,,Space,keypress(Space),,,,lyrical,---- --------- ---------- - --- ------- -- the ------------<br>----- -- -------- ------- ---- ------ - -------- ---- -----<br>--- ------- ---- -- --- -------- --- - ----- ------ ---- --<br>-------- --- -------- -------- --- -------- ---- -- ----- -<br>-------- ---- --- ---------- --------- -- ------- ------ -<br>--------- ----- -----,186904.60000002384,186904.10000002384,186562.372,186569,186579.039,186912.146,,7,the
screen,html.Screen,0_4_1_0_1_8,2021-12-03T11:29:22.192Z,,,,,,,,,,,,,,,,15,,,,,,,,,,,,,,375.95400002383394,,response,,,7,B,,,,,Space,keypress(Space),,,,lyrical,"---- --------- ---------- - --- ------- -- --- prosecution,<br>----- -- -------- ------- ---- ------ - -------- ---- -----<br>--- ------- ---- -- --- -------- --- - ----- ------ ---- --<br>-------- --- -------- -------- --- -------- ---- -- ----- -<br>-------- ---- --- ---------- --------- -- ------- ------ -<br>--------- ----- -----",187288.80000001192,187288.10000002384,186895.483,186904.80000001192,186912.146,187295.689,,8,"prosecution,"
screen,html.Screen,0_4_1_0_1_9,2021-12-03T11:29:22.951Z,,,,,,,,,,,,,,,,15,,,,,,,,,,,,,,752.4110000238288,,response,,,7,B,,,,,Space,keypress(Space),,,,lyrical,---- --------- ---------- - --- ------- -- --- ------------<br>vowed -- -------- ------- ---- ------ - -------- ---- -----<br>--- ------- ---- -- --- -------- --- - ----- ------ ---- --<br>-------- --- -------- -------- --- -------- ---- -- ----- -<br>-------- ---- --- ---------- --------- -- ------- ------ -<br>--------- ----- -----,188048.70000004768,188048.10000002384,187279.022,187288.90000003576,187295.689,188062.147,,9,vowed
screen,html.Screen,0_4_1_0_1_10,2021-12-03T11:29:23.271Z,,,,,,,,,,,,,,,,15,,,,,,,,,,,,,,305.8530000000028,,response,,,7,B,,,,,Space,keypress(Space),,,,lyrical,---- --------- ---------- - --- ------- -- --- ------------<br>----- he -------- ------- ---- ------ - -------- ---- -----<br>--- ------- ---- -- --- -------- --- - ----- ------ ---- --<br>-------- --- -------- -------- --- -------- ---- -- ----- -<br>-------- ---- --- ---------- --------- -- ------- ------ -<br>--------- ----- -----,188368.60000002384,188368,188045.483,188048.80000001192,188062.147,188378.866,,10,he
screen,html.Screen,0_4_1_0_1_11,2021-12-03T11:29:23.623Z,,,,,,,,,,,,,,,,15,,,,,,,,,,,,,,341.1339999999909,,response,,,7,B,,,,,Space,keypress(Space),,,,lyrical,---- --------- ---------- - --- ------- -- --- ------------<br>----- -- wouldn't ------- ---- ------ - -------- ---- -----<br>--- ------- ---- -- --- -------- --- - ----- ------ ---- --<br>-------- --- -------- -------- --- -------- ---- -- ----- -<br>-------- ---- --- ---------- --------- -- ------- ------ -<br>--------- ----- -----,188720.60000002384,188720,188362.201,188368.80000001192,188378.866,188728.866,,11,wouldn't
screen,html.Screen,0_4_1_0_1_12,2021-12-03T11:29:23.951Z,,,,,,,,,,,,,,,,15,,,,,,,,,,,,,,319.1339999999909,,response,,,7,B,,,,,Space,keypress(Space),,,,lyrical,---- --------- ---------- - --- ------- -- --- ------------<br>----- -- -------- testify ---- ------ - -------- ---- -----<br>--- ------- ---- -- --- -------- --- - ----- ------ ---- --<br>-------- --- -------- -------- --- -------- ---- -- ----- -<br>-------- ---- --- ---------- --------- -- ------- ------ -<br>--------- ----- -----,189048.60000002384,189048,188712.201,188720.80000001192,188728.866,189062.297,,12,testify
screen,html.Screen,0_4_1_0_1_13,2021-12-03T11:29:24.295Z,,,,,,,,,,,,,,,,15,,,,,,,,,,,,,,329.6030000357714,,response,,,7,B,,,,,Space,keypress(Space),,,,lyrical,---- --------- ---------- - --- ------- -- --- ------------<br>----- -- -------- ------- when ------ - -------- ---- -----<br>--- ------- ---- -- --- -------- --- - ----- ------ ---- --<br>-------- --- -------- -------- --- -------- ---- -- ----- -<br>-------- ---- --- ---------- --------- -- ------- ------ -<br>--------- ----- -----,189392.5,189391.90000003576,189045.63,189048.70000004768,189062.297,189395.517,,13,when
screen,html.Screen,0_4_1_0_1_14,2021-12-03T11:29:24.823Z,,,,,,,,,,,,,,,,15,,,,,,,,,,,,,,524.4830000000075,,response,,,7,B,,,,,Space,keypress(Space),,,,lyrical,---- --------- ---------- - --- ------- -- --- ------------<br>----- -- -------- ------- ---- served - -------- ---- -----<br>--- ------- ---- -- --- -------- --- - ----- ------ ---- --<br>-------- --- -------- -------- --- -------- ---- -- ----- -<br>-------- ---- --- ---------- --------- -- ------- ------ -<br>--------- ----- -----,189920.60000002384,189920,189378.852,189392.70000004768,189395.517,189928.826,,14,served
screen,html.Screen,0_4_1_0_1_15,2021-12-03T11:29:25.191Z,,,,,,,,,,,,,,,,15,,,,,,,,,,,,,,359.17399999999907,,response,,,7,B,,,,,Space,keypress(Space),,,,lyrical,---- --------- ---------- - --- ------- -- --- ------------<br>----- -- -------- ------- ---- ------ a -------- ---- -----<br>--- ------- ---- -- --- -------- --- - ----- ------ ---- --<br>-------- --- -------- -------- --- -------- ---- -- ----- -<br>-------- ---- --- ---------- --------- -- ------- ------ -<br>--------- ----- -----,190288.60000002384,190288,189912.161,189920.80000001192,189928.826,190295.4,,15,a
screen,html.Screen,0_4_1_0_1_16,2021-12-03T11:29:25.543Z,,,,,,,,,,,,,,,,15,,,,,,,,,,,,,,344.5000000357686,,response,,,7,B,,,,,Space,keypress(Space),,,,lyrical,---- --------- ---------- - --- ------- -- --- ------------<br>----- -- -------- ------- ---- ------ - subpoena ---- -----<br>--- ------- ---- -- --- -------- --- - ----- ------ ---- --<br>-------- --- -------- -------- --- -------- ---- -- ----- -<br>-------- ---- --- ---------- --------- -- ------- ------ -<br>--------- ----- -----,190640.5,190639.90000003576,190278.736,190288.80000001192,190295.4,190645.569,,16,subpoena
screen,html.Screen,0_4_1_0_1_17,2021-12-03T11:29:25.903Z,,,,,,,,,,,,,,,,15,,,,,,,,,,,,,,354.3310000357742,,response,,,7,B,,,,,Space,keypress(Space),,,,lyrical,---- --------- ---------- - --- ------- -- --- ------------<br>----- -- -------- ------- ---- ------ - -------- last -----<br>--- ------- ---- -- --- -------- --- - ----- ------ ---- --<br>-------- --- -------- -------- --- -------- ---- -- ----- -<br>-------- ---- --- ---------- --------- -- ------- ------ -<br>--------- ----- -----,191000.40000003576,190999.90000003576,190628.902,190640.70000004768,190645.569,191012.075,,17,last
screen,html.Screen,0_4_1_0_1_18,2021-12-03T11:29:26.223Z,,,,,,,,,,,,,,,,15,,,,,,,,,,,,,,307.82500003575115,,response,,,7,B,,,,,Space,keypress(Space),,,,lyrical,---- --------- ---------- - --- ------- -- --- ------------<br>----- -- -------- ------- ---- ------ - -------- ---- week.<br>--- ------- ---- -- --- -------- --- - ----- ------ ---- --<br>-------- --- -------- -------- --- -------- ---- -- ----- -<br>-------- ---- --- ---------- --------- -- ------- ------ -<br>--------- ----- -----,191320.40000003576,191319.90000003576,190995.411,191000.60000002384,191012.075,191328.778,,18,week.
screen,html.Screen,0_4_1_0_1_19,2021-12-03T11:29:26.703Z,,,,,,,,,,,,,,,,15,,,,,,,,,,,,,,471.12200003577163,,response,,,7,B,,,,,Space,keypress(Space),,,,lyrical,---- --------- ---------- - --- ------- -- --- ------------<br>----- -- -------- ------- ---- ------ - -------- ---- -----<br>His ------- ---- -- --- -------- --- - ----- ------ ---- --<br>-------- --- -------- -------- --- -------- ---- -- ----- -<br>-------- ---- --- ---------- --------- -- ------- ------ -<br>--------- ----- -----,191800.60000002384,191799.90000003576,191312.113,191320.60000002384,191328.778,191812.012,,19,His
screen,html.Screen,0_4_1_0_1_20,2021-12-03T11:29:26.919Z,,,,,,,,,,,,,,,,15,,,,,,,,,,,,,,203.78800001193304,,response,,,7,B,,,,,Space,keypress(Space),,,,lyrical,---- --------- ---------- - --- ------- -- --- ------------<br>----- -- -------- ------- ---- ------ - -------- ---- -----<br>--- lawyers ---- -- --- -------- --- - ----- ------ ---- --<br>-------- --- -------- -------- --- -------- ---- -- ----- -<br>-------- ---- --- ---------- --------- -- ------- ------ -<br>--------- ----- -----,192016.40000003576,192015.80000001192,191795.348,191800.80000001192,191812.012,192028.834,,20,lawyers
screen,html.Screen,0_4_1_0_1_21,2021-12-03T11:29:27.199Z,,,,,,,,,,,,,,,,15,,,,,,,,,,,,,,266.96600001191837,,response,,,7,B,,,,,Space,keypress(Space),,,,lyrical,---- --------- ---------- - --- ------- -- --- ------------<br>----- -- -------- ------- ---- ------ - -------- ---- -----<br>--- ------- said -- --- -------- --- - ----- ------ ---- --<br>-------- --- -------- -------- --- -------- ---- -- ----- -<br>-------- ---- --- ---------- --------- -- ------- ------ -<br>--------- ----- -----,192296.40000003576,192295.80000001192,192012.166,192016.60000002384,192028.834,192312.13,,21,said
screen,html.Screen,0_4_1_0_1_22,2021-12-03T11:29:27.575Z,,,,,,,,,,,,,,,,15,,,,,,,,,,,,,,359.77000003575813,,response,,,7,B,,,,,Space,keypress(Space),,,,lyrical,---- --------- ---------- - --- ------- -- --- ------------<br>----- -- -------- ------- ---- ------ - -------- ---- -----<br>--- ------- ---- he --- -------- --- - ----- ------ ---- --<br>-------- --- -------- -------- --- -------- ---- -- ----- -<br>-------- ---- --- ---------- --------- -- ------- ------ -<br>--------- ----- -----,192672.5,192671.90000003576,192295.464,192296.5,192312.13,192678.698,,22,he
screen,html.Screen,0_4_1_0_1_23,2021-12-03T11:29:27.943Z,,,,,,,,,,,,,,,,15,,,,,,,,,,,,,,361.10200001191697,,response,,,7,B,,,,,Space,keypress(Space),,,,lyrical,---- --------- ---------- - --- ------- -- --- ------------<br>----- -- -------- ------- ---- ------ - -------- ---- -----<br>--- ------- ---- -- was -------- --- - ----- ------ ---- --<br>-------- --- -------- -------- --- -------- ---- -- ----- -<br>-------- ---- --- ---------- --------- -- ------- ------ -<br>--------- ----- -----,193040.5,193039.80000001192,192662.034,192672.70000004768,192678.698,193045.448,,23,was
screen,html.Screen,0_4_1_0_1_24,2021-12-03T11:29:28.287Z,,,,,,,,,,,,,,,,15,,,,,,,,,,,,,,338.35200001191697,,response,,,7,B,,,,,Space,keypress(Space),,,,lyrical,---- --------- ---------- - --- ------- -- --- ------------<br>----- -- -------- ------- ---- ------ - -------- ---- -----<br>--- ------- ---- -- --- prepared --- - ----- ------ ---- --<br>-------- --- -------- -------- --- -------- ---- -- ----- -<br>-------- ---- --- ---------- --------- -- ------- ------ -<br>--------- ----- -----,193384.40000003576,193383.80000001192,193028.782,193040.60000002384,193045.448,193395.395,,24,prepared
screen,html.Screen,0_4_1_0_1_25,2021-12-03T11:29:28.671Z,,,,,,,,,,,,,,,,15,,,,,,,,,,,,,,372.4050000119314,,response,,,7,B,,,,,Space,keypress(Space),,,,lyrical,---- --------- ---------- - --- ------- -- --- ------------<br>----- -- -------- ------- ---- ------ - -------- ---- -----<br>--- ------- ---- -- --- -------- for - ----- ------ ---- --<br>-------- --- -------- -------- --- -------- ---- -- ----- -<br>-------- ---- --- ---------- --------- -- ------- ------ -<br>--------- ----- -----,193768.5,193767.80000001192,193378.73,193384.60000002384,193395.395,193778.684,,25,for
screen,html.Screen,0_4_1_0_1_26,2021-12-03T11:29:29.304Z,,,,,,,,,,,,,,,,15,,,,,,,,,,,,,,621.4160000238335,,response,,,7,B,,,,,Space,keypress(Space),,,,lyrical,---- --------- ---------- - --- ------- -- --- ------------<br>----- -- -------- ------- ---- ------ - -------- ---- -----<br>--- ------- ---- -- --- -------- --- a ----- ------ ---- --<br>-------- --- -------- -------- --- -------- ---- -- ----- -<br>-------- ---- --- ---------- --------- -- ------- ------ -<br>--------- ----- -----,194400.70000004768,194400.10000002384,193762.019,193768.60000002384,193778.684,194411.962,,26,a
screen,html.Screen,0_4_1_0_1_27,2021-12-03T11:29:29.863Z,,,,,,,,,,,,,,,,15,,,,,,,,,,,,,,547.8380000119214,,response,,,7,B,,,,,Space,keypress(Space),,,,lyrical,---- --------- ---------- - --- ------- -- --- ------------<br>----- -- -------- ------- ---- ------ - -------- ---- -----<br>--- ------- ---- -- --- -------- --- - third ------ ---- --<br>-------- --- -------- -------- --- -------- ---- -- ----- -<br>-------- ---- --- ---------- --------- -- ------- ------ -<br>--------- ----- -----,194960.40000003576,194959.80000001192,194395.297,194400.90000003576,194411.962,194962.096,,27,third
screen,html.Screen,0_4_1_0_1_28,2021-12-03T11:29:30.159Z,,,,,,,,,,,,,,,,15,,,,,,,,,,,,,,293.7040000119305,,response,,,7,B,,,,,Space,keypress(Space),,,,lyrical,---- --------- ---------- - --- ------- -- --- ------------<br>----- -- -------- ------- ---- ------ - -------- ---- -----<br>--- ------- ---- -- --- -------- --- - ----- prison ---- --<br>-------- --- -------- -------- --- -------- ---- -- ----- -<br>-------- ---- --- ---------- --------- -- ------- ------ -<br>--------- ----- -----,195256.40000003576,195255.80000001192,194945.429,194960.5,194962.096,195262.023,,28,prison
screen,html.Screen,0_4_1_0_1_29,2021-12-03T11:29:30.599Z,,,,,,,,,,,,,,,,15,,,,,,,,,,,,,,433.6770000476972,,response,,,7,B,,,,,Space,keypress(Space),,,,lyrical,---- --------- ---------- - --- ------- -- --- ------------<br>----- -- -------- ------- ---- ------ - -------- ---- -----<br>--- ------- ---- -- --- -------- --- - ----- ------ stay --<br>-------- --- -------- -------- --- -------- ---- -- ----- -<br>-------- ---- --- ---------- --------- -- ------- ------ -<br>--------- ----- -----,195696.30000001192,195695.70000004768,195245.357,195256.5,195262.023,195711.944,,29,stay
screen,html.Screen,0_4_1_0_1_30,2021-12-03T11:29:31.031Z,,,,,,,,,,,,,,,,15,,,,,,,,,,,,,,415.85600001193234,,response,,,7,B,,,,,Space,keypress(Space),,,,lyrical,---- --------- ---------- - --- ------- -- --- ------------<br>----- -- -------- ------- ---- ------ - -------- ---- -----<br>--- ------- ---- -- --- -------- --- - ----- ------ ---- to<br>-------- --- -------- -------- --- -------- ---- -- ----- -<br>-------- ---- --- ---------- --------- -- ------- ------ -<br>--------- ----- -----,196128.40000003576,196127.80000001192,195695.279,195696.5,195711.944,196145.265,,30,to
screen,html.Screen,0_4_1_0_1_31,2021-12-03T11:29:31.375Z,,,,,,,,,,,,,,,,15,,,,,,,,,,,,,,326.43500004766975,,response,,,7,B,,,,,Space,keypress(Space),,,,lyrical,---- --------- ---------- - --- ------- -- --- ------------<br>----- -- -------- ------- ---- ------ - -------- ---- -----<br>--- ------- ---- -- --- -------- --- - ----- ------ ---- --<br>maintain --- -------- -------- --- -------- ---- -- ----- -<br>-------- ---- --- ---------- --------- -- ------- ------ -<br>--------- ----- -----,196472.30000001192,196471.70000004768,196128.6,196128.60000002384,196145.265,196478.629,,31,maintain
screen,html.Screen,0_4_1_0_1_32,2021-12-03T11:29:31.759Z,,,,,,,,,,,,,,,,15,,,,,,,,,,,,,,377.07100004769745,,response,,,7,B,,,,,Space,keypress(Space),,,,lyrical,---- --------- ---------- - --- ------- -- --- ------------<br>----- -- -------- ------- ---- ------ - -------- ---- -----<br>--- ------- ---- -- --- -------- --- - ----- ------ ---- --<br>-------- his -------- -------- --- -------- ---- -- ----- -<br>-------- ---- --- ---------- --------- -- ------- ------ -<br>--------- ----- -----,196856.40000003576,196855.70000004768,196461.963,196472.5,196478.629,196861.966,,32,his
screen,html.Screen,0_4_1_0_1_33,2021-12-03T11:29:32.103Z,,,,,,,,,,,,,,,,15,,,,,,,,,,,,,,337.7340000476979,,response,,,7,B,,,,,Space,keypress(Space),,,,lyrical,---- --------- ---------- - --- ------- -- --- ------------<br>----- -- -------- ------- ---- ------ - -------- ---- -----<br>--- ------- ---- -- --- -------- --- - ----- ------ ---- --<br>-------- --- silence. -------- --- -------- ---- -- ----- -<br>-------- ---- --- ---------- --------- -- ------- ------ -<br>--------- ----- -----,197200.30000001192,197199.70000004768,196845.3,196856.5,196861.966,197211.92,,33,silence.
screen,html.Screen,0_4_1_0_1_34,2021-12-03T11:29:32.535Z,,,,,,,,,,,,,,,,15,,,,,,,,,,,,,,419.7800000476709,,response,,,7,B,,,,,Space,keypress(Space),,,,lyrical,---- --------- ---------- - --- ------- -- --- ------------<br>----- -- -------- ------- ---- ------ - -------- ---- -----<br>--- ------- ---- -- --- -------- --- - ----- ------ ---- --<br>-------- --- -------- Anderson --- -------- ---- -- ----- -<br>-------- ---- --- ---------- --------- -- ------- ------ -<br>--------- ----- -----,197632.30000001192,197631.70000004768,197195.255,197200.5,197211.92,197645.139,,34,Anderson
screen,html.Screen,0_4_1_0_1_35,2021-12-03T11:29:32.887Z,,,,,,,,,,,,,,,,15,,,,,,,,,,,,,,338.4610000238463,,response,,,7,B,,,,,Space,keypress(Space),,,,lyrical,---- --------- ---------- - --- ------- -- --- ------------<br>----- -- -------- ------- ---- ------ - -------- ---- -----<br>--- ------- ---- -- --- -------- --- - ----- ------ ---- --<br>-------- --- -------- -------- was -------- ---- -- ----- -<br>-------- ---- --- ---------- --------- -- ------- ------ -<br>--------- ----- -----,197984.20000004768,197983.60000002384,197628.475,197632.40000003576,197645.139,197995.321,,35,was
screen,html.Screen,0_4_1_0_1_36,2021-12-03T11:29:33.279Z,,,,,,,,,,,,,,,,15,,,,,,,,,,,,,,380.2790000238456,,response,,,7,B,,,,,Space,keypress(Space),,,,lyrical,---- --------- ---------- - --- ------- -- --- ------------<br>----- -- -------- ------- ---- ------ - -------- ---- -----<br>--- ------- ---- -- --- -------- --- - ----- ------ ---- --<br>-------- --- -------- -------- --- released ---- -- ----- -<br>-------- ---- --- ---------- --------- -- ------- ------ -<br>--------- ----- -----,198376.20000004768,198375.60000002384,197978.654,197984.30000001192,197995.321,198378.544,,36,released
screen,html.Screen,0_4_1_0_1_37,2021-12-03T11:29:33.727Z,,,,,,,,,,,,,,,,15,,,,,,,,,,,,,,445.1560000476893,,response,,,7,B,,,,,Space,keypress(Space),,,,lyrical,---- --------- ---------- - --- ------- -- --- ------------<br>----- -- -------- ------- ---- ------ - -------- ---- -----<br>--- ------- ---- -- --- -------- --- - ----- ------ ---- --<br>-------- --- -------- -------- --- -------- July -- ----- -<br>-------- ---- --- ---------- --------- -- ------- ------ -<br>--------- ----- -----,198824.20000004768,198823.70000004768,198361.879,198376.40000003576,198378.544,198828.52,,37,July
screen,html.Screen,0_4_1_0_1_38,2021-12-03T11:29:34.143Z,,,,,,,,,,,,,,,,15,,,,,,,,,,,,,,411.1800000476942,,response,,,7,B,,,,,Space,keypress(Space),,,,lyrical,---- --------- ---------- - --- ------- -- --- ------------<br>----- -- -------- ------- ---- ------ - -------- ---- -----<br>--- ------- ---- -- --- -------- --- - ----- ------ ---- --<br>-------- --- -------- -------- --- -------- ---- 20 ----- -<br>-------- ---- --- ---------- --------- -- ------- ------ -<br>--------- ----- -----,199240.20000004768,199239.70000004768,198811.855,198824.30000001192,198828.52,199245.17,,38,20
screen,html.Screen,0_4_1_0_1_39,2021-12-03T11:29:34.647Z,,,,,,,,,,,,,,,,15,,,,,,,,,,,,,,498.43000002382905,,response,,,7,B,,,,,Space,keypress(Space),,,,lyrical,---- --------- ---------- - --- ------- -- --- ------------<br>----- -- -------- ------- ---- ------ - -------- ---- -----<br>--- ------- ---- -- --- -------- --- - ----- ------ ---- --<br>-------- --- -------- -------- --- -------- ---- -- after -<br>-------- ---- --- ---------- --------- -- ------- ------ -<br>--------- ----- -----,199744.20000004768,199743.60000002384,199228.505,199240.40000003576,199245.17,199745.067,,39,after
screen,html.Screen,0_4_1_0_1_40,2021-12-03T11:29:35.487Z,,,,,,,,,,,,,,,,15,,,,,,,,,,,,,,838.43299999999,,response,,,7,B,,,,,Space,keypress(Space),,,,lyrical,---- --------- ---------- - --- ------- -- --- ------------<br>----- -- -------- ------- ---- ------ - -------- ---- -----<br>--- ------- ---- -- --- -------- --- - ----- ------ ---- --<br>-------- --- -------- -------- --- -------- ---- -- ----- a<br>-------- ---- --- ---------- --------- -- ------- ------ -<br>--------- ----- -----,200584.20000004768,200583.5,199728.403,199744.30000001192,199745.067,200595.03,,40,a
screen,html.Screen,0_4_1_0_1_41,2021-12-03T11:29:35.991Z,,,,,,,,,,,,,,,,15,,,,,,,,,,,,,,492.570000023843,,response,,,7,B,,,,,Space,keypress(Space),,,,lyrical,---- --------- ---------- - --- ------- -- --- ------------<br>----- -- -------- ------- ---- ------ - -------- ---- -----<br>--- ------- ---- -- --- -------- --- - ----- ------ ---- --<br>-------- --- -------- -------- --- -------- ---- -- ----- -<br>two-week ---- --- ---------- --------- -- ------- ------ -<br>--------- ----- -----,201088.10000002384,201087.60000002384,200578.365,200584.30000001192,200595.03,201095.046,,41,two-week
screen,html.Screen,0_4_1_0_1_42,2021-12-03T11:29:36.511Z,,,,,,,,,,,,,,,,15,,,,,,,,,,,,,,512.4539999999979,,response,,,7,B,,,,,Space,keypress(Space),,,,lyrical,---- --------- ---------- - --- ------- -- --- ------------<br>----- -- -------- ------- ---- ------ - -------- ---- -----<br>--- ------- ---- -- --- -------- --- - ----- ------ ---- --<br>-------- --- -------- -------- --- -------- ---- -- ----- -<br>-------- stay --- ---------- --------- -- ------- ------ -<br>--------- ----- -----,201608.10000002384,201607.5,201078.381,201088.30000001192,201095.046,201611.697,,42,stay
screen,html.Screen,0_4_1_0_1_43,2021-12-03T11:29:36.919Z,,,,,,,,,,,,,,,,15,,,,,,,,,,,,,,403.9030000238563,,response,,,7,B,,,,,Space,keypress(Space),,,,lyrical,---- --------- ---------- - --- ------- -- --- ------------<br>----- -- -------- ------- ---- ------ - -------- ---- -----<br>--- ------- ---- -- --- -------- --- - ----- ------ ---- --<br>-------- --- -------- -------- --- -------- ---- -- ----- -<br>-------- ---- for ---------- --------- -- ------- ------ -<br>--------- ----- -----,202016.20000004768,202015.60000002384,201595.032,201608.30000001192,201611.697,202028.356,,43,for
screen,html.Screen,0_4_1_0_1_44,2021-12-03T11:29:37.463Z,,,,,,,,,,,,,,,,15,,,,,,,,,,,,,,531.1440000000002,,response,,,7,B,,,,,Space,keypress(Space),,,,lyrical,---- --------- ---------- - --- ------- -- --- ------------<br>----- -- -------- ------- ---- ------ - -------- ---- -----<br>--- ------- ---- -- --- -------- --- - ----- ------ ---- --<br>-------- --- -------- -------- --- -------- ---- -- ----- -<br>-------- ---- --- previously --------- -- ------- ------ -<br>--------- ----- -----,202560.10000002384,202559.5,202011.691,202016.30000001192,202028.356,202561.743,,44,previously
screen,html.Screen,0_4_1_0_1_45,2021-12-03T11:29:37.879Z,,,,,,,,,,,,,,,,15,,,,,,,,,,,,,,413.6570000357751,,response,,,7,B,,,,,Space,keypress(Space),,,,lyrical,---- --------- ---------- - --- ------- -- --- ------------<br>----- -- -------- ------- ---- ------ - -------- ---- -----<br>--- ------- ---- -- --- -------- --- - ----- ------ ---- --<br>-------- --- -------- -------- --- -------- ---- -- ----- -<br>-------- ---- --- ---------- declining -- ------- ------ -<br>--------- ----- -----,202976.10000002384,202975.40000003576,202545.077,202560.20000004768,202561.743,202978.405,,45,declining
screen,html.Screen,0_4_1_0_1_46,2021-12-03T11:29:38.255Z,,,,,,,,,,,,,,,,15,,,,,,,,,,,,,,373.09500000000116,,response,,,7,B,,,,,Space,keypress(Space),,,,lyrical,---- --------- ---------- - --- ------- -- --- ------------<br>----- -- -------- ------- ---- ------ - -------- ---- -----<br>--- ------- ---- -- --- -------- --- - ----- ------ ---- --<br>-------- --- -------- -------- --- -------- ---- -- ----- -<br>-------- ---- --- ---------- --------- to ------- ------ -<br>--------- ----- -----,203352.10000002384,203351.5,202961.739,202976.30000001192,202978.405,203361.663,,46,to
screen,html.Screen,0_4_1_0_1_47,2021-12-03T11:29:38.671Z,,,,,,,,,,,,,,,,15,,,,,,,,,,,,,,405.83699999999953,,response,,,7,B,,,,,Space,keypress(Space),,,,lyrical,---- --------- ---------- - --- ------- -- --- ------------<br>----- -- -------- ------- ---- ------ - -------- ---- -----<br>--- ------- ---- -- --- -------- --- - ----- ------ ---- --<br>-------- --- -------- -------- --- -------- ---- -- ----- -<br>-------- ---- --- ---------- --------- -- testify ------ -<br>--------- ----- -----,203768.10000002384,203767.5,203344.998,203352.40000003576,203361.663,203778.303,,47,testify
screen,html.Screen,0_4_1_0_1_48,2021-12-03T11:29:39.055Z,,,,,,,,,,,,,,,,15,,,,,,,,,,,,,,373.09700003574835,,response,,,7,B,,,,,Space,keypress(Space),,,,lyrical,---- --------- ---------- - --- ------- -- --- ------------<br>----- -- -------- ------- ---- ------ - -------- ---- -----<br>--- ------- ---- -- --- -------- --- - ----- ------ ---- --<br>-------- --- -------- -------- --- -------- ---- -- ----- -<br>-------- ---- --- ---------- --------- -- ------- before -<br>--------- ----- -----,204152.10000002384,204151.40000003576,203761.638,203768.30000001192,203778.303,204161.616,,48,before
screen,html.Screen,0_4_1_0_1_49,2021-12-03T11:29:39.455Z,,,,,,,,,,,,,,,,15,,,,,,,,,,,,,,389.9840000238328,,response,,,7,B,,,,,Space,keypress(Space),,,,lyrical,---- --------- ---------- - --- ------- -- --- ------------<br>----- -- -------- ------- ---- ------ - -------- ---- -----<br>--- ------- ---- -- --- -------- --- - ----- ------ ---- --<br>-------- --- -------- -------- --- -------- ---- -- ----- -<br>-------- ---- --- ---------- --------- -- ------- ------ a<br>--------- ----- -----,204552.30000001192,204551.60000002384,204144.951,204152.30000001192,204161.616,204561.67,,49,a
screen,html.Screen,0_4_1_0_1_50,2021-12-03T11:29:39.955Z,,,,,,,,,,,,,,,,15,,,,,,,,,,,,,,489.5300000476709,,response,,,7,B,,,,,Space,keypress(Space),,,,lyrical,---- --------- ---------- - --- ------- -- --- ------------<br>----- -- -------- ------- ---- ------ - -------- ---- -----<br>--- ------- ---- -- --- -------- --- - ----- ------ ---- --<br>-------- --- -------- -------- --- -------- ---- -- ----- -<br>-------- ---- --- ---------- --------- -- ------- ------ -<br>different ----- -----,205051.90000003576,205051.20000004768,204545.004,204552.5,204561.67,205061.64,,50,different
screen,html.Screen,0_4_1_0_1_51,2021-12-03T11:29:39.988Z,,,,,,,,,,,,,,,,15,,,,,,,,,,,,,,22.66000001190696,,response,,,7,B,,,,,Space,keypress(Space),,,,lyrical,---- --------- ---------- - --- ------- -- --- ------------<br>----- -- -------- ------- ---- ------ - -------- ---- -----<br>--- ------- ---- -- --- -------- --- - ----- ------ ---- --<br>-------- --- -------- -------- --- -------- ---- -- ----- -<br>-------- ---- --- ---------- --------- -- ------- ------ -<br>--------- grand -----,205084.80000001192,205084.30000001192,205044.974,205052.10000002384,205061.64,205094.972,,51,grand
screen,html.Screen,0_4_1_0_1_52,2021-12-03T11:29:40.021Z,,,,,,,,,,,,,,,,15,,,,,,,,,,,,,,22.22800004767487,,response,,,7,B,,,,,Space,keypress(Space),,,,lyrical,---- --------- ---------- - --- ------- -- --- ------------<br>----- -- -------- ------- ---- ------ - -------- ---- -----<br>--- ------- ---- -- --- -------- --- - ----- ------ ---- --<br>-------- --- -------- -------- --- -------- ---- -- ----- -<br>-------- ---- --- ---------- --------- -- ------- ------ -<br>--------- ----- jury.,205117.90000003576,205117.20000004768,205078.306,205085,205094.972,205128.324,,52,jury.
