sender,sender_type,sender_id,timestamp,meta,,Blues,Classical,Country,Dance,Electronic,Folk,Gospel,Hip-Hop,Jazz,Latin,Musical/Film,New-age,Pop,Provo_ID,R&B,Rap,Reggae,Religious,Rock,Soul,Swing,Traditional,age,artist_name,correct,correctResponse,distraction,duration,education,ended_on,familiarity,gender,item,list,music_frequency,offensiveness,pleasantness,preference,response,response_action,snippet_file,song_name,song_rating,sound,text,time_commit,time_end,time_render,time_run,time_show,time_switch,url,word,word_ID
Instructions,html.Page,0_0,2021-12-03T10:44:27.126Z,"{""labjs_version"":""20.2.3"",""labjs_build"":{""flavor"":""production"",""commit"":""7ea907d66ca8aeef8054924ca5d82ffbe11e34e5""},""location"":""https://run.pavlovia.org/mvasilev/lab_music_c/"",""userAgent"":""Mozilla/5.0 (Windows NT 6.1; Win64; x64) AppleWebKit/537.36 (KHTML, like Gecko) Chrome/96.0.4664.45 Safari/537.36"",""platform"":""Win32"",""language"":""en-US"",""locale"":""en-US"",""timeZone"":""Europe/London"",""timezoneOffset"":0,""screen_width"":1920,""screen_height"":1080,""scroll_width"":1920,""scroll_height"":959,""window_innerWidth"":1920,""window_innerHeight"":1007,""devicePixelRatio"":1}",,,,,,,,,,,,,,,,,,,,,,,,,,,,,19409.67200000894,,form submission,,,,,,,,,,,,,,,,28069.70000000298,28068.60000000894,8642.258,8648.800000011921,8658.928,28067.167,{},,
Headphones,html.Page,0_1,2021-12-03T10:44:29.376Z,,,,,,,,,,,,,,,,,,,,,,,,,,,,,,2252.033000002979,,form submission,,,,,,,,,,,,,,,,30319.80000001192,30319.20000000298,28050.493,28070.5,28067.167,30327.051,,,
Holding screen,html.Screen,0_2_0_0,2021-12-03T10:44:39.381Z,,,,,,,,,,,,,,,,,,,,,,,,,,,,,,10006.874000000003,,timeout,,,,,,,,,,,,,,,,40324.70000000298,40317.255,30310.385,30320.20000000298,30327.051,40333.925,,,
screen,html.Screen,0_2_0_1_0,2021-12-03T10:44:40.359Z,,,,,,,,,,,,,,,,53,,,,,,,,,,,,,,967.0749999999971,,response,,,99,,,,,,Space,keypress(Space),,,,,When -- ----- -- ------ - ------- --- ----------<br>------------- ------ ------ ---- ---- ------- ----- -- ----<br>-------- ------- -- ---------- --- - --- ----- ----- ----<br>---- --- --- ----- --- ---- ---- ------- ----- ---- -------<br>--- --- -- ----- -- --- ---- -- --- ---- -- ------ ------<br>--- ----- -- ----,41302.60000000894,41301,40317.255,40325.20000000298,40333.925,41317.739,,0,When
screen,html.Screen,0_2_0_1_1,2021-12-03T10:44:40.790Z,,,,,,,,,,,,,,,,53,,,,,,,,,,,,,,414.56100001191953,,response,,,99,,,,,,Space,keypress(Space),,,,,---- it ----- -- ------ - ------- --- ----------<br>------------- ------ ------ ---- ---- ------- ----- -- ----<br>-------- ------- -- ---------- --- - --- ----- ----- ----<br>---- --- --- ----- --- ---- ---- ------- ----- ---- -------<br>--- --- -- ----- -- --- ---- -- --- ---- -- ------ ------<br>--- ----- -- ----,41733.30000001192,41732.30000001192,41301.067,41302.90000000596,41317.739,41734.352,,1,it
screen,html.Screen,0_2_0_1_2,2021-12-03T10:44:41.158Z,,,,,,,,,,,,,,,,53,,,,,,,,,,,,,,366.0480000059615,,response,,,99,,,,,,Space,keypress(Space),,,,,---- -- comes -- ------ - ------- --- ----------<br>------------- ------ ------ ---- ---- ------- ----- -- ----<br>-------- ------- -- ---------- --- - --- ----- ----- ----<br>---- --- --- ----- --- ---- ---- ------- ----- ---- -------<br>--- --- -- ----- -- --- ---- -- --- ---- -- ------ ------<br>--- ----- -- ----,42101.30000001192,42100.40000000596,41717.682,41733.60000000894,41734.352,42117.769,,2,comes
screen,html.Screen,0_2_0_1_3,2021-12-03T10:44:41.502Z,,,,,,,,,,,,,,,,53,,,,,,,,,,,,,,326.5310000119207,,response,,,99,,,,,,Space,keypress(Space),,,,,---- -- ----- to ------ - ------- --- ----------<br>------------- ------ ------ ---- ---- ------- ----- -- ----<br>-------- ------- -- ---------- --- - --- ----- ----- ----<br>---- --- --- ----- --- ---- ---- ------- ----- ---- -------<br>--- --- -- ----- -- --- ---- -- --- ---- -- ------ ------<br>--- ----- -- ----,42445.40000000596,42444.30000001192,42101.099,42101.70000000298,42117.769,42451.313,,3,to
screen,html.Screen,0_2_0_1_4,2021-12-03T10:44:41.838Z,,,,,,,,,,,,,,,,53,,,,,,,,,,,,,,328.987000011919,,response,,,99,,,,,,Space,keypress(Space),,,,,---- -- ----- -- having - ------- --- ----------<br>------------- ------ ------ ---- ---- ------- ----- -- ----<br>-------- ------- -- ---------- --- - --- ----- ----- ----<br>---- --- --- ----- --- ---- ---- ------- ----- ---- -------<br>--- --- -- ----- -- --- ---- -- --- ---- -- ------ ------<br>--- ----- -- ----,42781.5,42780.30000001192,42434.641,42445.90000000596,42451.313,42784.649,,4,having
screen,html.Screen,0_2_0_1_5,2021-12-03T10:44:42.222Z,,,,,,,,,,,,,,,,53,,,,,,,,,,,,,,379.5510000029826,,response,,,99,,,,,,Space,keypress(Space),,,,,---- -- ----- -- ------ a ------- --- ----------<br>------------- ------ ------ ---- ---- ------- ----- -- ----<br>-------- ------- -- ---------- --- - --- ----- ----- ----<br>---- --- --- ----- --- ---- ---- ------- ----- ---- -------<br>--- --- -- ----- -- --- ---- -- --- ---- -- ------ ------<br>--- ----- -- ----,43165.30000001192,43164.20000000298,42767.979,42781.80000001192,42784.649,43168.087,,5,a
screen,html.Screen,0_2_0_1_6,2021-12-03T10:44:42.614Z,,,,,,,,,,,,,,,,53,,,,,,,,,,,,,,388.1130000029807,,response,,,99,,,,,,Space,keypress(Space),,,,,---- -- ----- -- ------ - lasting --- ----------<br>------------- ------ ------ ---- ---- ------- ----- -- ----<br>-------- ------- -- ---------- --- - --- ----- ----- ----<br>---- --- --- ----- --- ---- ---- ------- ----- ---- -------<br>--- --- -- ----- -- --- ---- -- --- ---- -- ------ ------<br>--- ----- -- ----,43557.20000000298,43556.20000000298,43151.417,43165.80000001192,43168.087,43568.18,,6,lasting
screen,html.Screen,0_2_0_1_7,2021-12-03T10:44:42.934Z,,,,,,,,,,,,,,,,53,,,,,,,,,,,,,,308.12000001192064,,response,,,99,,,,,,Space,keypress(Space),,,,,---- -- ----- -- ------ - ------- and ----------<br>------------- ------ ------ ---- ---- ------- ----- -- ----<br>-------- ------- -- ---------- --- - --- ----- ----- ----<br>---- --- --- ----- --- ---- ---- ------- ----- ---- -------<br>--- --- -- ----- -- --- ---- -- --- ---- -- ------ ------<br>--- ----- -- ----,43877.20000000298,43876.30000001192,43551.51,43557.5,43568.18,43884.936,,7,and
screen,html.Screen,0_2_0_1_8,2021-12-03T10:44:43.342Z,,,,,,,,,,,,,,,,53,,,,,,,,,,,,,,399.2640000029787,,response,,,99,,,,,,Space,keypress(Space),,,,,---- -- ----- -- ------ - ------- --- fulfilling<br>------------- ------ ------ ---- ---- ------- ----- -- ----<br>-------- ------- -- ---------- --- - --- ----- ----- ----<br>---- --- --- ----- --- ---- ---- ------- ----- ---- -------<br>--- --- -- ----- -- --- ---- -- --- ---- -- ------ ------<br>--- ----- -- ----,44285.40000000596,44284.20000000298,43868.266,43877.5,43884.936,44301.707,,8,fulfilling
screen,html.Screen,0_2_0_1_9,2021-12-03T10:44:43.702Z,,,,,,,,,,,,,,,,53,,,,,,,,,,,,,,342.4930000029781,,response,,,99,,,,,,Space,keypress(Space),,,,,"---- -- ----- -- ------ - ------- --- ----------<br>relationship, ------ ------ ---- ---- ------- ----- -- ----<br>-------- ------- -- ---------- --- - --- ----- ----- ----<br>---- --- --- ----- --- ---- ---- ------- ----- ---- -------<br>--- --- -- ----- -- --- ---- -- --- ---- -- ------ ------<br>--- ----- -- ----",44645.20000000298,44644.20000000298,44285.037,44285.70000000298,44301.707,44651.67,,9,"relationship,"
screen,html.Screen,0_2_0_1_10,2021-12-03T10:44:44.085Z,,,,,,,,,,,,,,,,53,,,,,,,,,,,,,,376.43000000894244,,response,,,99,,,,,,Space,keypress(Space),,,,,---- -- ----- -- ------ - ------- --- ----------<br>------------- common ------ ---- ---- ------- ----- -- ----<br>-------- ------- -- ---------- --- - --- ----- ----- ----<br>---- --- --- ----- --- ---- ---- ------- ----- ---- -------<br>--- --- -- ----- -- --- ---- -- --- ---- -- ------ ------<br>--- ----- -- ----,45028.80000001192,45028.10000000894,44635.002,44645.40000000596,44651.67,45035.312,,10,common
screen,html.Screen,0_2_0_1_11,2021-12-03T10:44:44.374Z,,,,,,,,,,,,,,,,53,,,,,,,,,,,,,,280.88800000298215,,response,,,99,,,,,,Space,keypress(Space),,,,,---- -- ----- -- ------ - ------- --- ----------<br>------------- ------ wisdom ---- ---- ------- ----- -- ----<br>-------- ------- -- ---------- --- - --- ----- ----- ----<br>---- --- --- ----- --- ---- ---- ------- ----- ---- -------<br>--- --- -- ----- -- --- ---- -- --- ---- -- ------ ------<br>--- ----- -- ----,45317.10000000894,45316.20000000298,45018.64,45029,45035.312,45318.673,,11,wisdom
screen,html.Screen,0_2_0_1_12,2021-12-03T10:44:44.734Z,,,,,,,,,,,,,,,,53,,,,,,,,,,,,,,357.52700000297773,,response,,,99,,,,,,Space,keypress(Space),,,,,---- -- ----- -- ------ - ------- --- ----------<br>------------- ------ ------ says ---- ------- ----- -- ----<br>-------- ------- -- ---------- --- - --- ----- ----- ----<br>---- --- --- ----- --- ---- ---- ------- ----- ---- -------<br>--- --- -- ----- -- --- ---- -- --- ---- -- ------ ------<br>--- ----- -- ----,45677,45676.20000000298,45302.002,45317.30000001192,45318.673,45685.395,,12,says
screen,html.Screen,0_2_0_1_13,2021-12-03T10:44:45.102Z,,,,,,,,,,,,,,,,53,,,,,,,,,,,,,,358.7050000089439,,response,,,99,,,,,,Space,keypress(Space),,,,,---- -- ----- -- ------ - ------- --- ----------<br>------------- ------ ------ ---- that ------- ----- -- ----<br>-------- ------- -- ---------- --- - --- ----- ----- ----<br>---- --- --- ----- --- ---- ---- ------- ----- ---- -------<br>--- --- -- ----- -- --- ---- -- --- ---- -- ------ ------<br>--- ----- -- ----,46045,46044.10000000894,45668.725,45677.30000001192,45685.395,46052.16,,13,that
screen,html.Screen,0_2_0_1_14,2021-12-03T10:44:45.358Z,,,,,,,,,,,,,,,,53,,,,,,,,,,,,,,247.9400000089372,,response,,,99,,,,,,Space,keypress(Space),,,,,---- -- ----- -- ------ - ------- --- ----------<br>------------- ------ ------ ---- ---- feeling ----- -- ----<br>-------- ------- -- ---------- --- - --- ----- ----- ----<br>---- --- --- ----- --- ---- ---- ------- ----- ---- -------<br>--- --- -- ----- -- --- ---- -- --- ---- -- ------ ------<br>--- ----- -- ----,46300.90000000596,46300.10000000894,46035.49,46045.20000000298,46052.16,46302.268,,14,feeling
screen,html.Screen,0_2_0_1_15,2021-12-03T10:44:45.622Z,,,,,,,,,,,,,,,,53,,,,,,,,,,,,,,261.8320000089443,,response,,,99,,,,,,Space,keypress(Space),,,,,---- -- ----- -- ------ - ------- --- ----------<br>------------- ------ ------ ---- ---- ------- close -- ----<br>-------- ------- -- ---------- --- - --- ----- ----- ----<br>---- --- --- ----- --- ---- ---- ------- ----- ---- -------<br>--- --- -- ----- -- --- ---- -- --- ---- -- ------ ------<br>--- ----- -- ----,46564.90000000596,46564.10000000894,46285.597,46301.10000000894,46302.268,46568.968,,15,close
screen,html.Screen,0_2_0_1_16,2021-12-03T10:44:45.998Z,,,,,,,,,,,,,,,,53,,,,,,,,,,,,,,371.03199999999924,,response,,,99,,,,,,Space,keypress(Space),,,,,---- -- ----- -- ------ - ------- --- ----------<br>------------- ------ ------ ---- ---- ------- ----- to ----<br>-------- ------- -- ---------- --- - --- ----- ----- ----<br>---- --- --- ----- --- ---- ---- ------- ----- ---- -------<br>--- --- -- ----- -- --- ---- -- --- ---- -- ------ ------<br>--- ----- -- ----,46940.80000001192,46940,46552.298,46565.20000000298,46568.968,46952.382,,16,to
screen,html.Screen,0_2_0_1_17,2021-12-03T10:44:46.334Z,,,,,,,,,,,,,,,,53,,,,,,,,,,,,,,323.6180000000022,,response,,,99,,,,,,Space,keypress(Space),,,,,---- -- ----- -- ------ - ------- --- ----------<br>------------- ------ ------ ---- ---- ------- ----- -- your<br>-------- ------- -- ---------- --- - --- ----- ----- ----<br>---- --- --- ----- --- ---- ---- ------- ----- ---- -------<br>--- --- -- ----- -- --- ---- -- --- ---- -- ------ ------<br>--- ----- -- ----,47276.90000000596,47276,46935.712,46941.10000000894,46952.382,47285.675,,17,your
screen,html.Screen,0_2_0_1_18,2021-12-03T10:44:46.605Z,,,,,,,,,,,,,,,,53,,,,,,,,,,,,,,262.3249999999971,,response,,,99,,,,,,Space,keypress(Space),,,,,---- -- ----- -- ------ - ------- --- ----------<br>------------- ------ ------ ---- ---- ------- ----- -- ----<br>romantic ------- -- ---------- --- - --- ----- ----- ----<br>---- --- --- ----- --- ---- ---- ------- ----- ---- -------<br>--- --- -- ----- -- --- ---- -- --- ---- -- ------ ------<br>--- ----- -- ----,47548.70000000298,47548,47269.007,47277.10000000894,47285.675,47552.626,,18,romantic
screen,html.Screen,0_2_0_1_19,2021-12-03T10:44:46.862Z,,,,,,,,,,,,,,,,53,,,,,,,,,,,,,,251.37400000000343,,response,,,99,,,,,,Space,keypress(Space),,,,,---- -- ----- -- ------ - ------- --- ----------<br>------------- ------ ------ ---- ---- ------- ----- -- ----<br>-------- partner -- ---------- --- - --- ----- ----- ----<br>---- --- --- ----- --- ---- ---- ------- ----- ---- -------<br>--- --- -- ----- -- --- ---- -- --- ---- -- ------ ------<br>--- ----- -- ----,47804.80000001192,47804,47535.954,47549.10000000894,47552.626,47819.295,,19,partner
screen,html.Screen,0_2_0_1_20,2021-12-03T10:44:47.149Z,,,,,,,,,,,,,,,,53,,,,,,,,,,,,,,272.70500000000175,,response,,,99,,,,,,Space,keypress(Space),,,,,---- -- ----- -- ------ - ------- --- ----------<br>------------- ------ ------ ---- ---- ------- ----- -- ----<br>-------- ------- is ---------- --- - --- ----- ----- ----<br>---- --- --- ----- --- ---- ---- ------- ----- ---- -------<br>--- --- -- ----- -- --- ---- -- --- ---- -- ------ ------<br>--- ----- -- ----,48092.70000000298,48092,47802.625,47805.10000000894,47819.295,48102.684,,20,is
screen,html.Screen,0_2_0_1_21,2021-12-03T10:44:47.453Z,,,,,,,,,,,,,,,,53,,,,,,,,,,,,,,293.21600000595936,,response,,,99,,,,,,Space,keypress(Space),,,,,---- -- ----- -- ------ - ------- --- ----------<br>------------- ------ ------ ---- ---- ------- ----- -- ----<br>-------- ------- -- paramount. --- - --- ----- ----- ----<br>---- --- --- ----- --- ---- ---- ------- ----- ---- -------<br>--- --- -- ----- -- --- ---- -- --- ---- -- ------ ------<br>--- ----- -- ----,48396.80000001192,48395.90000000596,48086.014,48093,48102.684,48402.769,,21,paramount.
screen,html.Screen,0_2_0_1_22,2021-12-03T10:44:47.733Z,,,,,,,,,,,,,,,,53,,,,,,,,,,,,,,273.13100000596023,,response,,,99,,,,,,Space,keypress(Space),,,,,---- -- ----- -- ------ - ------- --- ----------<br>------------- ------ ------ ---- ---- ------- ----- -- ----<br>-------- ------- -- ---------- But - --- ----- ----- ----<br>---- --- --- ----- --- ---- ---- ------- ----- ---- -------<br>--- --- -- ----- -- --- ---- -- --- ---- -- ------ ------<br>--- ----- -- ----,48676.70000000298,48675.90000000596,48386.099,48397.20000000298,48402.769,48686.112,,22,But
screen,html.Screen,0_2_0_1_23,2021-12-03T10:44:48.141Z,,,,,,,,,,,,,,,,53,,,,,,,,,,,,,,397.7880000059595,,response,,,99,,,,,,Space,keypress(Space),,,,,---- -- ----- -- ------ - ------- --- ----------<br>------------- ------ ------ ---- ---- ------- ----- -- ----<br>-------- ------- -- ---------- --- a --- ----- ----- ----<br>---- --- --- ----- --- ---- ---- ------- ----- ---- -------<br>--- --- -- ----- -- --- ---- -- --- ---- -- ------ ------<br>--- ----- -- ----,49084.70000000298,49083.90000000596,48669.443,48677,48686.112,49086.356,,23,a
screen,html.Screen,0_2_0_1_24,2021-12-03T10:44:48.357Z,,,,,,,,,,,,,,,,53,,,,,,,,,,,,,,213.5440000059607,,response,,,99,,,,,,Space,keypress(Space),,,,,---- -- ----- -- ------ - ------- --- ----------<br>------------- ------ ------ ---- ---- ------- ----- -- ----<br>-------- ------- -- ---------- --- - new ----- ----- ----<br>---- --- --- ----- --- ---- ---- ------- ----- ---- -------<br>--- --- -- ----- -- --- ---- -- --- ---- -- ------ ------<br>--- ----- -- ----,49300.70000000298,49299.90000000596,49069.684,49085,49086.356,49302.991,,24,new
screen,html.Screen,0_2_0_1_25,2021-12-03T10:44:48.821Z,,,,,,,,,,,,,,,,53,,,,,,,,,,,,,,460.90900000595866,,response,,,99,,,,,,Space,keypress(Space),,,,,---- -- ----- -- ------ - ------- --- ----------<br>------------- ------ ------ ---- ---- ------- ----- -- ----<br>-------- ------- -- ---------- --- - --- study ----- ----<br>---- --- --- ----- --- ---- ---- ------- ----- ---- -------<br>--- --- -- ----- -- --- ---- -- --- ---- -- ------ ------<br>--- ----- -- ----,49764.70000000298,49763.90000000596,49286.321,49301,49302.991,49769.817,,25,study
screen,html.Screen,0_2_0_1_26,2021-12-03T10:44:49.045Z,,,,,,,,,,,,,,,,53,,,,,,,,,,,,,,218.08300000595773,,response,,,99,,,,,,Space,keypress(Space),,,,,---- -- ----- -- ------ - ------- --- ----------<br>------------- ------ ------ ---- ---- ------- ----- -- ----<br>-------- ------- -- ---------- --- - --- ----- finds ----<br>---- --- --- ----- --- ---- ---- ------- ----- ---- -------<br>--- --- -- ----- -- --- ---- -- --- ---- -- ------ ------<br>--- ----- -- ----,49988.70000000298,49987.90000000596,49753.146,49765,49769.817,50003.12,,26,finds
screen,html.Screen,0_2_0_1_27,2021-12-03T10:44:49.165Z,,,,,,,,,,,,,,,,53,,,,,,,,,,,,,,104.78000000595785,,response,,,99,,,,,,Space,keypress(Space),,,,,---- -- ----- -- ------ - ------- --- ----------<br>------------- ------ ------ ---- ---- ------- ----- -- ----<br>-------- ------- -- ---------- --- - --- ----- ----- that<br>---- --- --- ----- --- ---- ---- ------- ----- ---- -------<br>--- --- -- ----- -- --- ---- -- --- ---- -- ------ ------<br>--- ----- -- ----,50108.60000000894,50107.90000000596,49986.451,49988.90000000596,50003.12,50119.899,,27,that
screen,html.Screen,0_2_0_1_28,2021-12-03T10:44:49.686Z,,,,,,,,,,,,,,,,53,,,,,,,,,,,,,,508.1010000000024,,response,,,99,,,,,,Space,keypress(Space),,,,,---- -- ----- -- ------ - ------- --- ----------<br>------------- ------ ------ ---- ---- ------- ----- -- ----<br>-------- ------- -- ---------- --- - --- ----- ----- ----<br>it's --- --- ----- --- ---- ---- ------- ----- ---- -------<br>--- --- -- ----- -- --- ---- -- --- ---- -- ------ ------<br>--- ----- -- ----,50629.10000000894,50628,50103.228,50108.90000000596,50119.899,50636.704,,28,it's
screen,html.Screen,0_2_0_1_29,2021-12-03T10:44:50.045Z,,,,,,,,,,,,,,,,53,,,,,,,,,,,,,,351.096000011923,,response,,,99,,,,,,Space,keypress(Space),,,,,---- -- ----- -- ------ - ------- --- ----------<br>------------- ------ ------ ---- ---- ------- ----- -- ----<br>-------- ------- -- ---------- --- - --- ----- ----- ----<br>---- not --- ----- --- ---- ---- ------- ----- ---- -------<br>--- --- -- ----- -- --- ---- -- --- ---- -- ------ ------<br>--- ----- -- ----,50988.70000000298,50987.80000001192,50620.033,50629.30000001192,50636.704,51003.438,,29,not
screen,html.Screen,0_2_0_1_30,2021-12-03T10:44:50.262Z,,,,,,,,,,,,,,,,53,,,,,,,,,,,,,,200.46200000595854,,response,,,99,,,,,,Space,keypress(Space),,,,,---- -- ----- -- ------ - ------- --- ----------<br>------------- ------ ------ ---- ---- ------- ----- -- ----<br>-------- ------- -- ---------- --- - --- ----- ----- ----<br>---- --- how ----- --- ---- ---- ------- ----- ---- -------<br>--- --- -- ----- -- --- ---- -- --- ---- -- ------ ------<br>--- ----- -- ----,51204.90000000596,51203.90000000596,50986.768,50988.90000000596,51003.438,51220.158,,30,how
screen,html.Screen,0_2_0_1_31,2021-12-03T10:44:50.550Z,,,,,,,,,,,,,,,,53,,,,,,,,,,,,,,272.14200001191784,,response,,,99,,,,,,Space,keypress(Space),,,,,---- -- ----- -- ------ - ------- --- ----------<br>------------- ------ ------ ---- ---- ------- ----- -- ----<br>-------- ------- -- ---------- --- - --- ----- ----- ----<br>---- --- --- close --- ---- ---- ------- ----- ---- -------<br>--- --- -- ----- -- --- ---- -- --- ---- -- ------ ------<br>--- ----- -- ----,51493.10000000894,51492.30000001192,51203.488,51205,51220.158,51503.459,,31,close
screen,html.Screen,0_2_0_1_32,2021-12-03T10:44:50.741Z,,,,,,,,,,,,,,,,53,,,,,,,,,,,,,,180.34100001191837,,response,,,99,,,,,,Space,keypress(Space),,,,,---- -- ----- -- ------ - ------- --- ----------<br>------------- ------ ------ ---- ---- ------- ----- -- ----<br>-------- ------- -- ---------- --- - --- ----- ----- ----<br>---- --- --- ----- you ---- ---- ------- ----- ---- -------<br>--- --- -- ----- -- --- ---- -- --- ---- -- ------ ------<br>--- ----- -- ----,51684.5,51683.80000001192,51486.791,51493.20000000298,51503.459,51687.063,,32,you
screen,html.Screen,0_2_0_1_33,2021-12-03T10:44:51.021Z,,,,,,,,,,,,,,,,53,,,,,,,,,,,,,,276.737000011919,,response,,,99,,,,,,Space,keypress(Space),,,,,---- -- ----- -- ------ - ------- --- ----------<br>------------- ------ ------ ---- ---- ------- ----- -- ----<br>-------- ------- -- ---------- --- - --- ----- ----- ----<br>---- --- --- ----- --- feel ---- ------- ----- ---- -------<br>--- --- -- ----- -- --- ---- -- --- ---- -- ------ ------<br>--- ----- -- ----,51964.60000000894,51963.80000001192,51670.389,51684.80000001192,51687.063,51970.352,,33,feel
screen,html.Screen,0_2_0_1_34,2021-12-03T10:44:51.293Z,,,,,,,,,,,,,,,,53,,,,,,,,,,,,,,265.448000011922,,response,,,99,,,,,,Space,keypress(Space),,,,,---- -- ----- -- ------ - ------- --- ----------<br>------------- ------ ------ ---- ---- ------- ----- -- ----<br>-------- ------- -- ---------- --- - --- ----- ----- ----<br>---- --- --- ----- --- ---- that ------- ----- ---- -------<br>--- --- -- ----- -- --- ---- -- --- ---- -- ------ ------<br>--- ----- -- ----,52236.60000000894,52235.80000001192,51953.682,51964.80000001192,51970.352,52253.673,,34,that
screen,html.Screen,0_2_0_1_35,2021-12-03T10:44:51.509Z,,,,,,,,,,,,,,,,53,,,,,,,,,,,,,,198.12700001191843,,response,,,99,,,,,,Space,keypress(Space),,,,,---- -- ----- -- ------ - ------- --- ----------<br>------------- ------ ------ ---- ---- ------- ----- -- ----<br>-------- ------- -- ---------- --- - --- ----- ----- ----<br>---- --- --- ----- --- ---- ---- matters ----- ---- -------<br>--- --- -- ----- -- --- ---- -- --- ---- -- ------ ------<br>--- ----- -- ----,52452.60000000894,52451.80000001192,52237.005,52236.80000001192,52253.673,52453.865,,35,matters
screen,html.Screen,0_2_0_1_36,2021-12-03T10:44:51.806Z,,,,,,,,,,,,,,,,53,,,,,,,,,,,,,,293.93500001192297,,response,,,99,,,,,,Space,keypress(Space),,,,,"---- -- ----- -- ------ - ------- --- ----------<br>------------- ------ ------ ---- ---- ------- ----- -- ----<br>-------- ------- -- ---------- --- - --- ----- ----- ----<br>---- --- --- ----- --- ---- ---- ------- most, ---- -------<br>--- --- -- ----- -- --- ---- -- --- ---- -- ------ ------<br>--- ----- -- ----",52748.80000001192,52747.80000001192,52437.193,52452.80000001192,52453.865,52753.885,,36,"most,"
screen,html.Screen,0_2_0_1_37,2021-12-03T10:44:52.069Z,,,,,,,,,,,,,,,,53,,,,,,,,,,,,,,257.8150000029782,,response,,,99,,,,,,Space,keypress(Space),,,,,---- -- ----- -- ------ - ------- --- ----------<br>------------- ------ ------ ---- ---- ------- ----- -- ----<br>-------- ------- -- ---------- --- - --- ----- ----- ----<br>---- --- --- ----- --- ---- ---- ------- ----- it's -------<br>--- --- -- ----- -- --- ---- -- --- ---- -- ------ ------<br>--- ----- -- ----,53012.5,53011.70000000298,52737.215,52749,52753.885,53020.666,,37,it's
screen,html.Screen,0_2_0_1_38,2021-12-03T10:44:52.349Z,,,,,,,,,,,,,,,,53,,,,,,,,,,,,,,271.1340000119235,,response,,,99,,,,,,Space,keypress(Space),,,,,---- -- ----- -- ------ - ------- --- ----------<br>------------- ------ ------ ---- ---- ------- ----- -- ----<br>-------- ------- -- ---------- --- - --- ----- ----- ----<br>---- --- --- ----- --- ---- ---- ------- ----- ---- whether<br>--- --- -- ----- -- --- ---- -- --- ---- -- ------ ------<br>--- ----- -- ----,53292.5,53291.80000001192,53003.995,53012.70000000298,53020.666,53304.066,,38,whether
screen,html.Screen,0_2_0_1_39,2021-12-03T10:44:52.613Z,,,,,,,,,,,,,,,,53,,,,,,,,,,,,,,251.63400000298134,,response,,,99,,,,,,Space,keypress(Space),,,,,---- -- ----- -- ------ - ------- --- ----------<br>------------- ------ ------ ---- ---- ------- ----- -- ----<br>-------- ------- -- ---------- --- - --- ----- ----- ----<br>---- --- --- ----- --- ---- ---- ------- ----- ---- -------<br>you --- -- ----- -- --- ---- -- --- ---- -- ------ ------<br>--- ----- -- ----,53556.5,53555.70000000298,53287.395,53292.70000000298,53304.066,53570.771,,39,you
screen,html.Screen,0_2_0_1_40,2021-12-03T10:44:52.861Z,,,,,,,,,,,,,,,,53,,,,,,,,,,,,,,232.9290000029796,,response,,,99,,,,,,Space,keypress(Space),,,,,---- -- ----- -- ------ - ------- --- ----------<br>------------- ------ ------ ---- ---- ------- ----- -- ----<br>-------- ------- -- ---------- --- - --- ----- ----- ----<br>---- --- --- ----- --- ---- ---- ------- ----- ---- -------<br>--- are -- ----- -- --- ---- -- --- ---- -- ------ ------<br>--- ----- -- ----,53804.5,53803.70000000298,53554.101,53556.70000000298,53570.771,53820.833,,40,are
screen,html.Screen,0_2_0_1_41,2021-12-03T10:44:53.045Z,,,,,,,,,,,,,,,,53,,,,,,,,,,,,,,166.9670000119222,,response,,,99,,,,,,Space,keypress(Space),,,,,---- -- ----- -- ------ - ------- --- ----------<br>------------- ------ ------ ---- ---- ------- ----- -- ----<br>-------- ------- -- ---------- --- - --- ----- ----- ----<br>---- --- --- ----- --- ---- ---- ------- ----- ---- -------<br>--- --- as ----- -- --- ---- -- --- ---- -- ------ ------<br>--- ----- -- ----,53988.60000000894,53987.80000001192,53804.163,53804.80000001192,53820.833,54004.212,,41,as
screen,html.Screen,0_2_0_1_42,2021-12-03T10:44:53.341Z,,,,,,,,,,,,,,,,53,,,,,,,,,,,,,,279.4880000029807,,response,,,99,,,,,,Space,keypress(Space),,,,,---- -- ----- -- ------ - ------- --- ----------<br>------------- ------ ------ ---- ---- ------- ----- -- ----<br>-------- ------- -- ---------- --- - --- ----- ----- ----<br>---- --- --- ----- --- ---- ---- ------- ----- ---- -------<br>--- --- -- close -- --- ---- -- --- ---- -- ------ ------<br>--- ----- -- ----,54284.40000000596,54283.70000000298,53987.542,53988.90000000596,54004.212,54287.643,,42,close
screen,html.Screen,0_2_0_1_43,2021-12-03T10:44:53.517Z,,,,,,,,,,,,,,,,53,,,,,,,,,,,,,,172.05700000298384,,response,,,99,,,,,,Space,keypress(Space),,,,,---- -- ----- -- ------ - ------- --- ----------<br>------------- ------ ------ ---- ---- ------- ----- -- ----<br>-------- ------- -- ---------- --- - --- ----- ----- ----<br>---- --- --- ----- --- ---- ---- ------- ----- ---- -------<br>--- --- -- ----- as --- ---- -- --- ---- -- ------ ------<br>--- ----- -- ----,54460.5,54459.70000000298,54270.972,54284.70000000298,54287.643,54470.995,,43,as
screen,html.Screen,0_2_0_1_44,2021-12-03T10:44:53.797Z,,,,,,,,,,,,,,,,53,,,,,,,,,,,,,,268.6050000089381,,response,,,99,,,,,,Space,keypress(Space),,,,,---- -- ----- -- ------ - ------- --- ----------<br>------------- ------ ------ ---- ---- ------- ----- -- ----<br>-------- ------- -- ---------- --- - --- ----- ----- ----<br>---- --- --- ----- --- ---- ---- ------- ----- ---- -------<br>--- --- -- ----- -- you ---- -- --- ---- -- ------ ------<br>--- ----- -- ----,54740.5,54739.60000000894,54454.325,54460.70000000298,54470.995,54754.406,,44,you
screen,html.Screen,0_2_0_1_45,2021-12-03T10:44:54.029Z,,,,,,,,,,,,,,,,53,,,,,,,,,,,,,,217.29400000297755,,response,,,99,,,,,,Space,keypress(Space),,,,,---- -- ----- -- ------ - ------- --- ----------<br>------------- ------ ------ ---- ---- ------- ----- -- ----<br>-------- ------- -- ---------- --- - --- ----- ----- ----<br>---- --- --- ----- --- ---- ---- ------- ----- ---- -------<br>--- --- -- ----- -- --- want -- --- ---- -- ------ ------<br>--- ----- -- ----,54972.40000000596,54971.70000000298,54737.736,54740.70000000298,54754.406,54987.795,,45,want
screen,html.Screen,0_2_0_1_46,2021-12-03T10:44:54.237Z,,,,,,,,,,,,,,,,53,,,,,,,,,,,,,,191.80500000894244,,response,,,99,,,,,,Space,keypress(Space),,,,,---- -- ----- -- ------ - ------- --- ----------<br>------------- ------ ------ ---- ---- ------- ----- -- ----<br>-------- ------- -- ---------- --- - --- ----- ----- ----<br>---- --- --- ----- --- ---- ---- ------- ----- ---- -------<br>--- --- -- ----- -- --- ---- to --- ---- -- ------ ------<br>--- ----- -- ----,55180.40000000596,55179.60000000894,54971.125,54972.70000000298,54987.795,55187.877,,46,to
screen,html.Screen,0_2_0_1_47,2021-12-03T10:44:54.493Z,,,,,,,,,,,,,,,,53,,,,,,,,,,,,,,247.7230000089403,,response,,,99,,,,,,Space,keypress(Space),,,,,"---- -- ----- -- ------ - ------- --- ----------<br>------------- ------ ------ ---- ---- ------- ----- -- ----<br>-------- ------- -- ---------- --- - --- ----- ----- ----<br>---- --- --- ----- --- ---- ---- ------- ----- ---- -------<br>--- --- -- ----- -- --- ---- -- be, ---- -- ------ ------<br>--- ----- -- ----",55436.30000001192,55435.60000000894,55171.206,55180.60000000894,55187.877,55437.923,,47,"be,"
screen,html.Screen,0_2_0_1_48,2021-12-03T10:44:54.741Z,,,,,,,,,,,,,,,,53,,,,,,,,,,,,,,245.5769999999975,,response,,,99,,,,,,Space,keypress(Space),,,,,---- -- ----- -- ------ - ------- --- ----------<br>------------- ------ ------ ---- ---- ------- ----- -- ----<br>-------- ------- -- ---------- --- - --- ----- ----- ----<br>---- --- --- ----- --- ---- ---- ------- ----- ---- -------<br>--- --- -- ----- -- --- ---- -- --- even -- ------ ------<br>--- ----- -- ----,55684.40000000596,55683.5,55421.253,55436.60000000894,55437.923,55688.008,,48,even
screen,html.Screen,0_2_0_1_49,2021-12-03T10:44:54.973Z,,,,,,,,,,,,,,,,53,,,,,,,,,,,,,,227.49199999999837,,response,,,99,,,,,,Space,keypress(Space),,,,,---- -- ----- -- ------ - ------- --- ----------<br>------------- ------ ------ ---- ---- ------- ----- -- ----<br>-------- ------- -- ---------- --- - --- ----- ----- ----<br>---- --- --- ----- --- ---- ---- ------- ----- ---- -------<br>--- --- -- ----- -- --- ---- -- --- ---- if ------ ------<br>--- ----- -- ----,55916.40000000596,55915.5,55671.337,55684.60000000894,55688.008,55921.369,,49,if
screen,html.Screen,0_2_0_1_50,2021-12-03T10:44:55.189Z,,,,,,,,,,,,,,,,53,,,,,,,,,,,,,,210.23100000894192,,response,,,99,,,,,,Space,keypress(Space),,,,,---- -- ----- -- ------ - ------- --- ----------<br>------------- ------ ------ ---- ---- ------- ----- -- ----<br>-------- ------- -- ---------- --- - --- ----- ----- ----<br>---- --- --- ----- --- ---- ---- ------- ----- ---- -------<br>--- --- -- ----- -- --- ---- -- --- ---- -- that's ------<br>--- ----- -- ----,56132.30000001192,56131.60000000894,55904.699,55916.60000000894,55921.369,56137.984,,50,that's
screen,html.Screen,0_2_0_1_51,2021-12-03T10:44:55.429Z,,,,,,,,,,,,,,,,53,,,,,,,,,,,,,,233.61600000894396,,response,,,99,,,,,,Space,keypress(Space),,,,,---- -- ----- -- ------ - ------- --- ----------<br>------------- ------ ------ ---- ---- ------- ----- -- ----<br>-------- ------- -- ---------- --- - --- ----- ----- ----<br>---- --- --- ----- --- ---- ---- ------- ----- ---- -------<br>--- --- -- ----- -- --- ---- -- --- ---- -- ------ really<br>--- ----- -- ----,56372.40000000596,56371.60000000894,56121.317,56132.5,56137.984,56388.238,,51,really
screen,html.Screen,0_2_0_1_52,2021-12-03T10:44:55.693Z,,,,,,,,,,,,,,,,53,,,,,,,,,,,,,,247.26200000000244,,response,,,99,,,,,,Space,keypress(Space),,,,,---- -- ----- -- ------ - ------- --- ----------<br>------------- ------ ------ ---- ---- ------- ----- -- ----<br>-------- ------- -- ---------- --- - --- ----- ----- ----<br>---- --- --- ----- --- ---- ---- ------- ----- ---- -------<br>--- --- -- ----- -- --- ---- -- --- ---- -- ------ ------<br>not ----- -- ----,56636.40000000596,56635.5,56371.565,56372.70000000298,56388.238,56638.256,,52,not
screen,html.Screen,0_2_0_1_53,2021-12-03T10:44:55.861Z,,,,,,,,,,,,,,,,53,,,,,,,,,,,,,,165.24399999999878,,response,,,99,,,,,,Space,keypress(Space),,,,,---- -- ----- -- ------ - ------- --- ----------<br>------------- ------ ------ ---- ---- ------- ----- -- ----<br>-------- ------- -- ---------- --- - --- ----- ----- ----<br>---- --- --- ----- --- ---- ---- ------- ----- ---- -------<br>--- --- -- ----- -- --- ---- -- --- ---- -- ------ ------<br>--- close -- ----,56804.30000001192,56803.5,56621.585,56636.60000000894,56638.256,56821.603,,53,close
screen,html.Screen,0_2_0_1_54,2021-12-03T10:44:56.109Z,,,,,,,,,,,,,,,,53,,,,,,,,,,,,,,229.8969999999972,,response,,,99,,,,,,Space,keypress(Space),,,,,---- -- ----- -- ------ - ------- --- ----------<br>------------- ------ ------ ---- ---- ------- ----- -- ----<br>-------- ------- -- ---------- --- - --- ----- ----- ----<br>---- --- --- ----- --- ---- ---- ------- ----- ---- -------<br>--- --- -- ----- -- --- ---- -- --- ---- -- ------ ------<br>--- ----- at ----,57052.30000001192,57051.5,56804.933,56804.5,56821.603,57054.996,,54,at
screen,html.Screen,0_2_0_1_55,2021-12-03T10:44:56.325Z,,,,,,,,,,,,,,,,53,,,,,,,,,,,,,,212.50400000000081,,response,,,99,,,,,,Space,keypress(Space),,,,,---- -- ----- -- ------ - ------- --- ----------<br>------------- ------ ------ ---- ---- ------- ----- -- ----<br>-------- ------- -- ---------- --- - --- ----- ----- ----<br>---- --- --- ----- --- ---- ---- ------- ----- ---- -------<br>--- --- -- ----- -- --- ---- -- --- ---- -- ------ ------<br>--- ----- -- all.,57268.40000000596,57267.5,57038.326,57052.5,57054.996,57288.303,,55,all.
Item 99,flow.Loop,0_2_0_1,2021-12-03T10:44:56.330Z,,,,,,,,,,,,,,,,,,,,,,,,,,,,,,16933.574999999997,,completion,,,,C,,,,,,,,,,silence,,57273,57267.5,40317.255,40325.10000000894,40333.925,57288.303,,,
Question 1,html.Screen,0_2_0_2,2021-12-03T10:45:00.667Z,,,,,,,,,,,,,,,,,,,,,,,,,,,true,FALSE,,4317.497000011921,,response,,,99,C,,,,,FALSE,click #choice-2,,,,silence,,61607.20000000298,61605.80000001192,57271.635,57273.30000001192,57288.303,61622.817,,,
Question 2,html.Screen,0_2_0_3,2021-12-03T10:45:04.348Z,,,,,,,,,,,,,,,,,,,,,,,,,,,true,TRUE,,3664.1829999999973,,response,,,99,C,,,,,TRUE,click #choice-1,,,,silence,,65288.40000000596,65287,61606.147,61607.5,61622.817,65290.458,,,
Item 99,flow.Sequence,0_2_0,2021-12-03T10:45:04.349Z,,,,,,,,,,,,,,,,,,,,,,,,,,,,,,34959.949,,completion,,,,,,,,,,,,,,,,65288.80000001192,65287,30310.385,30320.20000000298,30327.051,65290.458,,,
Holding screen,html.Screen,0_2_1_0,2021-12-03T10:45:14.337Z,,,,,,,,,,,,,,,,,,,,,,,,,,,,,,10002.463000000003,,timeout,,,,,,,,,,,,,,,,75277.20000000298,75276.251,65273.788,65289.10000000894,65290.458,75292.921,,,
screen,html.Screen,0_2_1_1_0,2021-12-03T10:45:15.296Z,,,,,,,,,,,,,,,,54,,,,,,,,,,,,,,942.0789999999979,,response,,,100,,,,,,Space,keypress(Space),,,,,At --- ---- --- ------ ----- ------- ---- -- --- ------- --<br>------- ---------- ------ -- ----- -- ----- -- ---- ------<br>--- ----- --- --- ------ -------- ----- --- ------ ----- --<br>----- ----- ---------- --- --- ------ ------ ---- -- ------<br>------- --- ------ ----- --- ---- ------- -- ---- --- --<br>------- ------,76236,76235,75276.251,75277.60000000894,75292.921,76243.296,,0,At
screen,html.Screen,0_2_1_1_1,2021-12-03T10:45:15.639Z,,,,,,,,,,,,,,,,54,,,,,,,,,,,,,,335.10400000595837,,response,,,100,,,,,,Space,keypress(Space),,,,,-- the ---- --- ------ ----- ------- ---- -- --- ------- --<br>------- ---------- ------ -- ----- -- ----- -- ---- ------<br>--- ----- --- --- ------ -------- ----- --- ------ ----- --<br>----- ----- ---------- --- --- ------ ------ ---- -- ------<br>------- --- ------ ----- --- ---- ------- -- ---- --- --<br>------- ------,76579.20000000298,76578.40000000596,76226.625,76236.20000000298,76243.296,76593.349,,1,the
screen,html.Screen,0_2_1_1_2,2021-12-03T10:45:16.639Z,,,,,,,,,,,,,,,,54,,,,,,,,,,,,,,985.0510000059585,,response,,,100,,,,,,Space,keypress(Space),,,,,-- --- time --- ------ ----- ------- ---- -- --- ------- --<br>------- ---------- ------ -- ----- -- ----- -- ---- ------<br>--- ----- --- --- ------ -------- ----- --- ------ ----- --<br>----- ----- ---------- --- --- ------ ------ ---- -- ------<br>------- --- ------ ----- --- ---- ------- -- ---- --- --<br>------- ------,77579.20000000298,77578.40000000596,76576.679,76579.5,76593.349,77593.575,,2,time
screen,html.Screen,0_2_1_1_3,2021-12-03T10:45:16.999Z,,,,,,,,,,,,,,,,54,,,,,,,,,,,,,,344.8250000059634,,response,,,100,,,,,,Space,keypress(Space),,,,,-- --- ---- the ------ ----- ------- ---- -- --- ------- --<br>------- ---------- ------ -- ----- -- ----- -- ---- ------<br>--- ----- --- --- ------ -------- ----- --- ------ ----- --<br>----- ----- ---------- --- --- ------ ------ ---- -- ------<br>------- --- ------ ----- --- ---- ------- -- ---- --- --<br>------- ------,77939.20000000298,77938.40000000596,77576.905,77579.5,77593.575,77943.703,,3,the
screen,html.Screen,0_2_1_1_4,2021-12-03T10:45:17.359Z,,,,,,,,,,,,,,,,54,,,,,,,,,,,,,,354.6970000059664,,response,,,100,,,,,,Space,keypress(Space),,,,,-- --- ---- --- French ----- ------- ---- -- --- ------- --<br>------- ---------- ------ -- ----- -- ----- -- ---- ------<br>--- ----- --- --- ------ -------- ----- --- ------ ----- --<br>----- ----- ---------- --- --- ------ ------ ---- -- ------<br>------- --- ------ ----- --- ---- ------- -- ---- --- --<br>------- ------,78299.20000000298,78298.40000000596,77927.033,77939.5,77943.703,78310.414,,4,French
screen,html.Screen,0_2_1_1_5,2021-12-03T10:45:17.695Z,,,,,,,,,,,,,,,,54,,,,,,,,,,,,,,323.98600000595616,,response,,,100,,,,,,Space,keypress(Space),,,,,-- --- ---- --- ------ crown ------- ---- -- --- ------- --<br>------- ---------- ------ -- ----- -- ----- -- ---- ------<br>--- ----- --- --- ------ -------- ----- --- ------ ----- --<br>----- ----- ---------- --- --- ------ ------ ---- -- ------<br>------- --- ------ ----- --- ---- ------- -- ---- --- --<br>------- ------,78635.10000000894,78634.40000000596,78293.745,78301,78310.414,78643.918,,5,crown
screen,html.Screen,0_2_1_1_6,2021-12-03T10:45:18.127Z,,,,,,,,,,,,,,,,54,,,,,,,,,,,,,,422.3820000119158,,response,,,100,,,,,,Space,keypress(Space),,,,,-- --- ---- --- ------ ----- secured ---- -- --- ------- --<br>------- ---------- ------ -- ----- -- ----- -- ---- ------<br>--- ----- --- --- ------ -------- ----- --- ------ ----- --<br>----- ----- ---------- --- --- ------ ------ ---- -- ------<br>------- --- ------ ----- --- ---- ------- -- ---- --- --<br>------- ------,79067.10000000894,79066.30000001192,78627.247,78635.40000000596,78643.918,79077.326,,6,secured
screen,html.Screen,0_2_1_1_7,2021-12-03T10:45:18.527Z,,,,,,,,,,,,,,,,54,,,,,,,,,,,,,,388.97400001192,,response,,,100,,,,,,Space,keypress(Space),,,,,-- --- ---- --- ------ ----- ------- much -- --- ------- --<br>------- ---------- ------ -- ----- -- ----- -- ---- ------<br>--- ----- --- --- ------ -------- ----- --- ------ ----- --<br>----- ----- ---------- --- --- ------ ------ ---- -- ------<br>------- --- ------ ----- --- ---- ------- -- ---- --- --<br>------- ------,79467.10000000894,79466.30000001192,79060.656,79067.30000001192,79077.326,79477.482,,7,much
screen,html.Screen,0_2_1_1_8,2021-12-03T10:45:18.927Z,,,,,,,,,,,,,,,,54,,,,,,,,,,,,,,388.7180000029766,,response,,,100,,,,,,Space,keypress(Space),,,,,-- --- ---- --- ------ ----- ------- ---- of --- ------- --<br>------- ---------- ------ -- ----- -- ----- -- ---- ------<br>--- ----- --- --- ------ -------- ----- --- ------ ----- --<br>----- ----- ---------- --- --- ------ ------ ---- -- ------<br>------- --- ------ ----- --- ---- ------- -- ---- --- --<br>------- ------,79867,79866.20000000298,79460.811,79467.30000001192,79477.482,79877.483,,8,of
screen,html.Screen,0_2_1_1_9,2021-12-03T10:45:19.191Z,,,,,,,,,,,,,,,,54,,,,,,,,,,,,,,252.71700000298733,,response,,,100,,,,,,Space,keypress(Space),,,,,-- --- ---- --- ------ ----- ------- ---- -- its ------- --<br>------- ---------- ------ -- ----- -- ----- -- ---- ------<br>--- ----- --- --- ------ -------- ----- --- ------ ----- --<br>----- ----- ---------- --- --- ------ ------ ---- -- ------<br>------- --- ------ ----- --- ---- ------- -- ---- --- --<br>------- ------,80130.90000000596,80130.20000000298,79860.814,79867.30000001192,79877.483,80144.274,,9,its
screen,html.Screen,0_2_1_1_10,2021-12-03T10:45:19.455Z,,,,,,,,,,,,,,,,54,,,,,,,,,,,,,,249.92600000297534,,response,,,100,,,,,,Space,keypress(Space),,,,,-- --- ---- --- ------ ----- ------- ---- -- --- revenue --<br>------- ---------- ------ -- ----- -- ----- -- ---- ------<br>--- ----- --- --- ------ -------- ----- --- ------ ----- --<br>----- ----- ---------- --- --- ------ ------ ---- -- ------<br>------- --- ------ ----- --- ---- ------- -- ---- --- --<br>------- ------,80395,80394.20000000298,80127.604,80131.20000000298,80144.274,80411.058,,10,revenue
screen,html.Screen,0_2_1_1_11,2021-12-03T10:45:19.879Z,,,,,,,,,,,,,,,,54,,,,,,,,,,,,,,407.1420000029757,,response,,,100,,,,,,Space,keypress(Space),,,,,-- --- ---- --- ------ ----- ------- ---- -- --- ------- by<br>------- ---------- ------ -- ----- -- ----- -- ---- ------<br>--- ----- --- --- ------ -------- ----- --- ------ ----- --<br>----- ----- ---------- --- --- ------ ------ ---- -- ------<br>------- --- ------ ----- --- ---- ------- -- ---- --- --<br>------- ------,80819,80818.20000000298,80394.387,80395.30000001192,80411.058,80827.745,,11,by
screen,html.Screen,0_2_1_1_12,2021-12-03T10:45:20.287Z,,,,,,,,,,,,,,,,54,,,,,,,,,,,,,,398.4550000029849,,response,,,100,,,,,,Space,keypress(Space),,,,,-- --- ---- --- ------ ----- ------- ---- -- --- ------- --<br>issuing ---------- ------ -- ----- -- ----- -- ---- ------<br>--- ----- --- --- ------ -------- ----- --- ------ ----- --<br>----- ----- ---------- --- --- ------ ------ ---- -- ------<br>------- --- ------ ----- --- ---- ------- -- ---- --- --<br>------- ------,81227,81226.20000000298,80811.076,80819.30000001192,80827.745,81227.829,,12,issuing
screen,html.Screen,0_2_1_1_13,2021-12-03T10:45:20.623Z,,,,,,,,,,,,,,,,54,,,,,,,,,,,,,,334.2710000089428,,response,,,100,,,,,,Space,keypress(Space),,,,,-- --- ---- --- ------ ----- ------- ---- -- --- ------- --<br>------- government ------ -- ----- -- ----- -- ---- ------<br>--- ----- --- --- ------ -------- ----- --- ------ ----- --<br>----- ----- ---------- --- --- ------ ------ ---- -- ------<br>------- --- ------ ----- --- ---- ------- -- ---- --- --<br>------- ------,81562.90000000596,81562.10000000894,81211.16,81227.20000000298,81227.829,81577.956,,13,government
screen,html.Screen,0_2_1_1_14,2021-12-03T10:45:21.023Z,,,,,,,,,,,,,,,,54,,,,,,,,,,,,,,384.1440000089351,,response,,,100,,,,,,Space,keypress(Space),,,,,-- --- ---- --- ------ ----- ------- ---- -- --- ------- --<br>------- ---------- bonds. -- ----- -- ----- -- ---- ------<br>--- ----- --- --- ------ -------- ----- --- ------ ----- --<br>----- ----- ---------- --- --- ------ ------ ---- -- ------<br>------- --- ------ ----- --- ---- ------- -- ---- --- --<br>------- ------,81962.90000000596,81962.10000000894,81561.286,81563.10000000894,81577.956,81978.128,,14,bonds.
screen,html.Screen,0_2_1_1_15,2021-12-03T10:45:21.575Z,,,,,,,,,,,,,,,,54,,,,,,,,,,,,,,535.9720000089437,,response,,,100,,,,,,Space,keypress(Space),,,,,-- --- ---- --- ------ ----- ------- ---- -- --- ------- --<br>------- ---------- ------ In ----- -- ----- -- ---- ------<br>--- ----- --- --- ------ -------- ----- --- ------ ----- --<br>----- ----- ---------- --- --- ------ ------ ---- -- ------<br>------- --- ------ ----- --- ---- ------- -- ---- --- --<br>------- ------,82514.80000001192,82514.10000000894,81961.457,81963.20000000298,81978.128,82528.147,,15,In
screen,html.Screen,0_2_1_1_16,2021-12-03T10:45:21.871Z,,,,,,,,,,,,,,,,54,,,,,,,,,,,,,,281.8530000000028,,response,,,100,,,,,,Space,keypress(Space),,,,,"-- --- ---- --- ------ ----- ------- ---- -- --- ------- --<br>------- ---------- ------ -- 1727, -- ----- -- ---- ------<br>--- ----- --- --- ------ -------- ----- --- ------ ----- --<br>----- ----- ---------- --- --- ------ ------ ---- -- ------<br>------- --- ------ ----- --- ---- ------- -- ---- --- --<br>------- ------",82810.80000001192,82810,82511.478,82515.10000000894,82528.147,82828.295,,16,"1727,"
screen,html.Screen,0_2_1_1_17,2021-12-03T10:45:22.455Z,,,,,,,,,,,,,,,,54,,,,,,,,,,,,,,565.7050000000017,,response,,,100,,,,,,Space,keypress(Space),,,,,-- --- ---- --- ------ ----- ------- ---- -- --- ------- --<br>------- ---------- ------ -- ----- in ----- -- ---- ------<br>--- ----- --- --- ------ -------- ----- --- ------ ----- --<br>----- ----- ---------- --- --- ------ ------ ---- -- ------<br>------- --- ------ ----- --- ---- ------- -- ---- --- --<br>------- ------,83394.80000001192,83394,82811.625,82811,82828.295,83411.755,,17,in
screen,html.Screen,0_2_1_1_18,2021-12-03T10:45:22.951Z,,,,,,,,,,,,,,,,54,,,,,,,,,,,,,,478.24499999999534,,response,,,100,,,,,,Space,keypress(Space),,,,,-- --- ---- --- ------ ----- ------- ---- -- --- ------- --<br>------- ---------- ------ -- ----- -- order -- ---- ------<br>--- ----- --- --- ------ -------- ----- --- ------ ----- --<br>----- ----- ---------- --- --- ------ ------ ---- -- ------<br>------- --- ------ ----- --- ---- ------- -- ---- --- --<br>------- ------,83890.80000001192,83890,83395.085,83395,83411.755,83895.267,,18,order
screen,html.Screen,0_2_1_1_19,2021-12-03T10:45:23.231Z,,,,,,,,,,,,,,,,54,,,,,,,,,,,,,,274.63300000595336,,response,,,100,,,,,,Space,keypress(Space),,,,,-- --- ---- --- ------ ----- ------- ---- -- --- ------- --<br>------- ---------- ------ -- ----- -- ----- to ---- ------<br>--- ----- --- --- ------ -------- ----- --- ------ ----- --<br>----- ----- ---------- --- --- ------ ------ ---- -- ------<br>------- --- ------ ----- --- ---- ------- -- ---- --- --<br>------- ------,84170.70000000298,84169.90000000596,83878.596,83890.90000000596,83895.267,84178.626,,19,to
screen,html.Screen,0_2_1_1_20,2021-12-03T10:45:23.615Z,,,,,,,,,,,,,,,,54,,,,,,,,,,,,,,375.2740000059566,,response,,,100,,,,,,Space,keypress(Space),,,,,-- --- ---- --- ------ ----- ------- ---- -- --- ------- --<br>------- ---------- ------ -- ----- -- ----- -- save ------<br>--- ----- --- --- ------ -------- ----- --- ------ ----- --<br>----- ----- ---------- --- --- ------ ------ ---- -- ------<br>------- --- ------ ----- --- ---- ------- -- ---- --- --<br>------- ------,84554.70000000298,84553.90000000596,84161.956,84170.90000000596,84178.626,84562.098,,20,save
screen,html.Screen,0_2_1_1_21,2021-12-03T10:45:23.959Z,,,,,,,,,,,,,,,,54,,,,,,,,,,,,,,335.90200000000186,,response,,,100,,,,,,Space,keypress(Space),,,,,"-- --- ---- --- ------ ----- ------- ---- -- --- ------- --<br>------- ---------- ------ -- ----- -- ----- -- ---- money,<br>--- ----- --- --- ------ -------- ----- --- ------ ----- --<br>----- ----- ---------- --- --- ------ ------ ---- -- ------<br>------- --- ------ ----- --- ---- ------- -- ---- --- --<br>------- ------",84898.70000000298,84898,84545.427,84555,84562.098,84912.194,,21,"money,"
screen,html.Screen,0_2_1_1_22,2021-12-03T10:45:24.279Z,,,,,,,,,,,,,,,,54,,,,,,,,,,,,,,305.7060000059573,,response,,,100,,,,,,Space,keypress(Space),,,,,-- --- ---- --- ------ ----- ------- ---- -- --- ------- --<br>------- ---------- ------ -- ----- -- ----- -- ---- ------<br>the ----- --- --- ------ -------- ----- --- ------ ----- --<br>----- ----- ---------- --- --- ------ ------ ---- -- ------<br>------- --- ------ ----- --- ---- ------- -- ---- --- --<br>------- ------,85218.70000000298,85217.90000000596,84895.523,84898.90000000596,84912.194,85228.891,,22,the
screen,html.Screen,0_2_1_1_23,2021-12-03T10:45:24.535Z,,,,,,,,,,,,,,,,54,,,,,,,,,,,,,,245.0090000059572,,response,,,100,,,,,,Space,keypress(Space),,,,,-- --- ---- --- ------ ----- ------- ---- -- --- ------- --<br>------- ---------- ------ -- ----- -- ----- -- ---- ------<br>--- state --- --- ------ -------- ----- --- ------ ----- --<br>----- ----- ---------- --- --- ------ ------ ---- -- ------<br>------- --- ------ ----- --- ---- ------- -- ---- --- --<br>------- ------,85474.70000000298,85473.90000000596,85212.221,85218.90000000596,85228.891,85479.008,,23,state
screen,html.Screen,0_2_1_1_24,2021-12-03T10:45:24.927Z,,,,,,,,,,,,,,,,54,,,,,,,,,,,,,,386.89200000595883,,response,,,100,,,,,,Space,keypress(Space),,,,,-- --- ---- --- ------ ----- ------- ---- -- --- ------- --<br>------- ---------- ------ -- ----- -- ----- -- ---- ------<br>--- ----- cut --- ------ -------- ----- --- ------ ----- --<br>----- ----- ---------- --- --- ------ ------ ---- -- ------<br>------- --- ------ ----- --- ---- ------- -- ---- --- --<br>------- ------,85866.70000000298,85865.90000000596,85462.337,85474.90000000596,85479.008,85879.079,,24,cut
screen,html.Screen,0_2_1_1_25,2021-12-03T10:45:25.279Z,,,,,,,,,,,,,,,,54,,,,,,,,,,,,,,338.82100000596256,,response,,,100,,,,,,Space,keypress(Space),,,,,-- --- ---- --- ------ ----- ------- ---- -- --- ------- --<br>------- ---------- ------ -- ----- -- ----- -- ---- ------<br>--- ----- --- the ------ -------- ----- --- ------ ----- --<br>----- ----- ---------- --- --- ------ ------ ---- -- ------<br>------- --- ------ ----- --- ---- ------- -- ---- --- --<br>------- ------,86218.70000000298,86217.90000000596,85862.409,85866.90000000596,85879.079,86229.04,,25,the
screen,html.Screen,0_2_1_1_26,2021-12-03T10:45:25.631Z,,,,,,,,,,,,,,,,54,,,,,,,,,,,,,,341.36000000596687,,response,,,100,,,,,,Space,keypress(Space),,,,,-- --- ---- --- ------ ----- ------- ---- -- --- ------- --<br>------- ---------- ------ -- ----- -- ----- -- ---- ------<br>--- ----- --- --- bonds' -------- ----- --- ------ ----- --<br>----- ----- ---------- --- --- ------ ------ ---- -- ------<br>------- --- ------ ----- --- ---- ------- -- ---- --- --<br>------- ------,86571.20000000298,86570.40000000596,86212.372,86218.90000000596,86229.04,86579.339,,26,bonds'
screen,html.Screen,0_2_1_1_27,2021-12-03T10:45:26.111Z,,,,,,,,,,,,,,,,54,,,,,,,,,,,,,,470.361000002973,,response,,,100,,,,,,Space,keypress(Space),,,,,-- --- ---- --- ------ ----- ------- ---- -- --- ------- --<br>------- ---------- ------ -- ----- -- ----- -- ---- ------<br>--- ----- --- --- ------ interest ----- --- ------ ----- --<br>----- ----- ---------- --- --- ------ ------ ---- -- ------<br>------- --- ------ ----- --- ---- ------- -- ---- --- --<br>------- ------,87050.5,87049.70000000298,86562.667,86571.40000000596,86579.339,87062.752,,27,interest
screen,html.Screen,0_2_1_1_28,2021-12-03T10:45:26.455Z,,,,,,,,,,,,,,,,54,,,,,,,,,,,,,,331.0480000119278,,response,,,100,,,,,,Space,keypress(Space),,,,,-- --- ---- --- ------ ----- ------- ---- -- --- ------- --<br>------- ---------- ------ -- ----- -- ----- -- ---- ------<br>--- ----- --- --- ------ -------- rate. --- ------ ----- --<br>----- ----- ---------- --- --- ------ ------ ---- -- ------<br>------- --- ------ ----- --- ---- ------- -- ---- --- --<br>------- ------,87394.70000000298,87393.80000001192,87046.081,87050.80000001192,87062.752,87396.129,,28,rate.
screen,html.Screen,0_2_1_1_29,2021-12-03T10:45:26.799Z,,,,,,,,,,,,,,,,54,,,,,,,,,,,,,,341.6710000119201,,response,,,100,,,,,,Space,keypress(Space),,,,,-- --- ---- --- ------ ----- ------- ---- -- --- ------- --<br>------- ---------- ------ -- ----- -- ----- -- ---- ------<br>--- ----- --- --- ------ -------- ----- The ------ ----- --<br>----- ----- ---------- --- --- ------ ------ ---- -- ------<br>------- --- ------ ----- --- ---- ------- -- ---- --- --<br>------- ------,87738.60000000894,87737.80000001192,87379.459,87394.80000001192,87396.129,87746.15,,29,The
screen,html.Screen,0_2_1_1_30,2021-12-03T10:45:27.095Z,,,,,,,,,,,,,,,,54,,,,,,,,,,,,,,287.65000001192675,,response,,,100,,,,,,Space,keypress(Space),,,,,-- --- ---- --- ------ ----- ------- ---- -- --- ------- --<br>------- ---------- ------ -- ----- -- ----- -- ---- ------<br>--- ----- --- --- ------ -------- ----- --- market ----- --<br>----- ----- ---------- --- --- ------ ------ ---- -- ------<br>------- --- ------ ----- --- ---- ------- -- ---- --- --<br>------- ------,88034.60000000894,88033.80000001192,87729.481,87738.90000000596,87746.15,88046.251,,30,market
screen,html.Screen,0_2_1_1_31,2021-12-03T10:45:27.335Z,,,,,,,,,,,,,,,,54,,,,,,,,,,,,,,227.5490000119171,,response,,,100,,,,,,Space,keypress(Space),,,,,-- --- ---- --- ------ ----- ------- ---- -- --- ------- --<br>------- ---------- ------ -- ----- -- ----- -- ---- ------<br>--- ----- --- --- ------ -------- ----- --- ------ value --<br>----- ----- ---------- --- --- ------ ------ ---- -- ------<br>------- --- ------ ----- --- ---- ------- -- ---- --- --<br>------- ------,88274.60000000894,88273.80000001192,88029.581,88034.90000000596,88046.251,88279.733,,31,value
screen,html.Screen,0_2_1_1_32,2021-12-03T10:45:27.639Z,,,,,,,,,,,,,,,,54,,,,,,,,,,,,,,297.96700000298733,,response,,,100,,,,,,Space,keypress(Space),,,,,-- --- ---- --- ------ ----- ------- ---- -- --- ------- --<br>------- ---------- ------ -- ----- -- ----- -- ---- ------<br>--- ----- --- --- ------ -------- ----- --- ------ ----- of<br>----- ----- ---------- --- --- ------ ------ ---- -- ------<br>------- --- ------ ----- --- ---- ------- -- ---- --- --<br>------- ------,88578.5,88577.70000000298,88263.061,88274.80000001192,88279.733,88579.807,,32,of
screen,html.Screen,0_2_1_1_33,2021-12-03T10:45:27.983Z,,,,,,,,,,,,,,,,54,,,,,,,,,,,,,,341.89300000297953,,response,,,100,,,,,,Space,keypress(Space),,,,,-- --- ---- --- ------ ----- ------- ---- -- --- ------- --<br>------- ---------- ------ -- ----- -- ----- -- ---- ------<br>--- ----- --- --- ------ -------- ----- --- ------ ----- --<br>these ----- ---------- --- --- ------ ------ ---- -- ------<br>------- --- ------ ----- --- ---- ------- -- ---- --- --<br>------- ------,88922.5,88921.70000000298,88563.136,88578.80000001192,88579.807,88929.856,,33,these
screen,html.Screen,0_2_1_1_34,2021-12-03T10:45:28.279Z,,,,,,,,,,,,,,,,54,,,,,,,,,,,,,,287.84400000298047,,response,,,100,,,,,,Space,keypress(Space),,,,,-- --- ---- --- ------ ----- ------- ---- -- --- ------- --<br>------- ---------- ------ -- ----- -- ----- -- ---- ------<br>--- ----- --- --- ------ -------- ----- --- ------ ----- --<br>----- bonds ---------- --- --- ------ ------ ---- -- ------<br>------- --- ------ ----- --- ---- ------- -- ---- --- --<br>------- ------,89218.5,89217.70000000298,88913.186,88922.80000001192,88929.856,89229.969,,34,bonds
screen,html.Screen,0_2_1_1_35,2021-12-03T10:45:28.575Z,,,,,,,,,,,,,,,,54,,,,,,,,,,,,,,283.8310000119236,,response,,,100,,,,,,Space,keypress(Space),,,,,"-- --- ---- --- ------ ----- ------- ---- -- --- ------- --<br>------- ---------- ------ -- ----- -- ----- -- ---- ------<br>--- ----- --- --- ------ -------- ----- --- ------ ----- --<br>----- ----- plummeted, --- --- ------ ------ ---- -- ------<br>------- --- ------ ----- --- ---- ------- -- ---- --- --<br>------- ------",89514.60000000894,89513.80000001192,89213.298,89218.80000001192,89229.969,89530.051,,35,"plummeted,"
screen,html.Screen,0_2_1_1_36,2021-12-03T10:45:28.855Z,,,,,,,,,,,,,,,,54,,,,,,,,,,,,,,263.6490000029735,,response,,,100,,,,,,Space,keypress(Space),,,,,-- --- ---- --- ------ ----- ------- ---- -- --- ------- --<br>------- ---------- ------ -- ----- -- ----- -- ---- ------<br>--- ----- --- --- ------ -------- ----- --- ------ ----- --<br>----- ----- ---------- and --- ------ ------ ---- -- ------<br>------- --- ------ ----- --- ---- ------- -- ---- --- --<br>------- ------,89794.5,89793.70000000298,89513.38,89514.80000001192,89530.051,89796.755,,36,and
screen,html.Screen,0_2_1_1_37,2021-12-03T10:45:29.158Z,,,,,,,,,,,,,,,,54,,,,,,,,,,,,,,300.84500000893604,,response,,,100,,,,,,Space,keypress(Space),,,,,-- --- ---- --- ------ ----- ------- ---- -- --- ------- --<br>------- ---------- ------ -- ----- -- ----- -- ---- ------<br>--- ----- --- --- ------ -------- ----- --- ------ ----- --<br>----- ----- ---------- --- the ------ ------ ---- -- ------<br>------- --- ------ ----- --- ---- ------- -- ---- --- --<br>------- ------,90098.40000000596,90097.60000000894,89780.085,89794.80000001192,89796.755,90113.505,,37,the
screen,html.Screen,0_2_1_1_38,2021-12-03T10:45:29.454Z,,,,,,,,,,,,,,,,54,,,,,,,,,,,,,,280.1950000029756,,response,,,100,,,,,,Space,keypress(Space),,,,,-- --- ---- --- ------ ----- ------- ---- -- --- ------- --<br>------- ---------- ------ -- ----- -- ----- -- ---- ------<br>--- ----- --- --- ------ -------- ----- --- ------ ----- --<br>----- ----- ---------- --- --- market ------ ---- -- ------<br>------- --- ------ ----- --- ---- ------- -- ---- --- --<br>------- ------,90394.5,90393.70000000298,90096.835,90098.60000000894,90113.505,90396.941,,38,market
screen,html.Screen,0_2_1_1_39,2021-12-03T10:45:29.718Z,,,,,,,,,,,,,,,,54,,,,,,,,,,,,,,260.6590000089345,,response,,,100,,,,,,Space,keypress(Space),,,,,-- --- ---- --- ------ ----- ------- ---- -- --- ------- --<br>------- ---------- ------ -- ----- -- ----- -- ---- ------<br>--- ----- --- --- ------ -------- ----- --- ------ ----- --<br>----- ----- ---------- --- --- ------ became ---- -- ------<br>------- --- ------ ----- --- ---- ------- -- ---- --- --<br>------- ------,90658.40000000596,90657.60000000894,90380.27,90394.70000000298,90396.941,90663.646,,39,became
screen,html.Screen,0_2_1_1_40,2021-12-03T10:45:29.814Z,,,,,,,,,,,,,,,,54,,,,,,,,,,,,,,89.95400000894733,,response,,,100,,,,,,Space,keypress(Space),,,,,-- --- ---- --- ------ ----- ------- ---- -- --- ------- --<br>------- ---------- ------ -- ----- -- ----- -- ---- ------<br>--- ----- --- --- ------ -------- ----- --- ------ ----- --<br>----- ----- ---------- --- --- ------ ------ wary -- ------<br>------- --- ------ ----- --- ---- ------- -- ---- --- --<br>------- ------,90754.40000000596,90753.60000000894,90646.976,90658.60000000894,90663.646,90763.704,,40,wary
screen,html.Screen,0_2_1_1_41,2021-12-03T10:45:30.118Z,,,,,,,,,,,,,,,,54,,,,,,,,,,,,,,293.9960000029823,,response,,,100,,,,,,Space,keypress(Space),,,,,-- --- ---- --- ------ ----- ------- ---- -- --- ------- --<br>------- ---------- ------ -- ----- -- ----- -- ---- ------<br>--- ----- --- --- ------ -------- ----- --- ------ ----- --<br>----- ----- ---------- --- --- ------ ------ ---- of ------<br>------- --- ------ ----- --- ---- ------- -- ---- --- --<br>------- ------,91058.40000000596,91057.70000000298,90747.033,90754.70000000298,90763.704,91063.751,,41,of
screen,html.Screen,0_2_1_1_42,2021-12-03T10:45:30.240Z,,,,,,,,,,,,,,,,54,,,,,,,,,,,,,,113.94900000297639,,response,,,100,,,,,,Space,keypress(Space),,,,,-- --- ---- --- ------ ----- ------- ---- -- --- ------- --<br>------- ---------- ------ -- ----- -- ----- -- ---- ------<br>--- ----- --- --- ------ -------- ----- --- ------ ----- --<br>----- ----- ---------- --- --- ------ ------ ---- -- French<br>------- --- ------ ----- --- ---- ------- -- ---- --- --<br>------- ------,91179.5,91177.70000000298,91047.081,91058.70000000298,91063.751,91196.911,,42,French
screen,html.Screen,0_2_1_1_43,2021-12-03T10:45:30.830Z,,,,,,,,,,,,,,,,54,,,,,,,,,,,,,,572.6890000089479,,response,,,100,,,,,,Space,keypress(Space),,,,,-- --- ---- --- ------ ----- ------- ---- -- --- ------- --<br>------- ---------- ------ -- ----- -- ----- -- ---- ------<br>--- ----- --- --- ------ -------- ----- --- ------ ----- --<br>----- ----- ---------- --- --- ------ ------ ---- -- ------<br>credit. --- ------ ----- --- ---- ------- -- ---- --- --<br>------- ------,91770.40000000596,91769.60000000894,91180.248,91179.90000000596,91196.911,91780.67,,43,credit.
screen,html.Screen,0_2_1_1_44,2021-12-03T10:45:31.270Z,,,,,,,,,,,,,,,,54,,,,,,,,,,,,,,428.93000000894244,,response,,,100,,,,,,Space,keypress(Space),,,,,-- --- ---- --- ------ ----- ------- ---- -- --- ------- --<br>------- ---------- ------ -- ----- -- ----- -- ---- ------<br>--- ----- --- --- ------ -------- ----- --- ------ ----- --<br>----- ----- ---------- --- --- ------ ------ ---- -- ------<br>------- The ------ ----- --- ---- ------- -- ---- --- --<br>------- ------,92210.30000001192,92209.60000000894,91763.998,91770.60000000894,91780.67,92214.014,,44,The
screen,html.Screen,0_2_1_1_45,2021-12-03T10:45:31.558Z,,,,,,,,,,,,,,,,54,,,,,,,,,,,,,,283.5860000089451,,response,,,100,,,,,,Space,keypress(Space),,,,,-- --- ---- --- ------ ----- ------- ---- -- --- ------- --<br>------- ---------- ------ -- ----- -- ----- -- ---- ------<br>--- ----- --- --- ------ -------- ----- --- ------ ----- --<br>----- ----- ---------- --- --- ------ ------ ---- -- ------<br>------- --- French ----- --- ---- ------- -- ---- --- --<br>------- ------,92498.40000000596,92497.60000000894,92197.344,92210.60000000894,92214.014,92514.127,,45,French
screen,html.Screen,0_2_1_1_46,2021-12-03T10:45:31.830Z,,,,,,,,,,,,,,,,54,,,,,,,,,,,,,,255.37300000000687,,response,,,100,,,,,,Space,keypress(Space),,,,,-- --- ---- --- ------ ----- ------- ---- -- --- ------- --<br>------- ---------- ------ -- ----- -- ----- -- ---- ------<br>--- ----- --- --- ------ -------- ----- --- ------ ----- --<br>----- ----- ---------- --- --- ------ ------ ---- -- ------<br>------- --- ------ state --- ---- ------- -- ---- --- --<br>------- ------,92770.30000001192,92769.5,92497.457,92498.60000000894,92514.127,92780.786,,46,state
screen,html.Screen,0_2_1_1_47,2021-12-03T10:45:32.158Z,,,,,,,,,,,,,,,,54,,,,,,,,,,,,,,316.6140000059677,,response,,,100,,,,,,Space,keypress(Space),,,,,-- --- ---- --- ------ ----- ------- ---- -- --- ------- --<br>------- ---------- ------ -- ----- -- ----- -- ---- ------<br>--- ----- --- --- ------ -------- ----- --- ------ ----- --<br>----- ----- ---------- --- --- ------ ------ ---- -- ------<br>------- --- ------ ----- was ---- ------- -- ---- --- --<br>------- ------,93098.20000000298,93097.40000000596,92764.117,92770.60000000894,92780.786,93114.34,,47,was
screen,html.Screen,0_2_1_1_48,2021-12-03T10:45:32.446Z,,,,,,,,,,,,,,,,54,,,,,,,,,,,,,,271.1600000000035,,response,,,100,,,,,,Space,keypress(Space),,,,,-- --- ---- --- ------ ----- ------- ---- -- --- ------- --<br>------- ---------- ------ -- ----- -- ----- -- ---- ------<br>--- ----- --- --- ------ -------- ----- --- ------ ----- --<br>----- ----- ---------- --- --- ------ ------ ---- -- ------<br>------- --- ------ ----- --- left ------- -- ---- --- --<br>------- ------,93386.30000001192,93385.5,93097.668,93098.5,93114.34,93397.673,,48,left
screen,html.Screen,0_2_1_1_49,2021-12-03T10:45:32.814Z,,,,,,,,,,,,,,,,54,,,,,,,,,,,,,,355.8270000000048,,response,,,100,,,,,,Space,keypress(Space),,,,,-- --- ---- --- ------ ----- ------- ---- -- --- ------- --<br>------- ---------- ------ -- ----- -- ----- -- ---- ------<br>--- ----- --- --- ------ -------- ----- --- ------ ----- --<br>----- ----- ---------- --- --- ------ ------ ---- -- ------<br>------- --- ------ ----- --- ---- without -- ---- --- --<br>------- ------,93754.30000001192,93753.5,93381.003,93386.5,93397.673,93764.437,,49,without
screen,html.Screen,0_2_1_1_50,2021-12-03T10:45:33.126Z,,,,,,,,,,,,,,,,54,,,,,,,,,,,,,,300.9630000059551,,response,,,100,,,,,,Space,keypress(Space),,,,,-- --- ---- --- ------ ----- ------- ---- -- --- ------- --<br>------- ---------- ------ -- ----- -- ----- -- ---- ------<br>--- ----- --- --- ------ -------- ----- --- ------ ----- --<br>----- ----- ---------- --- --- ------ ------ ---- -- ------<br>------- --- ------ ----- --- ---- ------- an ---- --- --<br>------- ------,94066.20000000298,94065.40000000596,93747.767,93754.5,93764.437,94081.103,,50,an
screen,html.Screen,0_2_1_1_51,2021-12-03T10:45:33.510Z,,,,,,,,,,,,,,,,54,,,,,,,,,,,,,,368.29700000595767,,response,,,100,,,,,,Space,keypress(Space),,,,,-- --- ---- --- ------ ----- ------- ---- -- --- ------- --<br>------- ---------- ------ -- ----- -- ----- -- ---- ------<br>--- ----- --- --- ------ -------- ----- --- ------ ----- --<br>----- ----- ---------- --- --- ------ ------ ---- -- ------<br>------- --- ------ ----- --- ---- ------- -- easy --- --<br>------- ------,94450.20000000298,94449.40000000596,94064.434,94066.40000000596,94081.103,94464.683,,51,easy
screen,html.Screen,0_2_1_1_52,2021-12-03T10:45:33.862Z,,,,,,,,,,,,,,,,54,,,,,,,,,,,,,,336.7170000059559,,response,,,100,,,,,,Space,keypress(Space),,,,,-- --- ---- --- ------ ----- ------- ---- -- --- ------- --<br>------- ---------- ------ -- ----- -- ----- -- ---- ------<br>--- ----- --- --- ------ -------- ----- --- ------ ----- --<br>----- ----- ---------- --- --- ------ ------ ---- -- ------<br>------- --- ------ ----- --- ---- ------- -- ---- way --<br>------- ------,94802.20000000298,94801.40000000596,94448.011,94450.40000000596,94464.683,94814.706,,52,way
screen,html.Screen,0_2_1_1_53,2021-12-03T10:45:34.238Z,,,,,,,,,,,,,,,,54,,,,,,,,,,,,,,362.6940000059549,,response,,,100,,,,,,Space,keypress(Space),,,,,-- --- ---- --- ------ ----- ------- ---- -- --- ------- --<br>------- ---------- ------ -- ----- -- ----- -- ---- ------<br>--- ----- --- --- ------ -------- ----- --- ------ ----- --<br>----- ----- ---------- --- --- ------ ------ ---- -- ------<br>------- --- ------ ----- --- ---- ------- -- ---- --- of<br>------- ------,95178.20000000298,95177.40000000596,94798.036,94802.5,94814.706,95181.466,,53,of
screen,html.Screen,0_2_1_1_54,2021-12-03T10:45:34.606Z,,,,,,,,,,,,,,,,54,,,,,,,,,,,,,,363.9340000059601,,response,,,100,,,,,,Space,keypress(Space),,,,,-- --- ---- --- ------ ----- ------- ---- -- --- ------- --<br>------- ---------- ------ -- ----- -- ----- -- ---- ------<br>--- ----- --- --- ------ -------- ----- --- ------ ----- --<br>----- ----- ---------- --- --- ------ ------ ---- -- ------<br>------- --- ------ ----- --- ---- ------- -- ---- --- --<br>raising ------,95546.20000000298,95545.40000000596,95164.796,95178.40000000596,95181.466,95548.101,,54,raising
screen,html.Screen,0_2_1_1_55,2021-12-03T10:45:37.711Z,,,,,,,,,,,,,,,,54,,,,,,,,,,,,,,3101.699000011926,,response,,,100,,,,,,Space,keypress(Space),,,,,-- --- ---- --- ------ ----- ------- ---- -- --- ------- --<br>------- ---------- ------ -- ----- -- ----- -- ---- ------<br>--- ----- --- --- ------ -------- ----- --- ------ ----- --<br>----- ----- ---------- --- --- ------ ------ ---- -- ------<br>------- --- ------ ----- --- ---- ------- -- ---- --- --<br>------- money.,98650.60000000894,98649.80000001192,95531.433,95546.5,95548.101,98665.952,,55,money.
Item 100,flow.Loop,0_2_1_1,2021-12-03T10:45:37.711Z,,,,,,,,,,,,,,,,,,,,,,,,,,,,,,23356.87900001192,,completion,,,,C,,,,,,,,,,silence,,98651,98649.80000001192,75276.251,75277.40000000596,75292.921,98665.952,,,
Question 1,html.Screen,0_2_1_2,2021-12-03T10:45:40.416Z,,,,,,,,,,,,,,,,,,,,,,,,,,,true,TRUE,,2688.547999999995,,response,,,100,C,,,,,TRUE,click #choice-1,,,,silence,,101355.60000000894,101354.5,98649.28,98651.20000000298,98665.952,101366.468,,,
Question 2,html.Screen,0_2_1_3,2021-12-03T10:45:43.518Z,,,,,,,,,,,,,,,,,,,,,,,,,,,true,FALSE,,3090.7320000029868,,response,,,100,C,,,,,FALSE,click #choice-2,,,,silence,,104458.30000001192,104457.20000000298,101349.797,101355.90000000596,101366.468,104467.188,,,
Item 100,flow.Sequence,0_2_1,2021-12-03T10:45:43.519Z,,,,,,,,,,,,,,,,,,,,,,,,,,,,,,39166.74200000298,,completion,,,,,,,,,,,,,,,,104458.70000000298,104457.20000000298,65273.788,65289,65290.458,104467.188,,,
End of Practice,html.Page,0_2_2,2021-12-03T10:45:59.473Z,,,,,,,,,,,,,,,,,,,,,,,,,,,,,,15941.712000005966,,form submission,,,,,,,,,,,,,,,,120409.30000001192,120408.90000000596,104450.519,104458.90000000596,104467.188,120420.571,,,
Practice,flow.Sequence,0_2,2021-12-03T10:45:59.474Z,,,,,,,,,,,,,,,,,,,,,,,,,,,,,,90081.84900000595,,completion,,,,,,,,,,,,,,,,120409.70000000298,120408.90000000596,30310.385,30320.10000000894,30327.051,120420.571,,,
Trap_instruction,html.Page,0_3_0,2021-12-03T10:46:04.343Z,,,,,,,,,,,,,,,,,,,,,,,,,,,,,,4858.229000011925,,form submission,,,,,,,,,,,,,,,,125279.30000001192,125278.80000001192,120403.915,120410,120420.571,125305.409,,,
trap_trial,html.Screen,0_3_1,2021-12-03T10:46:14.077Z,,,,,,,,,,,,,,,,,,,,,,,,,,,true,1,,9705.891000011921,,response,,,,,,,,,1,click #choice-1,,,,,,135012.70000000298,135011.30000001192,125272.085,125279.5,125305.409,135025.044,,,
end of trap trial,html.Page,0_3_2,2021-12-03T10:46:17.150Z,,,,,,,,,,,,,,,,,,,,,,,,,,,,,,3060.856000005966,,form submission,,,,,,,,,,,,,,,,138086.40000000596,138085.90000000596,135008.372,135013,135025.044,138092.559,,,
Trap 1,flow.Sequence,0_3,2021-12-03T10:46:17.151Z,,,,,,,,,,,,,,,,,,,,,,,,,,,,,,17665.329000005964,,completion,,,,,,,,,,,,,,,,138086.70000000298,138085.90000000596,120403.915,120410,120420.571,138092.559,,,
Standby,html.Page,0_4_0,2021-12-03T10:46:25.143Z,,,,,,,,,,,,,,,,,,,,,,,,,,,,,,8002.008999999991,,timeout,,,,,,,,,,,,,,,,146079.60000000894,146077.897,138075.885,138087,138092.559,146094.568,,,
Holding screen,html.Screen,0_4_1_0_0,2021-12-03T10:46:32.145Z,,,,,,,,,,,,,,,,,,,,,,,,,,,,,,7001.720000000001,,timeout,,,,,,,,,,,,,,,,153081.20000000298,153079.618,146077.897,146079.90000000596,146094.568,153096.288,,,
screen,html.Screen,0_4_1_0_1_0,2021-12-03T10:46:33.079Z,,,,,,,,,,,,,,,,51,,,,,,,,,,,,,,917.8120000089402,,response,,,13,C,,,,,Space,keypress(Space),,,,instrumental,American -------- --- --- ---- --- --- ------ -- --------<br>---- --------- --- ------- ------------ ---------- ---------<br>--- ---------- ------- ---------- ------- -- -------- ----<br>---- --- ------ ----- ------ -- ---- --- ----- -- - -------<br>-------- -- --- --- -- ----- ----------- ----- -----------<br>---- --- ---------- --- ---- --- -- ----------,154015.30000001192,154014.10000000894,153079.618,153081.60000000894,153096.288,154029.96,,0,American
screen,html.Screen,0_4_1_0_1_1,2021-12-03T10:46:33.519Z,,,,,,,,,,,,,,,,51,,,,,,,,,,,,,,424.14000000894885,,response,,,13,C,,,,,Space,keypress(Space),,,,instrumental,-------- industry --- --- ---- --- --- ------ -- --------<br>---- --------- --- ------- ------------ ---------- ---------<br>--- ---------- ------- ---------- ------- -- -------- ----<br>---- --- ------ ----- ------ -- ---- --- ----- -- - -------<br>-------- -- --- --- -- ----- ----------- ----- -----------<br>---- --- ---------- --- ---- --- -- ----------,154455,154454.10000000894,154013.289,154015.5,154029.96,154463.428,,1,industry
screen,html.Screen,0_4_1_0_1_2,2021-12-03T10:46:33.919Z,,,,,,,,,,,,,,,,51,,,,,,,,,,,,,,390.67200000892626,,response,,,13,C,,,,,Space,keypress(Space),,,,instrumental,-------- -------- may --- ---- --- --- ------ -- --------<br>---- --------- --- ------- ------------ ---------- ---------<br>--- ---------- ------- ---------- ------- -- -------- ----<br>---- --- ------ ----- ------ -- ---- --- ----- -- - -------<br>-------- -- --- --- -- ----- ----------- ----- -----------<br>---- --- ---------- --- ---- --- -- ----------,154854.90000000596,154854.10000000894,154446.757,154455.30000001192,154463.428,154863.452,,2,may
screen,html.Screen,0_4_1_0_1_3,2021-12-03T10:46:34.279Z,,,,,,,,,,,,,,,,51,,,,,,,,,,,,,,350.6480000089505,,response,,,13,C,,,,,Space,keypress(Space),,,,instrumental,-------- -------- --- not ---- --- --- ------ -- --------<br>---- --------- --- ------- ------------ ---------- ---------<br>--- ---------- ------- ---------- ------- -- -------- ----<br>---- --- ------ ----- ------ -- ---- --- ----- -- - -------<br>-------- -- --- --- -- ----- ----------- ----- -----------<br>---- --- ---------- --- ---- --- -- ----------,155215,155214.10000000894,154846.782,154855.20000000298,154863.452,155230.279,,3,not
screen,html.Screen,0_4_1_0_1_4,2021-12-03T10:46:34.583Z,,,,,,,,,,,,,,,,51,,,,,,,,,,,,,,287.82100000893115,,response,,,13,C,,,,,Space,keypress(Space),,,,instrumental,-------- -------- --- --- know --- --- ------ -- --------<br>---- --------- --- ------- ------------ ---------- ---------<br>--- ---------- ------- ---------- ------- -- -------- ----<br>---- --- ------ ----- ------ -- ---- --- ----- -- - -------<br>-------- -- --- --- -- ----- ----------- ----- -----------<br>---- --- ---------- --- ---- --- -- ----------,155518.90000000596,155518.10000000894,155213.608,155215.30000001192,155230.279,155530.367,,4,know
screen,html.Screen,0_4_1_0_1_5,2021-12-03T10:46:34.919Z,,,,,,,,,,,,,,,,51,,,,,,,,,,,,,,323.63300000000163,,response,,,13,C,,,,,Space,keypress(Space),,,,instrumental,"-------- -------- --- --- ---- it, --- ------ -- --------<br>---- --------- --- ------- ------------ ---------- ---------<br>--- ---------- ------- ---------- ------- -- -------- ----<br>---- --- ------ ----- ------ -- ---- --- ----- -- - -------<br>-------- -- --- --- -- ----- ----------- ----- -----------<br>---- --- ---------- --- ---- --- -- ----------",155855,155854,155513.696,155519.10000000894,155530.367,155863.746,,5,"it,"
screen,html.Screen,0_4_1_0_1_6,2021-12-03T10:46:35.335Z,,,,,,,,,,,,,,,,51,,,,,,,,,,,,,,406.1540000059467,,response,,,13,C,,,,,Space,keypress(Space),,,,instrumental,-------- -------- --- --- ---- --- but ------ -- --------<br>---- --------- --- ------- ------------ ---------- ---------<br>--- ---------- ------- ---------- ------- -- -------- ----<br>---- --- ------ ----- ------ -- ---- --- ----- -- - -------<br>-------- -- --- --- -- ----- ----------- ----- -----------<br>---- --- ---------- --- ---- --- -- ----------,156270.80000001192,156269.90000000596,155847.076,155855.30000001192,155863.746,156280.557,,6,but
screen,html.Screen,0_4_1_0_1_7,2021-12-03T10:46:35.583Z,,,,,,,,,,,,,,,,51,,,,,,,,,,,,,,237.54300000894,,response,,,13,C,,,,,Space,keypress(Space),,,,instrumental,-------- -------- --- --- ---- --- --- debate -- --------<br>---- --------- --- ------- ------------ ---------- ---------<br>--- ---------- ------- ---------- ------- -- -------- ----<br>---- --- ------ ----- ------ -- ---- --- ----- -- - -------<br>-------- -- --- --- -- ----- ----------- ----- -----------<br>---- --- ---------- --- ---- --- -- ----------,156518.80000001192,156518.10000000894,156263.886,156270.90000000596,156280.557,156530.588,,7,debate
screen,html.Screen,0_4_1_0_1_8,2021-12-03T10:46:36.119Z,,,,,,,,,,,,,,,,51,,,,,,,,,,,,,,523.4120000000112,,response,,,13,C,,,,,Space,keypress(Space),,,,instrumental,-------- -------- --- --- ---- --- --- ------ in --------<br>---- --------- --- ------- ------------ ---------- ---------<br>--- ---------- ------- ---------- ------- -- -------- ----<br>---- --- ------ ----- ------ -- ---- --- ----- -- - -------<br>-------- -- --- --- -- ----- ----------- ----- -----------<br>---- --- ---------- --- ---- --- -- ----------,157054.70000000298,157054,156513.918,156519,156530.588,157064.052,,8,in
screen,html.Screen,0_4_1_0_1_9,2021-12-03T10:46:36.679Z,,,,,,,,,,,,,,,,51,,,,,,,,,,,,,,550.448000000004,,response,,,13,C,,,,,Space,keypress(Space),,,,instrumental,-------- -------- --- --- ---- --- --- ------ -- Congress<br>---- --------- --- ------- ------------ ---------- ---------<br>--- ---------- ------- ---------- ------- -- -------- ----<br>---- --- ------ ----- ------ -- ---- --- ----- -- - -------<br>-------- -- --- --- -- ----- ----------- ----- -----------<br>---- --- ---------- --- ---- --- -- ----------,157615.30000001192,157614.5,157047.382,157055,157064.052,157630.848,,9,Congress
screen,html.Screen,0_4_1_0_1_10,2021-12-03T10:46:37.127Z,,,,,,,,,,,,,,,,51,,,,,,,,,,,,,,431.15200000000186,,response,,,13,C,,,,,Space,keypress(Space),,,,instrumental,-------- -------- --- --- ---- --- --- ------ -- --------<br>over --------- --- ------- ------------ ---------- ---------<br>--- ---------- ------- ---------- ------- -- -------- ----<br>---- --- ------ ----- ------ -- ---- --- ----- -- - -------<br>-------- -- --- --- -- ----- ----------- ----- -----------<br>---- --- ---------- --- ---- --- -- ----------,158062.70000000298,158062,157614.178,157615.5,157630.848,158064.314,,10,over
screen,html.Screen,0_4_1_0_1_11,2021-12-03T10:46:37.543Z,,,,,,,,,,,,,,,,51,,,,,,,,,,,,,,413.5860000059474,,response,,,13,C,,,,,Space,keypress(Space),,,,instrumental,-------- -------- --- --- ---- --- --- ------ -- --------<br>---- reforming --- ------- ------------ ---------- ---------<br>--- ---------- ------- ---------- ------- -- -------- ----<br>---- --- ------ ----- ------ -- ---- --- ----- -- - -------<br>-------- -- --- --- -- ----- ----------- ----- -----------<br>---- --- ---------- --- ---- --- -- ----------,158478.60000000894,158477.90000000596,158047.644,158062.90000000596,158064.314,158481.061,,11,reforming
screen,html.Screen,0_4_1_0_1_12,2021-12-03T10:46:38.631Z,,,,,,,,,,,,,,,,51,,,,,,,,,,,,,,1084.739000011934,,response,,,13,C,,,,,Space,keypress(Space),,,,instrumental,-------- -------- --- --- ---- --- --- ------ -- --------<br>---- --------- the ------- ------------ ---------- ---------<br>--- ---------- ------- ---------- ------- -- -------- ----<br>---- --- ------ ----- ------ -- ---- --- ----- -- - -------<br>-------- -- --- --- -- ----- ----------- ----- -----------<br>---- --- ---------- --- ---- --- -- ----------,159566.60000000894,159565.80000001192,158464.391,158478.90000000596,158481.061,159581.431,,12,the
screen,html.Screen,0_4_1_0_1_13,2021-12-03T10:46:39.183Z,,,,,,,,,,,,,,,,51,,,,,,,,,,,,,,536.3690000119095,,response,,,13,C,,,,,Space,keypress(Space),,,,instrumental,-------- -------- --- --- ---- --- --- ------ -- --------<br>---- --------- --- federal ------------ ---------- ---------<br>--- ---------- ------- ---------- ------- -- -------- ----<br>---- --- ------ ----- ------ -- ---- --- ----- -- - -------<br>-------- -- --- --- -- ----- ----------- ----- -----------<br>---- --- ---------- --- ---- --- -- ----------,160118.70000000298,160117.80000001192,159564.76,159566.80000001192,159581.431,160131.327,,13,federal
screen,html.Screen,0_4_1_0_1_14,2021-12-03T10:46:39.606Z,,,,,,,,,,,,,,,,51,,,,,,,,,,,,,,410.4730000119307,,response,,,13,C,,,,,Space,keypress(Space),,,,instrumental,-------- -------- --- --- ---- --- --- ------ -- --------<br>---- --------- --- ------- government's ---------- ---------<br>--- ---------- ------- ---------- ------- -- -------- ----<br>---- --- ------ ----- ------ -- ---- --- ----- -- - -------<br>-------- -- --- --- -- ----- ----------- ----- -----------<br>---- --- ---------- --- ---- --- -- ----------,160542.60000000894,160541.80000001192,160114.658,160118.90000000596,160131.327,160548.316,,14,government's
screen,html.Screen,0_4_1_0_1_15,2021-12-03T10:46:40.254Z,,,,,,,,,,,,,,,,51,,,,,,,,,,,,,,641.3840000029886,,response,,,13,C,,,,,Space,keypress(Space),,,,instrumental,-------- -------- --- --- ---- --- --- ------ -- --------<br>---- --------- --- ------- ------------ regulatory ---------<br>--- ---------- ------- ---------- ------- -- -------- ----<br>---- --- ------ ----- ------ -- ---- --- ----- -- - -------<br>-------- -- --- --- -- ----- ----------- ----- -----------<br>---- --- ---------- --- ---- --- -- ----------,161190.5,161189.70000000298,160531.645,160542.90000000596,160548.316,161198.506,,15,regulatory
screen,html.Screen,0_4_1_0_1_16,2021-12-03T10:46:40.766Z,,,,,,,,,,,,,,,,51,,,,,,,,,,,,,,503.1940000029863,,response,,,13,C,,,,,Space,keypress(Space),,,,instrumental,-------- -------- --- --- ---- --- --- ------ -- --------<br>---- --------- --- ------- ------------ ---------- apparatus<br>--- ---------- ------- ---------- ------- -- -------- ----<br>---- --- ------ ----- ------ -- ---- --- ----- -- - -------<br>-------- -- --- --- -- ----- ----------- ----- -----------<br>---- --- ---------- --- ---- --- -- ----------,161702.40000000596,161701.70000000298,161181.835,161190.70000000298,161198.506,161715.067,,16,apparatus
screen,html.Screen,0_4_1_0_1_17,2021-12-03T10:46:41.174Z,,,,,,,,,,,,,,,,51,,,,,,,,,,,,,,394.5330000089307,,response,,,13,C,,,,,Space,keypress(Space),,,,instrumental,-------- -------- --- --- ---- --- --- ------ -- --------<br>---- --------- --- ------- ------------ ---------- ---------<br>may ---------- ------- ---------- ------- -- -------- ----<br>---- --- ------ ----- ------ -- ---- --- ----- -- - -------<br>-------- -- --- --- -- ----- ----------- ----- -----------<br>---- --- ---------- --- ---- --- -- ----------,162110.40000000596,162109.60000000894,161698.399,161702.60000000894,161715.067,162115.454,,17,may
screen,html.Screen,0_4_1_0_1_18,2021-12-03T10:46:41.526Z,,,,,,,,,,,,,,,,51,,,,,,,,,,,,,,346.2460000029823,,response,,,13,C,,,,,Space,keypress(Space),,,,instrumental,-------- -------- --- --- ---- --- --- ------ -- --------<br>---- --------- --- ------- ------------ ---------- ---------<br>--- profoundly ------- ---------- ------- -- -------- ----<br>---- --- ------ ----- ------ -- ---- --- ----- -- - -------<br>-------- -- --- --- -- ----- ----------- ----- -----------<br>---- --- ---------- --- ---- --- -- ----------,162462.5,162461.70000000298,162098.782,162110.60000000894,162115.454,162465.45,,18,profoundly
screen,html.Screen,0_4_1_0_1_19,2021-12-03T10:46:41.966Z,,,,,,,,,,,,,,,,51,,,,,,,,,,,,,,436.2500000029686,,response,,,13,C,,,,,Space,keypress(Space),,,,instrumental,-------- -------- --- --- ---- --- --- ------ -- --------<br>---- --------- --- ------- ------------ ---------- ---------<br>--- ---------- improve ---------- ------- -- -------- ----<br>---- --- ------ ----- ------ -- ---- --- ----- -- - -------<br>-------- -- --- --- -- ----- ----------- ----- -----------<br>---- --- ---------- --- ---- --- -- ----------,162902.5,162901.70000000298,162448.78,162462.70000000298,162465.45,162915.568,,19,improve
screen,html.Screen,0_4_1_0_1_20,2021-12-03T10:46:42.486Z,,,,,,,,,,,,,,,,51,,,,,,,,,,,,,,506.0320000089414,,response,,,13,C,,,,,Space,keypress(Space),,,,instrumental,-------- -------- --- --- ---- --- --- ------ -- --------<br>---- --------- --- ------- ------------ ---------- ---------<br>--- ---------- ------- companies' ------- -- -------- ----<br>---- --- ------ ----- ------ -- ---- --- ----- -- - -------<br>-------- -- --- --- -- ----- ----------- ----- -----------<br>---- --- ---------- --- ---- --- -- ----------,163422.40000000596,163421.60000000894,162898.898,162902.70000000298,162915.568,163432.419,,20,companies'
screen,html.Screen,0_4_1_0_1_21,2021-12-03T10:46:42.918Z,,,,,,,,,,,,,,,,51,,,,,,,,,,,,,,421.1810000089463,,response,,,13,C,,,,,Space,keypress(Space),,,,instrumental,-------- -------- --- --- ---- --- --- ------ -- --------<br>---- --------- --- ------- ------------ ---------- ---------<br>--- ---------- ------- ---------- ability -- -------- ----<br>---- --- ------ ----- ------ -- ---- --- ----- -- - -------<br>-------- -- --- --- -- ----- ----------- ----- -----------<br>---- --- ---------- --- ---- --- -- ----------,163854.40000000596,163853.60000000894,163415.748,163422.60000000894,163432.419,163865.807,,21,ability
screen,html.Screen,0_4_1_0_1_22,2021-12-03T10:46:43.278Z,,,,,,,,,,,,,,,,51,,,,,,,,,,,,,,347.79300000894,,response,,,13,C,,,,,Space,keypress(Space),,,,instrumental,-------- -------- --- --- ---- --- --- ------ -- --------<br>---- --------- --- ------- ------------ ---------- ---------<br>--- ---------- ------- ---------- ------- to -------- ----<br>---- --- ------ ----- ------ -- ---- --- ----- -- - -------<br>-------- -- --- --- -- ----- ----------- ----- -----------<br>---- --- ---------- --- ---- --- -- ----------,164214.40000000596,164213.60000000894,163849.137,163854.70000000298,163865.807,164215.913,,22,to
screen,html.Screen,0_4_1_0_1_23,2021-12-03T10:46:43.638Z,,,,,,,,,,,,,,,,51,,,,,,,,,,,,,,357.58699999999953,,response,,,13,C,,,,,Space,keypress(Space),,,,instrumental,-------- -------- --- --- ---- --- --- ------ -- --------<br>---- --------- --- ------- ------------ ---------- ---------<br>--- ---------- ------- ---------- ------- -- survive. ----<br>---- --- ------ ----- ------ -- ---- --- ----- -- - -------<br>-------- -- --- --- -- ----- ----------- ----- -----------<br>---- --- ---------- --- ---- --- -- ----------,164574.30000001192,164573.5,164199.243,164214.70000000298,164215.913,164582.536,,23,survive.
screen,html.Screen,0_4_1_0_1_24,2021-12-03T10:46:44.150Z,,,,,,,,,,,,,,,,51,,,,,,,,,,,,,,502.8640000059677,,response,,,13,C,,,,,Space,keypress(Space),,,,instrumental,-------- -------- --- --- ---- --- --- ------ -- --------<br>---- --------- --- ------- ------------ ---------- ---------<br>--- ---------- ------- ---------- ------- -- -------- This<br>---- --- ------ ----- ------ -- ---- --- ----- -- - -------<br>-------- -- --- --- -- ----- ----------- ----- -----------<br>---- --- ---------- --- ---- --- -- ----------,165086.10000000894,165085.40000000596,164565.868,164574.60000000894,164582.536,165099.543,,24,This
screen,html.Screen,0_4_1_0_1_25,2021-12-03T10:46:44.526Z,,,,,,,,,,,,,,,,51,,,,,,,,,,,,,,361.9569999999949,,response,,,13,C,,,,,Space,keypress(Space),,,,instrumental,-------- -------- --- --- ---- --- --- ------ -- --------<br>---- --------- --- ------- ------------ ---------- ---------<br>--- ---------- ------- ---------- ------- -- -------- ----<br>week --- ------ ----- ------ -- ---- --- ----- -- - -------<br>-------- -- --- --- -- ----- ----------- ----- -----------<br>---- --- ---------- --- ---- --- -- ----------,165462.30000001192,165461.5,165082.871,165086.30000001192,165099.543,165466.254,,25,week
screen,html.Screen,0_4_1_0_1_26,2021-12-03T10:46:44.846Z,,,,,,,,,,,,,,,,51,,,,,,,,,,,,,,315.24600000001374,,response,,,13,C,,,,,Space,keypress(Space),,,,instrumental,-------- -------- --- --- ---- --- --- ------ -- --------<br>---- --------- --- ------- ------------ ---------- ---------<br>--- ---------- ------- ---------- ------- -- -------- ----<br>---- the ------ ----- ------ -- ---- --- ----- -- - -------<br>-------- -- --- --- -- ----- ----------- ----- -----------<br>---- --- ---------- --- ---- --- -- ----------,165782.20000000298,165781.5,165449.583,165462.5,165466.254,165799.558,,26,the
screen,html.Screen,0_4_1_0_1_27,2021-12-03T10:46:45.198Z,,,,,,,,,,,,,,,,51,,,,,,,,,,,,,,333.94200000001,,response,,,13,C,,,,,Space,keypress(Space),,,,instrumental,-------- -------- --- --- ---- --- --- ------ -- --------<br>---- --------- --- ------- ------------ ---------- ---------<br>--- ---------- ------- ---------- ------- -- -------- ----<br>---- --- Senate ----- ------ -- ---- --- ----- -- - -------<br>-------- -- --- --- -- ----- ----------- ----- -----------<br>---- --- ---------- --- ---- --- -- ----------,166134.30000001192,166133.5,165782.889,165782.5,165799.558,166149.821,,27,Senate
screen,html.Screen,0_4_1_0_1_28,2021-12-03T10:46:45.646Z,,,,,,,,,,,,,,,,51,,,,,,,,,,,,,,431.6790000000037,,response,,,13,C,,,,,Space,keypress(Space),,,,instrumental,-------- -------- --- --- ---- --- --- ------ -- --------<br>---- --------- --- ------- ------------ ---------- ---------<br>--- ---------- ------- ---------- ------- -- -------- ----<br>---- --- ------ seems ------ -- ---- --- ----- -- - -------<br>-------- -- --- --- -- ----- ----------- ----- -----------<br>---- --- ---------- --- ---- --- -- ----------,166582.20000000298,166581.5,166133.149,166134.5,166149.821,166599.837,,28,seems
screen,html.Screen,0_4_1_0_1_29,2021-12-03T10:46:46.110Z,,,,,,,,,,,,,,,,51,,,,,,,,,,,,,,445.66300000000047,,response,,,13,C,,,,,Space,keypress(Space),,,,instrumental,-------- -------- --- --- ---- --- --- ------ -- --------<br>---- --------- --- ------- ------------ ---------- ---------<br>--- ---------- ------- ---------- ------- -- -------- ----<br>---- --- ------ ----- poised -- ---- --- ----- -- - -------<br>-------- -- --- --- -- ----- ----------- ----- -----------<br>---- --- ---------- --- ---- --- -- ----------,167046.20000000298,167045.5,166583.167,166582.5,166599.837,167049.854,,29,poised
screen,html.Screen,0_4_1_0_1_30,2021-12-03T10:46:46.654Z,,,,,,,,,,,,,,,,51,,,,,,,,,,,,,,539.4460000119288,,response,,,13,C,,,,,Space,keypress(Space),,,,instrumental,-------- -------- --- --- ---- --- --- ------ -- --------<br>---- --------- --- ------- ------------ ---------- ---------<br>--- ---------- ------- ---------- ------- -- -------- ----<br>---- --- ------ ----- ------ to ---- --- ----- -- - -------<br>-------- -- --- --- -- ----- ----------- ----- -----------<br>---- --- ---------- --- ---- --- -- ----------,167590.20000000298,167589.30000001192,167033.185,167046.5,167049.854,167600.198,,30,to
screen,html.Screen,0_4_1_0_1_31,2021-12-03T10:46:46.967Z,,,,,,,,,,,,,,,,51,,,,,,,,,,,,,,301.60200001191697,,response,,,13,C,,,,,Space,keypress(Space),,,,instrumental,-------- -------- --- --- ---- --- --- ------ -- --------<br>---- --------- --- ------- ------------ ---------- ---------<br>--- ---------- ------- ---------- ------- -- -------- ----<br>---- --- ------ ----- ------ -- join --- ----- -- - -------<br>-------- -- --- --- -- ----- ----------- ----- -----------<br>---- --- ---------- --- ---- --- -- ----------,167902.70000000298,167901.80000001192,167583.526,167590.5,167600.198,167916.842,,31,join
screen,html.Screen,0_4_1_0_1_32,2021-12-03T10:46:47.238Z,,,,,,,,,,,,,,,,51,,,,,,,,,,,,,,256.5580000059563,,response,,,13,C,,,,,Space,keypress(Space),,,,instrumental,-------- -------- --- --- ---- --- --- ------ -- --------<br>---- --------- --- ------- ------------ ---------- ---------<br>--- ---------- ------- ---------- ------- -- -------- ----<br>---- --- ------ ----- ------ -- ---- the ----- -- - -------<br>-------- -- --- --- -- ----- ----------- ----- -----------<br>---- --- ---------- --- ---- --- -- ----------,168174.20000000298,168173.40000000596,167900.172,167902.90000000596,167916.842,168183.626,,32,the
screen,html.Screen,0_4_1_0_1_33,2021-12-03T10:46:47.718Z,,,,,,,,,,,,,,,,51,,,,,,,,,,,,,,469.7740000059712,,response,,,13,C,,,,,Space,keypress(Space),,,,instrumental,-------- -------- --- --- ---- --- --- ------ -- --------<br>---- --------- --- ------- ------------ ---------- ---------<br>--- ---------- ------- ---------- ------- -- -------- ----<br>---- --- ------ ----- ------ -- ---- --- House -- - -------<br>-------- -- --- --- -- ----- ----------- ----- -----------<br>---- --- ---------- --- ---- --- -- ----------,168654.20000000298,168653.40000000596,168166.955,168174.40000000596,168183.626,168666.994,,33,House
screen,html.Screen,0_4_1_0_1_34,2021-12-03T10:46:48.182Z,,,,,,,,,,,,,,,,51,,,,,,,,,,,,,,450.4060000059544,,response,,,13,C,,,,,Space,keypress(Space),,,,instrumental,-------- -------- --- --- ---- --- --- ------ -- --------<br>---- --------- --- ------- ------------ ---------- ---------<br>--- ---------- ------- ---------- ------- -- -------- ----<br>---- --- ------ ----- ------ -- ---- --- ----- in - -------<br>-------- -- --- --- -- ----- ----------- ----- -----------<br>---- --- ---------- --- ---- --- -- ----------,169118.10000000894,169117.40000000596,168650.325,168654.40000000596,168666.994,169133.734,,34,in
screen,html.Screen,0_4_1_0_1_35,2021-12-03T10:46:48.550Z,,,,,,,,,,,,,,,,51,,,,,,,,,,,,,,351.5660000119242,,response,,,13,C,,,,,Space,keypress(Space),,,,instrumental,-------- -------- --- --- ---- --- --- ------ -- --------<br>---- --------- --- ------- ------------ ---------- ---------<br>--- ---------- ------- ---------- ------- -- -------- ----<br>---- --- ------ ----- ------ -- ---- --- ----- -- a -------<br>-------- -- --- --- -- ----- ----------- ----- -----------<br>---- --- ---------- --- ---- --- -- ----------,169486.10000000894,169485.30000001192,169117.065,169118.40000000596,169133.734,169500.638,,35,a
screen,html.Screen,0_4_1_0_1_36,2021-12-03T10:46:49.078Z,,,,,,,,,,,,,,,,51,,,,,,,,,,,,,,512.562000002974,,response,,,13,C,,,,,Space,keypress(Space),,,,instrumental,-------- -------- --- --- ---- --- --- ------ -- --------<br>---- --------- --- ------- ------------ ---------- ---------<br>--- ---------- ------- ---------- ------- -- -------- ----<br>---- --- ------ ----- ------ -- ---- --- ----- -- - massive<br>-------- -- --- --- -- ----- ----------- ----- -----------<br>---- --- ---------- --- ---- --- -- ----------,170014.10000000894,170013.20000000298,169483.967,169486.30000001192,169500.638,170017.275,,36,massive
screen,html.Screen,0_4_1_0_1_37,2021-12-03T10:46:49.494Z,,,,,,,,,,,,,,,,51,,,,,,,,,,,,,,411.92500000298605,,response,,,13,C,,,,,Space,keypress(Space),,,,instrumental,-------- -------- --- --- ---- --- --- ------ -- --------<br>---- --------- --- ------- ------------ ---------- ---------<br>--- ---------- ------- ---------- ------- -- -------- ----<br>---- --- ------ ----- ------ -- ---- --- ----- -- - -------<br>overhaul -- --- --- -- ----- ----------- ----- -----------<br>---- --- ---------- --- ---- --- -- ----------,170430.10000000894,170429.20000000298,170000.606,170014.40000000596,170017.275,170434.264,,37,overhaul
screen,html.Screen,0_4_1_0_1_38,2021-12-03T10:46:49.862Z,,,,,,,,,,,,,,,,51,,,,,,,,,,,,,,362.93600000298466,,response,,,13,C,,,,,Space,keypress(Space),,,,instrumental,-------- -------- --- --- ---- --- --- ------ -- --------<br>---- --------- --- ------- ------------ ---------- ---------<br>--- ---------- ------- ---------- ------- -- -------- ----<br>---- --- ------ ----- ------ -- ---- --- ----- -- - -------<br>-------- of --- --- -- ----- ----------- ----- -----------<br>---- --- ---------- --- ---- --- -- ----------,170798,170797.20000000298,170417.592,170430.30000001192,170434.264,170800.829,,38,of
screen,html.Screen,0_4_1_0_1_39,2021-12-03T10:46:50.230Z,,,,,,,,,,,,,,,,51,,,,,,,,,,,,,,364.3710000029823,,response,,,13,C,,,,,Space,keypress(Space),,,,instrumental,-------- -------- --- --- ---- --- --- ------ -- --------<br>---- --------- --- ------- ------------ ---------- ---------<br>--- ---------- ------- ---------- ------- -- -------- ----<br>---- --- ------ ----- ------ -- ---- --- ----- -- - -------<br>-------- -- the --- -- ----- ----------- ----- -----------<br>---- --- ---------- --- ---- --- -- ----------,171165.90000000596,171165.20000000298,170784.16,170798.30000001192,170800.829,171167.768,,39,the
screen,html.Screen,0_4_1_0_1_40,2021-12-03T10:46:50.526Z,,,,,,,,,,,,,,,,51,,,,,,,,,,,,,,293.4320000029693,,response,,,13,C,,,,,Space,keypress(Space),,,,instrumental,-------- -------- --- --- ---- --- --- ------ -- --------<br>---- --------- --- ------- ------------ ---------- ---------<br>--- ---------- ------- ---------- ------- -- -------- ----<br>---- --- ------ ----- ------ -- ---- --- ----- -- - -------<br>-------- -- --- way -- ----- ----------- ----- -----------<br>---- --- ---------- --- ---- --- -- ----------,171461.90000000596,171461.20000000298,171151.096,171166.30000001192,171167.768,171467.683,,40,way
screen,html.Screen,0_4_1_0_1_41,2021-12-03T10:46:50.934Z,,,,,,,,,,,,,,,,51,,,,,,,,,,,,,,401.4170000089507,,response,,,13,C,,,,,Space,keypress(Space),,,,instrumental,-------- -------- --- --- ---- --- --- ------ -- --------<br>---- --------- --- ------- ------------ ---------- ---------<br>--- ---------- ------- ---------- ------- -- -------- ----<br>---- --- ------ ----- ------ -- ---- --- ----- -- - -------<br>-------- -- --- --- in ----- ----------- ----- -----------<br>---- --- ---------- --- ---- --- -- ----------,171869.90000000596,171869.10000000894,171451.014,171462.10000000894,171467.683,171884.659,,41,in
screen,html.Screen,0_4_1_0_1_42,2021-12-03T10:46:51.278Z,,,,,,,,,,,,,,,,51,,,,,,,,,,,,,,328.54100000296603,,response,,,13,C,,,,,Space,keypress(Space),,,,instrumental,-------- -------- --- --- ---- --- --- ------ -- --------<br>---- --------- --- ------- ------------ ---------- ---------<br>--- ---------- ------- ---------- ------- -- -------- ----<br>---- --- ------ ----- ------ -- ---- --- ----- -- - -------<br>-------- -- --- --- -- which ----------- ----- -----------<br>---- --- ---------- --- ---- --- -- ----------,172213.90000000596,172213.20000000298,171867.986,171870.10000000894,171884.659,172217.976,,42,which
screen,html.Screen,0_4_1_0_1_43,2021-12-03T10:46:51.566Z,,,,,,,,,,,,,,,,51,,,,,,,,,,,,,,283.1240000089456,,response,,,13,C,,,,,Space,keypress(Space),,,,instrumental,-------- -------- --- --- ---- --- --- ------ -- --------<br>---- --------- --- ------- ------------ ---------- ---------<br>--- ---------- ------- ---------- ------- -- -------- ----<br>---- --- ------ ----- ------ -- ---- --- ----- -- - -------<br>-------- -- --- --- -- ----- bureaucrats ----- -----------<br>---- --- ---------- --- ---- --- -- ----------,172501.80000001192,172501.10000000894,172201.306,172214.10000000894,172217.976,172517.916,,43,bureaucrats
screen,html.Screen,0_4_1_0_1_44,2021-12-03T10:46:52.094Z,,,,,,,,,,,,,,,,51,,,,,,,,,,,,,,511.08400000000256,,response,,,13,C,,,,,Space,keypress(Space),,,,instrumental,-------- -------- --- --- ---- --- --- ------ -- --------<br>---- --------- --- ------- ------------ ---------- ---------<br>--- ---------- ------- ---------- ------- -- -------- ----<br>---- --- ------ ----- ------ -- ---- --- ----- -- - -------<br>-------- -- --- --- -- ----- ----------- enact -----------<br>---- --- ---------- --- ---- --- -- ----------,173029.90000000596,173029,172501.248,172502.10000000894,172517.916,173034.785,,44,enact
screen,html.Screen,0_4_1_0_1_45,2021-12-03T10:46:52.478Z,,,,,,,,,,,,,,,,51,,,,,,,,,,,,,,378.3150000089372,,response,,,13,C,,,,,Space,keypress(Space),,,,instrumental,-------- -------- --- --- ---- --- --- ------ -- --------<br>---- --------- --- ------- ------------ ---------- ---------<br>--- ---------- ------- ---------- ------- -- -------- ----<br>---- --- ------ ----- ------ -- ---- --- ----- -- - -------<br>-------- -- --- --- -- ----- ----------- ----- regulations<br>---- --- ---------- --- ---- --- -- ----------,173413.80000001192,173413.10000000894,173018.115,173030.10000000894,173034.785,173418.223,,45,regulations
screen,html.Screen,0_4_1_0_1_46,2021-12-03T10:46:52.838Z,,,,,,,,,,,,,,,,51,,,,,,,,,,,,,,354.87700000894256,,response,,,13,C,,,,,Space,keypress(Space),,,,instrumental,-------- -------- --- --- ---- --- --- ------ -- --------<br>---- --------- --- ------- ------------ ---------- ---------<br>--- ---------- ------- ---------- ------- -- -------- ----<br>---- --- ------ ----- ------ -- ---- --- ----- -- - -------<br>-------- -- --- --- -- ----- ----------- ----- -----------<br>that --- ---------- --- ---- --- -- ----------,173773.90000000596,173773.10000000894,173401.553,173414.10000000894,173418.223,173785.133,,46,that
screen,html.Screen,0_4_1_0_1_47,2021-12-03T10:46:53.182Z,,,,,,,,,,,,,,,,51,,,,,,,,,,,,,,331.86699999999837,,response,,,13,C,,,,,Space,keypress(Space),,,,instrumental,-------- -------- --- --- ---- --- --- ------ -- --------<br>---- --------- --- ------- ------------ ---------- ---------<br>--- ---------- ------- ---------- ------- -- -------- ----<br>---- --- ------ ----- ------ -- ---- --- ----- -- - -------<br>-------- -- --- --- -- ----- ----------- ----- -----------<br>---- are ---------- --- ---- --- -- ----------,174117.90000000596,174117,173768.461,173774,173785.133,174134.958,,47,are
screen,html.Screen,0_4_1_0_1_48,2021-12-03T10:46:53.542Z,,,,,,,,,,,,,,,,51,,,,,,,,,,,,,,342.1420000089274,,response,,,13,C,,,,,Space,keypress(Space),,,,instrumental,-------- -------- --- --- ---- --- --- ------ -- --------<br>---- --------- --- ------- ------------ ---------- ---------<br>--- ---------- ------- ---------- ------- -- -------- ----<br>---- --- ------ ----- ------ -- ---- --- ----- -- - -------<br>-------- -- --- --- -- ----- ----------- ----- -----------<br>---- --- strangling --- ---- --- -- ----------,174477.90000000596,174477.10000000894,174118.291,174118.10000000894,174134.958,174485.294,,48,strangling
screen,html.Screen,0_4_1_0_1_49,2021-12-03T10:46:53.822Z,,,,,,,,,,,,,,,,51,,,,,,,,,,,,,,271.7060000000056,,response,,,13,C,,,,,Space,keypress(Space),,,,instrumental,-------- -------- --- --- ---- --- --- ------ -- --------<br>---- --------- --- ------- ------------ ---------- ---------<br>--- ---------- ------- ---------- ------- -- -------- ----<br>---- --- ------ ----- ------ -- ---- --- ----- -- - -------<br>-------- -- --- --- -- ----- ----------- ----- -----------<br>---- --- ---------- the ---- --- -- ----------,174757.80000001192,174757,174468.622,174478.10000000894,174485.294,174768.492,,49,the
screen,html.Screen,0_4_1_0_1_50,2021-12-03T10:46:54.142Z,,,,,,,,,,,,,,,,51,,,,,,,,,,,,,,308.50800000000163,,response,,,13,C,,,,,Space,keypress(Space),,,,instrumental,-------- -------- --- --- ---- --- --- ------ -- --------<br>---- --------- --- ------- ------------ ---------- ---------<br>--- ---------- ------- ---------- ------- -- -------- ----<br>---- --- ------ ----- ------ -- ---- --- ----- -- - -------<br>-------- -- --- --- -- ----- ----------- ----- -----------<br>---- --- ---------- --- life --- -- ----------,175077.80000001192,175077,174751.824,174758,174768.492,175085.454,,50,life
