sender,sender_type,sender_id,timestamp,meta,,Blues,Classical,Country,Dance,Electronic,Folk,Gospel,Hip-Hop,Jazz,Latin,Musical/Film,New-age,Pop,Provo_ID,R&B,Rap,Reggae,Religious,Rock,Soul,Swing,Traditional,age,artist_name,correct,correctResponse,distraction,duration,education,ended_on,familiarity,gender,item,list,music_frequency,offensiveness,pleasantness,preference,response,response_action,snippet_file,song_name,song_rating,sound,text,time_commit,time_end,time_render,time_run,time_show,time_switch,url,word,word_ID
Instructions,html.Page,0_0,2021-11-19T13:58:02.875Z,"{""labjs_version"":""20.2.3"",""labjs_build"":{""flavor"":""production"",""commit"":""7ea907d66ca8aeef8054924ca5d82ffbe11e34e5""},""location"":""https://run.pavlovia.org/mvasilev/lab_music_d/"",""userAgent"":""Mozilla/5.0 (Windows NT 6.1; Win64; x64) AppleWebKit/537.36 (KHTML, like Gecko) Chrome/96.0.4664.45 Safari/537.36"",""platform"":""Win32"",""language"":""en-US"",""locale"":""en-US"",""timeZone"":""Europe/London"",""timezoneOffset"":0,""screen_width"":1920,""screen_height"":1080,""scroll_width"":1920,""scroll_height"":959,""window_innerWidth"":1920,""window_innerHeight"":1007,""devicePixelRatio"":1}",,,,,,,,,,,,,,,,,,,,,,,,,,,,,21516.396999952318,,form submission,,,,,,,,,,,,,,,,74866.09999990463,74864.79999995232,53315.063,53324.5,53348.403,74873.486,{},,
Headphones,html.Page,0_1,2021-11-19T13:58:05.025Z,,,,,,,,,,,,,,,,,,,,,,,,,,,,,,2141.9139998569444,,form submission,,,,,,,,,,,,,,,,77015.89999985695,77015.39999985695,74856.814,74866.79999995232,74873.486,77024.043,,,
Holding screen,html.Screen,0_2_0_0,2021-11-19T13:58:15.025Z,,,,,,,,,,,,,,,,,,,,,,,,,,,,,,10002.251999999993,,timeout,,,,,,,,,,,,,,,,87016.09999990463,87009.626,77007.371,77016.29999995232,77024.043,87026.295,,,
screen,html.Screen,0_2_0_1_0,2021-11-19T13:58:16.451Z,,,,,,,,,,,,,,,,53,,,,,,,,,,,,,,1414.4050000476855,,response,,,99,,,,,,Space,keypress(Space),,,,,When -- ----- -- ------ - ------- --- ----------<br>------------- ------ ------ ---- ---- ------- ----- -- ----<br>-------- ------- -- ---------- --- - --- ----- ----- ----<br>---- --- --- ----- --- ---- ---- ------- ----- ---- -------<br>--- --- -- ----- -- --- ---- -- --- ---- -- ------ ------<br>--- ----- -- ----,88442.09999990463,88440.70000004768,87009.626,87016.5,87026.295,88443.779,,0,When
screen,html.Screen,0_2_0_1_1,2021-11-19T13:58:17.794Z,,,,,,,,,,,,,,,,53,,,,,,,,,,,,,,1340.3209999046376,,response,,,99,,,,,,Space,keypress(Space),,,,,---- it ----- -- ------ - ------- --- ----------<br>------------- ------ ------ ---- ---- ------- ----- -- ----<br>-------- ------- -- ---------- --- - --- ----- ----- ----<br>---- --- --- ----- --- ---- ---- ------- ----- ---- -------<br>--- --- -- ----- -- --- ---- -- --- ---- -- ------ ------<br>--- ----- -- ----,89785.09999990463,89784.09999990463,88427.107,88442.39999985695,88443.779,89793.862,,1,it
screen,html.Screen,0_2_0_1_2,2021-11-19T13:58:18.170Z,,,,,,,,,,,,,,,,53,,,,,,,,,,,,,,366.23799990463885,,response,,,99,,,,,,Space,keypress(Space),,,,,---- -- comes -- ------ - ------- --- ----------<br>------------- ------ ------ ---- ---- ------- ----- -- ----<br>-------- ------- -- ---------- --- - --- ----- ----- ----<br>---- --- --- ----- --- ---- ---- ------- ----- ---- -------<br>--- --- -- ----- -- --- ---- -- --- ---- -- ------ ------<br>--- ----- -- ----,90161,90160.09999990463,89777.192,89785.29999995232,89793.862,90177.383,,2,comes
screen,html.Screen,0_2_0_1_3,2021-11-19T13:58:18.578Z,,,,,,,,,,,,,,,,53,,,,,,,,,,,,,,390.71699990463094,,response,,,99,,,,,,Space,keypress(Space),,,,,---- -- ----- to ------ - ------- --- ----------<br>------------- ------ ------ ---- ---- ------- ----- -- ----<br>-------- ------- -- ---------- --- - --- ----- ----- ----<br>---- --- --- ----- --- ---- ---- ------- ----- ---- -------<br>--- --- -- ----- -- --- ---- -- --- ---- -- ------ ------<br>--- ----- -- ----,90569,90568.09999990463,90160.713,90161.29999995232,90177.383,90577.466,,3,to
screen,html.Screen,0_2_0_1_4,2021-11-19T13:58:19.018Z,,,,,,,,,,,,,,,,53,,,,,,,,,,,,,,430.53399999999965,,response,,,99,,,,,,Space,keypress(Space),,,,,---- -- ----- -- having - ------- --- ----------<br>------------- ------ ------ ---- ---- ------- ----- -- ----<br>-------- ------- -- ---------- --- - --- ----- ----- ----<br>---- --- --- ----- --- ---- ---- ------- ----- ---- -------<br>--- --- -- ----- -- --- ---- -- --- ---- -- ------ ------<br>--- ----- -- ----,91009.20000004768,91008,90560.796,90569.5,90577.466,91010.982,,4,having
screen,html.Screen,0_2_0_1_5,2021-11-19T13:58:19.370Z,,,,,,,,,,,,,,,,53,,,,,,,,,,,,,,349.0179999999964,,response,,,99,,,,,,Space,keypress(Space),,,,,---- -- ----- -- ------ a ------- --- ----------<br>------------- ------ ------ ---- ---- ------- ----- -- ----<br>-------- ------- -- ---------- --- - --- ----- ----- ----<br>---- --- --- ----- --- ---- ---- ------- ----- ---- -------<br>--- --- -- ----- -- --- ---- -- --- ---- -- ------ ------<br>--- ----- -- ----,91360.89999985695,91360,90994.311,91009.5,91010.982,91377.688,,5,a
screen,html.Screen,0_2_0_1_6,2021-11-19T13:58:20.218Z,,,,,,,,,,,,,,,,53,,,,,,,,,,,,,,830.2119998569542,,response,,,99,,,,,,Space,keypress(Space),,,,,---- -- ----- -- ------ - lasting --- ----------<br>------------- ------ ------ ---- ---- ------- ----- -- ----<br>-------- ------- -- ---------- --- - --- ----- ----- ----<br>---- --- --- ----- --- ---- ---- ------- ----- ---- -------<br>--- --- -- ----- -- --- ---- -- --- ---- -- ------ ------<br>--- ----- -- ----,92208.89999985695,92207.89999985695,91361.018,91361.5,91377.688,92211.126,,6,lasting
screen,html.Screen,0_2_0_1_7,2021-11-19T13:58:20.786Z,,,,,,,,,,,,,,,,53,,,,,,,,,,,,,,564.9739999046287,,response,,,99,,,,,,Space,keypress(Space),,,,,---- -- ----- -- ------ - ------- and ----------<br>------------- ------ ------ ---- ---- ------- ----- -- ----<br>-------- ------- -- ---------- --- - --- ----- ----- ----<br>---- --- --- ----- --- ---- ---- ------- ----- ---- -------<br>--- --- -- ----- -- --- ---- -- --- ---- -- ------ ------<br>--- ----- -- ----,92777.20000004768,92776.09999990463,92194.457,92209.29999995232,92211.126,92778.093,,7,and
screen,html.Screen,0_2_0_1_8,2021-11-19T13:58:21.498Z,,,,,,,,,,,,,,,,53,,,,,,,,,,,,,,709.8069998569554,,response,,,99,,,,,,Space,keypress(Space),,,,,---- -- ----- -- ------ - ------- --- fulfilling<br>------------- ------ ------ ---- ---- ------- ----- -- ----<br>-------- ------- -- ---------- --- - --- ----- ----- ----<br>---- --- --- ----- --- ---- ---- ------- ----- ---- -------<br>--- --- -- ----- -- --- ---- -- --- ---- -- ------ ------<br>--- ----- -- ----,93489,93487.89999985695,92761.422,92777.5,92778.093,93494.937,,8,fulfilling
screen,html.Screen,0_2_0_1_9,2021-11-19T13:58:21.986Z,,,,,,,,,,,,,,,,53,,,,,,,,,,,,,,480.86299995231093,,response,,,99,,,,,,Space,keypress(Space),,,,,"---- -- ----- -- ------ - ------- --- ----------<br>relationship, ------ ------ ---- ---- ------- ----- -- ----<br>-------- ------- -- ---------- --- - --- ----- ----- ----<br>---- --- --- ----- --- ---- ---- ------- ----- ---- -------<br>--- --- -- ----- -- --- ---- -- --- ---- -- ------ ------<br>--- ----- -- ----",93976.89999985695,93975.79999995232,93478.266,93489.39999985695,93494.937,93978.353,,9,"relationship,"
screen,html.Screen,0_2_0_1_10,2021-11-19T13:58:22.442Z,,,,,,,,,,,,,,,,53,,,,,,,,,,,,,,453.4469999523135,,response,,,99,,,,,,Space,keypress(Space),,,,,---- -- ----- -- ------ - ------- --- ----------<br>------------- common ------ ---- ---- ------- ----- -- ----<br>-------- ------- -- ---------- --- - --- ----- ----- ----<br>---- --- --- ----- --- ---- ---- ------- ----- ---- -------<br>--- --- -- ----- -- --- ---- -- --- ---- -- ------ ------<br>--- ----- -- ----,94432.70000004768,94431.79999995232,93961.683,93977.09999990463,93978.353,94445.108,,10,common
screen,html.Screen,0_2_0_1_11,2021-11-19T13:58:23.026Z,,,,,,,,,,,,,,,,53,,,,,,,,,,,,,,570.5920000476908,,response,,,99,,,,,,Space,keypress(Space),,,,,---- -- ----- -- ------ - ------- --- ----------<br>------------- ------ wisdom ---- ---- ------- ----- -- ----<br>-------- ------- -- ---------- --- - --- ----- ----- ----<br>---- --- --- ----- --- ---- ---- ------- ----- ---- -------<br>--- --- -- ----- -- --- ---- -- --- ---- -- ------ ------<br>--- ----- -- ----,95016.70000004768,95015.70000004768,94428.438,94433,94445.108,95028.655,,11,wisdom
screen,html.Screen,0_2_0_1_12,2021-11-19T13:58:23.730Z,,,,,,,,,,,,,,,,53,,,,,,,,,,,,,,691.1449999523174,,response,,,99,,,,,,Space,keypress(Space),,,,,---- -- ----- -- ------ - ------- --- ----------<br>------------- ------ ------ says ---- ------- ----- -- ----<br>-------- ------- -- ---------- --- - --- ----- ----- ----<br>---- --- --- ----- --- ---- ---- ------- ----- ---- -------<br>--- --- -- ----- -- --- ---- -- --- ---- -- ------ ------<br>--- ----- -- ----,95720.70000004768,95719.79999995232,95011.984,95016.89999985695,95028.655,95728.847,,12,says
screen,html.Screen,0_2_0_1_13,2021-11-19T13:58:24.242Z,,,,,,,,,,,,,,,,53,,,,,,,,,,,,,,502.8530000476894,,response,,,99,,,,,,Space,keypress(Space),,,,,---- -- ----- -- ------ - ------- --- ----------<br>------------- ------ ------ ---- that ------- ----- -- ----<br>-------- ------- -- ---------- --- - --- ----- ----- ----<br>---- --- --- ----- --- ---- ---- ------- ----- ---- -------<br>--- --- -- ----- -- --- ---- -- --- ---- -- ------ ------<br>--- ----- -- ----,96233,96231.70000004768,95712.176,95720.89999985695,95728.847,96245.562,,13,that
screen,html.Screen,0_2_0_1_14,2021-11-19T13:58:24.714Z,,,,,,,,,,,,,,,,53,,,,,,,,,,,,,,458.23799995231093,,response,,,99,,,,,,Space,keypress(Space),,,,,---- -- ----- -- ------ - ------- --- ----------<br>------------- ------ ------ ---- ---- feeling ----- -- ----<br>-------- ------- -- ---------- --- - --- ----- ----- ----<br>---- --- --- ----- --- ---- ---- ------- ----- ---- -------<br>--- --- -- ----- -- --- ---- -- --- ---- -- ------ ------<br>--- ----- -- ----,96704.59999990463,96703.79999995232,96228.892,96233.29999995232,96245.562,96712.349,,14,feeling
screen,html.Screen,0_2_0_1_15,2021-11-19T13:58:25.217Z,,,,,,,,,,,,,,,,53,,,,,,,,,,,,,,495.35100004768174,,response,,,99,,,,,,Space,keypress(Space),,,,,---- -- ----- -- ------ - ------- --- ----------<br>------------- ------ ------ ---- ---- ------- close -- ----<br>-------- ------- -- ---------- --- - --- ----- ----- ----<br>---- --- --- ----- --- ---- ---- ------- ----- ---- -------<br>--- --- -- ----- -- --- ---- -- --- ---- -- ------ ------<br>--- ----- -- ----,97208.5,97207.70000004768,96695.679,96704.79999995232,96712.349,97212.54,,15,close
screen,html.Screen,0_2_0_1_16,2021-11-19T13:58:25.641Z,,,,,,,,,,,,,,,,53,,,,,,,,,,,,,,419.1600000476901,,response,,,99,,,,,,Space,keypress(Space),,,,,---- -- ----- -- ------ - ------- --- ----------<br>------------- ------ ------ ---- ---- ------- ----- to ----<br>-------- ------- -- ---------- --- - --- ----- ----- ----<br>---- --- --- ----- --- ---- ---- ------- ----- ---- -------<br>--- --- -- ----- -- --- ---- -- --- ---- -- ------ ------<br>--- ----- -- ----,97632.5,97631.70000004768,97195.869,97208.79999995232,97212.54,97646.012,,16,to
screen,html.Screen,0_2_0_1_17,2021-11-19T13:58:26.145Z,,,,,,,,,,,,,,,,53,,,,,,,,,,,,,,489.68800004768127,,response,,,99,,,,,,Space,keypress(Space),,,,,---- -- ----- -- ------ - ------- --- ----------<br>------------- ------ ------ ---- ---- ------- ----- -- your<br>-------- ------- -- ---------- --- - --- ----- ----- ----<br>---- --- --- ----- --- ---- ---- ------- ----- ---- -------<br>--- --- -- ----- -- --- ---- -- --- ---- -- ------ ------<br>--- ----- -- ----,98136.5,98135.70000004768,97629.341,97632.70000004768,97646.012,98146.097,,17,your
screen,html.Screen,0_2_0_1_18,2021-11-19T13:58:26.594Z,,,,,,,,,,,,,,,,53,,,,,,,,,,,,,,438.0029999046383,,response,,,99,,,,,,Space,keypress(Space),,,,,---- -- ----- -- ------ - ------- --- ----------<br>------------- ------ ------ ---- ---- ------- ----- -- ----<br>romantic ------- -- ---------- --- - --- ----- ----- ----<br>---- --- --- ----- --- ---- ---- ------- ----- ---- -------<br>--- --- -- ----- -- --- ---- -- --- ---- -- ------ ------<br>--- ----- -- ----,98584.89999985695,98584.09999990463,98129.427,98136.70000004768,98146.097,98596.2,,18,romantic
screen,html.Screen,0_2_0_1_19,2021-11-19T13:58:27.065Z,,,,,,,,,,,,,,,,53,,,,,,,,,,,,,,459.3000000000029,,response,,,99,,,,,,Space,keypress(Space),,,,,---- -- ----- -- ------ - ------- --- ----------<br>------------- ------ ------ ---- ---- ------- ----- -- ----<br>-------- partner -- ---------- --- - --- ----- ----- ----<br>---- --- --- ----- --- ---- ---- ------- ----- ---- -------<br>--- --- -- ----- -- --- ---- -- --- ---- -- ------ ------<br>--- ----- -- ----,99056.5,99055.5,98579.53,98585.20000004768,98596.2,99062.998,,19,partner
screen,html.Screen,0_2_0_1_20,2021-11-19T13:58:27.601Z,,,,,,,,,,,,,,,,53,,,,,,,,,,,,,,528.6019999046257,,response,,,99,,,,,,Space,keypress(Space),,,,,---- -- ----- -- ------ - ------- --- ----------<br>------------- ------ ------ ---- ---- ------- ----- -- ----<br>-------- ------- is ---------- --- - --- ----- ----- ----<br>---- --- --- ----- --- ---- ---- ------- ----- ---- -------<br>--- --- -- ----- -- --- ---- -- --- ---- -- ------ ------<br>--- ----- -- ----,99592.39999985695,99591.59999990463,99046.328,99056.70000004768,99062.998,99596.452,,20,is
screen,html.Screen,0_2_0_1_21,2021-11-19T13:58:29.457Z,,,,,,,,,,,,,,,,53,,,,,,,,,,,,,,1850.947999856944,,response,,,99,,,,,,Space,keypress(Space),,,,,---- -- ----- -- ------ - ------- --- ----------<br>------------- ------ ------ ---- ---- ------- ----- -- ----<br>-------- ------- -- paramount. --- - --- ----- ----- ----<br>---- --- --- ----- --- ---- ---- ------- ----- ---- -------<br>--- --- -- ----- -- --- ---- -- --- ---- -- ------ ------<br>--- ----- -- ----,101448.29999995232,101447.39999985695,99579.782,99592.70000004768,99596.452,101463.658,,21,paramount.
screen,html.Screen,0_2_0_1_22,2021-11-19T13:58:30.297Z,,,,,,,,,,,,,,,,53,,,,,,,,,,,,,,823.741999856953,,response,,,99,,,,,,Space,keypress(Space),,,,,---- -- ----- -- ------ - ------- --- ----------<br>------------- ------ ------ ---- ---- ------- ----- -- ----<br>-------- ------- -- ---------- But - --- ----- ----- ----<br>---- --- --- ----- --- ---- ---- ------- ----- ---- -------<br>--- --- -- ----- -- --- ---- -- --- ---- -- ------ ------<br>--- ----- -- ----,102288.20000004768,102287.39999985695,101446.987,101448.79999995232,101463.658,102297.121,,22,But
screen,html.Screen,0_2_0_1_23,2021-11-19T13:58:30.913Z,,,,,,,,,,,,,,,,53,,,,,,,,,,,,,,606.2789998569497,,response,,,99,,,,,,Space,keypress(Space),,,,,---- -- ----- -- ------ - ------- --- ----------<br>------------- ------ ------ ---- ---- ------- ----- -- ----<br>-------- ------- -- ---------- --- a --- ----- ----- ----<br>---- --- --- ----- --- ---- ---- ------- ----- ---- -------<br>--- --- -- ----- -- --- ---- -- --- ---- -- ------ ------<br>--- ----- -- ----,102904.29999995232,102903.39999985695,102280.451,102288.5,102297.121,102913.873,,23,a
screen,html.Screen,0_2_0_1_24,2021-11-19T13:58:31.433Z,,,,,,,,,,,,,,,,53,,,,,,,,,,,,,,509.4269999523094,,response,,,99,,,,,,Space,keypress(Space),,,,,---- -- ----- -- ------ - ------- --- ----------<br>------------- ------ ------ ---- ---- ------- ----- -- ----<br>-------- ------- -- ---------- --- - new ----- ----- ----<br>---- --- --- ----- --- ---- ---- ------- ----- ---- -------<br>--- --- -- ----- -- --- ---- -- --- ---- -- ------ ------<br>--- ----- -- ----,103424.20000004768,103423.29999995232,102897.203,102904.59999990463,102913.873,103430.878,,24,new
screen,html.Screen,0_2_0_1_25,2021-11-19T13:58:31.929Z,,,,,,,,,,,,,,,,53,,,,,,,,,,,,,,488.4219999523193,,response,,,99,,,,,,Space,keypress(Space),,,,,---- -- ----- -- ------ - ------- --- ----------<br>------------- ------ ------ ---- ---- ------- ----- -- ----<br>-------- ------- -- ---------- --- - --- study ----- ----<br>---- --- --- ----- --- ---- ---- ------- ----- ---- -------<br>--- --- -- ----- -- --- ---- -- --- ---- -- ------ ------<br>--- ----- -- ----,103920.20000004768,103919.29999995232,103414.206,103424.59999990463,103430.878,103930.91,,25,study
screen,html.Screen,0_2_0_1_26,2021-11-19T13:58:32.361Z,,,,,,,,,,,,,,,,53,,,,,,,,,,,,,,420.3899999523128,,response,,,99,,,,,,Space,keypress(Space),,,,,---- -- ----- -- ------ - ------- --- ----------<br>------------- ------ ------ ---- ---- ------- ----- -- ----<br>-------- ------- -- ---------- --- - --- ----- finds ----<br>---- --- --- ----- --- ---- ---- ------- ----- ---- -------<br>--- --- -- ----- -- --- ---- -- --- ---- -- ------ ------<br>--- ----- -- ----,104352.20000004768,104351.29999995232,103914.24,103920.39999985695,103930.91,104364.396,,26,finds
screen,html.Screen,0_2_0_1_27,2021-11-19T13:58:32.817Z,,,,,,,,,,,,,,,,53,,,,,,,,,,,,,,442.9039999523229,,response,,,99,,,,,,Space,keypress(Space),,,,,---- -- ----- -- ------ - ------- --- ----------<br>------------- ------ ------ ---- ---- ------- ----- -- ----<br>-------- ------- -- ---------- --- - --- ----- ----- that<br>---- --- --- ----- --- ---- ---- ------- ----- ---- -------<br>--- --- -- ----- -- --- ---- -- --- ---- -- ------ ------<br>--- ----- -- ----,104808,104807.29999995232,104347.725,104352.5,104364.396,104814.379,,27,that
screen,html.Screen,0_2_0_1_28,2021-11-19T13:58:33.417Z,,,,,,,,,,,,,,,,53,,,,,,,,,,,,,,592.8210000476829,,response,,,99,,,,,,Space,keypress(Space),,,,,---- -- ----- -- ------ - ------- --- ----------<br>------------- ------ ------ ---- ---- ------- ----- -- ----<br>-------- ------- -- ---------- --- - --- ----- ----- ----<br>it's --- --- ----- --- ---- ---- ------- ----- ---- -------<br>--- --- -- ----- -- --- ---- -- --- ---- -- ------ ------<br>--- ----- -- ----,105408,105407.20000004768,104797.71,104808.29999995232,104814.379,105414.735,,28,it's
screen,html.Screen,0_2_0_1_29,2021-11-19T13:58:33.865Z,,,,,,,,,,,,,,,,53,,,,,,,,,,,,,,440.46500004768313,,response,,,99,,,,,,Space,keypress(Space),,,,,---- -- ----- -- ------ - ------- --- ----------<br>------------- ------ ------ ---- ---- ------- ----- -- ----<br>-------- ------- -- ---------- --- - --- ----- ----- ----<br>---- not --- ----- --- ---- ---- ------- ----- ---- -------<br>--- --- -- ----- -- --- ---- -- --- ---- -- ------ ------<br>--- ----- -- ----,105856,105855.20000004768,105398.063,105408.29999995232,105414.735,105864.732,,29,not
screen,html.Screen,0_2_0_1_30,2021-11-19T13:58:34.393Z,,,,,,,,,,,,,,,,53,,,,,,,,,,,,,,518.4680000476801,,response,,,99,,,,,,Space,keypress(Space),,,,,---- -- ----- -- ------ - ------- --- ----------<br>------------- ------ ------ ---- ---- ------- ----- -- ----<br>-------- ------- -- ---------- --- - --- ----- ----- ----<br>---- --- how ----- --- ---- ---- ------- ----- ---- -------<br>--- --- -- ----- -- --- ---- -- --- ---- -- ------ ------<br>--- ----- -- ----,106384,106383.20000004768,105848.062,105856.29999995232,105864.732,106398.186,,30,how
screen,html.Screen,0_2_0_1_31,2021-11-19T13:58:34.961Z,,,,,,,,,,,,,,,,53,,,,,,,,,,,,,,552.913999904631,,response,,,99,,,,,,Space,keypress(Space),,,,,---- -- ----- -- ------ - ------- --- ----------<br>------------- ------ ------ ---- ---- ------- ----- -- ----<br>-------- ------- -- ---------- --- - --- ----- ----- ----<br>---- --- --- close --- ---- ---- ------- ----- ---- -------<br>--- --- -- ----- -- --- ---- -- --- ---- -- ------ ------<br>--- ----- -- ----,106951.89999985695,106951.09999990463,106381.516,106384.20000004768,106398.186,106965.085,,31,close
screen,html.Screen,0_2_0_1_32,2021-11-19T13:58:35.449Z,,,,,,,,,,,,,,,,53,,,,,,,,,,,,,,474.1150000476773,,response,,,99,,,,,,Space,keypress(Space),,,,,---- -- ----- -- ------ - ------- --- ----------<br>------------- ------ ------ ---- ---- ------- ----- -- ----<br>-------- ------- -- ---------- --- - --- ----- ----- ----<br>---- --- --- ----- you ---- ---- ------- ----- ---- -------<br>--- --- -- ----- -- --- ---- -- --- ---- -- ------ ------<br>--- ----- -- ----,107440.09999990463,107439.20000004768,106948.414,106952.20000004768,106965.085,107448.476,,32,you
screen,html.Screen,0_2_0_1_33,2021-11-19T13:58:35.937Z,,,,,,,,,,,,,,,,53,,,,,,,,,,,,,,478.62399990463746,,response,,,99,,,,,,Space,keypress(Space),,,,,---- -- ----- -- ------ - ------- --- ----------<br>------------- ------ ------ ---- ---- ------- ----- -- ----<br>-------- ------- -- ---------- --- - --- ----- ----- ----<br>---- --- --- ----- --- feel ---- ------- ----- ---- -------<br>--- --- -- ----- -- --- ---- -- --- ---- -- ------ ------<br>--- ----- -- ----,107927.89999985695,107927.09999990463,107431.806,107440.29999995232,107448.476,107931.917,,33,feel
screen,html.Screen,0_2_0_1_34,2021-11-19T13:58:36.401Z,,,,,,,,,,,,,,,,53,,,,,,,,,,,,,,459.1829999046313,,response,,,99,,,,,,Space,keypress(Space),,,,,---- -- ----- -- ------ - ------- --- ----------<br>------------- ------ ------ ---- ---- ------- ----- -- ----<br>-------- ------- -- ---------- --- - --- ----- ----- ----<br>---- --- --- ----- --- ---- that ------- ----- ---- -------<br>--- --- -- ----- -- --- ---- -- --- ---- -- ------ ------<br>--- ----- -- ----,108391.79999995232,108391.09999990463,107915.247,107928.29999995232,107931.917,108398.775,,34,that
screen,html.Screen,0_2_0_1_35,2021-11-19T13:58:36.913Z,,,,,,,,,,,,,,,,53,,,,,,,,,,,,,,504.6249998569547,,response,,,99,,,,,,Space,keypress(Space),,,,,---- -- ----- -- ------ - ------- --- ----------<br>------------- ------ ------ ---- ---- ------- ----- -- ----<br>-------- ------- -- ---------- --- - --- ----- ----- ----<br>---- --- --- ----- --- ---- ---- matters ----- ---- -------<br>--- --- -- ----- -- --- ---- -- --- ---- -- ------ ------<br>--- ----- -- ----,108904.20000004768,108903.39999985695,108382.104,108392.09999990463,108398.775,108915.458,,35,matters
screen,html.Screen,0_2_0_1_36,2021-11-19T13:58:37.385Z,,,,,,,,,,,,,,,,53,,,,,,,,,,,,,,459.64199990463385,,response,,,99,,,,,,Space,keypress(Space),,,,,"---- -- ----- -- ------ - ------- --- ----------<br>------------- ------ ------ ---- ---- ------- ----- -- ----<br>-------- ------- -- ---------- --- - --- ----- ----- ----<br>---- --- --- ----- --- ---- ---- ------- most, ---- -------<br>--- --- -- ----- -- --- ---- -- --- ---- -- ------ ------<br>--- ----- -- ----",109376.09999990463,109375.09999990463,108898.789,108904.5,108915.458,109382.374,,36,"most,"
screen,html.Screen,0_2_0_1_37,2021-11-19T13:58:37.881Z,,,,,,,,,,,,,,,,53,,,,,,,,,,,,,,488.5259998569527,,response,,,99,,,,,,Space,keypress(Space),,,,,---- -- ----- -- ------ - ------- --- ----------<br>------------- ------ ------ ---- ---- ------- ----- -- ----<br>-------- ------- -- ---------- --- - --- ----- ----- ----<br>---- --- --- ----- --- ---- ---- ------- ----- it's -------<br>--- --- -- ----- -- --- ---- -- --- ---- -- ------ ------<br>--- ----- -- ----,109871.70000004768,109870.89999985695,109365.702,109376.29999995232,109382.374,109882.266,,37,it's
screen,html.Screen,0_2_0_1_38,2021-11-19T13:58:38.369Z,,,,,,,,,,,,,,,,53,,,,,,,,,,,,,,476.6339998569456,,response,,,99,,,,,,Space,keypress(Space),,,,,---- -- ----- -- ------ - ------- --- ----------<br>------------- ------ ------ ---- ---- ------- ----- -- ----<br>-------- ------- -- ---------- --- - --- ----- ----- ----<br>---- --- --- ----- --- ---- ---- ------- ----- ---- whether<br>--- --- -- ----- -- --- ---- -- --- ---- -- ------ ------<br>--- ----- -- ----,110359.70000004768,110358.89999985695,109865.598,109871.89999985695,109882.266,110366.004,,38,whether
screen,html.Screen,0_2_0_1_39,2021-11-19T13:58:38.769Z,,,,,,,,,,,,,,,,53,,,,,,,,,,,,,,392.89599985694804,,response,,,99,,,,,,Space,keypress(Space),,,,,---- -- ----- -- ------ - ------- --- ----------<br>------------- ------ ------ ---- ---- ------- ----- -- ----<br>-------- ------- -- ---------- --- - --- ----- ----- ----<br>---- --- --- ----- --- ---- ---- ------- ----- ---- -------<br>you --- -- ----- -- --- ---- -- --- ---- -- ------ ------<br>--- ----- -- ----,110759.79999995232,110758.89999985695,110349.332,110359.89999985695,110366.004,110766.065,,39,you
screen,html.Screen,0_2_0_1_40,2021-11-19T13:58:39.257Z,,,,,,,,,,,,,,,,53,,,,,,,,,,,,,,480.8349998569465,,response,,,99,,,,,,Space,keypress(Space),,,,,---- -- ----- -- ------ - ------- --- ----------<br>------------- ------ ------ ---- ---- ------- ----- -- ----<br>-------- ------- -- ---------- --- - --- ----- ----- ----<br>---- --- --- ----- --- ---- ---- ------- ----- ---- -------<br>--- are -- ----- -- --- ---- -- --- ---- -- ------ ------<br>--- ----- -- ----,111247.79999995232,111246.89999985695,110749.394,110760.09999990463,110766.065,111249.393,,40,are
screen,html.Screen,0_2_0_1_41,2021-11-19T13:58:39.785Z,,,,,,,,,,,,,,,,53,,,,,,,,,,,,,,525.5069998569525,,response,,,99,,,,,,Space,keypress(Space),,,,,---- -- ----- -- ------ - ------- --- ----------<br>------------- ------ ------ ---- ---- ------- ----- -- ----<br>-------- ------- -- ---------- --- - --- ----- ----- ----<br>---- --- --- ----- --- ---- ---- ------- ----- ---- -------<br>--- --- as ----- -- --- ---- -- --- ---- -- ------ ------<br>--- ----- -- ----,111775.89999985695,111774.89999985695,111232.724,111248.09999990463,111249.393,111782.965,,41,as
screen,html.Screen,0_2_0_1_42,2021-11-19T13:58:40.257Z,,,,,,,,,,,,,,,,53,,,,,,,,,,,,,,463.8349999523198,,response,,,99,,,,,,Space,keypress(Space),,,,,---- -- ----- -- ------ - ------- --- ----------<br>------------- ------ ------ ---- ---- ------- ----- -- ----<br>-------- ------- -- ---------- --- - --- ----- ----- ----<br>---- --- --- ----- --- ---- ---- ------- ----- ---- -------<br>--- --- -- close -- --- ---- -- --- ---- -- ------ ------<br>--- ----- -- ----,112247.59999990463,112246.79999995232,111766.294,111776.09999990463,111782.965,112249.634,,42,close
screen,html.Screen,0_2_0_1_43,2021-11-19T13:58:40.777Z,,,,,,,,,,,,,,,,53,,,,,,,,,,,,,,517.1659999523108,,response,,,99,,,,,,Space,keypress(Space),,,,,---- -- ----- -- ------ - ------- --- ----------<br>------------- ------ ------ ---- ---- ------- ----- -- ----<br>-------- ------- -- ---------- --- - --- ----- ----- ----<br>---- --- --- ----- --- ---- ---- ------- ----- ---- -------<br>--- --- -- ----- as --- ---- -- --- ---- -- ------ ------<br>--- ----- -- ----,112767.59999990463,112766.79999995232,112232.965,112247.79999995232,112249.634,112783.219,,43,as
screen,html.Screen,0_2_0_1_44,2021-11-19T13:58:41.280Z,,,,,,,,,,,,,,,,53,,,,,,,,,,,,,,487.58099995231896,,response,,,99,,,,,,Space,keypress(Space),,,,,---- -- ----- -- ------ - ------- --- ----------<br>------------- ------ ------ ---- ---- ------- ----- -- ----<br>-------- ------- -- ---------- --- - --- ----- ----- ----<br>---- --- --- ----- --- ---- ---- ------- ----- ---- -------<br>--- --- -- ----- -- you ---- -- --- ---- -- ------ ------<br>--- ----- -- ----,113271.5,113270.79999995232,112766.548,112767.79999995232,112783.219,113283.3,,44,you
screen,html.Screen,0_2_0_1_45,2021-11-19T13:58:41.752Z,,,,,,,,,,,,,,,,53,,,,,,,,,,,,,,459.4999999523134,,response,,,99,,,,,,Space,keypress(Space),,,,,---- -- ----- -- ------ - ------- --- ----------<br>------------- ------ ------ ---- ---- ------- ----- -- ----<br>-------- ------- -- ---------- --- - --- ----- ----- ----<br>---- --- --- ----- --- ---- ---- ------- ----- ---- -------<br>--- --- -- ----- -- --- want -- --- ---- -- ------ ------<br>--- ----- -- ----,113743.59999990463,113742.79999995232,113266.63,113271.79999995232,113283.3,113750.154,,45,want
screen,html.Screen,0_2_0_1_46,2021-11-19T13:58:42.208Z,,,,,,,,,,,,,,,,53,,,,,,,,,,,,,,448.6459999523213,,response,,,99,,,,,,Space,keypress(Space),,,,,---- -- ----- -- ------ - ------- --- ----------<br>------------- ------ ------ ---- ---- ------- ----- -- ----<br>-------- ------- -- ---------- --- - --- ----- ----- ----<br>---- --- --- ----- --- ---- ---- ------- ----- ---- -------<br>--- --- -- ----- -- --- ---- to --- ---- -- ------ ------<br>--- ----- -- ----,114199.59999990463,114198.79999995232,113733.483,113743.79999995232,113750.154,114216.902,,46,to
screen,html.Screen,0_2_0_1_47,2021-11-19T13:58:42.696Z,,,,,,,,,,,,,,,,53,,,,,,,,,,,,,,469.79800004768185,,response,,,99,,,,,,Space,keypress(Space),,,,,"---- -- ----- -- ------ - ------- --- ----------<br>------------- ------ ------ ---- ---- ------- ----- -- ----<br>-------- ------- -- ---------- --- - --- ----- ----- ----<br>---- --- --- ----- --- ---- ---- ------- ----- ---- -------<br>--- --- -- ----- -- --- ---- -- be, ---- -- ------ ------<br>--- ----- -- ----",114687.5,114686.70000004768,114200.232,114199.79999995232,114216.902,114700.355,,47,"be,"
screen,html.Screen,0_2_0_1_48,2021-11-19T13:58:43.240Z,,,,,,,,,,,,,,,,53,,,,,,,,,,,,,,530.3450000476878,,response,,,99,,,,,,Space,keypress(Space),,,,,---- -- ----- -- ------ - ------- --- ----------<br>------------- ------ ------ ---- ---- ------- ----- -- ----<br>-------- ------- -- ---------- --- - --- ----- ----- ----<br>---- --- --- ----- --- ---- ---- ------- ----- ---- -------<br>--- --- -- ----- -- --- ---- -- --- even -- ------ ------<br>--- ----- -- ----,115231.5,115230.70000004768,114683.685,114687.70000004768,114700.355,115233.824,,48,even
screen,html.Screen,0_2_0_1_49,2021-11-19T13:58:43.696Z,,,,,,,,,,,,,,,,53,,,,,,,,,,,,,,452.87600004769047,,response,,,99,,,,,,Space,keypress(Space),,,,,---- -- ----- -- ------ - ------- --- ----------<br>------------- ------ ------ ---- ---- ------- ----- -- ----<br>-------- ------- -- ---------- --- - --- ----- ----- ----<br>---- --- --- ----- --- ---- ---- ------- ----- ---- -------<br>--- --- -- ----- -- --- ---- -- --- ---- if ------ ------<br>--- ----- -- ----,115687.39999985695,115686.70000004768,115217.154,115231.70000004768,115233.824,115700.657,,49,if
screen,html.Screen,0_2_0_1_50,2021-11-19T13:58:44.168Z,,,,,,,,,,,,,,,,53,,,,,,,,,,,,,,457.94299990462605,,response,,,99,,,,,,Space,keypress(Space),,,,,---- -- ----- -- ------ - ------- --- ----------<br>------------- ------ ------ ---- ---- ------- ----- -- ----<br>-------- ------- -- ---------- --- - --- ----- ----- ----<br>---- --- --- ----- --- ---- ---- ------- ----- ---- -------<br>--- --- -- ----- -- --- ---- -- --- ---- -- that's ------<br>--- ----- -- ----,116159.39999985695,116158.59999990463,115683.986,115687.79999995232,115700.657,116167.371,,50,that's
screen,html.Screen,0_2_0_1_51,2021-11-19T13:58:44.728Z,,,,,,,,,,,,,,,,53,,,,,,,,,,,,,,551.2289999046334,,response,,,99,,,,,,Space,keypress(Space),,,,,---- -- ----- -- ------ - ------- --- ----------<br>------------- ------ ------ ---- ---- ------- ----- -- ----<br>-------- ------- -- ---------- --- - --- ----- ----- ----<br>---- --- --- ----- --- ---- ---- ------- ----- ---- -------<br>--- --- -- ----- -- --- ---- -- --- ---- -- ------ really<br>--- ----- -- ----,116719.39999985695,116718.59999990463,116150.701,116159.70000004768,116167.371,116734.164,,51,really
screen,html.Screen,0_2_0_1_52,2021-11-19T13:58:45.136Z,,,,,,,,,,,,,,,,53,,,,,,,,,,,,,,392.43599990462826,,response,,,99,,,,,,Space,keypress(Space),,,,,---- -- ----- -- ------ - ------- --- ----------<br>------------- ------ ------ ---- ---- ------- ----- -- ----<br>-------- ------- -- ---------- --- - --- ----- ----- ----<br>---- --- --- ----- --- ---- ---- ------- ----- ---- -------<br>--- --- -- ----- -- --- ---- -- --- ---- -- ------ ------<br>not ----- -- ----,117127.39999985695,117126.59999990463,116717.494,116719.59999990463,116734.164,117134.344,,52,not
screen,html.Screen,0_2_0_1_53,2021-11-19T13:58:45.600Z,,,,,,,,,,,,,,,,53,,,,,,,,,,,,,,456.25599990463525,,response,,,99,,,,,,Space,keypress(Space),,,,,---- -- ----- -- ------ - ------- --- ----------<br>------------- ------ ------ ---- ---- ------- ----- -- ----<br>-------- ------- -- ---------- --- - --- ----- ----- ----<br>---- --- --- ----- --- ---- ---- ------- ----- ---- -------<br>--- --- -- ----- -- --- ---- -- --- ---- -- ------ ------<br>--- close -- ----,117591.29999995232,117590.59999990463,117117.673,117127.70000004768,117134.344,117601.138,,53,close
screen,html.Screen,0_2_0_1_54,2021-11-19T13:58:46.064Z,,,,,,,,,,,,,,,,53,,,,,,,,,,,,,,453.4619999046263,,response,,,99,,,,,,Space,keypress(Space),,,,,---- -- ----- -- ------ - ------- --- ----------<br>------------- ------ ------ ---- ---- ------- ----- -- ----<br>-------- ------- -- ---------- --- - --- ----- ----- ----<br>---- --- --- ----- --- ---- ---- ------- ----- ---- -------<br>--- --- -- ----- -- --- ---- -- --- ---- -- ------ ------<br>--- ----- at ----,118055.39999985695,118054.59999990463,117584.467,117591.5,117601.138,118067.864,,54,at
screen,html.Screen,0_2_0_1_55,2021-11-19T13:58:46.536Z,,,,,,,,,,,,,,,,53,,,,,,,,,,,,,,458.73599990463117,,response,,,99,,,,,,Space,keypress(Space),,,,,---- -- ----- -- ------ - ------- --- ----------<br>------------- ------ ------ ---- ---- ------- ----- -- ----<br>-------- ------- -- ---------- --- - --- ----- ----- ----<br>---- --- --- ----- --- ---- ---- ------- ----- ---- -------<br>--- --- -- ----- -- --- ---- -- --- ---- -- ------ ------<br>--- ----- -- all.,118527.29999995232,118526.59999990463,118051.194,118055.59999990463,118067.864,118534.675,,55,all.
Item 99,flow.Loop,0_2_0_1,2021-11-19T13:58:46.541Z,,,,,,,,,,,,,,,,,,,,,,,,,,,,,,31500.304999904634,,completion,,,,D,,,,,,,,,,silence,,118531.89999985695,118526.59999990463,87009.626,87016.39999985695,87026.295,118534.675,,,
Question 1,html.Screen,0_2_0_2,2021-11-19T13:58:50.130Z,,,,,,,,,,,,,,,,,,,,,,,,,,,true,FALSE,,3584.6249999523134,,response,,,99,D,,,,,FALSE,click #choice-2,,,,silence,,122120.70000004768,122119.29999995232,118518.005,118532.20000004768,118534.675,122135.595,,,
Question 2,html.Screen,0_2_0_3,2021-11-19T13:58:54.988Z,,,,,,,,,,,,,,,,,,,,,,,,,,,true,TRUE,,4841.904999999999,,response,,,99,D,,,,,TRUE,click #choice-1,,,,silence,,126978.59999990463,126977.5,122118.925,122120.89999985695,122135.595,126986.985,,,
Item 99,flow.Sequence,0_2_0,2021-11-19T13:58:54.988Z,,,,,,,,,,,,,,,,,,,,,,,,,,,,,,49953.456999999995,,completion,,,,,,,,,,,,,,,,126979.09999990463,126977.5,77007.371,77016.29999995232,77024.043,126986.985,,,
Holding screen,html.Screen,0_2_1_0,2021-11-19T13:59:04.987Z,,,,,,,,,,,,,,,,,,,,,,,,,,,,,,10002.291000000012,,timeout,,,,,,,,,,,,,,,,136974.09999990463,136972.606,126970.311,126979.39999985695,126986.985,136989.276,,,
screen,html.Screen,0_2_1_1_0,2021-11-19T13:59:07.028Z,,,,,,,,,,,,,,,,54,,,,,,,,,,,,,,2024.6239998569363,,response,,,100,,,,,,Space,keypress(Space),,,,,At --- ---- --- ------ ----- ------- ---- -- --- ------- --<br>------- ---------- ------ -- ----- -- ----- -- ---- ------<br>--- ----- --- --- ------ -------- ----- --- ------ ----- --<br>----- ----- ---------- --- --- ------ ------ ---- -- ------<br>------- --- ------ ----- --- ---- ------- -- ---- --- --<br>------- ------,139014.89999985695,139013.89999985695,136972.606,136974.5,136989.276,139023.278,,0,At
screen,html.Screen,0_2_1_1_1,2021-11-19T13:59:07.499Z,,,,,,,,,,,,,,,,54,,,,,,,,,,,,,,462.1219998569577,,response,,,100,,,,,,Space,keypress(Space),,,,,-- the ---- --- ------ ----- ------- ---- -- --- ------- --<br>------- ---------- ------ -- ----- -- ----- -- ---- ------<br>--- ----- --- --- ------ -------- ----- --- ------ ----- --<br>----- ----- ---------- --- --- ------ ------ ---- -- ------<br>------- --- ------ ----- --- ---- ------- -- ---- --- --<br>------- ------,139486.29999995232,139485.39999985695,139006.607,139015.20000004768,139023.278,139490.141,,1,the
screen,html.Screen,0_2_1_1_2,2021-11-19T13:59:07.883Z,,,,,,,,,,,,,,,,54,,,,,,,,,,,,,,379.158999952313,,response,,,100,,,,,,Space,keypress(Space),,,,,-- --- time --- ------ ----- ------- ---- -- --- ------- --<br>------- ---------- ------ -- ----- -- ----- -- ---- ------<br>--- ----- --- --- ------ -------- ----- --- ------ ----- --<br>----- ----- ---------- --- --- ------ ------ ---- -- ------<br>------- --- ------ ----- --- ---- ------- -- ---- --- --<br>------- ------,139870.20000004768,139869.29999995232,139473.47,139486.5,139490.141,139873.499,,2,time
screen,html.Screen,0_2_1_1_3,2021-11-19T13:59:08.307Z,,,,,,,,,,,,,,,,54,,,,,,,,,,,,,,419.8009999523056,,response,,,100,,,,,,Space,keypress(Space),,,,,-- --- ---- the ------ ----- ------- ---- -- --- ------- --<br>------- ---------- ------ -- ----- -- ----- -- ---- ------<br>--- ----- --- --- ------ -------- ----- --- ------ ----- --<br>----- ----- ---------- --- --- ------ ------ ---- -- ------<br>------- --- ------ ----- --- ---- ------- -- ---- --- --<br>------- ------,140294.20000004768,140293.29999995232,139856.829,139870.39999985695,139873.499,140306.945,,3,the
screen,html.Screen,0_2_1_1_4,2021-11-19T13:59:08.835Z,,,,,,,,,,,,,,,,54,,,,,,,,,,,,,,514.3549999523093,,response,,,100,,,,,,Space,keypress(Space),,,,,-- --- ---- --- French ----- ------- ---- -- --- ------- --<br>------- ---------- ------ -- ----- -- ----- -- ---- ------<br>--- ----- --- --- ------ -------- ----- --- ------ ----- --<br>----- ----- ---------- --- --- ------ ------ ---- -- ------<br>------- --- ------ ----- --- ---- ------- -- ---- --- --<br>------- ------,140822.09999990463,140821.29999995232,140290.275,140294.39999985695,140306.945,140823.737,,4,French
screen,html.Screen,0_2_1_1_5,2021-11-19T13:59:09.243Z,,,,,,,,,,,,,,,,54,,,,,,,,,,,,,,405.56299995232257,,response,,,100,,,,,,Space,keypress(Space),,,,,-- --- ---- --- ------ crown ------- ---- -- --- ------- --<br>------- ---------- ------ -- ----- -- ----- -- ---- ------<br>--- ----- --- --- ------ -------- ----- --- ------ ----- --<br>----- ----- ---------- --- --- ------ ------ ---- -- ------<br>------- --- ------ ----- --- ---- ------- -- ---- --- --<br>------- ------,141230.20000004768,141229.29999995232,140807.067,140822.29999995232,140823.737,141240.521,,5,crown
screen,html.Screen,0_2_1_1_6,2021-11-19T13:59:09.667Z,,,,,,,,,,,,,,,,54,,,,,,,,,,,,,,412.77899995230837,,response,,,100,,,,,,Space,keypress(Space),,,,,-- --- ---- --- ------ ----- secured ---- -- --- ------- --<br>------- ---------- ------ -- ----- -- ----- -- ---- ------<br>--- ----- --- --- ------ -------- ----- --- ------ ----- --<br>----- ----- ---------- --- --- ------ ------ ---- -- ------<br>------- --- ------ ----- --- ---- ------- -- ---- --- --<br>------- ------,141654.09999990463,141653.29999995232,141223.851,141230.5,141240.521,141657.296,,6,secured
screen,html.Screen,0_2_1_1_7,2021-11-19T13:59:10.075Z,,,,,,,,,,,,,,,,54,,,,,,,,,,,,,,403.9040000476816,,response,,,100,,,,,,Space,keypress(Space),,,,,-- --- ---- --- ------ ----- ------- much -- --- ------- --<br>------- ---------- ------ -- ----- -- ----- -- ---- ------<br>--- ----- --- --- ------ -------- ----- --- ------ ----- --<br>----- ----- ---------- --- --- ------ ------ ---- -- ------<br>------- --- ------ ----- --- ---- ------- -- ---- --- --<br>------- ------,142062,142061.20000004768,141640.626,141654.29999995232,141657.296,142074.069,,7,much
screen,html.Screen,0_2_1_1_8,2021-11-19T13:59:10.619Z,,,,,,,,,,,,,,,,54,,,,,,,,,,,,,,531.2309999523277,,response,,,100,,,,,,Space,keypress(Space),,,,,-- --- ---- --- ------ ----- ------- ---- of --- ------- --<br>------- ---------- ------ -- ----- -- ----- -- ---- ------<br>--- ----- --- --- ------ -------- ----- --- ------ ----- --<br>----- ----- ---------- --- --- ------ ------ ---- -- ------<br>------- --- ------ ----- --- ---- ------- -- ---- --- --<br>------- ------,142606,142605.29999995232,142057.399,142062.29999995232,142074.069,142607.523,,8,of
screen,html.Screen,0_2_1_1_9,2021-11-19T13:59:11.035Z,,,,,,,,,,,,,,,,54,,,,,,,,,,,,,,413.5769999046461,,response,,,100,,,,,,Space,keypress(Space),,,,,-- --- ---- --- ------ ----- ------- ---- -- its ------- --<br>------- ---------- ------ -- ----- -- ----- -- ---- ------<br>--- ----- --- --- ------ -------- ----- --- ------ ----- --<br>----- ----- ---------- --- --- ------ ------ ---- -- ------<br>------- --- ------ ----- --- ---- ------- -- ---- --- --<br>------- ------,143021.89999985695,143021.09999990463,142590.853,142606.20000004768,142607.523,143024.35,,9,its
screen,html.Screen,0_2_1_1_10,2021-11-19T13:59:11.419Z,,,,,,,,,,,,,,,,54,,,,,,,,,,,,,,380.74999990462675,,response,,,100,,,,,,Space,keypress(Space),,,,,-- --- ---- --- ------ ----- ------- ---- -- --- revenue --<br>------- ---------- ------ -- ----- -- ----- -- ---- ------<br>--- ----- --- --- ------ -------- ----- --- ------ ----- --<br>----- ----- ---------- --- --- ------ ------ ---- -- ------<br>------- --- ------ ----- --- ---- ------- -- ---- --- --<br>------- ------,143406,143405.09999990463,143007.679,143022.09999990463,143024.35,143407.749,,10,revenue
screen,html.Screen,0_2_1_1_11,2021-11-19T13:59:12.595Z,,,,,,,,,,,,,,,,54,,,,,,,,,,,,,,1173.2509999999893,,response,,,100,,,,,,Space,keypress(Space),,,,,-- --- ---- --- ------ ----- ------- ---- -- --- ------- by<br>------- ---------- ------ -- ----- -- ----- -- ---- ------<br>--- ----- --- --- ------ -------- ----- --- ------ ----- --<br>----- ----- ---------- --- --- ------ ------ ---- -- ------<br>------- --- ------ ----- --- ---- ------- -- ---- --- --<br>------- ------,144581.89999985695,144581,143391.079,143406.29999995232,143407.749,144591.331,,11,by
screen,html.Screen,0_2_1_1_12,2021-11-19T13:59:13.051Z,,,,,,,,,,,,,,,,54,,,,,,,,,,,,,,445.768999904627,,response,,,100,,,,,,Space,keypress(Space),,,,,-- --- ---- --- ------ ----- ------- ---- -- --- ------- --<br>issuing ---------- ------ -- ----- -- ----- -- ---- ------<br>--- ----- --- --- ------ -------- ----- --- ------ ----- --<br>----- ----- ---------- --- --- ------ ------ ---- -- ------<br>------- --- ------ ----- --- ---- ------- -- ---- --- --<br>------- ------,145037.89999985695,145037.09999990463,144574.661,144582.09999990463,144591.331,145041.489,,12,issuing
screen,html.Screen,0_2_1_1_13,2021-11-19T13:59:13.483Z,,,,,,,,,,,,,,,,54,,,,,,,,,,,,,,427.5109999999986,,response,,,100,,,,,,Space,keypress(Space),,,,,-- --- ---- --- ------ ----- ------- ---- -- --- ------- --<br>------- government ------ -- ----- -- ----- -- ---- ------<br>--- ----- --- --- ------ -------- ----- --- ------ ----- --<br>----- ----- ---------- --- --- ------ ------ ---- -- ------<br>------- --- ------ ----- --- ---- ------- -- ---- --- --<br>------- ------,145469.89999985695,145469,145024.818,145038.20000004768,145041.489,145474.82,,13,government
screen,html.Screen,0_2_1_1_14,2021-11-19T13:59:14.019Z,,,,,,,,,,,,,,,,54,,,,,,,,,,,,,,530.179999999993,,response,,,100,,,,,,Space,keypress(Space),,,,,-- --- ---- --- ------ ----- ------- ---- -- --- ------- --<br>------- ---------- bonds. -- ----- -- ----- -- ---- ------<br>--- ----- --- --- ------ -------- ----- --- ------ ----- --<br>----- ----- ---------- --- --- ------ ------ ---- -- ------<br>------- --- ------ ----- --- ---- ------- -- ---- --- --<br>------- ------,146005.59999990463,146005,145458.151,145470.09999990463,145474.82,146008.451,,14,bonds.
screen,html.Screen,0_2_1_1_15,2021-11-19T13:59:14.531Z,,,,,,,,,,,,,,,,54,,,,,,,,,,,,,,508.4489998569479,,response,,,100,,,,,,Space,keypress(Space),,,,,-- --- ---- --- ------ ----- ------- ---- -- --- ------- --<br>------- ---------- ------ In ----- -- ----- -- ---- ------<br>--- ----- --- --- ------ -------- ----- --- ------ ----- --<br>----- ----- ---------- --- --- ------ ------ ---- -- ------<br>------- --- ------ ----- --- ---- ------- -- ---- --- --<br>------- ------,146517.79999995232,146516.89999985695,145991.779,146005.89999985695,146008.451,146525.161,,15,In
screen,html.Screen,0_2_1_1_16,2021-11-19T13:59:15.803Z,,,,,,,,,,,,,,,,54,,,,,,,,,,,,,,1263.6389999523235,,response,,,100,,,,,,Space,keypress(Space),,,,,"-- --- ---- --- ------ ----- ------- ---- -- --- ------- --<br>------- ---------- ------ -- 1727, -- ----- -- ---- ------<br>--- ----- --- --- ------ -------- ----- --- ------ ----- --<br>----- ----- ---------- --- --- ------ ------ ---- -- ------<br>------- --- ------ ----- --- ---- ------- -- ---- --- --<br>------- ------",147789.59999990463,147788.79999995232,146508.491,146517.89999985695,146525.161,147792.356,,16,"1727,"
screen,html.Screen,0_2_1_1_17,2021-11-19T13:59:16.210Z,,,,,,,,,,,,,,,,54,,,,,,,,,,,,,,404.2439999046328,,response,,,100,,,,,,Space,keypress(Space),,,,,-- --- ---- --- ------ ----- ------- ---- -- --- ------- --<br>------- ---------- ------ -- ----- in ----- -- ---- ------<br>--- ----- --- --- ------ -------- ----- --- ------ ----- --<br>----- ----- ---------- --- --- ------ ------ ---- -- ------<br>------- --- ------ ----- --- ---- ------- -- ---- --- --<br>------- ------,148197.20000004768,148196.59999990463,147775.684,147789.89999985695,147792.356,148208.924,,17,in
screen,html.Screen,0_2_1_1_18,2021-11-19T13:59:16.683Z,,,,,,,,,,,,,,,,54,,,,,,,,,,,,,,459.8759999523172,,response,,,100,,,,,,Space,keypress(Space),,,,,-- --- ---- --- ------ ----- ------- ---- -- --- ------- --<br>------- ---------- ------ -- ----- -- order -- ---- ------<br>--- ----- --- --- ------ -------- ----- --- ------ ----- --<br>----- ----- ---------- --- --- ------ ------ ---- -- ------<br>------- --- ------ ----- --- ---- ------- -- ---- --- --<br>------- ------,148669.79999995232,148668.79999995232,148192.254,148197.29999995232,148208.924,148675.647,,18,order
screen,html.Screen,0_2_1_1_19,2021-11-19T13:59:17.067Z,,,,,,,,,,,,,,,,54,,,,,,,,,,,,,,377.6529999523191,,response,,,100,,,,,,Space,keypress(Space),,,,,-- --- ---- --- ------ ----- ------- ---- -- --- ------- --<br>------- ---------- ------ -- ----- -- ----- to ---- ------<br>--- ----- --- --- ------ -------- ----- --- ------ ----- --<br>----- ----- ---------- --- --- ------ ------ ---- -- ------<br>------- --- ------ ----- --- ---- ------- -- ---- --- --<br>------- ------,149054.09999990463,149053.29999995232,148658.978,148670.09999990463,148675.647,149059.372,,19,to
screen,html.Screen,0_2_1_1_20,2021-11-19T13:59:17.515Z,,,,,,,,,,,,,,,,54,,,,,,,,,,,,,,441.42799995231326,,response,,,100,,,,,,Space,keypress(Space),,,,,-- --- ---- --- ------ ----- ------- ---- -- --- ------- --<br>------- ---------- ------ -- ----- -- ----- -- save ------<br>--- ----- --- --- ------ -------- ----- --- ------ ----- --<br>----- ----- ---------- --- --- ------ ------ ---- -- ------<br>------- --- ------ ----- --- ---- ------- -- ---- --- --<br>------- ------,149501.59999990463,149500.79999995232,149042.698,149054.5,149059.372,149509.307,,20,save
screen,html.Screen,0_2_1_1_21,2021-11-19T13:59:17.979Z,,,,,,,,,,,,,,,,54,,,,,,,,,,,,,,455.4929999523156,,response,,,100,,,,,,Space,keypress(Space),,,,,"-- --- ---- --- ------ ----- ------- ---- -- --- ------- --<br>------- ---------- ------ -- ----- -- ----- -- ---- money,<br>--- ----- --- --- ------ -------- ----- --- ------ ----- --<br>----- ----- ---------- --- --- ------ ------ ---- -- ------<br>------- --- ------ ----- --- ---- ------- -- ---- --- --<br>------- ------",149965.59999990463,149964.79999995232,149492.637,149501.79999995232,149509.307,149976.13,,21,"money,"
screen,html.Screen,0_2_1_1_22,2021-11-19T13:59:18.555Z,,,,,,,,,,,,,,,,54,,,,,,,,,,,,,,564.6699999523116,,response,,,100,,,,,,Space,keypress(Space),,,,,-- --- ---- --- ------ ----- ------- ---- -- --- ------- --<br>------- ---------- ------ -- ----- -- ----- -- ---- ------<br>the ----- --- --- ------ -------- ----- --- ------ ----- --<br>----- ----- ---------- --- --- ------ ------ ---- -- ------<br>------- --- ------ ----- --- ---- ------- -- ---- --- --<br>------- ------,150541.59999990463,150540.79999995232,149959.459,149965.79999995232,149976.13,150542.891,,22,the
screen,html.Screen,0_2_1_1_23,2021-11-19T13:59:19.043Z,,,,,,,,,,,,,,,,54,,,,,,,,,,,,,,485.80900004768046,,response,,,100,,,,,,Space,keypress(Space),,,,,-- --- ---- --- ------ ----- ------- ---- -- --- ------- --<br>------- ---------- ------ -- ----- -- ----- -- ---- ------<br>--- state --- --- ------ -------- ----- --- ------ ----- --<br>----- ----- ---------- --- --- ------ ------ ---- -- ------<br>------- --- ------ ----- --- ---- ------- -- ---- --- --<br>------- ------,151029.5,151028.70000004768,150526.221,150541.89999985695,150542.891,151043.033,,23,state
screen,html.Screen,0_2_1_1_24,2021-11-19T13:59:19.547Z,,,,,,,,,,,,,,,,54,,,,,,,,,,,,,,489.6670000476879,,response,,,100,,,,,,Space,keypress(Space),,,,,-- --- ---- --- ------ ----- ------- ---- -- --- ------- --<br>------- ---------- ------ -- ----- -- ----- -- ---- ------<br>--- ----- cut --- ------ -------- ----- --- ------ ----- --<br>----- ----- ---------- --- --- ------ ------ ---- -- ------<br>------- --- ------ ----- --- ---- ------- -- ---- --- --<br>------- ------,151533.59999990463,151532.70000004768,151026.363,151029.89999985695,151043.033,151543.063,,24,cut
screen,html.Screen,0_2_1_1_25,2021-11-19T13:59:20.074Z,,,,,,,,,,,,,,,,54,,,,,,,,,,,,,,517.6370000476891,,response,,,100,,,,,,Space,keypress(Space),,,,,-- --- ---- --- ------ ----- ------- ---- -- --- ------- --<br>------- ---------- ------ -- ----- -- ----- -- ---- ------<br>--- ----- --- the ------ -------- ----- --- ------ ----- --<br>----- ----- ---------- --- --- ------ ------ ---- -- ------<br>------- --- ------ ----- --- ---- ------- -- ---- --- --<br>------- ------,152061.39999985695,152060.70000004768,151526.394,151533.89999985695,151543.063,152076.725,,25,the
screen,html.Screen,0_2_1_1_26,2021-11-19T13:59:20.627Z,,,,,,,,,,,,,,,,54,,,,,,,,,,,,,,536.3749999046267,,response,,,100,,,,,,Space,keypress(Space),,,,,-- --- ---- --- ------ ----- ------- ---- -- --- ------- --<br>------- ---------- ------ -- ----- -- ----- -- ---- ------<br>--- ----- --- --- bonds' -------- ----- --- ------ ----- --<br>----- ----- ---------- --- --- ------ ------ ---- -- ------<br>------- --- ------ ----- --- ---- ------- -- ---- --- --<br>------- ------,152613.89999985695,152613.09999990463,152060.053,152061.70000004768,152076.725,152626.649,,26,bonds'
screen,html.Screen,0_2_1_1_27,2021-11-19T13:59:21.218Z,,,,,,,,,,,,,,,,54,,,,,,,,,,,,,,577.9509999046277,,response,,,100,,,,,,Space,keypress(Space),,,,,-- --- ---- --- ------ ----- ------- ---- -- --- ------- --<br>------- ---------- ------ -- ----- -- ----- -- ---- ------<br>--- ----- --- --- ------ interest ----- --- ------ ----- --<br>----- ----- ---------- --- --- ------ ------ ---- -- ------<br>------- --- ------ ----- --- ---- ------- -- ---- --- --<br>------- ------,153205.5,153204.59999990463,152609.98,152614.29999995232,152626.649,153210.21,,27,interest
screen,html.Screen,0_2_1_1_28,2021-11-19T13:59:22.642Z,,,,,,,,,,,,,,,,54,,,,,,,,,,,,,,1418.3899999046407,,response,,,100,,,,,,Space,keypress(Space),,,,,-- --- ---- --- ------ ----- ------- ---- -- --- ------- --<br>------- ---------- ------ -- ----- -- ----- -- ---- ------<br>--- ----- --- --- ------ -------- rate. --- ------ ----- --<br>----- ----- ---------- --- --- ------ ------ ---- -- ------<br>------- --- ------ ----- --- ---- ------- -- ---- --- --<br>------- ------,154629.29999995232,154628.59999990463,153193.54,153205.70000004768,153210.21,154644.013,,28,rate.
screen,html.Screen,0_2_1_1_29,2021-11-19T13:59:23.082Z,,,,,,,,,,,,,,,,54,,,,,,,,,,,,,,424.4869999999937,,response,,,100,,,,,,Space,keypress(Space),,,,,-- --- ---- --- ------ ----- ------- ---- -- --- ------- --<br>------- ---------- ------ -- ----- -- ----- -- ---- ------<br>--- ----- --- --- ------ -------- ----- The ------ ----- --<br>----- ----- ---------- --- --- ------ ------ ---- -- ------<br>------- --- ------ ----- --- ---- ------- -- ---- --- --<br>------- ------,155069.29999995232,155068.5,154627.342,154629.59999990463,154644.013,155077.457,,29,The
screen,html.Screen,0_2_1_1_30,2021-11-19T13:59:23.906Z,,,,,,,,,,,,,,,,54,,,,,,,,,,,,,,815.0430000000051,,response,,,100,,,,,,Space,keypress(Space),,,,,-- --- ---- --- ------ ----- ------- ---- -- --- ------- --<br>------- ---------- ------ -- ----- -- ----- -- ---- ------<br>--- ----- --- --- ------ -------- ----- --- market ----- --<br>----- ----- ---------- --- --- ------ ------ ---- -- ------<br>------- --- ------ ----- --- ---- ------- -- ---- --- --<br>------- ------,155893.29999995232,155892.5,155060.786,155069.5,155077.457,155910.937,,30,market
screen,html.Screen,0_2_1_1_31,2021-11-19T13:59:24.298Z,,,,,,,,,,,,,,,,54,,,,,,,,,,,,,,373.56299999999464,,response,,,100,,,,,,Space,keypress(Space),,,,,-- --- ---- --- ------ ----- ------- ---- -- --- ------- --<br>------- ---------- ------ -- ----- -- ----- -- ---- ------<br>--- ----- --- --- ------ -------- ----- --- ------ value --<br>----- ----- ---------- --- --- ------ ------ ---- -- ------<br>------- --- ------ ----- --- ---- ------- -- ---- --- --<br>------- ------,156285.20000004768,156284.5,155894.267,155893.5,155910.937,156294.391,,31,value
screen,html.Screen,0_2_1_1_32,2021-11-19T13:59:24.754Z,,,,,,,,,,,,,,,,54,,,,,,,,,,,,,,446.10899999999674,,response,,,100,,,,,,Space,keypress(Space),,,,,-- --- ---- --- ------ ----- ------- ---- -- --- ------- --<br>------- ---------- ------ -- ----- -- ----- -- ---- ------<br>--- ----- --- --- ------ -------- ----- --- ------ ----- of<br>----- ----- ---------- --- --- ------ ------ ---- -- ------<br>------- --- ------ ----- --- ---- ------- -- ---- --- --<br>------- ------,156741.20000004768,156740.5,156277.721,156285.5,156294.391,156744.484,,32,of
screen,html.Screen,0_2_1_1_33,2021-11-19T13:59:25.162Z,,,,,,,,,,,,,,,,54,,,,,,,,,,,,,,403.9159998569521,,response,,,100,,,,,,Space,keypress(Space),,,,,-- --- ---- --- ------ ----- ------- ---- -- --- ------- --<br>------- ---------- ------ -- ----- -- ----- -- ---- ------<br>--- ----- --- --- ------ -------- ----- --- ------ ----- --<br>these ----- ---------- --- --- ------ ------ ---- -- ------<br>------- --- ------ ----- --- ---- ------- -- ---- --- --<br>------- ------,157149.20000004768,157148.39999985695,156727.814,156741.39999985695,156744.484,157161.281,,33,these
screen,html.Screen,0_2_1_1_34,2021-11-19T13:59:25.570Z,,,,,,,,,,,,,,,,54,,,,,,,,,,,,,,395.01899995232816,,response,,,100,,,,,,Space,keypress(Space),,,,,-- --- ---- --- ------ ----- ------- ---- -- --- ------- --<br>------- ---------- ------ -- ----- -- ----- -- ---- ------<br>--- ----- --- --- ------ -------- ----- --- ------ ----- --<br>----- bonds ---------- --- --- ------ ------ ---- -- ------<br>------- --- ------ ----- --- ---- ------- -- ---- --- --<br>------- ------,157557.20000004768,157556.29999995232,157144.611,157149.39999985695,157161.281,157561.383,,34,bonds
screen,html.Screen,0_2_1_1_35,2021-11-19T13:59:26.010Z,,,,,,,,,,,,,,,,54,,,,,,,,,,,,,,435.0169998569472,,response,,,100,,,,,,Space,keypress(Space),,,,,"-- --- ---- --- ------ ----- ------- ---- -- --- ------- --<br>------- ---------- ------ -- ----- -- ----- -- ---- ------<br>--- ----- --- --- ------ -------- ----- --- ------ ----- --<br>----- ----- plummeted, --- --- ------ ------ ---- -- ------<br>------- --- ------ ----- --- ---- ------- -- ---- --- --<br>------- ------",157997.29999995232,157996.39999985695,157544.713,157557.5,157561.383,158011.498,,35,"plummeted,"
screen,html.Screen,0_2_1_1_36,2021-11-19T13:59:26.498Z,,,,,,,,,,,,,,,,54,,,,,,,,,,,,,,472.90199985695654,,response,,,100,,,,,,Space,keypress(Space),,,,,-- --- ---- --- ------ ----- ------- ---- -- --- ------- --<br>------- ---------- ------ -- ----- -- ----- -- ---- ------<br>--- ----- --- --- ------ -------- ----- --- ------ ----- --<br>----- ----- ---------- and --- ------ ------ ---- -- ------<br>------- --- ------ ----- --- ---- ------- -- ---- --- --<br>------- ------,158485.09999990463,158484.39999985695,157994.828,157997.59999990463,158011.498,158494.954,,36,and
screen,html.Screen,0_2_1_1_37,2021-11-19T13:59:26.898Z,,,,,,,,,,,,,,,,54,,,,,,,,,,,,,,389.2460000476858,,response,,,100,,,,,,Space,keypress(Space),,,,,-- --- ---- --- ------ ----- ------- ---- -- --- ------- --<br>------- ---------- ------ -- ----- -- ----- -- ---- ------<br>--- ----- --- --- ------ -------- ----- --- ------ ----- --<br>----- ----- ---------- --- the ------ ------ ---- -- ------<br>------- --- ------ ----- --- ---- ------- -- ---- --- --<br>------- ------,158885,158884.20000004768,158478.284,158485.29999995232,158494.954,158895.065,,37,the
screen,html.Screen,0_2_1_1_38,2021-11-19T13:59:27.419Z,,,,,,,,,,,,,,,,54,,,,,,,,,,,,,,509.6350000476814,,response,,,100,,,,,,Space,keypress(Space),,,,,-- --- ---- --- ------ ----- ------- ---- -- --- ------- --<br>------- ---------- ------ -- ----- -- ----- -- ---- ------<br>--- ----- --- --- ------ -------- ----- --- ------ ----- --<br>----- ----- ---------- --- --- market ------ ---- -- ------<br>------- --- ------ ----- --- ---- ------- -- ---- --- --<br>------- ------,159405.5,159404.70000004768,158878.395,158885.20000004768,158895.065,159411.859,,38,market
screen,html.Screen,0_2_1_1_39,2021-11-19T13:59:27.858Z,,,,,,,,,,,,,,,,54,,,,,,,,,,,,,,432.44099995231954,,response,,,100,,,,,,Space,keypress(Space),,,,,-- --- ---- --- ------ ----- ------- ---- -- --- ------- --<br>------- ---------- ------ -- ----- -- ----- -- ---- ------<br>--- ----- --- --- ------ -------- ----- --- ------ ----- --<br>----- ----- ---------- --- --- ------ became ---- -- ------<br>------- --- ------ ----- --- ---- ------- -- ---- --- --<br>------- ------,159845.09999990463,159844.29999995232,159395.189,159405.79999995232,159411.859,159861.95,,39,became
screen,html.Screen,0_2_1_1_40,2021-11-19T13:59:28.322Z,,,,,,,,,,,,,,,,54,,,,,,,,,,,,,,446.2500000476721,,response,,,100,,,,,,Space,keypress(Space),,,,,-- --- ---- --- ------ ----- ------- ---- -- --- ------- --<br>------- ---------- ------ -- ----- -- ----- -- ---- ------<br>--- ----- --- --- ------ -------- ----- --- ------ ----- --<br>----- ----- ---------- --- --- ------ ------ wary -- ------<br>------- --- ------ ----- --- ---- ------- -- ---- --- --<br>------- ------,160309,160308.20000004768,159845.28,159845.39999985695,159861.95,160312.127,,40,wary
screen,html.Screen,0_2_1_1_41,2021-11-19T13:59:28.762Z,,,,,,,,,,,,,,,,54,,,,,,,,,,,,,,436.07300004767603,,response,,,100,,,,,,Space,keypress(Space),,,,,-- --- ---- --- ------ ----- ------- ---- -- --- ------- --<br>------- ---------- ------ -- ----- -- ----- -- ---- ------<br>--- ----- --- --- ------ -------- ----- --- ------ ----- --<br>----- ----- ---------- --- --- ------ ------ ---- of ------<br>------- --- ------ ----- --- ---- ------- -- ---- --- --<br>------- ------,160749,160748.20000004768,160295.456,160309.20000004768,160312.127,160762.208,,41,of
screen,html.Screen,0_2_1_1_42,2021-11-19T13:59:29.178Z,,,,,,,,,,,,,,,,54,,,,,,,,,,,,,,401.8919999046193,,response,,,100,,,,,,Space,keypress(Space),,,,,-- --- ---- --- ------ ----- ------- ---- -- --- ------- --<br>------- ---------- ------ -- ----- -- ----- -- ---- ------<br>--- ----- --- --- ------ -------- ----- --- ------ ----- --<br>----- ----- ---------- --- --- ------ ------ ---- -- French<br>------- --- ------ ----- --- ---- ------- -- ---- --- --<br>------- ------,161164.89999985695,161164.09999990463,160745.538,160749.20000004768,160762.208,161178.948,,42,French
screen,html.Screen,0_2_1_1_43,2021-11-19T13:59:29.570Z,,,,,,,,,,,,,,,,54,,,,,,,,,,,,,,377.25200004767976,,response,,,100,,,,,,Space,keypress(Space),,,,,-- --- ---- --- ------ ----- ------- ---- -- --- ------- --<br>------- ---------- ------ -- ----- -- ----- -- ---- ------<br>--- ----- --- --- ------ -------- ----- --- ------ ----- --<br>----- ----- ---------- --- --- ------ ------ ---- -- ------<br>credit. --- ------ ----- --- ---- ------- -- ---- --- --<br>------- ------,161557,161556.20000004768,161162.278,161165.20000004768,161178.948,161562.455,,43,credit.
screen,html.Screen,0_2_1_1_44,2021-11-19T13:59:29.978Z,,,,,,,,,,,,,,,,54,,,,,,,,,,,,,,401.7450000476965,,response,,,100,,,,,,Space,keypress(Space),,,,,-- --- ---- --- ------ ----- ------- ---- -- --- ------- --<br>------- ---------- ------ -- ----- -- ----- -- ---- ------<br>--- ----- --- --- ------ -------- ----- --- ------ ----- --<br>----- ----- ---------- --- --- ------ ------ ---- -- ------<br>------- The ------ ----- --- ---- ------- -- ---- --- --<br>------- ------,161964.89999985695,161964.20000004768,161545.784,161557.20000004768,161562.455,161979.176,,44,The
screen,html.Screen,0_2_1_1_45,2021-11-19T13:59:30.490Z,,,,,,,,,,,,,,,,54,,,,,,,,,,,,,,496.9239999046258,,response,,,100,,,,,,Space,keypress(Space),,,,,-- --- ---- --- ------ ----- ------- ---- -- --- ------- --<br>------- ---------- ------ -- ----- -- ----- -- ---- ------<br>--- ----- --- --- ------ -------- ----- --- ------ ----- --<br>----- ----- ---------- --- --- ------ ------ ---- -- ------<br>------- --- French ----- --- ---- ------- -- ---- --- --<br>------- ------,162477,162476.09999990463,161962.506,161965.09999990463,161979.176,162479.361,,45,French
screen,html.Screen,0_2_1_1_46,2021-11-19T13:59:30.946Z,,,,,,,,,,,,,,,,54,,,,,,,,,,,,,,452.6389999999956,,response,,,100,,,,,,Space,keypress(Space),,,,,-- --- ---- --- ------ ----- ------- ---- -- --- ------- --<br>------- ---------- ------ -- ----- -- ----- -- ---- ------<br>--- ----- --- --- ------ -------- ----- --- ------ ----- --<br>----- ----- ---------- --- --- ------ ------ ---- -- ------<br>------- --- ------ state --- ---- ------- -- ---- --- --<br>------- ------,162932.89999985695,162932,162462.69,162477.29999995232,162479.361,162946.106,,46,state
screen,html.Screen,0_2_1_1_47,2021-11-19T13:59:31.386Z,,,,,,,,,,,,,,,,54,,,,,,,,,,,,,,425.9939999046328,,response,,,100,,,,,,Space,keypress(Space),,,,,-- --- ---- --- ------ ----- ------- ---- -- --- ------- --<br>------- ---------- ------ -- ----- -- ----- -- ---- ------<br>--- ----- --- --- ------ -------- ----- --- ------ ----- --<br>----- ----- ---------- --- --- ------ ------ ---- -- ------<br>------- --- ------ ----- was ---- ------- -- ---- --- --<br>------- ------,163372.79999995232,163372.09999990463,162929.436,162933.09999990463,162946.106,163379.551,,47,was
screen,html.Screen,0_2_1_1_48,2021-11-19T13:59:31.834Z,,,,,,,,,,,,,,,,54,,,,,,,,,,,,,,440.5489999046258,,response,,,100,,,,,,Space,keypress(Space),,,,,-- --- ---- --- ------ ----- ------- ---- -- --- ------- --<br>------- ---------- ------ -- ----- -- ----- -- ---- ------<br>--- ----- --- --- ------ -------- ----- --- ------ ----- --<br>----- ----- ---------- --- --- ------ ------ ---- -- ------<br>------- --- ------ ----- --- left ------- -- ---- --- --<br>------- ------,163821,163820.09999990463,163362.881,163373.09999990463,163379.551,163829.665,,48,left
screen,html.Screen,0_2_1_1_49,2021-11-19T13:59:32.282Z,,,,,,,,,,,,,,,,54,,,,,,,,,,,,,,438.33499999999185,,response,,,100,,,,,,Space,keypress(Space),,,,,-- --- ---- --- ------ ----- ------- ---- -- --- ------- --<br>------- ---------- ------ -- ----- -- ----- -- ---- ------<br>--- ----- --- --- ------ -------- ----- --- ------ ----- --<br>----- ----- ---------- --- --- ------ ------ ---- -- ------<br>------- --- ------ ----- --- ---- without -- ---- --- --<br>------- ------,164268.79999995232,164268,163812.995,163821.20000004768,163829.665,164279.751,,49,without
screen,html.Screen,0_2_1_1_50,2021-11-19T13:59:32.786Z,,,,,,,,,,,,,,,,54,,,,,,,,,,,,,,492.2490000000107,,response,,,100,,,,,,Space,keypress(Space),,,,,-- --- ---- --- ------ ----- ------- ---- -- --- ------- --<br>------- ---------- ------ -- ----- -- ----- -- ---- ------<br>--- ----- --- --- ------ -------- ----- --- ------ ----- --<br>----- ----- ---------- --- --- ------ ------ ---- -- ------<br>------- --- ------ ----- --- ---- ------- an ---- --- --<br>------- ------,164772.70000004768,164772,164263.081,164269,164279.751,164779.888,,50,an
screen,html.Screen,0_2_1_1_51,2021-11-19T13:59:33.226Z,,,,,,,,,,,,,,,,54,,,,,,,,,,,,,,432.01199985694257,,response,,,100,,,,,,Space,keypress(Space),,,,,-- --- ---- --- ------ ----- ------- ---- -- --- ------- --<br>------- ---------- ------ -- ----- -- ----- -- ---- ------<br>--- ----- --- --- ------ -------- ----- --- ------ ----- --<br>----- ----- ---------- --- --- ------ ------ ---- -- ------<br>------- --- ------ ----- --- ---- ------- -- easy --- --<br>------- ------,165212.70000004768,165211.89999985695,164763.218,164773,164779.888,165230.009,,51,easy
screen,html.Screen,0_2_1_1_52,2021-11-19T13:59:33.650Z,,,,,,,,,,,,,,,,54,,,,,,,,,,,,,,405.89099985695793,,response,,,100,,,,,,Space,keypress(Space),,,,,-- --- ---- --- ------ ----- ------- ---- -- --- ------- --<br>------- ---------- ------ -- ----- -- ----- -- ---- ------<br>--- ----- --- --- ------ -------- ----- --- ------ ----- --<br>----- ----- ---------- --- --- ------ ------ ---- -- ------<br>------- --- ------ ----- --- ---- ------- -- ---- way --<br>------- ------,165636.59999990463,165635.89999985695,165213.339,165212.89999985695,165230.009,165646.757,,52,way
screen,html.Screen,0_2_1_1_53,2021-11-19T13:59:34.058Z,,,,,,,,,,,,,,,,54,,,,,,,,,,,,,,397.04299995230394,,response,,,100,,,,,,Space,keypress(Space),,,,,-- --- ---- --- ------ ----- ------- ---- -- --- ------- --<br>------- ---------- ------ -- ----- -- ----- -- ---- ------<br>--- ----- --- --- ------ -------- ----- --- ------ ----- --<br>----- ----- ---------- --- --- ------ ------ ---- -- ------<br>------- --- ------ ----- --- ---- ------- -- ---- --- of<br>------- ------,166044.70000004768,166043.79999995232,165630.087,165636.89999985695,165646.757,166046.982,,53,of
screen,html.Screen,0_2_1_1_54,2021-11-19T13:59:34.474Z,,,,,,,,,,,,,,,,54,,,,,,,,,,,,,,412.9179998569598,,response,,,100,,,,,,Space,keypress(Space),,,,,-- --- ---- --- ------ ----- ------- ---- -- --- ------- --<br>------- ---------- ------ -- ----- -- ----- -- ---- ------<br>--- ----- --- --- ------ -------- ----- --- ------ ----- --<br>----- ----- ---------- --- --- ------ ------ ---- -- ------<br>------- --- ------ ----- --- ---- ------- -- ---- --- --<br>raising ------,166460.59999990463,166459.89999985695,166030.31,166044.79999995232,166046.982,166463.665,,54,raising
screen,html.Screen,0_2_1_1_55,2021-11-19T13:59:34.858Z,,,,,,,,,,,,,,,,54,,,,,,,,,,,,,,380.13499995230814,,response,,,100,,,,,,Space,keypress(Space),,,,,-- --- ---- --- ------ ----- ------- ---- -- --- ------- --<br>------- ---------- ------ -- ----- -- ----- -- ---- ------<br>--- ----- --- --- ------ -------- ----- --- ------ ----- --<br>----- ----- ---------- --- --- ------ ------ ---- -- ------<br>------- --- ------ ----- --- ---- ------- -- ---- --- --<br>------- money.,166844.59999990463,166843.79999995232,166446.995,166460.89999985695,166463.665,166847.03,,55,money.
Item 100,flow.Loop,0_2_1_1,2021-11-19T13:59:34.858Z,,,,,,,,,,,,,,,,,,,,,,,,,,,,,,29854.523999952304,,completion,,,,D,,,,,,,,,,silence,,166845.09999990463,166843.79999995232,136972.606,136974.39999985695,136989.276,166847.03,,,
Question 1,html.Screen,0_2_1_2,2021-11-19T13:59:38.430Z,,,,,,,,,,,,,,,,,,,,,,,,,,,true,TRUE,,3568.86999985695,,response,,,100,D,,,,,TRUE,click #choice-1,,,,silence,,170417,170415.89999985695,166830.361,166845.20000004768,166847.03,170431.396,,,
Question 2,html.Screen,0_2_1_3,2021-11-19T13:59:38.656Z,,,,,,,,,,,,,,,,,,,,,,,,,,,false,FALSE,,210.8040000476758,,response,,,100,D,,,,,TRUE,click #choice-1,,,,silence,,170643.39999985695,170642.20000004768,170414.725,170417.29999995232,170431.396,170648.018,,,
Item 100,flow.Sequence,0_2_1,2021-11-19T13:59:38.657Z,,,,,,,,,,,,,,,,,,,,,,,,,,,,,,43655.21500004768,,completion,,,,,,,,,,,,,,,,170643.79999995232,170642.20000004768,126970.311,126979.29999995232,126986.985,170648.018,,,
End of Practice,html.Page,0_2_2,2021-11-19T13:59:43.969Z,,,,,,,,,,,,,,,,,,,,,,,,,,,,,,5307.081999904622,,form submission,,,,,,,,,,,,,,,,175955.59999990463,175955.09999990463,170631.349,170644,170648.018,175965.52,,,
Practice,flow.Sequence,0_2,2021-11-19T13:59:43.969Z,,,,,,,,,,,,,,,,,,,,,,,,,,,,,,98931.05699990463,,completion,,,,,,,,,,,,,,,,175956,175955.09999990463,77007.371,77016.20000004768,77024.043,175965.52,,,
Trap_instruction,html.Page,0_3_0,2021-11-19T13:59:48.960Z,,,,,,,,,,,,,,,,,,,,,,,,,,,,,,4981.180000047694,,form submission,,,,,,,,,,,,,,,,180947.29999995232,180946.70000004768,175948.851,175956.29999995232,175965.52,180967.087,,,
trap_trial,html.Screen,0_3_1,2021-11-19T13:59:52.018Z,,,,,,,,,,,,,,,,,,,,,,,,,,,true,1,,3036.9130000000005,,response,,,,,,,,,1,click #choice-1,,,,,,184005.5,184004,180933.747,180947.59999990463,180967.087,184017.987,,,
end of trap trial,html.Page,0_3_2,2021-11-19T13:59:55.714Z,,,,,,,,,,,,,,,,,,,,,,,,,,,,,,3682.21300004769,,form submission,,,,,,,,,,,,,,,,187700.59999990463,187700.20000004768,184001.317,184005.70000004768,184017.987,187702.4,,,
Trap 1,flow.Sequence,0_3,2021-11-19T13:59:55.714Z,,,,,,,,,,,,,,,,,,,,,,,,,,,,,,11734.680000047694,,completion,,,,,,,,,,,,,,,,187701,187700.20000004768,175948.851,175956.20000004768,175965.52,187702.4,,,
Standby,html.Page,0_4_0,2021-11-19T14:00:03.706Z,,,,,,,,,,,,,,,,,,,,,,,,,,,,,,8001.644,,timeout,,,,,,,,,,,,,,,,195689.20000004768,195687.374,187685.73,187701.20000004768,187702.4,195704.044,,,
Holding screen,html.Screen,0_4_1_0_0,2021-11-19T14:00:10.708Z,,,,,,,,,,,,,,,,,,,,,,,,,,,,,,7002.197000000015,,timeout,,,,,,,,,,,,,,,,202691.09999990463,202689.571,195687.374,195689.5,195704.044,202706.241,,,
screen,html.Screen,0_4_1_0_1_0,2021-11-19T14:00:17.709Z,,,,,,,,,,,,,,,,48,,,,,,,,,,,,,,7001.516000000003,,timeout,,,10,D,,,,,,,,,,silence,As -- --- ------ ------- --------- ----------- --------<br>--------- -------- --- ------- -- ------- ---- -- ------<br>-- --- -------- -------- ---------- ---- ---- ---- ------<br>-- --------- -- ---- -- --- -- --- ------- -- - -----<br>---------- -- -- -- ---- ----- -- ------ -- --- ------<br>-------,209692.29999995232,209691.087,202689.571,202691.5,202706.241,209707.757,,0,As
screen,html.Screen,0_4_1_0_1_1,2021-11-19T14:00:24.710Z,,,,,,,,,,,,,,,,48,,,,,,,,,,,,,,7000.78899999999,,timeout,,,10,D,,,,,,,,,,silence,-- in --- ------ ------- --------- ----------- --------<br>--------- -------- --- ------- -- ------- ---- -- ------<br>-- --- -------- -------- ---------- ---- ---- ---- ------<br>-- --------- -- ---- -- --- -- --- ------- -- - -----<br>---------- -- -- -- ---- ----- -- ------ -- --- ------<br>-------,216693.09999990463,216691.877,209691.087,209692.5,209707.757,216708.546,,1,in
screen,html.Screen,0_4_1_0_1_2,2021-11-19T14:00:31.713Z,,,,,,,,,,,,,,,,48,,,,,,,,,,,,,,7002.723999999987,,timeout,,,10,D,,,,,,,,,,silence,-- -- the ------ ------- --------- ----------- --------<br>--------- -------- --- ------- -- ------- ---- -- ------<br>-- --- -------- -------- ---------- ---- ---- ---- ------<br>-- --------- -- ---- -- --- -- --- ------- -- - -----<br>---------- -- -- -- ---- ----- -- ------ -- --- ------<br>-------,223696.09999990463,223694.6,216691.877,216693.39999985695,216708.546,223711.27,,2,the
screen,html.Screen,0_4_1_0_1_3,2021-11-19T14:00:38.715Z,,,,,,,,,,,,,,,,48,,,,,,,,,,,,,,7001.801000000007,,timeout,,,10,D,,,,,,,,,,silence,-- -- --- United ------- --------- ----------- --------<br>--------- -------- --- ------- -- ------- ---- -- ------<br>-- --- -------- -------- ---------- ---- ---- ---- ------<br>-- --------- -- ---- -- --- -- --- ------- -- - -----<br>---------- -- -- -- ---- ----- -- ------ -- --- ------<br>-------,230698.20000004768,230696.401,223694.6,223696.39999985695,223711.27,230713.071,,3,United
screen,html.Screen,0_4_1_0_1_4,2021-11-19T14:00:45.716Z,,,,,,,,,,,,,,,,48,,,,,,,,,,,,,,7001.429999999993,,timeout,,,10,D,,,,,,,,,,silence,"-- -- --- ------ States, --------- ----------- --------<br>--------- -------- --- ------- -- ------- ---- -- ------<br>-- --- -------- -------- ---------- ---- ---- ---- ------<br>-- --------- -- ---- -- --- -- --- ------- -- - -----<br>---------- -- -- -- ---- ----- -- ------ -- --- ------<br>-------",237699.20000004768,237697.831,230696.401,230698.29999995232,230713.071,237714.501,,4,"States,"
screen,html.Screen,0_4_1_0_1_5,2021-11-19T14:00:52.718Z,,,,,,,,,,,,,,,,48,,,,,,,,,,,,,,7001.815000000002,,timeout,,,10,D,,,,,,,,,,silence,-- -- --- ------ ------- Colombian ----------- --------<br>--------- -------- --- ------- -- ------- ---- -- ------<br>-- --- -------- -------- ---------- ---- ---- ---- ------<br>-- --------- -- ---- -- --- -- --- ------- -- - -----<br>---------- -- -- -- ---- ----- -- ------ -- --- ------<br>-------,244701.09999990463,244699.646,237697.831,237699.39999985695,237714.501,244716.316,,5,Colombian
screen,html.Screen,0_4_1_0_1_6,2021-11-19T14:00:59.720Z,,,,,,,,,,,,,,,,48,,,,,,,,,,,,,,7002.161000000022,,timeout,,,10,D,,,,,,,,,,silence,-- -- --- ------ ------- --------- legislation --------<br>--------- -------- --- ------- -- ------- ---- -- ------<br>-- --- -------- -------- ---------- ---- ---- ---- ------<br>-- --------- -- ---- -- --- -- --- ------- -- - -----<br>---------- -- -- -- ---- ----- -- ------ -- --- ------<br>-------,251703.09999990463,251701.807,244699.646,244701.39999985695,244716.316,251718.477,,6,legislation
screen,html.Screen,0_4_1_0_1_7,2021-11-19T14:01:06.132Z,,,,,,,,,,,,,,,,48,,,,,,,,,,,,,,6393.22300004767,,response,,,10,D,,,,,Space,keypress(Space),,,,silence,-- -- --- ------ ------- --------- ----------- requires<br>--------- -------- --- ------- -- ------- ---- -- ------<br>-- --- -------- -------- ---------- ---- ---- ---- ------<br>-- --------- -- ---- -- --- -- --- ------- -- - -----<br>---------- -- -- -- ---- ----- -- ------ -- --- ------<br>-------,258112.70000004768,258111.70000004768,251701.807,251703.39999985695,251718.477,258120.143,,7,requires
screen,html.Screen,0_4_1_0_1_8,2021-11-19T14:01:07.027Z,,,,,,,,,,,,,,,,48,,,,,,,,,,,,,,886.5570000476728,,response,,,10,D,,,,,Space,keypress(Space),,,,silence,-- -- --- ------ ------- --------- ----------- --------<br>travelers -------- --- ------- -- ------- ---- -- ------<br>-- --- -------- -------- ---------- ---- ---- ---- ------<br>-- --------- -- ---- -- --- -- --- ------- -- - -----<br>---------- -- -- -- ---- ----- -- ------ -- --- ------<br>-------,259007.70000004768,259006.70000004768,258103.473,258112.89999985695,258120.143,259020.394,,8,travelers
screen,html.Screen,0_4_1_0_1_9,2021-11-19T14:01:07.419Z,,,,,,,,,,,,,,,,48,,,,,,,,,,,,,,378.40599995231605,,response,,,10,D,,,,,Space,keypress(Space),,,,silence,-- -- --- ------ ------- --------- ----------- --------<br>--------- entering --- ------- -- ------- ---- -- ------<br>-- --- -------- -------- ---------- ---- ---- ---- ------<br>-- --------- -- ---- -- --- -- --- ------- -- - -----<br>---------- -- -- -- ---- ----- -- ------ -- --- ------<br>-------,259399.70000004768,259398.79999995232,259003.724,259008,259020.394,259404.193,,9,entering
screen,html.Screen,0_4_1_0_1_10,2021-11-19T14:01:07.867Z,,,,,,,,,,,,,,,,48,,,,,,,,,,,,,,442.606999952317,,response,,,10,D,,,,,Space,keypress(Space),,,,silence,-- -- --- ------ ------- --------- ----------- --------<br>--------- -------- the ------- -- ------- ---- -- ------<br>-- --- -------- -------- ---------- ---- ---- ---- ------<br>-- --------- -- ---- -- --- -- --- ------- -- - -----<br>---------- -- -- -- ---- ----- -- ------ -- --- ------<br>-------,259847.59999990463,259846.79999995232,259387.523,259400,259404.193,259854.365,,10,the
screen,html.Screen,0_4_1_0_1_11,2021-11-19T14:01:08.611Z,,,,,,,,,,,,,,,,48,,,,,,,,,,,,,,736.335000047693,,response,,,10,D,,,,,Space,keypress(Space),,,,silence,-- -- --- ------ ------- --------- ----------- --------<br>--------- -------- --- country -- ------- ---- -- ------<br>-- --- -------- -------- ---------- ---- ---- ---- ------<br>-- --------- -- ---- -- --- -- --- ------- -- - -----<br>---------- -- -- -- ---- ----- -- ------ -- --- ------<br>-------,260591.70000004768,260590.70000004768,259837.694,259847.89999985695,259854.365,260604.667,,11,country
screen,html.Screen,0_4_1_0_1_12,2021-11-19T14:01:09.027Z,,,,,,,,,,,,,,,,48,,,,,,,,,,,,,,402.033000047697,,response,,,10,D,,,,,Space,keypress(Space),,,,silence,-- -- --- ------ ------- --------- ----------- --------<br>--------- -------- --- ------- to ------- ---- -- ------<br>-- --- -------- -------- ---------- ---- ---- ---- ------<br>-- --------- -- ---- -- --- -- --- ------- -- - -----<br>---------- -- -- -- ---- ----- -- ------ -- --- ------<br>-------,261007.59999990463,261006.70000004768,260587.995,260592.09999990463,260604.667,261021.38,,12,to
screen,html.Screen,0_4_1_0_1_13,2021-11-19T14:01:09.499Z,,,,,,,,,,,,,,,,48,,,,,,,,,,,,,,457.32000004767906,,response,,,10,D,,,,,Space,keypress(Space),,,,silence,-- -- --- ------ ------- --------- ----------- --------<br>--------- -------- --- ------- -- declare ---- -- ------<br>-- --- -------- -------- ---------- ---- ---- ---- ------<br>-- --------- -- ---- -- --- -- --- ------- -- - -----<br>---------- -- -- -- ---- ----- -- ------ -- --- ------<br>-------,261479.70000004768,261478.70000004768,261004.709,261007.89999985695,261021.38,261488.11,,13,declare
screen,html.Screen,0_4_1_0_1_14,2021-11-19T14:01:09.947Z,,,,,,,,,,,,,,,,48,,,,,,,,,,,,,,438.48999990464654,,response,,,10,D,,,,,Space,keypress(Space),,,,silence,-- -- --- ------ ------- --------- ----------- --------<br>--------- -------- --- ------- -- ------- cash -- ------<br>-- --- -------- -------- ---------- ---- ---- ---- ------<br>-- --------- -- ---- -- --- -- --- ------- -- - -----<br>---------- -- -- -- ---- ----- -- ------ -- --- ------<br>-------,261927.5,261926.59999990463,261471.44,261480,261488.11,261938.27,,14,cash
screen,html.Screen,0_4_1_0_1_15,2021-11-19T14:01:11.179Z,,,,,,,,,,,,,,,,48,,,,,,,,,,,,,,1220.329999904643,,response,,,10,D,,,,,Space,keypress(Space),,,,silence,-- -- --- ------ ------- --------- ----------- --------<br>--------- -------- --- ------- -- ------- ---- in ------<br>-- --- -------- -------- ---------- ---- ---- ---- ------<br>-- --------- -- ---- -- --- -- --- ------- -- - -----<br>---------- -- -- -- ---- ----- -- ------ -- --- ------<br>-------,263159.5,263158.59999990463,261921.599,261927.79999995232,261938.27,263171.812,,15,in
screen,html.Screen,0_4_1_0_1_16,2021-11-19T14:01:12.059Z,,,,,,,,,,,,,,,,48,,,,,,,,,,,,,,866.6880000000237,,response,,,10,D,,,,,Space,keypress(Space),,,,silence,-- -- --- ------ ------- --------- ----------- --------<br>--------- -------- --- ------- -- ------- ---- -- excess<br>-- --- -------- -------- ---------- ---- ---- ---- ------<br>-- --------- -- ---- -- --- -- --- ------- -- - -----<br>---------- -- -- -- ---- ----- -- ------ -- --- ------<br>-------,264039.2999999523,264038.5,263155.142,263159.7999999523,263171.812,264055.543,,16,excess
screen,html.Screen,0_4_1_0_1_17,2021-11-19T14:01:12.459Z,,,,,,,,,,,,,,,,48,,,,,,,,,,,,,,382.9569999999949,,response,,,10,D,,,,,Space,keypress(Space),,,,silence,-- -- --- ------ ------- --------- ----------- --------<br>--------- -------- --- ------- -- ------- ---- -- ------<br>of --- -------- -------- ---------- ---- ---- ---- ------<br>-- --------- -- ---- -- --- -- --- ------- -- - -----<br>---------- -- -- -- ---- ----- -- ------ -- --- ------<br>-------,264439.39999985695,264438.5,264038.872,264039.59999990463,264055.543,264455.527,,17,of
screen,html.Screen,0_4_1_0_1_18,2021-11-19T14:01:12.819Z,,,,,,,,,,,,,,,,48,,,,,,,,,,,,,,342.97299999999814,,response,,,10,D,,,,,Space,keypress(Space),,,,silence,-- -- --- ------ ------- --------- ----------- --------<br>--------- -------- --- ------- -- ------- ---- -- ------<br>-- ten -------- -------- ---------- ---- ---- ---- ------<br>-- --------- -- ---- -- --- -- --- ------- -- - -----<br>---------- -- -- -- ---- ----- -- ------ -- --- ------<br>-------,264799.39999985695,264798.5,264438.857,264439.7999999523,264455.527,264805.685,,18,ten
screen,html.Screen,0_4_1_0_1_19,2021-11-19T14:01:13.547Z,,,,,,,,,,,,,,,,48,,,,,,,,,,,,,,720.7149998569512,,response,,,10,D,,,,,Space,keypress(Space),,,,silence,-- -- --- ------ ------- --------- ----------- --------<br>--------- -------- --- ------- -- ------- ---- -- ------<br>-- --- thousand -------- ---------- ---- ---- ---- ------<br>-- --------- -- ---- -- --- -- --- ------- -- - -----<br>---------- -- -- -- ---- ----- -- ------ -- --- ------<br>-------,265527.2999999523,265526.39999985695,264789.014,264799.7000000477,264805.685,265539.147,,19,thousand
screen,html.Screen,0_4_1_0_1_20,2021-11-19T14:01:14.027Z,,,,,,,,,,,,,,,,48,,,,,,,,,,,,,,467.25299985695165,,response,,,10,D,,,,,Space,keypress(Space),,,,silence,-- -- --- ------ ------- --------- ----------- --------<br>--------- -------- --- ------- -- ------- ---- -- ------<br>-- --- -------- dollars. ---------- ---- ---- ---- ------<br>-- --------- -- ---- -- --- -- --- ------- -- - -----<br>---------- -- -- -- ---- ----- -- ------ -- --- ------<br>-------,266007.2999999523,266006.39999985695,265522.477,265527.59999990463,265539.147,266022.624,,20,dollars.
screen,html.Screen,0_4_1_0_1_21,2021-11-19T14:01:15.131Z,,,,,,,,,,,,,,,,48,,,,,,,,,,,,,,1087.6759999523056,,response,,,10,D,,,,,Space,keypress(Space),,,,silence,-- -- --- ------ ------- --------- ----------- --------<br>--------- -------- --- ------- -- ------- ---- -- ------<br>-- --- -------- -------- Concealing ---- ---- ---- ------<br>-- --------- -- ---- -- --- -- --- ------- -- - -----<br>---------- -- -- -- ---- ----- -- ------ -- --- ------<br>-------,267111.2000000477,267110.2999999523,266005.954,266007.59999990463,266022.624,267122.87,,21,Concealing
screen,html.Screen,0_4_1_0_1_22,2021-11-19T14:01:15.627Z,,,,,,,,,,,,,,,,48,,,,,,,,,,,,,,483.42999995232094,,response,,,10,D,,,,,Space,keypress(Space),,,,silence,-- -- --- ------ ------- --------- ----------- --------<br>--------- -------- --- ------- -- ------- ---- -- ------<br>-- --- -------- -------- ---------- more ---- ---- ------<br>-- --------- -- ---- -- --- -- --- ------- -- - -----<br>---------- -- -- -- ---- ----- -- ------ -- --- ------<br>-------,267607.09999990463,267606.2999999523,267106.2,267111.5,267122.87,267623.084,,22,more
screen,html.Screen,0_4_1_0_1_23,2021-11-19T14:01:16.243Z,,,,,,,,,,,,,,,,48,,,,,,,,,,,,,,599.6160000477103,,response,,,10,D,,,,,Space,keypress(Space),,,,silence,-- -- --- ------ ------- --------- ----------- --------<br>--------- -------- --- ------- -- ------- ---- -- ------<br>-- --- -------- -------- ---------- ---- than ---- ------<br>-- --------- -- ---- -- --- -- --- ------- -- - -----<br>---------- -- -- -- ---- ----- -- ------ -- --- ------<br>-------,268223.5,268222.7000000477,267606.413,267607.39999985695,267623.084,268239.836,,23,than
screen,html.Screen,0_4_1_0_1_24,2021-11-19T14:01:16.731Z,,,,,,,,,,,,,,,,48,,,,,,,,,,,,,,470.36400004767347,,response,,,10,D,,,,,Space,keypress(Space),,,,silence,-- -- --- ------ ------- --------- ----------- --------<br>--------- -------- --- ------- -- ------- ---- -- ------<br>-- --- -------- -------- ---------- ---- ---- that ------<br>-- --------- -- ---- -- --- -- --- ------- -- - -----<br>---------- -- -- -- ---- ----- -- ------ -- --- ------<br>-------,268711.09999990463,268710.2000000477,268223.166,268223.7999999523,268239.836,268723.363,,24,that
screen,html.Screen,0_4_1_0_1_25,2021-11-19T14:01:17.235Z,,,,,,,,,,,,,,,,48,,,,,,,,,,,,,,490.9369999523042,,response,,,10,D,,,,,Space,keypress(Space),,,,silence,-- -- --- ------ ------- --------- ----------- --------<br>--------- -------- --- ------- -- ------- ---- -- ------<br>-- --- -------- -------- ---------- ---- ---- ---- amount<br>-- --------- -- ---- -- --- -- --- ------- -- - -----<br>---------- -- -- -- ---- ----- -- ------ -- --- ------<br>-------,269215.09999990463,269214.2999999523,268706.692,268711.2999999523,268723.363,269223.327,,25,amount
screen,html.Screen,0_4_1_0_1_26,2021-11-19T14:01:17.667Z,,,,,,,,,,,,,,,,48,,,,,,,,,,,,,,422.8730000476935,,response,,,10,D,,,,,Space,keypress(Space),,,,silence,-- -- --- ------ ------- --------- ----------- --------<br>--------- -------- --- ------- -- ------- ---- -- ------<br>-- --- -------- -------- ---------- ---- ---- ---- ------<br>to --------- -- ---- -- --- -- --- ------- -- - -----<br>---------- -- -- -- ---- ----- -- ------ -- --- ------<br>-------,269647,269646.2000000477,269206.658,269215.39999985695,269223.327,269656.978,,26,to
screen,html.Screen,0_4_1_0_1_27,2021-11-19T14:01:18.211Z,,,,,,,,,,,,,,,,48,,,,,,,,,,,,,,533.2220000476809,,response,,,10,D,,,,,Space,keypress(Space),,,,silence,-- -- --- ------ ------- --------- ----------- --------<br>--------- -------- --- ------- -- ------- ---- -- ------<br>-- --- -------- -------- ---------- ---- ---- ---- ------<br>-- transport -- ---- -- --- -- --- ------- -- - -----<br>---------- -- -- -- ---- ----- -- ------ -- --- ------<br>-------,270191.09999990463,270190.2000000477,269640.306,269647.39999985695,269656.978,270207.011,,27,transport
screen,html.Screen,0_4_1_0_1_28,2021-11-19T14:01:19.075Z,,,,,,,,,,,,,,,,48,,,,,,,,,,,,,,847.088999904634,,response,,,10,D,,,,,Space,keypress(Space),,,,silence,-- -- --- ------ ------- --------- ----------- --------<br>--------- -------- --- ------- -- ------- ---- -- ------<br>-- --- -------- -------- ---------- ---- ---- ---- ------<br>-- --------- it ---- -- --- -- --- ------- -- - -----<br>---------- -- -- -- ---- ----- -- ------ -- --- ------<br>-------,271054.89999985695,271054.09999990463,270190.341,270191.2999999523,270207.011,271057.235,,28,it
screen,html.Screen,0_4_1_0_1_29,2021-11-19T14:01:19.539Z,,,,,,,,,,,,,,,,48,,,,,,,,,,,,,,460.76500000001397,,response,,,10,D,,,,,Space,keypress(Space),,,,silence,-- -- --- ------ ------- --------- ----------- --------<br>--------- -------- --- ------- -- ------- ---- -- ------<br>-- --- -------- -------- ---------- ---- ---- ---- ------<br>-- --------- -- into -- --- -- --- ------- -- - -----<br>---------- -- -- -- ---- ----- -- ------ -- --- ------<br>-------,271519,271518,271040.565,271055.2000000477,271057.235,271524.023,,29,into
screen,html.Screen,0_4_1_0_1_30,2021-11-19T14:01:20.115Z,,,,,,,,,,,,,,,,48,,,,,,,,,,,,,,569.9770000000135,,response,,,10,D,,,,,Space,keypress(Space),,,,silence,-- -- --- ------ ------- --------- ----------- --------<br>--------- -------- --- ------- -- ------- ---- -- ------<br>-- --- -------- -------- ---------- ---- ---- ---- ------<br>-- --------- -- ---- or --- -- --- ------- -- - -----<br>---------- -- -- -- ---- ----- -- ------ -- --- ------<br>-------,272094.7999999523,272094,271507.353,271519.2000000477,271524.023,272107.419,,30,or
screen,html.Screen,0_4_1_0_1_31,2021-11-19T14:01:20.555Z,,,,,,,,,,,,,,,,48,,,,,,,,,,,,,,426.5810000000056,,response,,,10,D,,,,,Space,keypress(Space),,,,silence,-- -- --- ------ ------- --------- ----------- --------<br>--------- -------- --- ------- -- ------- ---- -- ------<br>-- --- -------- -------- ---------- ---- ---- ---- ------<br>-- --------- -- ---- -- out -- --- ------- -- - -----<br>---------- -- -- -- ---- ----- -- ------ -- --- ------<br>-------,272534.89999985695,272534,272090.75,272095,272107.419,272540.973,,31,out
screen,html.Screen,0_4_1_0_1_32,2021-11-19T14:01:20.986Z,,,,,,,,,,,,,,,,48,,,,,,,,,,,,,,425.02700000000186,,response,,,10,D,,,,,Space,keypress(Space),,,,silence,-- -- --- ------ ------- --------- ----------- --------<br>--------- -------- --- ------- -- ------- ---- -- ------<br>-- --- -------- -------- ---------- ---- ---- ---- ------<br>-- --------- -- ---- -- --- of --- ------- -- - -----<br>---------- -- -- -- ---- ----- -- ------ -- --- ------<br>-------,272966.7999999523,272966,272524.302,272535.09999990463,272540.973,272974.465,,32,of
screen,html.Screen,0_4_1_0_1_33,2021-11-19T14:01:21.395Z,,,,,,,,,,,,,,,,48,,,,,,,,,,,,,,399.5349999999744,,response,,,10,D,,,,,Space,keypress(Space),,,,silence,-- -- --- ------ ------- --------- ----------- --------<br>--------- -------- --- ------- -- ------- ---- -- ------<br>-- --- -------- -------- ---------- ---- ---- ---- ------<br>-- --------- -- ---- -- --- -- the ------- -- - -----<br>---------- -- -- -- ---- ----- -- ------ -- --- ------<br>-------,273374.7999999523,273374,272957.794,272967,272974.465,273391.232,,33,the
screen,html.Screen,0_4_1_0_1_34,2021-11-19T14:01:21.835Z,,,,,,,,,,,,,,,,48,,,,,,,,,,,,,,422.76799999998184,,response,,,10,D,,,,,Space,keypress(Space),,,,silence,-- -- --- ------ ------- --------- ----------- --------<br>--------- -------- --- ------- -- ------- ---- -- ------<br>-- --- -------- -------- ---------- ---- ---- ---- ------<br>-- --------- -- ---- -- --- -- --- country -- - -----<br>---------- -- -- -- ---- ----- -- ------ -- --- ------<br>-------,273814.89999985695,273814,273374.561,273375.09999990463,273391.232,273824.617,,34,country
screen,html.Screen,0_4_1_0_1_35,2021-11-19T14:01:22.282Z,,,,,,,,,,,,,,,,48,,,,,,,,,,,,,,437.2829998569214,,response,,,10,D,,,,,Space,keypress(Space),,,,silence,-- -- --- ------ ------- --------- ----------- --------<br>--------- -------- --- ------- -- ------- ---- -- ------<br>-- --- -------- -------- ---------- ---- ---- ---- ------<br>-- --------- -- ---- -- --- -- --- ------- is - -----<br>---------- -- -- -- ---- ----- -- ------ -- --- ------<br>-------,274262.7000000477,274261.89999985695,273807.947,273815.2000000477,273824.617,274274.749,,35,is
screen,html.Screen,0_4_1_0_1_36,2021-11-19T14:01:22.722Z,,,,,,,,,,,,,,,,48,,,,,,,,,,,,,,427.15099985693814,,response,,,10,D,,,,,Space,keypress(Space),,,,silence,-- -- --- ------ ------- --------- ----------- --------<br>--------- -------- --- ------- -- ------- ---- -- ------<br>-- --- -------- -------- ---------- ---- ---- ---- ------<br>-- --------- -- ---- -- --- -- --- ------- -- a -----<br>---------- -- -- -- ---- ----- -- ------ -- --- ------<br>-------,274702.7999999523,274701.89999985695,274258.079,274262.89999985695,274274.749,274708.198,,36,a
screen,html.Screen,0_4_1_0_1_37,2021-11-19T14:01:23.146Z,,,,,,,,,,,,,,,,48,,,,,,,,,,,,,,417.701999856974,,response,,,10,D,,,,,Space,keypress(Space),,,,silence,-- -- --- ------ ------- --------- ----------- --------<br>--------- -------- --- ------- -- ------- ---- -- ------<br>-- --- -------- -------- ---------- ---- ---- ---- ------<br>-- --------- -- ---- -- --- -- --- ------- -- - crime<br>---------- -- -- -- ---- ----- -- ------ -- --- ------<br>-------,275126.7000000477,275125.89999985695,274691.528,274703,274708.198,275141.626,,37,crime
screen,html.Screen,0_4_1_0_1_38,2021-11-19T14:01:23.634Z,,,,,,,,,,,,,,,,48,,,,,,,,,,,,,,472.173999952327,,response,,,10,D,,,,,Space,keypress(Space),,,,silence,-- -- --- ------ ------- --------- ----------- --------<br>--------- -------- --- ------- -- ------- ---- -- ------<br>-- --- -------- -------- ---------- ---- ---- ---- ------<br>-- --------- -- ---- -- --- -- --- ------- -- - -----<br>punishable -- -- -- ---- ----- -- ------ -- --- ------<br>-------,275614.7999999523,275613.7999999523,275124.956,275127,275141.626,275625.136,,38,punishable
screen,html.Screen,0_4_1_0_1_39,2021-11-19T14:01:24.218Z,,,,,,,,,,,,,,,,48,,,,,,,,,,,,,,572.6639999523177,,response,,,10,D,,,,,Space,keypress(Space),,,,silence,-- -- --- ------ ------- --------- ----------- --------<br>--------- -------- --- ------- -- ------- ---- -- ------<br>-- --- -------- -------- ---------- ---- ---- ---- ------<br>-- --------- -- ---- -- --- -- --- ------- -- - -----<br>---------- by -- -- ---- ----- -- ------ -- --- ------<br>-------,276198.7000000477,276197.7999999523,275608.465,275615,275625.136,276208.56,,39,by
screen,html.Screen,0_4_1_0_1_40,2021-11-19T14:01:24.738Z,,,,,,,,,,,,,,,,48,,,,,,,,,,,,,,509.3399998569512,,response,,,10,D,,,,,Space,keypress(Space),,,,silence,-- -- --- ------ ------- --------- ----------- --------<br>--------- -------- --- ------- -- ------- ---- -- ------<br>-- --- -------- -------- ---------- ---- ---- ---- ------<br>-- --------- -- ---- -- --- -- --- ------- -- - -----<br>---------- -- up -- ---- ----- -- ------ -- --- ------<br>-------,276718.7000000477,276717.89999985695,276191.89,276199,276208.56,276725.356,,40,up
screen,html.Screen,0_4_1_0_1_41,2021-11-19T14:01:25.258Z,,,,,,,,,,,,,,,,48,,,,,,,,,,,,,,512.4439999522874,,response,,,10,D,,,,,Space,keypress(Space),,,,silence,-- -- --- ------ ------- --------- ----------- --------<br>--------- -------- --- ------- -- ------- ---- -- ------<br>-- --- -------- -------- ---------- ---- ---- ---- ------<br>-- --------- -- ---- -- --- -- --- ------- -- - -----<br>---------- -- -- to ---- ----- -- ------ -- --- ------<br>-------,277238.59999990463,277237.7999999523,276708.686,276719,276725.356,277242.218,,41,to
screen,html.Screen,0_4_1_0_1_42,2021-11-19T14:01:25.771Z,,,,,,,,,,,,,,,,48,,,,,,,,,,,,,,507.8819999046391,,response,,,10,D,,,,,Space,keypress(Space),,,,silence,-- -- --- ------ ------- --------- ----------- --------<br>--------- -------- --- ------- -- ------- ---- -- ------<br>-- --- -------- -------- ---------- ---- ---- ---- ------<br>-- --------- -- ---- -- --- -- --- ------- -- - -----<br>---------- -- -- -- five ----- -- ------ -- --- ------<br>-------,277750.89999985695,277750.09999990463,277225.547,277238.7999999523,277242.218,277758.944,,42,five
screen,html.Screen,0_4_1_0_1_43,2021-11-19T14:01:26.251Z,,,,,,,,,,,,,,,,48,,,,,,,,,,,,,,471.256000047666,,response,,,10,D,,,,,Space,keypress(Space),,,,silence,-- -- --- ------ ------- --------- ----------- --------<br>--------- -------- --- ------- -- ------- ---- -- ------<br>-- --- -------- -------- ---------- ---- ---- ---- ------<br>-- --------- -- ---- -- --- -- --- ------- -- - -----<br>---------- -- -- -- ---- years -- ------ -- --- ------<br>-------,278231,278230.2000000477,277742.274,277751.09999990463,277758.944,278242.388,,43,years
screen,html.Screen,0_4_1_0_1_44,2021-11-19T14:01:26.666Z,,,,,,,,,,,,,,,,48,,,,,,,,,,,,,,403.31200004770653,,response,,,10,D,,,,,Space,keypress(Space),,,,silence,-- -- --- ------ ------- --------- ----------- --------<br>--------- -------- --- ------- -- ------- ---- -- ------<br>-- --- -------- -------- ---------- ---- ---- ---- ------<br>-- --------- -- ---- -- --- -- --- ------- -- - -----<br>---------- -- -- -- ---- ----- in ------ -- --- ------<br>-------,278646.59999990463,278645.7000000477,278225.718,278231.2000000477,278242.388,278659.265,,44,in
screen,html.Screen,0_4_1_0_1_45,2021-11-19T14:01:27.074Z,,,,,,,,,,,,,,,,48,,,,,,,,,,,,,,394.43500004766975,,response,,,10,D,,,,,Space,keypress(Space),,,,silence,-- -- --- ------ ------- --------- ----------- --------<br>--------- -------- --- ------- -- ------- ---- -- ------<br>-- --- -------- -------- ---------- ---- ---- ---- ------<br>-- --------- -- ---- -- --- -- --- ------- -- - -----<br>---------- -- -- -- ---- ----- -- prison -- --- ------<br>-------,279054.5,279053.7000000477,278642.594,278646.89999985695,278659.265,279059.302,,45,prison
screen,html.Screen,0_4_1_0_1_46,2021-11-19T14:01:27.482Z,,,,,,,,,,,,,,,,48,,,,,,,,,,,,,,402.39800004765857,,response,,,10,D,,,,,Space,keypress(Space),,,,silence,-- -- --- ------ ------- --------- ----------- --------<br>--------- -------- --- ------- -- ------- ---- -- ------<br>-- --- -------- -------- ---------- ---- ---- ---- ------<br>-- --------- -- ---- -- --- -- --- ------- -- - -----<br>---------- -- -- -- ---- ----- -- ------ in --- ------<br>-------,279462.5,279461.7000000477,279042.632,279054.7000000477,279059.302,279476.085,,46,in
screen,html.Screen,0_4_1_0_1_47,2021-11-19T14:01:27.906Z,,,,,,,,,,,,,,,,48,,,,,,,,,,,,,,409.5149999046116,,response,,,10,D,,,,,Space,keypress(Space),,,,silence,-- -- --- ------ ------- --------- ----------- --------<br>--------- -------- --- ------- -- ------- ---- -- ------<br>-- --- -------- -------- ---------- ---- ---- ---- ------<br>-- --------- -- ---- -- --- -- --- ------- -- - -----<br>---------- -- -- -- ---- ----- -- ------ -- the ------<br>-------,279886.59999990463,279885.59999990463,279459.415,279462.89999985695,279476.085,279892.75,,47,the
screen,html.Screen,0_4_1_0_1_48,2021-11-19T14:01:28.370Z,,,,,,,,,,,,,,,,48,,,,,,,,,,,,,,456.9500000476837,,response,,,10,D,,,,,Space,keypress(Space),,,,silence,-- -- --- ------ ------- --------- ----------- --------<br>--------- -------- --- ------- -- ------- ---- -- ------<br>-- --- -------- -------- ---------- ---- ---- ---- ------<br>-- --------- -- ---- -- --- -- --- ------- -- - -----<br>---------- -- -- -- ---- ----- -- ------ -- --- United<br>-------,280350.39999985695,280349.7000000477,279876.081,279886.89999985695,279892.75,280359.6,,48,United
screen,html.Screen,0_4_1_0_1_49,2021-11-19T14:01:28.770Z,,,,,,,,,,,,,,,,48,,,,,,,,,,,,,,389.99999990465585,,response,,,10,D,,,,,Space,keypress(Space),,,,silence,-- -- --- ------ ------- --------- ----------- --------<br>--------- -------- --- ------- -- ------- ---- -- ------<br>-- --- -------- -------- ---------- ---- ---- ---- ------<br>-- --------- -- ---- -- --- -- --- ------- -- - -----<br>---------- -- -- -- ---- ----- -- ------ -- --- ------<br>States.,280750.5,280749.59999990463,280342.93,280350.7999999523,280359.6,280759.826,,49,States.
Item 10,flow.Loop,0_4_1_0_1,2021-11-19T14:01:28.771Z,,,,,,,,,,,,,,,,,,,,,,,,,,,,,,78043.35899990462,,completion,,,,,,,,,,,,,,,,280751,280749.59999990463,202689.571,202691.29999995232,202706.241,280759.826,,,
Question 1,html.Screen,0_4_1_0_2,2021-11-19T14:01:33.922Z,,,,,,,,,,,,,,,,,,,,,,,,,,,false,TRUE,,5140.874000047683,,response,,,10,D,,,,,FALSE,click #choice-2,,,,silence,,285901.7999999523,285900.7000000477,280743.154,280751.2000000477,280759.826,285911.043,,,
Question 2,html.Screen,0_4_1_0_3,2021-11-19T14:01:37.122Z,,,,,,,,,,,,,,,,,,,,,,,,,,,true,TRUE,,3190.0569999046274,,response,,,10,D,,,,,TRUE,click #choice-1,,,,silence,,289102.2999999523,289101.09999990463,285894.373,285902.09999990463,285911.043,289111.787,,,
Item 10,flow.Sequence,0_4_1_0,2021-11-19T14:01:37.122Z,,,,,,,,,,,,,,,,,,,,,,,,,,,,,,93397.05599990464,,completion,,,,,,,,,,,,,,,,289102.7000000477,289101.09999990463,195687.374,195689.39999985695,195704.044,289111.787,,,
Holding screen,html.Screen,0_4_1_1_0,2021-11-19T14:01:44.118Z,,,,,,,,,,,,,,,,,,,,,,,,,,,,,,7001.821999999986,,timeout,,,,,,,,,,,,,,,,296098.5,296096.939,289095.118,289103.09999990463,289111.787,296113.609,,,
screen,html.Screen,0_4_1_1_1_0,2021-11-19T14:01:45.553Z,,,,,,,,,,,,,,,,2,,,,,,,,,,,,,,1419.091000047687,,response,,,1,D,,,,,Space,keypress(Space),,,,silence,Two ---- ------ --- ------- ---------- ------- ----------<br>--- --------- --- ----------- ------- ----- ------- ---<br>--------- ---- -- --- ---- -- --------- -- ---- -------<br>-- --------- ------ --- ----- ------ ---- --- --------- --<br>------ - ---- -- --- ----------- ------- ---- ----- -----<br>--- -------- - ------ ---- -- ----- ---- --- --- -----------<br>-- -------,297533.59999990463,297532.7000000477,296096.939,296098.7999999523,296113.609,297547.145,,0,Two
screen,html.Screen,0_4_1_1_1_1,2021-11-19T14:01:45.961Z,,,,,,,,,,,,,,,,2,,,,,,,,,,,,,,393.5550000476651,,response,,,1,D,,,,,Space,keypress(Space),,,,silence,--- days ------ --- ------- ---------- ------- ----------<br>--- --------- --- ----------- ------- ----- ------- ---<br>--------- ---- -- --- ---- -- --------- -- ---- -------<br>-- --------- ------ --- ----- ------ ---- --- --------- --<br>------ - ---- -- --- ----------- ------- ---- ----- -----<br>--- -------- - ------ ---- -- ----- ---- --- --- -----------<br>-- -------,297941.5,297940.7000000477,297530.476,297533.7999999523,297547.145,297947.407,,1,days
screen,html.Screen,0_4_1_1_1_2,2021-11-19T14:01:46.577Z,,,,,,,,,,,,,,,,2,,,,,,,,,,,,,,609.192999904626,,response,,,1,D,,,,,Space,keypress(Space),,,,silence,"--- ---- later, --- ------- ---------- ------- ----------<br>--- --------- --- ----------- ------- ----- ------- ---<br>--------- ---- -- --- ---- -- --------- -- ---- -------<br>-- --------- ------ --- ----- ------ ---- --- --------- --<br>------ - ---- -- --- ----------- ------- ---- ----- -----<br>--- -------- - ------ ---- -- ----- ---- --- --- -----------<br>-- -------",298557.5,298556.59999990463,297930.737,297941.7999999523,297947.407,298564.375,,2,"later,"
