sender,sender_type,sender_id,timestamp,meta,,Blues,Classical,Country,Dance,Electronic,Folk,Gospel,Hip-Hop,Jazz,Latin,Musical/Film,New-age,Pop,Provo_ID,R&B,Rap,Reggae,Religious,Rock,Soul,Swing,Traditional,age,artist_name,correct,correctResponse,distraction,duration,education,ended_on,familiarity,gender,item,list,music_frequency,offensiveness,pleasantness,preference,response,response_action,snippet_file,song_name,song_rating,sound,text,time_commit,time_end,time_render,time_run,time_show,time_switch,url,word,word_ID
Instructions,html.Page,0_0,2021-11-12T11:55:21.330Z,"{""labjs_version"":""20.2.3"",""labjs_build"":{""flavor"":""production"",""commit"":""7ea907d66ca8aeef8054924ca5d82ffbe11e34e5""},""location"":""https://run.pavlovia.org/mvasilev/lab_music_c/"",""userAgent"":""Mozilla/5.0 (Windows NT 6.1; Win64; x64) AppleWebKit/537.36 (KHTML, like Gecko) Chrome/95.0.4638.69 Safari/537.36"",""platform"":""Win32"",""language"":""en-US"",""locale"":""en-US"",""timeZone"":""Europe/London"",""timezoneOffset"":0,""screen_width"":1920,""screen_height"":1080,""scroll_width"":1920,""scroll_height"":959,""window_innerWidth"":1920,""window_innerHeight"":1007,""devicePixelRatio"":1}",,,,,,,,,,,,,,,,,,,,,,,,,,,,,30957.835999952316,,form submission,,,,,,,,,,,,,,,,45774.59999996424,45773.299999952316,14782.124,14803,14815.464,45782.908,{},,
Headphones,html.Page,0_1,2021-11-12T11:55:25.649Z,,,,,,,,,,,,,,,,,,,,,,,,,,,,,,4310.191999964234,,form submission,,,,,,,,,,,,,,,,50093.69999998808,50093.09999996424,45766.242,45775.39999997616,45782.908,50108.352,,,
Holding screen,html.Screen,0_2_0_0,2021-11-12T11:55:35.658Z,,,,,,,,,,,,,,,,,,,,,,,,,,,,,,10002.417999999998,,timeout,,,,,,,,,,,,,,,,60099.59999996424,60094.101,50091.682,50094.19999998808,50108.352,60110.77,,,
screen,html.Screen,0_2_0_1_0,2021-11-12T11:55:37.310Z,,,,,,,,,,,,,,,,53,,,,,,,,,,,,,,1639.4299999880823,,response,,,99,,,,,,Space,keypress(Space),,,,,When -- ----- -- ------ - ------- --- ----------<br>------------- ------ ------ ---- ---- ------- ----- -- ----<br>-------- ------- -- ---------- --- - --- ----- ----- ----<br>---- --- --- ----- --- ---- ---- ------- ----- ---- -------<br>--- --- -- ----- -- --- ---- -- --- ---- -- ------ ------<br>--- ----- -- ----,61751.69999998808,61750.19999998808,60094.101,60100.09999996424,60110.77,61761.661,,0,When
screen,html.Screen,0_2_0_1_1,2021-11-12T11:55:37.741Z,,,,,,,,,,,,,,,,53,,,,,,,,,,,,,,419.93899996423715,,response,,,99,,,,,,Space,keypress(Space),,,,,---- it ----- -- ------ - ------- --- ----------<br>------------- ------ ------ ---- ---- ------- ----- -- ----<br>-------- ------- -- ---------- --- - --- ----- ----- ----<br>---- --- --- ----- --- ---- ---- ------- ----- ---- -------<br>--- --- -- ----- -- --- ---- -- --- ---- -- ------ ------<br>--- ----- -- ----,62182.59999996424,62181.59999996424,61744.989,61752,61761.661,62194.871,,1,it
screen,html.Screen,0_2_0_1_2,2021-11-12T11:55:38.101Z,,,,,,,,,,,,,,,,53,,,,,,,,,,,,,,346.728999964238,,response,,,99,,,,,,Space,keypress(Space),,,,,---- -- comes -- ------ - ------- --- ----------<br>------------- ------ ------ ---- ---- ------- ----- -- ----<br>-------- ------- -- ---------- --- - --- ----- ----- ----<br>---- --- --- ----- --- ---- ---- ------- ----- ---- -------<br>--- --- -- ----- -- --- ---- -- --- ---- -- ------ ------<br>--- ----- -- ----,62542.5,62541.59999996424,62178.201,62182.89999997616,62194.871,62545.001,,2,comes
screen,html.Screen,0_2_0_1_3,2021-11-12T11:55:38.429Z,,,,,,,,,,,,,,,,53,,,,,,,,,,,,,,324.59899996424065,,response,,,99,,,,,,Space,keypress(Space),,,,,---- -- ----- to ------ - ------- --- ----------<br>------------- ------ ------ ---- ---- ------- ----- -- ----<br>-------- ------- -- ---------- --- - --- ----- ----- ----<br>---- --- --- ----- --- ---- ---- ------- ----- ---- -------<br>--- --- -- ----- -- --- ---- -- --- ---- -- ------ ------<br>--- ----- -- ----,62870.59999996424,62869.59999996424,62528.331,62542.799999952316,62545.001,62878.424,,3,to
screen,html.Screen,0_2_0_1_4,2021-11-12T11:55:38.693Z,,,,,,,,,,,,,,,,53,,,,,,,,,,,,,,255.17599996423814,,response,,,99,,,,,,Space,keypress(Space),,,,,---- -- ----- -- having - ------- --- ----------<br>------------- ------ ------ ---- ---- ------- ----- -- ----<br>-------- ------- -- ---------- --- - --- ----- ----- ----<br>---- --- --- ----- --- ---- ---- ------- ----- ---- -------<br>--- --- -- ----- -- --- ---- -- --- ---- -- ------ ------<br>--- ----- -- ----,63134.89999997616,63133.59999996424,62861.754,62871.09999996424,62878.424,63145.051,,4,having
screen,html.Screen,0_2_0_1_5,2021-11-12T11:55:39.133Z,,,,,,,,,,,,,,,,53,,,,,,,,,,,,,,428.54899996423774,,response,,,99,,,,,,Space,keypress(Space),,,,,---- -- ----- -- ------ a ------- --- ----------<br>------------- ------ ------ ---- ---- ------- ----- -- ----<br>-------- ------- -- ---------- --- - --- ----- ----- ----<br>---- --- --- ----- --- ---- ---- ------- ----- ---- -------<br>--- --- -- ----- -- --- ---- -- --- ---- -- ------ ------<br>--- ----- -- ----,63574.5,63573.59999996424,63128.383,63135.19999998808,63145.051,63578.715,,5,a
screen,html.Screen,0_2_0_1_6,2021-11-12T11:55:39.477Z,,,,,,,,,,,,,,,,53,,,,,,,,,,,,,,338.7850000000035,,response,,,99,,,,,,Space,keypress(Space),,,,,---- -- ----- -- ------ - lasting --- ----------<br>------------- ------ ------ ---- ---- ------- ----- -- ----<br>-------- ------- -- ---------- --- - --- ----- ----- ----<br>---- --- --- ----- --- ---- ---- ------- ----- ---- -------<br>--- --- -- ----- -- --- ---- -- --- ---- -- ------ ------<br>--- ----- -- ----,63918.39999997616,63917.5,63562.042,63575,63578.715,63928.677,,6,lasting
screen,html.Screen,0_2_0_1_7,2021-11-12T11:55:39.829Z,,,,,,,,,,,,,,,,53,,,,,,,,,,,,,,340.8229999999967,,response,,,99,,,,,,Space,keypress(Space),,,,,---- -- ----- -- ------ - ------- and ----------<br>------------- ------ ------ ---- ---- ------- ----- -- ----<br>-------- ------- -- ---------- --- - --- ----- ----- ----<br>---- --- --- ----- --- ---- ---- ------- ----- ---- -------<br>--- --- -- ----- -- --- ---- -- --- ---- -- ------ ------<br>--- ----- -- ----,64270.39999997616,64269.5,63912.007,63918.799999952316,63928.677,64278.815,,7,and
screen,html.Screen,0_2_0_1_8,2021-11-12T11:55:40.189Z,,,,,,,,,,,,,,,,53,,,,,,,,,,,,,,350.6849999999977,,response,,,99,,,,,,Space,keypress(Space),,,,,---- -- ----- -- ------ - ------- --- fulfilling<br>------------- ------ ------ ---- ---- ------- ----- -- ----<br>-------- ------- -- ---------- --- - --- ----- ----- ----<br>---- --- --- ----- --- ---- ---- ------- ----- ---- -------<br>--- --- -- ----- -- --- ---- -- --- ---- -- ------ ------<br>--- ----- -- ----,64630.69999998808,64629.5,64262.144,64270.799999952316,64278.815,64645.538,,8,fulfilling
screen,html.Screen,0_2_0_1_9,2021-11-12T11:55:40.589Z,,,,,,,,,,,,,,,,53,,,,,,,,,,,,,,383.96199999999953,,response,,,99,,,,,,Space,keypress(Space),,,,,"---- -- ----- -- ------ - ------- --- ----------<br>relationship, ------ ------ ---- ---- ------- ----- -- ----<br>-------- ------- -- ---------- --- - --- ----- ----- ----<br>---- --- --- ----- --- ---- ---- ------- ----- ---- -------<br>--- --- -- ----- -- --- ---- -- --- ---- -- ------ ------<br>--- ----- -- ----",65030.39999997616,65029.5,64628.868,64631,64645.538,65045.703,,9,"relationship,"
screen,html.Screen,0_2_0_1_10,2021-11-12T11:55:40.965Z,,,,,,,,,,,,,,,,53,,,,,,,,,,,,,,359.79699999999866,,response,,,99,,,,,,Space,keypress(Space),,,,,---- -- ----- -- ------ - ------- --- ----------<br>------------- common ------ ---- ---- ------- ----- -- ----<br>-------- ------- -- ---------- --- - --- ----- ----- ----<br>---- --- --- ----- --- ---- ---- ------- ----- ---- -------<br>--- --- -- ----- -- --- ---- -- --- ---- -- ------ ------<br>--- ----- -- ----,65406.5,65405.5,65029.032,65030.69999998808,65045.703,65412.23,,10,common
screen,html.Screen,0_2_0_1_11,2021-11-12T11:55:41.292Z,,,,,,,,,,,,,,,,53,,,,,,,,,,,,,,320.7699999999968,,response,,,99,,,,,,Space,keypress(Space),,,,,---- -- ----- -- ------ - ------- --- ----------<br>------------- ------ wisdom ---- ---- ------- ----- -- ----<br>-------- ------- -- ---------- --- - --- ----- ----- ----<br>---- --- --- ----- --- ---- ---- ------- ----- ---- -------<br>--- --- -- ----- -- --- ---- -- --- ---- -- ------ ------<br>--- ----- -- ----,65733.5,65733,65395.563,65406.69999998808,65412.23,65745.89,,11,wisdom
screen,html.Screen,0_2_0_1_12,2021-11-12T11:55:41.724Z,,,,,,,,,,,,,,,,53,,,,,,,,,,,,,,419.40999995231687,,response,,,99,,,,,,Space,keypress(Space),,,,,---- -- ----- -- ------ - ------- --- ----------<br>------------- ------ ------ says ---- ------- ----- -- ----<br>-------- ------- -- ---------- --- - --- ----- ----- ----<br>---- --- --- ----- --- ---- ---- ------- ----- ---- -------<br>--- --- -- ----- -- --- ---- -- --- ---- -- ------ ------<br>--- ----- -- ----,66166.19999998808,66165.29999995232,65729.218,65733.5,65745.89,66179.17,,12,says
screen,html.Screen,0_2_0_1_13,2021-11-12T11:55:42.092Z,,,,,,,,,,,,,,,,53,,,,,,,,,,,,,,354.2299999761599,,response,,,99,,,,,,Space,keypress(Space),,,,,---- -- ----- -- ------ - ------- --- ----------<br>------------- ------ ------ ---- that ------- ----- -- ----<br>-------- ------- -- ---------- --- - --- ----- ----- ----<br>---- --- --- ----- --- ---- ---- ------- ----- ---- -------<br>--- --- -- ----- -- --- ---- -- --- ---- -- ------ ------<br>--- ----- -- ----,66534.29999995232,66533.39999997616,66162.501,66166.5,66179.17,66545.899,,13,that
screen,html.Screen,0_2_0_1_14,2021-11-12T11:55:42.492Z,,,,,,,,,,,,,,,,53,,,,,,,,,,,,,,387.50099997615325,,response,,,99,,,,,,Space,keypress(Space),,,,,---- -- ----- -- ------ - ------- --- ----------<br>------------- ------ ------ ---- ---- feeling ----- -- ----<br>-------- ------- -- ---------- --- - --- ----- ----- ----<br>---- --- --- ----- --- ---- ---- ------- ----- ---- -------<br>--- --- -- ----- -- --- ---- -- --- ---- -- ------ ------<br>--- ----- -- ----,66934.19999998808,66933.39999997616,66529.23,66534.59999996424,66545.899,66946.267,,14,feeling
screen,html.Screen,0_2_0_1_15,2021-11-12T11:55:42.812Z,,,,,,,,,,,,,,,,53,,,,,,,,,,,,,,307.13299997615104,,response,,,99,,,,,,Space,keypress(Space),,,,,---- -- ----- -- ------ - ------- --- ----------<br>------------- ------ ------ ---- ---- ------- close -- ----<br>-------- ------- -- ---------- --- - --- ----- ----- ----<br>---- --- --- ----- --- ---- ---- ------- ----- ---- -------<br>--- --- -- ----- -- --- ---- -- --- ---- -- ------ ------<br>--- ----- -- ----,67254.19999998808,67253.39999997616,66929.594,66934.5,66946.267,67262.877,,15,close
screen,html.Screen,0_2_0_1_16,2021-11-12T11:55:43.172Z,,,,,,,,,,,,,,,,53,,,,,,,,,,,,,,350.42299995232315,,response,,,99,,,,,,Space,keypress(Space),,,,,---- -- ----- -- ------ - ------- --- ----------<br>------------- ------ ------ ---- ---- ------- ----- to ----<br>-------- ------- -- ---------- --- - --- ----- ----- ----<br>---- --- --- ----- --- ---- ---- ------- ----- ---- -------<br>--- --- -- ----- -- --- ---- -- --- ---- -- ------ ------<br>--- ----- -- ----,67614.19999998808,67613.29999995232,67246.207,67254.39999997616,67262.877,67629.625,,16,to
screen,html.Screen,0_2_0_1_17,2021-11-12T11:55:43.604Z,,,,,,,,,,,,,,,,53,,,,,,,,,,,,,,415.6749999523163,,response,,,99,,,,,,Space,keypress(Space),,,,,---- -- ----- -- ------ - ------- --- ----------<br>------------- ------ ------ ---- ---- ------- ----- -- your<br>-------- ------- -- ---------- --- - --- ----- ----- ----<br>---- --- --- ----- --- ---- ---- ------- ----- ---- -------<br>--- --- -- ----- -- --- ---- -- --- ---- -- ------ ------<br>--- ----- -- ----,68046.19999998808,68045.29999995232,67612.955,67614.5,67629.625,68062.988,,17,your
screen,html.Screen,0_2_0_1_18,2021-11-12T11:55:44.028Z,,,,,,,,,,,,,,,,53,,,,,,,,,,,,,,406.31199995231873,,response,,,99,,,,,,Space,keypress(Space),,,,,---- -- ----- -- ------ - ------- --- ----------<br>------------- ------ ------ ---- ---- ------- ----- -- ----<br>romantic ------- -- ---------- --- - --- ----- ----- ----<br>---- --- --- ----- --- ---- ---- ------- ----- ---- -------<br>--- --- -- ----- -- --- ---- -- --- ---- -- ------ ------<br>--- ----- -- ----,68470.09999996424,68469.29999995232,68046.319,68046.39999997616,68062.988,68479.941,,18,romantic
screen,html.Screen,0_2_0_1_19,2021-11-12T11:55:44.380Z,,,,,,,,,,,,,,,,53,,,,,,,,,,,,,,341.2589999880729,,response,,,99,,,,,,Space,keypress(Space),,,,,---- -- ----- -- ------ - ------- --- ----------<br>------------- ------ ------ ---- ---- ------- ----- -- ----<br>-------- partner -- ---------- --- - --- ----- ----- ----<br>---- --- --- ----- --- ---- ---- ------- ----- ---- -------<br>--- --- -- ----- -- --- ---- -- --- ---- -- ------ ------<br>--- ----- -- ----,68822.09999996424,68821.19999998808,68463.269,68470.39999997616,68479.941,68829.984,,19,partner
screen,html.Screen,0_2_0_1_20,2021-11-12T11:55:44.684Z,,,,,,,,,,,,,,,,53,,,,,,,,,,,,,,295.21599998808233,,response,,,99,,,,,,Space,keypress(Space),,,,,---- -- ----- -- ------ - ------- --- ----------<br>------------- ------ ------ ---- ---- ------- ----- -- ----<br>-------- ------- is ---------- --- - --- ----- ----- ----<br>---- --- --- ----- --- ---- ---- ------- ----- ---- -------<br>--- --- -- ----- -- --- ---- -- --- ---- -- ------ ------<br>--- ----- -- ----,69126.09999996424,69125.19999998808,68813.313,68822.29999995232,68829.984,69130.015,,20,is
screen,html.Screen,0_2_0_1_21,2021-11-12T11:55:44.988Z,,,,,,,,,,,,,,,,53,,,,,,,,,,,,,,299.18499998807965,,response,,,99,,,,,,Space,keypress(Space),,,,,---- -- ----- -- ------ - ------- --- ----------<br>------------- ------ ------ ---- ---- ------- ----- -- ----<br>-------- ------- -- paramount. --- - --- ----- ----- ----<br>---- --- --- ----- --- ---- ---- ------- ----- ---- -------<br>--- --- -- ----- -- --- ---- -- --- ---- -- ------ ------<br>--- ----- -- ----,69430.09999996424,69429.19999998808,69113.345,69126.29999995232,69130.015,69446.768,,21,paramount.
screen,html.Screen,0_2_0_1_22,2021-11-12T11:55:45.348Z,,,,,,,,,,,,,,,,53,,,,,,,,,,,,,,342.3319999642408,,response,,,99,,,,,,Space,keypress(Space),,,,,---- -- ----- -- ------ - ------- --- ----------<br>------------- ------ ------ ---- ---- ------- ----- -- ----<br>-------- ------- -- ---------- But - --- ----- ----- ----<br>---- --- --- ----- --- ---- ---- ------- ----- ---- -------<br>--- --- -- ----- -- --- ---- -- --- ---- -- ------ ------<br>--- ----- -- ----,69790,69789.09999996424,69430.098,69430.5,69446.768,69796.892,,22,But
screen,html.Screen,0_2_0_1_23,2021-11-12T11:55:45.684Z,,,,,,,,,,,,,,,,53,,,,,,,,,,,,,,328.30799998807197,,response,,,99,,,,,,Space,keypress(Space),,,,,---- -- ----- -- ------ - ------- --- ----------<br>------------- ------ ------ ---- ---- ------- ----- -- ----<br>-------- ------- -- ---------- --- a --- ----- ----- ----<br>---- --- --- ----- --- ---- ---- ------- ----- ---- -------<br>--- --- -- ----- -- --- ---- -- --- ---- -- ------ ------<br>--- ----- -- ----,70126,70125.19999998808,69780.221,69790.19999998808,69796.892,70130.287,,23,a
screen,html.Screen,0_2_0_1_24,2021-11-12T11:55:46.020Z,,,,,,,,,,,,,,,,53,,,,,,,,,,,,,,330.91299998808245,,response,,,99,,,,,,Space,keypress(Space),,,,,---- -- ----- -- ------ - ------- --- ----------<br>------------- ------ ------ ---- ---- ------- ----- -- ----<br>-------- ------- -- ---------- --- - new ----- ----- ----<br>---- --- --- ----- --- ---- ---- ------- ----- ---- -------<br>--- --- -- ----- -- --- ---- -- --- ---- -- ------ ------<br>--- ----- -- ----,70462,70461.19999998808,70113.617,70126.19999998808,70130.287,70463.64,,24,new
screen,html.Screen,0_2_0_1_25,2021-11-12T11:55:46.396Z,,,,,,,,,,,,,,,,53,,,,,,,,,,,,,,373.4599999642378,,response,,,99,,,,,,Space,keypress(Space),,,,,---- -- ----- -- ------ - ------- --- ----------<br>------------- ------ ------ ---- ---- ------- ----- -- ----<br>-------- ------- -- ---------- --- - --- study ----- ----<br>---- --- --- ----- --- ---- ---- ------- ----- ---- -------<br>--- --- -- ----- -- --- ---- -- --- ---- -- ------ ------<br>--- ----- -- ----,70838,70837.09999996424,70446.971,70462.19999998808,70463.64,70847.21,,25,study
screen,html.Screen,0_2_0_1_26,2021-11-12T11:55:46.748Z,,,,,,,,,,,,,,,,53,,,,,,,,,,,,,,341.8899999642308,,response,,,99,,,,,,Space,keypress(Space),,,,,---- -- ----- -- ------ - ------- --- ----------<br>------------- ------ ------ ---- ---- ------- ----- -- ----<br>-------- ------- -- ---------- --- - --- ----- finds ----<br>---- --- --- ----- --- ---- ---- ------- ----- ---- -------<br>--- --- -- ----- -- --- ---- -- --- ---- -- ------ ------<br>--- ----- -- ----,71189.79999995232,71189.09999996424,70830.538,70838.29999995232,70847.21,71197.26,,26,finds
screen,html.Screen,0_2_0_1_27,2021-11-12T11:55:47.308Z,,,,,,,,,,,,,,,,53,,,,,,,,,,,,,,551.8399999642425,,response,,,99,,,,,,Space,keypress(Space),,,,,---- -- ----- -- ------ - ------- --- ----------<br>------------- ------ ------ ---- ---- ------- ----- -- ----<br>-------- ------- -- ---------- --- - --- ----- ----- that<br>---- --- --- ----- --- ---- ---- ------- ----- ---- -------<br>--- --- -- ----- -- --- ---- -- --- ---- -- ------ ------<br>--- ----- -- ----,71749.79999995232,71749.09999996424,71180.589,71190.09999996424,71197.26,71764.014,,27,that
screen,html.Screen,0_2_0_1_28,2021-11-12T11:55:47.676Z,,,,,,,,,,,,,,,,53,,,,,,,,,,,,,,353.4860000000044,,response,,,99,,,,,,Space,keypress(Space),,,,,---- -- ----- -- ------ - ------- --- ----------<br>------------- ------ ------ ---- ---- ------- ----- -- ----<br>-------- ------- -- ---------- --- - --- ----- ----- ----<br>it's --- --- ----- --- ---- ---- ------- ----- ---- -------<br>--- --- -- ----- -- --- ---- -- --- ---- -- ------ ------<br>--- ----- -- ----,72118.29999995232,72117.5,71747.344,71750.09999996424,71764.014,72130.8,,28,it's
screen,html.Screen,0_2_0_1_29,2021-11-12T11:55:48.044Z,,,,,,,,,,,,,,,,53,,,,,,,,,,,,,,354.2999999642343,,response,,,99,,,,,,Space,keypress(Space),,,,,---- -- ----- -- ------ - ------- --- ----------<br>------------- ------ ------ ---- ---- ------- ----- -- ----<br>-------- ------- -- ---------- --- - --- ----- ----- ----<br>---- not --- ----- --- ---- ---- ------- ----- ---- -------<br>--- --- -- ----- -- --- ---- -- --- ---- -- ------ ------<br>--- ----- -- ----,72485.89999997616,72485.09999996424,72114.13,72118.5,72130.8,72497.563,,29,not
screen,html.Screen,0_2_0_1_30,2021-11-12T11:55:48.404Z,,,,,,,,,,,,,,,,53,,,,,,,,,,,,,,347.43700000000536,,response,,,99,,,,,,Space,keypress(Space),,,,,---- -- ----- -- ------ - ------- --- ----------<br>------------- ------ ------ ---- ---- ------- ----- -- ----<br>-------- ------- -- ---------- --- - --- ----- ----- ----<br>---- --- how ----- --- ---- ---- ------- ----- ---- -------<br>--- --- -- ----- -- --- ---- -- --- ---- -- ------ ------<br>--- ----- -- ----,72845.89999997616,72845,72480.893,72486.19999998808,72497.563,72847.645,,30,how
screen,html.Screen,0_2_0_1_31,2021-11-12T11:55:48.756Z,,,,,,,,,,,,,,,,53,,,,,,,,,,,,,,349.3549999999959,,response,,,99,,,,,,Space,keypress(Space),,,,,---- -- ----- -- ------ - ------- --- ----------<br>------------- ------ ------ ---- ---- ------- ----- -- ----<br>-------- ------- -- ---------- --- - --- ----- ----- ----<br>---- --- --- close --- ---- ---- ------- ----- ---- -------<br>--- --- -- ----- -- --- ---- -- --- ---- -- ------ ------<br>--- ----- -- ----,73197.89999997616,73197,72830.975,72846.09999996424,72847.645,73214.315,,31,close
screen,html.Screen,0_2_0_1_32,2021-11-12T11:55:49.084Z,,,,,,,,,,,,,,,,53,,,,,,,,,,,,,,310.6849999999977,,response,,,99,,,,,,Space,keypress(Space),,,,,---- -- ----- -- ------ - ------- --- ----------<br>------------- ------ ------ ---- ---- ------- ----- -- ----<br>-------- ------- -- ---------- --- - --- ----- ----- ----<br>---- --- --- ----- you ---- ---- ------- ----- ---- -------<br>--- --- -- ----- -- --- ---- -- --- ---- -- ------ ------<br>--- ----- -- ----,73526.19999998808,73525,73197.646,73198.09999996424,73214.315,73531.229,,32,you
screen,html.Screen,0_2_0_1_33,2021-11-12T11:55:49.436Z,,,,,,,,,,,,,,,,53,,,,,,,,,,,,,,345.77099999999336,,response,,,99,,,,,,Space,keypress(Space),,,,,---- -- ----- -- ------ - ------- --- ----------<br>------------- ------ ------ ---- ---- ------- ----- -- ----<br>-------- ------- -- ---------- --- - --- ----- ----- ----<br>---- --- --- ----- --- feel ---- ------- ----- ---- -------<br>--- --- -- ----- -- --- ---- -- --- ---- -- ------ ------<br>--- ----- -- ----,73877.79999995232,73877,73514.557,73526.5,73531.229,73881.3,,33,feel
screen,html.Screen,0_2_0_1_34,2021-11-12T11:55:49.764Z,,,,,,,,,,,,,,,,53,,,,,,,,,,,,,,323.6999999999971,,response,,,99,,,,,,Space,keypress(Space),,,,,---- -- ----- -- ------ - ------- --- ----------<br>------------- ------ ------ ---- ---- ------- ----- -- ----<br>-------- ------- -- ---------- --- - --- ----- ----- ----<br>---- --- --- ----- --- ---- that ------- ----- ---- -------<br>--- --- -- ----- -- --- ---- -- --- ---- -- ------ ------<br>--- ----- -- ----,74205.79999995232,74205,73864.629,73878.09999996424,73881.3,74214.666,,34,that
screen,html.Screen,0_2_0_1_35,2021-11-12T11:55:50.092Z,,,,,,,,,,,,,,,,53,,,,,,,,,,,,,,318.33400000000256,,response,,,99,,,,,,Space,keypress(Space),,,,,---- -- ----- -- ------ - ------- --- ----------<br>------------- ------ ------ ---- ---- ------- ----- -- ----<br>-------- ------- -- ---------- --- - --- ----- ----- ----<br>---- --- --- ----- --- ---- ---- matters ----- ---- -------<br>--- --- -- ----- -- --- ---- -- --- ---- -- ------ ------<br>--- ----- -- ----,74533.79999995232,74533,74197.996,74206,74214.666,74548.077,,35,matters
screen,html.Screen,0_2_0_1_36,2021-11-12T11:55:50.420Z,,,,,,,,,,,,,,,,53,,,,,,,,,,,,,,312.82299997615337,,response,,,99,,,,,,Space,keypress(Space),,,,,"---- -- ----- -- ------ - ------- --- ----------<br>------------- ------ ------ ---- ---- ------- ----- -- ----<br>-------- ------- -- ---------- --- - --- ----- ----- ----<br>---- --- --- ----- --- ---- ---- ------- most, ---- -------<br>--- --- -- ----- -- --- ---- -- --- ---- -- ------ ------<br>--- ----- -- ----",74861.69999998808,74860.89999997616,74531.407,74534,74548.077,74864.842,,36,"most,"
screen,html.Screen,0_2_0_1_37,2021-11-12T11:55:50.868Z,,,,,,,,,,,,,,,,53,,,,,,,,,,,,,,443.9579999523121,,response,,,99,,,,,,Space,keypress(Space),,,,,---- -- ----- -- ------ - ------- --- ----------<br>------------- ------ ------ ---- ---- ------- ----- -- ----<br>-------- ------- -- ---------- --- - --- ----- ----- ----<br>---- --- --- ----- --- ---- ---- ------- ----- it's -------<br>--- --- -- ----- -- --- ---- -- --- ---- -- ------ ------<br>--- ----- -- ----,75309.59999996424,75308.79999995232,74848.172,74862,74864.842,75314.998,,37,it's
screen,html.Screen,0_2_0_1_38,2021-11-12T11:55:51.196Z,,,,,,,,,,,,,,,,53,,,,,,,,,,,,,,321.9019999761513,,response,,,99,,,,,,Space,keypress(Space),,,,,---- -- ----- -- ------ - ------- --- ----------<br>------------- ------ ------ ---- ---- ------- ----- -- ----<br>-------- ------- -- ---------- --- - --- ----- ----- ----<br>---- --- --- ----- --- ---- ---- ------- ----- ---- whether<br>--- --- -- ----- -- --- ---- -- --- ---- -- ------ ------<br>--- ----- -- ----,75637.69999998808,75636.89999997616,75298.327,75309.89999997616,75314.998,75648.303,,38,whether
screen,html.Screen,0_2_0_1_39,2021-11-12T11:55:51.564Z,,,,,,,,,,,,,,,,53,,,,,,,,,,,,,,356.4969999523164,,response,,,99,,,,,,Space,keypress(Space),,,,,---- -- ----- -- ------ - ------- --- ----------<br>------------- ------ ------ ---- ---- ------- ----- -- ----<br>-------- ------- -- ---------- --- - --- ----- ----- ----<br>---- --- --- ----- --- ---- ---- ------- ----- ---- -------<br>you --- -- ----- -- --- ---- -- --- ---- -- ------ ------<br>--- ----- -- ----,76005.59999996424,76004.79999995232,75631.634,75637.79999995232,75648.303,76015.048,,39,you
screen,html.Screen,0_2_0_1_40,2021-11-12T11:55:51.916Z,,,,,,,,,,,,,,,,53,,,,,,,,,,,,,,341.75199995232106,,response,,,99,,,,,,Space,keypress(Space),,,,,---- -- ----- -- ------ - ------- --- ----------<br>------------- ------ ------ ---- ---- ------- ----- -- ----<br>-------- ------- -- ---------- --- - --- ----- ----- ----<br>---- --- --- ----- --- ---- ---- ------- ----- ---- -------<br>--- are -- ----- -- --- ---- -- --- ---- -- ------ ------<br>--- ----- -- ----,76357.59999996424,76356.79999995232,75998.379,76005.89999997616,76015.048,76365.29,,40,are
screen,html.Screen,0_2_0_1_41,2021-11-12T11:55:52.220Z,,,,,,,,,,,,,,,,53,,,,,,,,,,,,,,295.4099999880855,,response,,,99,,,,,,Space,keypress(Space),,,,,---- -- ----- -- ------ - ------- --- ----------<br>------------- ------ ------ ---- ---- ------- ----- -- ----<br>-------- ------- -- ---------- --- - --- ----- ----- ----<br>---- --- --- ----- --- ---- ---- ------- ----- ---- -------<br>--- --- as ----- -- --- ---- -- --- ---- -- ------ ------<br>--- ----- -- ----,76661.59999996424,76660.69999998808,76348.618,76357.79999995232,76365.29,76665.282,,41,as
screen,html.Screen,0_2_0_1_42,2021-11-12T11:55:52.556Z,,,,,,,,,,,,,,,,53,,,,,,,,,,,,,,331.41799998807255,,response,,,99,,,,,,Space,keypress(Space),,,,,---- -- ----- -- ------ - ------- --- ----------<br>------------- ------ ------ ---- ---- ------- ----- -- ----<br>-------- ------- -- ---------- --- - --- ----- ----- ----<br>---- --- --- ----- --- ---- ---- ------- ----- ---- -------<br>--- --- -- close -- --- ---- -- --- ---- -- ------ ------<br>--- ----- -- ----,76997.59999996424,76996.69999998808,76648.612,76661.89999997616,76665.282,76998.745,,42,close
screen,html.Screen,0_2_0_1_43,2021-11-12T11:55:52.916Z,,,,,,,,,,,,,,,,53,,,,,,,,,,,,,,358.05499995232094,,response,,,99,,,,,,Space,keypress(Space),,,,,---- -- ----- -- ------ - ------- --- ----------<br>------------- ------ ------ ---- ---- ------- ----- -- ----<br>-------- ------- -- ---------- --- - --- ----- ----- ----<br>---- --- --- ----- --- ---- ---- ------- ----- ---- -------<br>--- --- -- ----- as --- ---- -- --- ---- -- ------ ------<br>--- ----- -- ----,77357.69999998808,77356.79999995232,76982.074,76997.89999997616,76998.745,77365.515,,43,as
screen,html.Screen,0_2_0_1_44,2021-11-12T11:55:53.284Z,,,,,,,,,,,,,,,,53,,,,,,,,,,,,,,359.18499998807965,,response,,,99,,,,,,Space,keypress(Space),,,,,---- -- ----- -- ------ - ------- --- ----------<br>------------- ------ ------ ---- ---- ------- ----- -- ----<br>-------- ------- -- ---------- --- - --- ----- ----- ----<br>---- --- --- ----- --- ---- ---- ------- ----- ---- -------<br>--- --- -- ----- -- you ---- -- --- ---- -- ------ ------<br>--- ----- -- ----,77725.59999996424,77724.69999998808,77348.844,77357.89999997616,77365.515,77732.233,,44,you
screen,html.Screen,0_2_0_1_45,2021-11-12T11:55:53.652Z,,,,,,,,,,,,,,,,53,,,,,,,,,,,,,,360.4669999880862,,response,,,99,,,,,,Space,keypress(Space),,,,,---- -- ----- -- ------ - ------- --- ----------<br>------------- ------ ------ ---- ---- ------- ----- -- ----<br>-------- ------- -- ---------- --- - --- ----- ----- ----<br>---- --- --- ----- --- ---- ---- ------- ----- ---- -------<br>--- --- -- ----- -- --- want -- --- ---- -- ------ ------<br>--- ----- -- ----,78093.5,78092.69999998808,77715.563,77725.89999997616,77732.233,78099.01,,45,want
screen,html.Screen,0_2_0_1_46,2021-11-12T11:55:53.980Z,,,,,,,,,,,,,,,,53,,,,,,,,,,,,,,321.7899999523215,,response,,,99,,,,,,Space,keypress(Space),,,,,---- -- ----- -- ------ - ------- --- ----------<br>------------- ------ ------ ---- ---- ------- ----- -- ----<br>-------- ------- -- ---------- --- - --- ----- ----- ----<br>---- --- --- ----- --- ---- ---- ------- ----- ---- -------<br>--- --- -- ----- -- --- ---- to --- ---- -- ------ ------<br>--- ----- -- ----,78421.59999996424,78420.79999995232,78082.34,78093.79999995232,78099.01,78432.417,,46,to
screen,html.Screen,0_2_0_1_47,2021-11-12T11:55:54.316Z,,,,,,,,,,,,,,,,53,,,,,,,,,,,,,,324.2829999880778,,response,,,99,,,,,,Space,keypress(Space),,,,,"---- -- ----- -- ------ - ------- --- ----------<br>------------- ------ ------ ---- ---- ------- ----- -- ----<br>-------- ------- -- ---------- --- - --- ----- ----- ----<br>---- --- --- ----- --- ---- ---- ------- ----- ---- -------<br>--- --- -- ----- -- --- ---- -- be, ---- -- ------ ------<br>--- ----- -- ----",78757.5,78756.69999998808,78415.747,78421.79999995232,78432.417,78765.833,,47,"be,"
screen,html.Screen,0_2_0_1_48,2021-11-12T11:55:54.652Z,,,,,,,,,,,,,,,,53,,,,,,,,,,,,,,326.86699998808035,,response,,,99,,,,,,Space,keypress(Space),,,,,---- -- ----- -- ------ - ------- --- ----------<br>------------- ------ ------ ---- ---- ------- ----- -- ----<br>-------- ------- -- ---------- --- - --- ----- ----- ----<br>---- --- --- ----- --- ---- ---- ------- ----- ---- -------<br>--- --- -- ----- -- --- ---- -- --- even -- ------ ------<br>--- ----- -- ----,79093.5,79092.69999998808,78749.163,78757.79999995232,78765.833,79099.298,,48,even
screen,html.Screen,0_2_0_1_49,2021-11-12T11:55:54.964Z,,,,,,,,,,,,,,,,53,,,,,,,,,,,,,,305.40199998808384,,response,,,99,,,,,,Space,keypress(Space),,,,,---- -- ----- -- ------ - ------- --- ----------<br>------------- ------ ------ ---- ---- ------- ----- -- ----<br>-------- ------- -- ---------- --- - --- ----- ----- ----<br>---- --- --- ----- --- ---- ---- ------- ----- ---- -------<br>--- --- -- ----- -- --- ---- -- --- ---- if ------ ------<br>--- ----- -- ----,79405.5,79404.69999998808,79082.627,79093.69999998808,79099.298,79415.941,,49,if
screen,html.Screen,0_2_0_1_50,2021-11-12T11:55:55.299Z,,,,,,,,,,,,,,,,53,,,,,,,,,,,,,,324.55899999999383,,response,,,99,,,,,,Space,keypress(Space),,,,,---- -- ----- -- ------ - ------- --- ----------<br>------------- ------ ------ ---- ---- ------- ----- -- ----<br>-------- ------- -- ---------- --- - --- ----- ----- ----<br>---- --- --- ----- --- ---- ---- ------- ----- ---- -------<br>--- --- -- ----- -- --- ---- -- --- ---- -- that's ------<br>--- ----- -- ----,79741.39999997616,79740.5,79399.272,79405.79999995232,79415.941,79749.464,,50,that's
screen,html.Screen,0_2_0_1_51,2021-11-12T11:55:55.676Z,,,,,,,,,,,,,,,,53,,,,,,,,,,,,,,367.23599998807185,,response,,,99,,,,,,Space,keypress(Space),,,,,---- -- ----- -- ------ - ------- --- ----------<br>------------- ------ ------ ---- ---- ------- ----- -- ----<br>-------- ------- -- ---------- --- - --- ----- ----- ----<br>---- --- --- ----- --- ---- ---- ------- ----- ---- -------<br>--- --- -- ----- -- --- ---- -- --- ---- -- ------ really<br>--- ----- -- ----,80117.5,80116.69999998808,79732.793,79741.59999996424,79749.464,80132.841,,51,really
screen,html.Screen,0_2_0_1_52,2021-11-12T11:55:56.084Z,,,,,,,,,,,,,,,,53,,,,,,,,,,,,,,391.75899996423686,,response,,,99,,,,,,Space,keypress(Space),,,,,---- -- ----- -- ------ - ------- --- ----------<br>------------- ------ ------ ---- ---- ------- ----- -- ----<br>-------- ------- -- ---------- --- - --- ----- ----- ----<br>---- --- --- ----- --- ---- ---- ------- ----- ---- -------<br>--- --- -- ----- -- --- ---- -- --- ---- -- ------ ------<br>not ----- -- ----,80525.89999997616,80524.59999996424,80116.171,80117.69999998808,80132.841,80532.959,,52,not
screen,html.Screen,0_2_0_1_53,2021-11-12T11:55:56.443Z,,,,,,,,,,,,,,,,53,,,,,,,,,,,,,,351.64099996423465,,response,,,99,,,,,,Space,keypress(Space),,,,,---- -- ----- -- ------ - ------- --- ----------<br>------------- ------ ------ ---- ---- ------- ----- -- ----<br>-------- ------- -- ---------- --- - --- ----- ----- ----<br>---- --- --- ----- --- ---- ---- ------- ----- ---- -------<br>--- --- -- ----- -- --- ---- -- --- ---- -- ------ ------<br>--- close -- ----,80885.39999997616,80884.59999996424,80516.289,80526.09999996424,80532.959,80899.574,,53,close
screen,html.Screen,0_2_0_1_54,2021-11-12T11:55:56.875Z,,,,,,,,,,,,,,,,53,,,,,,,,,,,,,,417.02599996424397,,response,,,99,,,,,,Space,keypress(Space),,,,,---- -- ----- -- ------ - ------- --- ----------<br>------------- ------ ------ ---- ---- ------- ----- -- ----<br>-------- ------- -- ---------- --- - --- ----- ----- ----<br>---- --- --- ----- --- ---- ---- ------- ----- ---- -------<br>--- --- -- ----- -- --- ---- -- --- ---- -- ------ ------<br>--- ----- at ----,81317.5,81316.59999996424,80882.906,80885.59999996424,80899.574,81333.243,,54,at
screen,html.Screen,0_2_0_1_55,2021-11-12T11:55:57.451Z,,,,,,,,,,,,,,,,53,,,,,,,,,,,,,,559.356999964235,,response,,,99,,,,,,Space,keypress(Space),,,,,---- -- ----- -- ------ - ------- --- ----------<br>------------- ------ ------ ---- ---- ------- ----- -- ----<br>-------- ------- -- ---------- --- - --- ----- ----- ----<br>---- --- --- ----- --- ---- ---- ------- ----- ---- -------<br>--- --- -- ----- -- --- ---- -- --- ---- -- ------ ------<br>--- ----- -- all.,81893.39999997616,81892.59999996424,81316.571,81317.69999998808,81333.243,81900.022,,55,all.
Item 99,flow.Loop,0_2_0_1,2021-11-12T11:55:57.456Z,,,,,,,,,,,,,,,,,,,,,,,,,,,,,,21781.82999996424,,completion,,,,C,,,,,,,,,,silence,,81898,81892.59999996424,60094.101,60100,60110.77,81900.022,,,
Question 1,html.Screen,0_2_0_2,2021-11-12T11:56:06.491Z,,,,,,,,,,,,,,,,,,,,,,,,,,,true,FALSE,,9031.277999952319,,response,,,99,C,,,,,FALSE,click #choice-2,,,,silence,,90932.79999995232,90931.29999995232,81883.351,81898.39999997616,81900.022,90936.134,,,
Question 2,html.Screen,0_2_0_3,2021-11-12T11:56:14.944Z,,,,,,,,,,,,,,,,,,,,,,,,,,,true,TRUE,,8449.065999988074,,response,,,99,C,,,,,TRUE,click #choice-1,,,,silence,,99386.39999997616,99385.19999998808,90918.879,90933.19999998808,90936.134,99387.756,,,
Item 99,flow.Sequence,0_2_0,2021-11-12T11:56:14.945Z,,,,,,,,,,,,,,,,,,,,,,,,,,,,,,49276.84799998808,,completion,,,,,,,,,,,,,,,,99386.89999997616,99385.19999998808,50091.682,50094.09999996424,50108.352,99387.756,,,
Holding screen,html.Screen,0_2_1_0,2021-11-12T11:56:24.933Z,,,,,,,,,,,,,,,,,,,,,,,,,,,,,,10002.485,,timeout,,,,,,,,,,,,,,,,109375.09999996424,109373.571,99371.086,99387.29999995232,99387.756,109390.241,,,
screen,html.Screen,0_2_1_1_0,2021-11-12T11:56:26.106Z,,,,,,,,,,,,,,,,54,,,,,,,,,,,,,,1157.2590000000055,,response,,,100,,,,,,Space,keypress(Space),,,,,At --- ---- --- ------ ----- ------- ---- -- --- ------- --<br>------- ---------- ------ -- ----- -- ----- -- ---- ------<br>--- ----- --- --- ------ -------- ----- --- ------ ----- --<br>----- ----- ---------- --- --- ------ ------ ---- -- ------<br>------- --- ------ ----- --- ---- ------- -- ---- --- --<br>------- ------,110548.5,110547.5,109373.571,109375.5,109390.241,110557.356,,0,At
screen,html.Screen,0_2_1_1_1,2021-11-12T11:56:26.506Z,,,,,,,,,,,,,,,,54,,,,,,,,,,,,,,389.4439999523165,,response,,,100,,,,,,Space,keypress(Space),,,,,-- the ---- --- ------ ----- ------- ---- -- --- ------- --<br>------- ---------- ------ -- ----- -- ----- -- ---- ------<br>--- ----- --- --- ------ -------- ----- --- ------ ----- --<br>----- ----- ---------- --- --- ------ ------ ---- -- ------<br>------- --- ------ ----- --- ---- ------- -- ---- --- --<br>------- ------,110947.79999995232,110946.79999995232,110540.685,110548.69999998808,110557.356,110957.355,,1,the
screen,html.Screen,0_2_1_1_2,2021-11-12T11:56:26.810Z,,,,,,,,,,,,,,,,54,,,,,,,,,,,,,,293.5449999761622,,response,,,100,,,,,,Space,keypress(Space),,,,,-- --- time --- ------ ----- ------- ---- -- --- ------- --<br>------- ---------- ------ -- ----- -- ----- -- ---- ------<br>--- ----- --- --- ------ -------- ----- --- ------ ----- --<br>----- ----- ---------- --- --- ------ ------ ---- -- ------<br>------- --- ------ ----- --- ---- ------- -- ---- --- --<br>------- ------,111251.69999998808,111250.89999997616,110940.685,110948.09999996424,110957.355,111257.457,,2,time
screen,html.Screen,0_2_1_1_3,2021-11-12T11:56:27.130Z,,,,,,,,,,,,,,,,54,,,,,,,,,,,,,,313.44299997616326,,response,,,100,,,,,,Space,keypress(Space),,,,,-- --- ---- the ------ ----- ------- ---- -- --- ------- --<br>------- ---------- ------ -- ----- -- ----- -- ---- ------<br>--- ----- --- --- ------ -------- ----- --- ------ ----- --<br>----- ----- ---------- --- --- ------ ------ ---- -- ------<br>------- --- ------ ----- --- ---- ------- -- ---- --- --<br>------- ------,111571.79999995232,111570.89999997616,111240.787,111252.09999996424,111257.457,111574.425,,3,the
screen,html.Screen,0_2_1_1_4,2021-11-12T11:56:27.498Z,,,,,,,,,,,,,,,,54,,,,,,,,,,,,,,364.47499997615523,,response,,,100,,,,,,Space,keypress(Space),,,,,-- --- ---- --- French ----- ------- ---- -- --- ------- --<br>------- ---------- ------ -- ----- -- ----- -- ---- ------<br>--- ----- --- --- ------ -------- ----- --- ------ ----- --<br>----- ----- ---------- --- --- ------ ------ ---- -- ------<br>------- --- ------ ----- --- ---- ------- -- ---- --- --<br>------- ------,111939.59999996424,111938.89999997616,111557.751,111572.19999998808,111574.425,111941.049,,4,French
screen,html.Screen,0_2_1_1_5,2021-11-12T11:56:27.850Z,,,,,,,,,,,,,,,,54,,,,,,,,,,,,,,349.7509999523172,,response,,,100,,,,,,Space,keypress(Space),,,,,-- --- ---- --- ------ crown ------- ---- -- --- ------- --<br>------- ---------- ------ -- ----- -- ----- -- ---- ------<br>--- ----- --- --- ------ -------- ----- --- ------ ----- --<br>----- ----- ---------- --- --- ------ ------ ---- -- ------<br>------- --- ------ ----- --- ---- ------- -- ---- --- --<br>------- ------,112292.09999996424,112290.79999995232,111924.379,111940,111941.049,112307.81,,5,crown
screen,html.Screen,0_2_1_1_6,2021-11-12T11:56:28.218Z,,,,,,,,,,,,,,,,54,,,,,,,,,,,,,,351.08999997616047,,response,,,100,,,,,,Space,keypress(Space),,,,,-- --- ---- --- ------ ----- secured ---- -- --- ------- --<br>------- ---------- ------ -- ----- -- ----- -- ---- ------<br>--- ----- --- --- ------ -------- ----- --- ------ ----- --<br>----- ----- ---------- --- --- ------ ------ ---- -- ------<br>------- --- ------ ----- --- ---- ------- -- ---- --- --<br>------- ------,112659.59999996424,112658.89999997616,112291.14,112292.39999997616,112307.81,112674.558,,6,secured
screen,html.Screen,0_2_1_1_7,2021-11-12T11:56:28.650Z,,,,,,,,,,,,,,,,54,,,,,,,,,,,,,,416.24199995231174,,response,,,100,,,,,,Space,keypress(Space),,,,,-- --- ---- --- ------ ----- ------- much -- --- ------- --<br>------- ---------- ------ -- ----- -- ----- -- ---- ------<br>--- ----- --- --- ------ -------- ----- --- ------ ----- --<br>----- ----- ---------- --- --- ------ ------ ---- -- ------<br>------- --- ------ ----- --- ---- ------- -- ---- --- --<br>------- ------,113091.69999998808,113090.79999995232,112657.888,112659.89999997616,112674.558,113108.007,,7,much
screen,html.Screen,0_2_1_1_8,2021-11-12T11:56:29.153Z,,,,,,,,,,,,,,,,54,,,,,,,,,,,,,,486.39299997616035,,response,,,100,,,,,,Space,keypress(Space),,,,,-- --- ---- --- ------ ----- ------- ---- of --- ------- --<br>------- ---------- ------ -- ----- -- ----- -- ---- ------<br>--- ----- --- --- ------ -------- ----- --- ------ ----- --<br>----- ----- ---------- --- --- ------ ------ ---- -- ------<br>------- --- ------ ----- --- ---- ------- -- ---- --- --<br>------- ------,113594.89999997616,113594.39999997616,113091.337,113091.89999997616,113108.007,113608.031,,8,of
screen,html.Screen,0_2_1_1_9,2021-11-12T11:56:29.538Z,,,,,,,,,,,,,,,,54,,,,,,,,,,,,,,371.06899996423454,,response,,,100,,,,,,Space,keypress(Space),,,,,-- --- ---- --- ------ ----- ------- ---- -- its ------- --<br>------- ---------- ------ -- ----- -- ----- -- ---- ------<br>--- ----- --- --- ------ -------- ----- --- ------ ----- --<br>----- ----- ---------- --- --- ------ ------ ---- -- ------<br>------- --- ------ ----- --- ---- ------- -- ---- --- --<br>------- ------,113979.79999995232,113979.09999996424,113591.362,113595,113608.031,113991.652,,9,its
screen,html.Screen,0_2_1_1_10,2021-11-12T11:56:29.914Z,,,,,,,,,,,,,,,,54,,,,,,,,,,,,,,363.1479999523144,,response,,,100,,,,,,Space,keypress(Space),,,,,-- --- ---- --- ------ ----- ------- ---- -- --- revenue --<br>------- ---------- ------ -- ----- -- ----- -- ---- ------<br>--- ----- --- --- ------ -------- ----- --- ------ ----- --<br>----- ----- ---------- --- --- ------ ------ ---- -- ------<br>------- --- ------ ----- --- ---- ------- -- ---- --- --<br>------- ------,114355.59999996424,114354.79999995232,113974.98,113980.09999996424,113991.652,114358.321,,10,revenue
screen,html.Screen,0_2_1_1_11,2021-11-12T11:56:30.362Z,,,,,,,,,,,,,,,,54,,,,,,,,,,,,,,444.3789999880828,,response,,,100,,,,,,Space,keypress(Space),,,,,-- --- ---- --- ------ ----- ------- ---- -- --- ------- by<br>------- ---------- ------ -- ----- -- ----- -- ---- ------<br>--- ----- --- --- ------ -------- ----- --- ------ ----- --<br>----- ----- ---------- --- --- ------ ------ ---- -- ------<br>------- --- ------ ----- --- ---- ------- -- ---- --- --<br>------- ------,114803.59999996424,114802.69999998808,114341.651,114355.89999997616,114358.321,114808.362,,11,by
screen,html.Screen,0_2_1_1_12,2021-11-12T11:56:30.722Z,,,,,,,,,,,,,,,,54,,,,,,,,,,,,,,354.33799998808536,,response,,,100,,,,,,Space,keypress(Space),,,,,-- --- ---- --- ------ ----- ------- ---- -- --- ------- --<br>issuing ---------- ------ -- ----- -- ----- -- ---- ------<br>--- ----- --- --- ------ -------- ----- --- ------ ----- --<br>----- ----- ---------- --- --- ------ ------ ---- -- ------<br>------- --- ------ ----- --- ---- ------- -- ---- --- --<br>------- ------,115163.5,115162.69999998808,114791.693,114803.79999995232,114808.362,115175.295,,12,issuing
screen,html.Screen,0_2_1_1_13,2021-11-12T11:56:31.066Z,,,,,,,,,,,,,,,,54,,,,,,,,,,,,,,331.30499996423896,,response,,,100,,,,,,Space,keypress(Space),,,,,-- --- ---- --- ------ ----- ------- ---- -- --- ------- --<br>------- government ------ -- ----- -- ----- -- ---- ------<br>--- ----- --- --- ------ -------- ----- --- ------ ----- --<br>----- ----- ---------- --- --- ------ ------ ---- -- ------<br>------- --- ------ ----- --- ---- ------- -- ---- --- --<br>------- ------,115507.5,115506.59999996424,115158.623,115163.79999995232,115175.295,115508.638,,13,government
screen,html.Screen,0_2_1_1_14,2021-11-12T11:56:31.618Z,,,,,,,,,,,,,,,,54,,,,,,,,,,,,,,549.9619999642309,,response,,,100,,,,,,Space,keypress(Space),,,,,-- --- ---- --- ------ ----- ------- ---- -- --- ------- --<br>------- ---------- bonds. -- ----- -- ----- -- ---- ------<br>--- ----- --- --- ------ -------- ----- --- ------ ----- --<br>----- ----- ---------- --- --- ------ ------ ---- -- ------<br>------- --- ------ ----- --- ---- ------- -- ---- --- --<br>------- ------,116059.5,116058.59999996424,115491.968,115507.69999998808,115508.638,116075.427,,14,bonds.
screen,html.Screen,0_2_1_1_15,2021-11-12T11:56:32.018Z,,,,,,,,,,,,,,,,54,,,,,,,,,,,,,,383.17299996424117,,response,,,100,,,,,,Space,keypress(Space),,,,,-- --- ---- --- ------ ----- ------- ---- -- --- ------- --<br>------- ---------- ------ In ----- -- ----- -- ---- ------<br>--- ----- --- --- ------ -------- ----- --- ------ ----- --<br>----- ----- ---------- --- --- ------ ------ ---- -- ------<br>------- --- ------ ----- --- ---- ------- -- ---- --- --<br>------- ------,116459.39999997616,116458.59999996424,116058.757,116059.79999995232,116075.427,116475.585,,15,In
screen,html.Screen,0_2_1_1_16,2021-11-12T11:56:32.346Z,,,,,,,,,,,,,,,,54,,,,,,,,,,,,,,311.0149999642308,,response,,,100,,,,,,Space,keypress(Space),,,,,"-- --- ---- --- ------ ----- ------- ---- -- --- ------- --<br>------- ---------- ------ -- 1727, -- ----- -- ---- ------<br>--- ----- --- --- ------ -------- ----- --- ------ ----- --<br>----- ----- ---------- --- --- ------ ------ ---- -- ------<br>------- --- ------ ----- --- ---- ------- -- ---- --- --<br>------- ------",116787.5,116786.59999996424,116458.914,116459.69999998808,116475.585,116792.303,,16,"1727,"
screen,html.Screen,0_2_1_1_17,2021-11-12T11:56:32.777Z,,,,,,,,,,,,,,,,54,,,,,,,,,,,,,,426.29699996423733,,response,,,100,,,,,,Space,keypress(Space),,,,,-- --- ---- --- ------ ----- ------- ---- -- --- ------- --<br>------- ---------- ------ -- ----- in ----- -- ---- ------<br>--- ----- --- --- ------ -------- ----- --- ------ ----- --<br>----- ----- ---------- --- --- ------ ------ ---- -- ------<br>------- --- ------ ----- --- ---- ------- -- ---- --- --<br>------- ------,117219.39999997616,117218.59999996424,116775.633,116787.59999996424,116792.303,117225.72,,17,in
screen,html.Screen,0_2_1_1_18,2021-11-12T11:56:33.130Z,,,,,,,,,,,,,,,,54,,,,,,,,,,,,,,344.87999996423605,,response,,,100,,,,,,Space,keypress(Space),,,,,-- --- ---- --- ------ ----- ------- ---- -- --- ------- --<br>------- ---------- ------ -- ----- -- order -- ---- ------<br>--- ----- --- --- ------ -------- ----- --- ------ ----- --<br>----- ----- ---------- --- --- ------ ------ ---- -- ------<br>------- --- ------ ----- --- ---- ------- -- ---- --- --<br>------- ------,117571.39999997616,117570.59999996424,117209.05,117219.59999996424,117225.72,117575.858,,18,order
screen,html.Screen,0_2_1_1_19,2021-11-12T11:56:33.633Z,,,,,,,,,,,,,,,,54,,,,,,,,,,,,,,498.6420000000071,,response,,,100,,,,,,Space,keypress(Space),,,,,-- --- ---- --- ------ ----- ------- ---- -- --- ------- --<br>------- ---------- ------ -- ----- -- ----- to ---- ------<br>--- ----- --- --- ------ -------- ----- --- ------ ----- --<br>----- ----- ---------- --- --- ------ ------ ---- -- ------<br>------- --- ------ ----- --- ---- ------- -- ---- --- --<br>------- ------,118075.29999995232,118074.5,117559.187,117571.69999998808,117575.858,118092.623,,19,to
screen,html.Screen,0_2_1_1_20,2021-11-12T11:56:34.089Z,,,,,,,,,,,,,,,,54,,,,,,,,,,,,,,437.87699999999313,,response,,,100,,,,,,Space,keypress(Space),,,,,-- --- ---- --- ------ ----- ------- ---- -- --- ------- --<br>------- ---------- ------ -- ----- -- ----- -- save ------<br>--- ----- --- --- ------ -------- ----- --- ------ ----- --<br>----- ----- ---------- --- --- ------ ------ ---- -- ------<br>------- --- ------ ----- --- ---- ------- -- ---- --- --<br>------- ------,118531.29999995232,118530.5,118075.953,118075.59999996424,118092.623,118542.797,,20,save
screen,html.Screen,0_2_1_1_21,2021-11-12T11:56:34.497Z,,,,,,,,,,,,,,,,54,,,,,,,,,,,,,,395.70299999999406,,response,,,100,,,,,,Space,keypress(Space),,,,,"-- --- ---- --- ------ ----- ------- ---- -- --- ------- --<br>------- ---------- ------ -- ----- -- ----- -- ---- money,<br>--- ----- --- --- ------ -------- ----- --- ------ ----- --<br>----- ----- ---------- --- --- ------ ------ ---- -- ------<br>------- --- ------ ----- --- ---- ------- -- ---- --- --<br>------- ------",118939.29999995232,118938.5,118526.126,118531.59999996424,118542.797,118942.7,,21,"money,"
screen,html.Screen,0_2_1_1_22,2021-11-12T11:56:34.953Z,,,,,,,,,,,,,,,,54,,,,,,,,,,,,,,451.8000000000029,,response,,,100,,,,,,Space,keypress(Space),,,,,-- --- ---- --- ------ ----- ------- ---- -- --- ------- --<br>------- ---------- ------ -- ----- -- ----- -- ---- ------<br>the ----- --- --- ------ -------- ----- --- ------ ----- --<br>----- ----- ---------- --- --- ------ ------ ---- -- ------<br>------- --- ------ ----- --- ---- ------- -- ---- --- --<br>------- ------,119395.29999995232,119394.5,118926.032,118939.59999996424,118942.7,119409.729,,22,the
screen,html.Screen,0_2_1_1_23,2021-11-12T11:56:35.369Z,,,,,,,,,,,,,,,,54,,,,,,,,,,,,,,400.6709999761515,,response,,,100,,,,,,Space,keypress(Space),,,,,-- --- ---- --- ------ ----- ------- ---- -- --- ------- --<br>------- ---------- ------ -- ----- -- ----- -- ---- ------<br>--- state --- --- ------ -------- ----- --- ------ ----- --<br>----- ----- ---------- --- --- ------ ------ ---- -- ------<br>------- --- ------ ----- --- ---- ------- -- ---- --- --<br>------- ------,119811.19999998808,119810.39999997616,119393.057,119395.5,119409.729,119826.41,,23,state
screen,html.Screen,0_2_1_1_24,2021-11-12T11:56:35.813Z,,,,,,,,,,,,,,,,54,,,,,,,,,,,,,,424.0899999999965,,response,,,100,,,,,,Space,keypress(Space),,,,,-- --- ---- --- ------ ----- ------- ---- -- --- ------- --<br>------- ---------- ------ -- ----- -- ----- -- ---- ------<br>--- ----- cut --- ------ -------- ----- --- ------ ----- --<br>----- ----- ---------- --- --- ------ ------ ---- -- ------<br>------- --- ------ ----- --- ---- ------- -- ---- --- --<br>------- ------,120251.29999995232,120250.5,119809.74,119811.5,119826.41,120259.737,,24,cut
screen,html.Screen,0_2_1_1_25,2021-11-12T11:56:36.166Z,,,,,,,,,,,,,,,,54,,,,,,,,,,,,,,343.16299997616443,,response,,,100,,,,,,Space,keypress(Space),,,,,-- --- ---- --- ------ ----- ------- ---- -- --- ------- --<br>------- ---------- ------ -- ----- -- ----- -- ---- ------<br>--- ----- --- the ------ -------- ----- --- ------ ----- --<br>----- ----- ---------- --- --- ------ ------ ---- -- ------<br>------- --- ------ ----- --- ---- ------- -- ---- --- --<br>------- ------,120603.69999998808,120602.89999997616,120243.068,120251.5,120259.737,120610.023,,25,the
screen,html.Screen,0_2_1_1_26,2021-11-12T11:56:36.477Z,,,,,,,,,,,,,,,,54,,,,,,,,,,,,,,304.3769999761571,,response,,,100,,,,,,Space,keypress(Space),,,,,-- --- ---- --- ------ ----- ------- ---- -- --- ------- --<br>------- ---------- ------ -- ----- -- ----- -- ---- ------<br>--- ----- --- --- bonds' -------- ----- --- ------ ----- --<br>----- ----- ---------- --- --- ------ ------ ---- -- ------<br>------- --- ------ ----- --- ---- ------- -- ---- --- --<br>------- ------,120915.29999995232,120914.39999997616,120593.351,120603.89999997616,120610.023,120926.708,,26,bonds'
screen,html.Screen,0_2_1_1_27,2021-11-12T11:56:36.885Z,,,,,,,,,,,,,,,,54,,,,,,,,,,,,,,395.6919999761594,,response,,,100,,,,,,Space,keypress(Space),,,,,-- --- ---- --- ------ ----- ------- ---- -- --- ------- --<br>------- ---------- ------ -- ----- -- ----- -- ---- ------<br>--- ----- --- --- ------ interest ----- --- ------ ----- --<br>----- ----- ---------- --- --- ------ ------ ---- -- ------<br>------- --- ------ ----- --- ---- ------- -- ---- --- --<br>------- ------,121323.19999998808,121322.39999997616,120910.038,120915.5,120926.708,121326.667,,27,interest
screen,html.Screen,0_2_1_1_28,2021-11-12T11:56:37.269Z,,,,,,,,,,,,,,,,54,,,,,,,,,,,,,,379.632999952315,,response,,,100,,,,,,Space,keypress(Space),,,,,-- --- ---- --- ------ ----- ------- ---- -- --- ------- --<br>------- ---------- ------ -- ----- -- ----- -- ---- ------<br>--- ----- --- --- ------ -------- rate. --- ------ ----- --<br>----- ----- ---------- --- --- ------ ------ ---- -- ------<br>------- --- ------ ----- --- ---- ------- -- ---- --- --<br>------- ------,121707.09999996424,121706.29999995232,121309.999,121323.5,121326.667,121710.296,,28,rate.
screen,html.Screen,0_2_1_1_29,2021-11-12T11:56:37.661Z,,,,,,,,,,,,,,,,54,,,,,,,,,,,,,,388.0039999523142,,response,,,100,,,,,,Space,keypress(Space),,,,,-- --- ---- --- ------ ----- ------- ---- -- --- ------- --<br>------- ---------- ------ -- ----- -- ----- -- ---- ------<br>--- ----- --- --- ------ -------- ----- The ------ ----- --<br>----- ----- ---------- --- --- ------ ------ ---- -- ------<br>------- --- ------ ----- --- ---- ------- -- ---- --- --<br>------- ------,122099.09999996424,122098.29999995232,121693.624,121707.39999997616,121710.296,122110.383,,29,The
screen,html.Screen,0_2_1_1_30,2021-11-12T11:56:37.997Z,,,,,,,,,,,,,,,,54,,,,,,,,,,,,,,323.91699995231465,,response,,,100,,,,,,Space,keypress(Space),,,,,-- --- ---- --- ------ ----- ------- ---- -- --- ------- --<br>------- ---------- ------ -- ----- -- ----- -- ---- ------<br>--- ----- --- --- ------ -------- ----- --- market ----- --<br>----- ----- ---------- --- --- ------ ------ ---- -- ------<br>------- --- ------ ----- --- ---- ------- -- ---- --- --<br>------- ------,122435.09999996424,122434.29999995232,122093.712,122099.39999997616,122110.383,122443.734,,30,market
screen,html.Screen,0_2_1_1_31,2021-11-12T11:56:38.389Z,,,,,,,,,,,,,,,,54,,,,,,,,,,,,,,382.56599995231954,,response,,,100,,,,,,Space,keypress(Space),,,,,-- --- ---- --- ------ ----- ------- ---- -- --- ------- --<br>------- ---------- ------ -- ----- -- ----- -- ---- ------<br>--- ----- --- --- ------ -------- ----- --- ------ value --<br>----- ----- ---------- --- --- ------ ------ ---- -- ------<br>------- --- ------ ----- --- ---- ------- -- ---- --- --<br>------- ------,122827,122826.29999995232,122427.064,122435.39999997616,122443.734,122843.885,,31,value
screen,html.Screen,0_2_1_1_32,2021-11-12T11:56:38.781Z,,,,,,,,,,,,,,,,54,,,,,,,,,,,,,,374.4149999523215,,response,,,100,,,,,,Space,keypress(Space),,,,,-- --- ---- --- ------ ----- ------- ---- -- --- ------- --<br>------- ---------- ------ -- ----- -- ----- -- ---- ------<br>--- ----- --- --- ------ -------- ----- --- ------ ----- of<br>----- ----- ---------- --- --- ------ ------ ---- -- ------<br>------- --- ------ ----- --- ---- ------- -- ---- --- --<br>------- ------,123219,123218.29999995232,122827.214,122827.29999995232,122843.885,123227.281,,32,of
screen,html.Screen,0_2_1_1_33,2021-11-12T11:56:39.229Z,,,,,,,,,,,,,,,,54,,,,,,,,,,,,,,439.0189999523136,,response,,,100,,,,,,Space,keypress(Space),,,,,-- --- ---- --- ------ ----- ------- ---- -- --- ------- --<br>------- ---------- ------ -- ----- -- ----- -- ---- ------<br>--- ----- --- --- ------ -------- ----- --- ------ ----- --<br>these ----- ---------- --- --- ------ ------ ---- -- ------<br>------- --- ------ ----- --- ---- ------- -- ---- --- --<br>------- ------,123667,123666.29999995232,123210.611,123219.29999995232,123227.281,123677.38,,33,these
screen,html.Screen,0_2_1_1_34,2021-11-12T11:56:39.541Z,,,,,,,,,,,,,,,,54,,,,,,,,,,,,,,300.8199999880744,,response,,,100,,,,,,Space,keypress(Space),,,,,-- --- ---- --- ------ ----- ------- ---- -- --- ------- --<br>------- ---------- ------ -- ----- -- ----- -- ---- ------<br>--- ----- --- --- ------ -------- ----- --- ------ ----- --<br>----- bonds ---------- --- --- ------ ------ ---- -- ------<br>------- --- ------ ----- --- ---- ------- -- ---- --- --<br>------- ------,123979,123978.19999998808,123660.71,123667.29999995232,123677.38,123994.142,,34,bonds
screen,html.Screen,0_2_1_1_35,2021-11-12T11:56:39.925Z,,,,,,,,,,,,,,,,54,,,,,,,,,,,,,,368.05799998807197,,response,,,100,,,,,,Space,keypress(Space),,,,,"-- --- ---- --- ------ ----- ------- ---- -- --- ------- --<br>------- ---------- ------ -- ----- -- ----- -- ---- ------<br>--- ----- --- --- ------ -------- ----- --- ------ ----- --<br>----- ----- plummeted, --- --- ------ ------ ---- -- ------<br>------- --- ------ ----- --- ---- ------- -- ---- --- --<br>------- ------",124363,124362.19999998808,123977.472,123979.19999998808,123994.142,124377.616,,35,"plummeted,"
screen,html.Screen,0_2_1_1_36,2021-11-12T11:56:40.309Z,,,,,,,,,,,,,,,,54,,,,,,,,,,,,,,368.58399998808454,,response,,,100,,,,,,Space,keypress(Space),,,,,-- --- ---- --- ------ ----- ------- ---- -- --- ------- --<br>------- ---------- ------ -- ----- -- ----- -- ---- ------<br>--- ----- --- --- ------ -------- ----- --- ------ ----- --<br>----- ----- ---------- and --- ------ ------ ---- -- ------<br>------- --- ------ ----- --- ---- ------- -- ---- --- --<br>------- ------,124747,124746.19999998808,124360.945,124363.29999995232,124377.616,124761.006,,36,and
screen,html.Screen,0_2_1_1_37,2021-11-12T11:56:40.685Z,,,,,,,,,,,,,,,,54,,,,,,,,,,,,,,361.1939999880851,,response,,,100,,,,,,Space,keypress(Space),,,,,-- --- ---- --- ------ ----- ------- ---- -- --- ------- --<br>------- ---------- ------ -- ----- -- ----- -- ---- ------<br>--- ----- --- --- ------ -------- ----- --- ------ ----- --<br>----- ----- ---------- --- the ------ ------ ---- -- ------<br>------- --- ------ ----- --- ---- ------- -- ---- --- --<br>------- ------,125123,125122.19999998808,124744.336,124747.19999998808,124761.006,125127.689,,37,the
screen,html.Screen,0_2_1_1_38,2021-11-12T11:56:41.029Z,,,,,,,,,,,,,,,,54,,,,,,,,,,,,,,338.4109999642387,,response,,,100,,,,,,Space,keypress(Space),,,,,-- --- ---- --- ------ ----- ------- ---- -- --- ------- --<br>------- ---------- ------ -- ----- -- ----- -- ---- ------<br>--- ----- --- --- ------ -------- ----- --- ------ ----- --<br>----- ----- ---------- --- --- market ------ ---- -- ------<br>------- --- ------ ----- --- ---- ------- -- ---- --- --<br>------- ------,125466.89999997616,125466.09999996424,125111.02,125123.19999998808,125127.689,125477.926,,38,market
screen,html.Screen,0_2_1_1_39,2021-11-12T11:56:41.381Z,,,,,,,,,,,,,,,,54,,,,,,,,,,,,,,340.17399996423046,,response,,,100,,,,,,Space,keypress(Space),,,,,-- --- ---- --- ------ ----- ------- ---- -- --- ------- --<br>------- ---------- ------ -- ----- -- ----- -- ---- ------<br>--- ----- --- --- ------ -------- ----- --- ------ ----- --<br>----- ----- ---------- --- --- ------ became ---- -- ------<br>------- --- ------ ----- --- ---- ------- -- ---- --- --<br>------- ------,125818.89999997616,125818.09999996424,125461.254,125467.19999998808,125477.926,125827.983,,39,became
screen,html.Screen,0_2_1_1_40,2021-11-12T11:56:41.749Z,,,,,,,,,,,,,,,,54,,,,,,,,,,,,,,358.0170000000071,,response,,,100,,,,,,Space,keypress(Space),,,,,-- --- ---- --- ------ ----- ------- ---- -- --- ------- --<br>------- ---------- ------ -- ----- -- ----- -- ---- ------<br>--- ----- --- --- ------ -------- ----- --- ------ ----- --<br>----- ----- ---------- --- --- ------ ------ wary -- ------<br>------- --- ------ ----- --- ---- ------- -- ---- --- --<br>------- ------,126186.89999997616,126186,125811.312,125819.19999998808,125827.983,126194.701,,40,wary
screen,html.Screen,0_2_1_1_41,2021-11-12T11:56:42.109Z,,,,,,,,,,,,,,,,54,,,,,,,,,,,,,,351.29899999999907,,response,,,100,,,,,,Space,keypress(Space),,,,,-- --- ---- --- ------ ----- ------- ---- -- --- ------- --<br>------- ---------- ------ -- ----- -- ----- -- ---- ------<br>--- ----- --- --- ------ -------- ----- --- ------ ----- --<br>----- ----- ---------- --- --- ------ ------ ---- of ------<br>------- --- ------ ----- --- ---- ------- -- ---- --- --<br>------- ------,126546.79999995232,126546,126178.031,126187.09999996424,126194.701,126561.456,,41,of
screen,html.Screen,0_2_1_1_42,2021-11-12T11:56:42.549Z,,,,,,,,,,,,,,,,54,,,,,,,,,,,,,,424.5439999999944,,response,,,100,,,,,,Space,keypress(Space),,,,,-- --- ---- --- ------ ----- ------- ---- -- --- ------- --<br>------- ---------- ------ -- ----- -- ----- -- ---- ------<br>--- ----- --- --- ------ -------- ----- --- ------ ----- --<br>----- ----- ---------- --- --- ------ ------ ---- -- French<br>------- --- ------ ----- --- ---- ------- -- ---- --- --<br>------- ------,126986.79999995232,126986,126544.786,126547,126561.456,126994.955,,42,French
screen,html.Screen,0_2_1_1_43,2021-11-12T11:56:42.941Z,,,,,,,,,,,,,,,,54,,,,,,,,,,,,,,383.14499996423547,,response,,,100,,,,,,Space,keypress(Space),,,,,-- --- ---- --- ------ ----- ------- ---- -- --- ------- --<br>------- ---------- ------ -- ----- -- ----- -- ---- ------<br>--- ----- --- --- ------ -------- ----- --- ------ ----- --<br>----- ----- ---------- --- --- ------ ------ ---- -- ------<br>credit. --- ------ ----- --- ---- ------- -- ---- --- --<br>------- ------,127378.79999995232,127378.09999996424,126978.284,126987.09999996424,126994.955,127395.003,,43,credit.
screen,html.Screen,0_2_1_1_44,2021-11-12T11:56:43.301Z,,,,,,,,,,,,,,,,54,,,,,,,,,,,,,,342.997000000003,,response,,,100,,,,,,Space,keypress(Space),,,,,-- --- ---- --- ------ ----- ------- ---- -- --- ------- --<br>------- ---------- ------ -- ----- -- ----- -- ---- ------<br>--- ----- --- --- ------ -------- ----- --- ------ ----- --<br>----- ----- ---------- --- --- ------ ------ ---- -- ------<br>------- The ------ ----- --- ---- ------- -- ---- --- --<br>------- ------,127738.89999997616,127738,127378.333,127379.09999996424,127395.003,127745.104,,44,The
screen,html.Screen,0_2_1_1_45,2021-11-12T11:56:43.661Z,,,,,,,,,,,,,,,,54,,,,,,,,,,,,,,352.89599999999336,,response,,,100,,,,,,Space,keypress(Space),,,,,-- --- ---- --- ------ ----- ------- ---- -- --- ------- --<br>------- ---------- ------ -- ----- -- ----- -- ---- ------<br>--- ----- --- --- ------ -------- ----- --- ------ ----- --<br>----- ----- ---------- --- --- ------ ------ ---- -- ------<br>------- --- French ----- --- ---- ------- -- ---- --- --<br>------- ------,128098.69999998808,128098,127728.434,127739.09999996424,127745.104,128111.871,,45,French
screen,html.Screen,0_2_1_1_46,2021-11-12T11:56:44.053Z,,,,,,,,,,,,,,,,54,,,,,,,,,,,,,,378.1290000000008,,response,,,100,,,,,,Space,keypress(Space),,,,,-- --- ---- --- ------ ----- ------- ---- -- --- ------- --<br>------- ---------- ------ -- ----- -- ----- -- ---- ------<br>--- ----- --- --- ------ -------- ----- --- ------ ----- --<br>----- ----- ---------- --- --- ------ ------ ---- -- ------<br>------- --- ------ state --- ---- ------- -- ---- --- --<br>------- ------,128490.79999995232,128490,128095.201,128099,128111.871,128495.218,,46,state
screen,html.Screen,0_2_1_1_47,2021-11-12T11:56:44.437Z,,,,,,,,,,,,,,,,54,,,,,,,,,,,,,,378.68199997616466,,response,,,100,,,,,,Space,keypress(Space),,,,,-- --- ---- --- ------ ----- ------- ---- -- --- ------- --<br>------- ---------- ------ -- ----- -- ----- -- ---- ------<br>--- ----- --- --- ------ -------- ----- --- ------ ----- --<br>----- ----- ---------- --- --- ------ ------ ---- -- ------<br>------- --- ------ ----- was ---- ------- -- ---- --- --<br>------- ------,128874.79999995232,128873.89999997616,128478.549,128491,128495.218,128878.764,,47,was
screen,html.Screen,0_2_1_1_48,2021-11-12T11:56:44.805Z,,,,,,,,,,,,,,,,54,,,,,,,,,,,,,,363.2360000000044,,response,,,100,,,,,,Space,keypress(Space),,,,,-- --- ---- --- ------ ----- ------- ---- -- --- ------- --<br>------- ---------- ------ -- ----- -- ----- -- ---- ------<br>--- ----- --- --- ------ -------- ----- --- ------ ----- --<br>----- ----- ---------- --- --- ------ ------ ---- -- ------<br>------- --- ------ ----- --- left ------- -- ---- --- --<br>------- ------,129242.79999995232,129242,128862.093,128875,128878.764,129245.523,,48,left
screen,html.Screen,0_2_1_1_49,2021-11-12T11:56:45.157Z,,,,,,,,,,,,,,,,54,,,,,,,,,,,,,,348.3769999761571,,response,,,100,,,,,,Space,keypress(Space),,,,,-- --- ---- --- ------ ----- ------- ---- -- --- ------- --<br>------- ---------- ------ -- ----- -- ----- -- ---- ------<br>--- ----- --- --- ------ -------- ----- --- ------ ----- --<br>----- ----- ---------- --- --- ------ ------ ---- -- ------<br>------- --- ------ ----- --- ---- without -- ---- --- --<br>------- ------,129594.69999998808,129593.89999997616,129228.852,129243,129245.523,129612.289,,49,without
screen,html.Screen,0_2_1_1_50,2021-11-12T11:56:45.501Z,,,,,,,,,,,,,,,,54,,,,,,,,,,,,,,325.61099997615383,,response,,,100,,,,,,Space,keypress(Space),,,,,-- --- ---- --- ------ ----- ------- ---- -- --- ------- --<br>------- ---------- ------ -- ----- -- ----- -- ---- ------<br>--- ----- --- --- ------ -------- ----- --- ------ ----- --<br>----- ----- ---------- --- --- ------ ------ ---- -- ------<br>------- --- ------ ----- --- ---- ------- an ---- --- --<br>------- ------,129938.69999998808,129937.89999997616,129595.618,129594.89999997616,129612.289,129945.671,,50,an
screen,html.Screen,0_2_1_1_51,2021-11-12T11:56:45.861Z,,,,,,,,,,,,,,,,54,,,,,,,,,,,,,,352.22899997615605,,response,,,100,,,,,,Space,keypress(Space),,,,,-- --- ---- --- ------ ----- ------- ---- -- --- ------- --<br>------- ---------- ------ -- ----- -- ----- -- ---- ------<br>--- ----- --- --- ------ -------- ----- --- ------ ----- --<br>----- ----- ---------- --- --- ------ ------ ---- -- ------<br>------- --- ------ ----- --- ---- ------- -- easy --- --<br>------- ------,130298.59999996424,130297.89999997616,129929.001,129938.89999997616,129945.671,130312.472,,51,easy
screen,html.Screen,0_2_1_1_52,2021-11-12T11:56:46.293Z,,,,,,,,,,,,,,,,54,,,,,,,,,,,,,,417.827999952322,,response,,,100,,,,,,Space,keypress(Space),,,,,-- --- ---- --- ------ ----- ------- ---- -- --- ------- --<br>------- ---------- ------ -- ----- -- ----- -- ---- ------<br>--- ----- --- --- ------ -------- ----- --- ------ ----- --<br>----- ----- ---------- --- --- ------ ------ ---- -- ------<br>------- --- ------ ----- --- ---- ------- -- ---- way --<br>------- ------,130731.09999996424,130730.29999995232,130295.801,130298.89999997616,130312.472,130745.872,,52,way
screen,html.Screen,0_2_1_1_53,2021-11-12T11:56:46.677Z,,,,,,,,,,,,,,,,54,,,,,,,,,,,,,,367.82799998807604,,response,,,100,,,,,,Space,keypress(Space),,,,,-- --- ---- --- ------ ----- ------- ---- -- --- ------- --<br>------- ---------- ------ -- ----- -- ----- -- ---- ------<br>--- ----- --- --- ------ -------- ----- --- ------ ----- --<br>----- ----- ---------- --- --- ------ ------ ---- -- ------<br>------- --- ------ ----- --- ---- ------- -- ---- --- of<br>------- ------,131114.5,131113.69999998808,130729.202,130731.39999997616,130745.872,131129.361,,53,of
screen,html.Screen,0_2_1_1_54,2021-11-12T11:56:47.101Z,,,,,,,,,,,,,,,,54,,,,,,,,,,,,,,408.43899995231186,,response,,,100,,,,,,Space,keypress(Space),,,,,-- --- ---- --- ------ ----- ------- ---- -- --- ------- --<br>------- ---------- ------ -- ----- -- ----- -- ---- ------<br>--- ----- --- --- ------ -------- ----- --- ------ ----- --<br>----- ----- ---------- --- --- ------ ------ ---- -- ------<br>------- --- ------ ----- --- ---- ------- -- ---- --- --<br>raising ------,131538.59999996424,131537.79999995232,131112.69,131114.79999995232,131129.361,131546.026,,54,raising
screen,html.Screen,0_2_1_1_55,2021-11-12T11:56:47.597Z,,,,,,,,,,,,,,,,54,,,,,,,,,,,,,,487.7739999523037,,response,,,100,,,,,,Space,keypress(Space),,,,,-- --- ---- --- ------ ----- ------- ---- -- --- ------- --<br>------- ---------- ------ -- ----- -- ----- -- ---- ------<br>--- ----- --- --- ------ -------- ----- --- ------ ----- --<br>----- ----- ---------- --- --- ------ ------ ---- -- ------<br>------- --- ------ ----- --- ---- ------- -- ---- --- --<br>------- money.,132034.59999996424,132033.79999995232,131529.357,131538.79999995232,131546.026,132046.269,,55,money.
Item 100,flow.Loop,0_2_1_1,2021-11-12T11:56:47.597Z,,,,,,,,,,,,,,,,,,,,,,,,,,,,,,22643.55899995232,,completion,,,,C,,,,,,,,,,silence,,132035.09999996424,132033.79999995232,109373.571,109375.39999997616,109390.241,132046.269,,,
Question 1,html.Screen,0_2_1_2,2021-11-12T11:56:51.870Z,,,,,,,,,,,,,,,,,,,,,,,,,,,true,TRUE,,4260.530999952316,,response,,,100,C,,,,,TRUE,click #choice-1,,,,silence,,136308.09999996424,136306.79999995232,132029.598,132035.29999995232,132046.269,136314.05,,,
Question 2,html.Screen,0_2_1_3,2021-11-12T11:56:54.614Z,,,,,,,,,,,,,,,,,,,,,,,,,,,true,FALSE,,2735.9500000000116,,response,,,100,C,,,,,FALSE,click #choice-2,,,,silence,,139051.39999997616,139050,136297.378,136308.5,136314.05,139064.712,,,
Item 100,flow.Sequence,0_2_1,2021-11-12T11:56:54.614Z,,,,,,,,,,,,,,,,,,,,,,,,,,,,,,39662.244000000006,,completion,,,,,,,,,,,,,,,,139051.69999998808,139050,99371.086,99387.09999996424,99387.756,139064.712,,,
End of Practice,html.Page,0_2_2,2021-11-12T11:57:00.485Z,,,,,,,,,,,,,,,,,,,,,,,,,,,,,,5857.7880000000005,,form submission,,,,,,,,,,,,,,,,144923.19999998808,144922.5,139048.041,139052,139064.712,144932.561,,,
Practice,flow.Sequence,0_2,2021-11-12T11:57:00.486Z,,,,,,,,,,,,,,,,,,,,,,,,,,,,,,94814.148,,completion,,,,,,,,,,,,,,,,144923.69999998808,144922.5,50091.682,50094,50108.352,144932.561,,,
Trap_instruction,html.Page,0_3_0,2021-11-12T11:57:06.500Z,,,,,,,,,,,,,,,,,,,,,,,,,,,,,,6004.738999952329,,form submission,,,,,,,,,,,,,,,,150937.89999997616,150937.29999995232,144915.891,144924,144932.561,150967.355,,,
trap_trial,html.Screen,0_3_1,2021-11-12T11:57:10.506Z,,,,,,,,,,,,,,,,,,,,,,,,,,,true,1,,3975.6449999999895,,response,,,,,,,,,1,click #choice-1,,,,,,154944.29999995232,154943,150934.015,150938,150967.355,154951.853,,,
end of trap trial,html.Page,0_3_2,2021-11-12T11:57:13.796Z,,,,,,,,,,,,,,,,,,,,,,,,,,,,,,3280.8469999880763,,form submission,,,,,,,,,,,,,,,,158233.29999995232,158232.69999998808,154935.183,154944.5,154951.853,158236.191,,,
Trap 1,flow.Sequence,0_3,2021-11-12T11:57:13.796Z,,,,,,,,,,,,,,,,,,,,,,,,,,,,,,13300.138999988092,,completion,,,,,,,,,,,,,,,,158233.69999998808,158232.69999998808,144915.891,144924,144932.561,158236.191,,,
Standby,html.Page,0_4_0,2021-11-12T11:57:21.785Z,,,,,,,,,,,,,,,,,,,,,,,,,,,,,,8002.222999999998,,timeout,,,,,,,,,,,,,,,,166223.09999996424,166221.743,158219.521,158234,158236.191,166238.414,,,
Holding screen,html.Screen,0_4_1_0_0,2021-11-12T11:57:28.787Z,,,,,,,,,,,,,,,,,,,,,,,,,,,,,,7001.648000000016,,timeout,,,,,,,,,,,,,,,,173224.59999996424,173223.392,166221.743,166223.39999997616,166238.414,173240.062,,,
screen,html.Screen,0_4_1_0_1_0,2021-11-12T11:57:29.675Z,,,,,,,,,,,,,,,,11,,,,,,,,,,,,,,871.9379999999946,,response,,,4,C,,,,,Space,keypress(Space),,,,instrumental,Known -- ---- --- -- --- -------- ------------ ---------- --<br>- ------- ------ --------- -- ------------ -- --- ---- -----<br>------ ---- ---- ------ ------ ------- --- ----- ---------<br>---- --- -------- -------- --- --- -- ------- --- --- -----<br>-- --- ------ ------- --- --- -------- ---- --------- --<br>---------- -- -------- ----------------,174113.09999996424,174112,173223.392,173225.09999996424,173240.062,174123.52,,0,Known
screen,html.Screen,0_4_1_0_1_1,2021-11-12T11:57:30.194Z,,,,,,,,,,,,,,,,11,,,,,,,,,,,,,,507.8799999761686,,response,,,4,C,,,,,Space,keypress(Space),,,,instrumental,----- as ---- --- -- --- -------- ------------ ---------- --<br>- ------- ------ --------- -- ------------ -- --- ---- -----<br>------ ---- ---- ------ ------ ------- --- ----- ---------<br>---- --- -------- -------- --- --- -- ------- --- --- -----<br>-- --- ------ ------- --- --- -------- ---- --------- --<br>---------- -- -------- ----------------,174632.19999998808,174631.39999997616,174106.851,174113.5,174123.52,174640.546,,1,as
screen,html.Screen,0_4_1_0_1_2,2021-11-12T11:57:30.514Z,,,,,,,,,,,,,,,,11,,,,,,,,,,,,,,310.85399997615605,,response,,,4,C,,,,,Space,keypress(Space),,,,instrumental,----- -- Rapa --- -- --- -------- ------------ ---------- --<br>- ------- ------ --------- -- ------------ -- --- ---- -----<br>------ ---- ---- ------ ------ ------- --- ----- ---------<br>---- --- -------- -------- --- --- -- ------- --- --- -----<br>-- --- ------ ------- --- --- -------- ---- --------- --<br>---------- -- -------- ----------------,174952.19999998808,174951.39999997616,174623.875,174632.5,174640.546,174957.233,,2,Rapa
screen,html.Screen,0_4_1_0_1_3,2021-11-12T11:57:30.866Z,,,,,,,,,,,,,,,,11,,,,,,,,,,,,,,346.06699995230883,,response,,,4,C,,,,,Space,keypress(Space),,,,instrumental,----- -- ---- Nui -- --- -------- ------------ ---------- --<br>- ------- ------ --------- -- ------------ -- --- ---- -----<br>------ ---- ---- ------ ------ ------- --- ----- ---------<br>---- --- -------- -------- --- --- -- ------- --- --- -----<br>-- --- ------ ------- --- --- -------- ---- --------- --<br>---------- -- -------- ----------------,175304.09999996424,175303.29999995232,174940.563,174952.5,174957.233,175307.268,,3,Nui
screen,html.Screen,0_4_1_0_1_4,2021-11-12T11:57:31.218Z,,,,,,,,,,,,,,,,11,,,,,,,,,,,,,,348.03199995230534,,response,,,4,C,,,,,Space,keypress(Space),,,,instrumental,----- -- ---- --- to --- -------- ------------ ---------- --<br>- ------- ------ --------- -- ------------ -- --- ---- -----<br>------ ---- ---- ------ ------ ------- --- ----- ---------<br>---- --- -------- -------- --- --- -- ------- --- --- -----<br>-- --- ------ ------- --- --- -------- ---- --------- --<br>---------- -- -------- ----------------,175656.19999998808,175655.29999995232,175290.599,175304.39999997616,175307.268,175657.547,,4,to
screen,html.Screen,0_4_1_0_1_5,2021-11-12T11:57:31.578Z,,,,,,,,,,,,,,,,11,,,,,,,,,,,,,,357.6529999880877,,response,,,4,C,,,,,Space,keypress(Space),,,,instrumental,----- -- ---- --- -- the -------- ------------ ---------- --<br>- ------- ------ --------- -- ------------ -- --- ---- -----<br>------ ---- ---- ------ ------ ------- --- ----- ---------<br>---- --- -------- -------- --- --- -- ------- --- --- -----<br>-- --- ------ ------- --- --- -------- ---- --------- --<br>---------- -- -------- ----------------,176016.19999998808,176015.19999998808,175640.874,175656.39999997616,175657.547,176024.085,,5,the
screen,html.Screen,0_4_1_0_1_6,2021-11-12T11:57:31.946Z,,,,,,,,,,,,,,,,11,,,,,,,,,,,,,,359.21499995232443,,response,,,4,C,,,,,Space,keypress(Space),,,,instrumental,----- -- ---- --- -- --- island's ------------ ---------- --<br>- ------- ------ --------- -- ------------ -- --- ---- -----<br>------ ---- ---- ------ ------ ------- --- ----- ---------<br>---- --- -------- -------- --- --- -- ------- --- --- -----<br>-- --- ------ ------- --- --- -------- ---- --------- --<br>---------- -- -------- ----------------,176384.19999998808,176383.29999995232,176007.417,176016.5,176024.085,176390.909,,6,island's
screen,html.Screen,0_4_1_0_1_7,2021-11-12T11:57:32.306Z,,,,,,,,,,,,,,,,11,,,,,,,,,,,,,,352.29099998806487,,response,,,4,C,,,,,Space,keypress(Space),,,,instrumental,"----- -- ---- --- -- --- -------- inhabitants, ---------- --<br>- ------- ------ --------- -- ------------ -- --- ---- -----<br>------ ---- ---- ------ ------ ------- --- ----- ---------<br>---- --- -------- -------- --- --- -- ------- --- --- -----<br>-- --- ------ ------- --- --- -------- ---- --------- --<br>---------- -- -------- ----------------",176744.09999996424,176743.19999998808,176374.239,176384.39999997616,176390.909,176757.818,,7,"inhabitants,"
screen,html.Screen,0_4_1_0_1_8,2021-11-12T11:57:32.842Z,,,,,,,,,,,,,,,,11,,,,,,,,,,,,,,521.481999952317,,response,,,4,C,,,,,Space,keypress(Space),,,,instrumental,----- -- ---- --- -- --- -------- ------------ Rongorongo --<br>- ------- ------ --------- -- ------------ -- --- ---- -----<br>------ ---- ---- ------ ------ ------- --- ----- ---------<br>---- --- -------- -------- --- --- -- ------- --- --- -----<br>-- --- ------ ------- --- --- -------- ---- --------- --<br>---------- -- -------- ----------------,177280.09999996424,177279.29999995232,176741.145,176744.39999997616,176757.818,177290.986,,8,Rongorongo
screen,html.Screen,0_4_1_0_1_9,2021-11-12T11:57:33.514Z,,,,,,,,,,,,,,,,11,,,,,,,,,,,,,,660.3139999523119,,response,,,4,C,,,,,Space,keypress(Space),,,,instrumental,----- -- ---- --- -- --- -------- ------------ ---------- is<br>- ------- ------ --------- -- ------------ -- --- ---- -----<br>------ ---- ---- ------ ------ ------- --- ----- ---------<br>---- --- -------- -------- --- --- -- ------- --- --- -----<br>-- --- ------ ------- --- --- -------- ---- --------- --<br>---------- -- -------- ----------------,177952.09999996424,177951.29999995232,177274.319,177280.5,177290.986,177958.157,,9,is
screen,html.Screen,0_4_1_0_1_10,2021-11-12T11:57:34.090Z,,,,,,,,,,,,,,,,11,,,,,,,,,,,,,,569.1429999523098,,response,,,4,C,,,,,Space,keypress(Space),,,,instrumental,----- -- ---- --- -- --- -------- ------------ ---------- --<br>a ------- ------ --------- -- ------------ -- --- ---- -----<br>------ ---- ---- ------ ------ ------- --- ----- ---------<br>---- --- -------- -------- --- --- -- ------- --- --- -----<br>-- --- ------ ------- --- --- -------- ---- --------- --<br>---------- -- -------- ----------------,178528,178527.29999995232,177941.485,177952.29999995232,177958.157,178541.499,,10,a
screen,html.Screen,0_4_1_0_1_11,2021-11-12T11:57:34.482Z,,,,,,,,,,,,,,,,11,,,,,,,,,,,,,,377.70099998806836,,response,,,4,C,,,,,Space,keypress(Space),,,,instrumental,----- -- ---- --- -- --- -------- ------------ ---------- --<br>- writing ------ --------- -- ------------ -- --- ---- -----<br>------ ---- ---- ------ ------ ------- --- ----- ---------<br>---- --- -------- -------- --- --- -- ------- --- --- -----<br>-- --- ------ ------- --- --- -------- ---- --------- --<br>---------- -- -------- ----------------,178920.09999996424,178919.19999998808,178524.829,178528.39999997616,178541.499,178924.983,,11,writing
screen,html.Screen,0_4_1_0_1_12,2021-11-12T11:57:34.842Z,,,,,,,,,,,,,,,,11,,,,,,,,,,,,,,354.2169999880716,,response,,,4,C,,,,,Space,keypress(Space),,,,instrumental,----- -- ---- --- -- --- -------- ------------ ---------- --<br>- ------- system --------- -- ------------ -- --- ---- -----<br>------ ---- ---- ------ ------ ------- --- ----- ---------<br>---- --- -------- -------- --- --- -- ------- --- --- -----<br>-- --- ------ ------- --- --- -------- ---- --------- --<br>---------- -- -------- ----------------,179280,179279.19999998808,178908.312,178920.39999997616,178924.983,179291.718,,12,system
screen,html.Screen,0_4_1_0_1_13,2021-11-12T11:57:35.234Z,,,,,,,,,,,,,,,,11,,,,,,,,,,,,,,379.38199996424373,,response,,,4,C,,,,,Space,keypress(Space),,,,instrumental,----- -- ---- --- -- --- -------- ------------ ---------- --<br>- ------- ------ comprised -- ------------ -- --- ---- -----<br>------ ---- ---- ------ ------ ------- --- ----- ---------<br>---- --- -------- -------- --- --- -- ------- --- --- -----<br>-- --- ------ ------- --- --- -------- ---- --------- --<br>---------- -- -------- ----------------,179671.89999997616,179671.09999996424,179275.048,179280.29999995232,179291.718,179675.133,,13,comprised
screen,html.Screen,0_4_1_0_1_14,2021-11-12T11:57:35.658Z,,,,,,,,,,,,,,,,11,,,,,,,,,,,,,,420.06699998807744,,response,,,4,C,,,,,Space,keypress(Space),,,,instrumental,----- -- ---- --- -- --- -------- ------------ ---------- --<br>- ------- ------ --------- of ------------ -- --- ---- -----<br>------ ---- ---- ------ ------ ------- --- ----- ---------<br>---- --- -------- -------- --- --- -- ------- --- --- -----<br>-- --- ------ ------- --- --- -------- ---- --------- --<br>---------- -- -------- ----------------,180095.89999997616,180095.19999998808,179658.463,179672.19999998808,179675.133,180108.635,,14,of
screen,html.Screen,0_4_1_0_1_15,2021-11-12T11:57:35.957Z,,,,,,,,,,,,,,,,11,,,,,,,,,,,,,,282.4649999642279,,response,,,4,C,,,,,Space,keypress(Space),,,,instrumental,----- -- ---- --- -- --- -------- ------------ ---------- --<br>- ------- ------ --------- -- pictographs. -- --- ---- -----<br>------ ---- ---- ------ ------ ------- --- ----- ---------<br>---- --- -------- -------- --- --- -- ------- --- --- -----<br>-- --- ------ ------- --- --- -------- ---- --------- --<br>---------- -- -------- ----------------,180391.89999997616,180391.09999996424,180091.964,180096.19999998808,180108.635,180408.549,,15,pictographs.
screen,html.Screen,0_4_1_0_1_16,2021-11-12T11:57:36.493Z,,,,,,,,,,,,,,,,11,,,,,,,,,,,,,,518.5509999642381,,response,,,4,C,,,,,Space,keypress(Space),,,,instrumental,----- -- ---- --- -- --- -------- ------------ ---------- --<br>- ------- ------ --------- -- ------------ It --- ---- -----<br>------ ---- ---- ------ ------ ------- --- ----- ---------<br>---- --- -------- -------- --- --- -- ------- --- --- -----<br>-- --- ------ ------- --- --- -------- ---- --------- --<br>---------- -- -------- ----------------,180927.89999997616,180927.09999996424,180391.881,180392.19999998808,180408.549,180942.208,,16,It
screen,html.Screen,0_4_1_0_1_17,2021-11-12T11:57:36.885Z,,,,,,,,,,,,,,,,11,,,,,,,,,,,,,,376.79199999998673,,response,,,4,C,,,,,Space,keypress(Space),,,,instrumental,----- -- ---- --- -- --- -------- ------------ ---------- --<br>- ------- ------ --------- -- ------------ -- has ---- -----<br>------ ---- ---- ------ ------ ------- --- ----- ---------<br>---- --- -------- -------- --- --- -- ------- --- --- -----<br>-- --- ------ ------- --- --- -------- ---- --------- --<br>---------- -- -------- ----------------,181320,181319,180925.536,180928.09999996424,180942.208,181325.617,,17,has
screen,html.Screen,0_4_1_0_1_18,2021-11-12T11:57:37.245Z,,,,,,,,,,,,,,,,11,,,,,,,,,,,,,,353.48299996423884,,response,,,4,C,,,,,Space,keypress(Space),,,,instrumental,----- -- ---- --- -- --- -------- ------------ ---------- --<br>- ------- ------ --------- -- ------------ -- --- been -----<br>------ ---- ---- ------ ------ ------- --- ----- ---------<br>---- --- -------- -------- --- --- -- ------- --- --- -----<br>-- --- ------ ------- --- --- -------- ---- --------- --<br>---------- -- -------- ----------------,181680,181679.09999996424,181308.946,181320.09999996424,181325.617,181692.325,,18,been
screen,html.Screen,0_4_1_0_1_19,2021-11-12T11:57:37.621Z,,,,,,,,,,,,,,,,11,,,,,,,,,,,,,,362.67499999998836,,response,,,4,C,,,,,Space,keypress(Space),,,,instrumental,----- -- ---- --- -- --- -------- ------------ ---------- --<br>- ------- ------ --------- -- ------------ -- --- ---- found<br>------ ---- ---- ------ ------ ------- --- ----- ---------<br>---- --- -------- -------- --- --- -- ------- --- --- -----<br>-- --- ------ ------- --- --- -------- ---- --------- --<br>---------- -- -------- ----------------,182055.69999998808,182055,181675.655,181680.29999995232,181692.325,182059.095,,19,found
screen,html.Screen,0_4_1_0_1_20,2021-11-12T11:57:38.077Z,,,,,,,,,,,,,,,,11,,,,,,,,,,,,,,451.90499999999884,,response,,,4,C,,,,,Space,keypress(Space),,,,instrumental,----- -- ---- --- -- --- -------- ------------ ---------- --<br>- ------- ------ --------- -- ------------ -- --- ---- -----<br>carved ---- ---- ------ ------ ------- --- ----- ---------<br>---- --- -------- -------- --- --- -- ------- --- --- -----<br>-- --- ------ ------- --- --- -------- ---- --------- --<br>---------- -- -------- ----------------,182511.79999995232,182511,182042.425,182056,182059.095,182525.853,,20,carved
screen,html.Screen,0_4_1_0_1_21,2021-11-12T11:57:38.533Z,,,,,,,,,,,,,,,,11,,,,,,,,,,,,,,441.04699997615535,,response,,,4,C,,,,,Space,keypress(Space),,,,instrumental,----- -- ---- --- -- --- -------- ------------ ---------- --<br>- ------- ------ --------- -- ------------ -- --- ---- -----<br>------ into ---- ------ ------ ------- --- ----- ---------<br>---- --- -------- -------- --- --- -- ------- --- --- -----<br>-- --- ------ ------- --- --- -------- ---- --------- --<br>---------- -- -------- ----------------,182967.79999995232,182966.89999997616,182509.183,182512.09999996424,182525.853,182975.868,,21,into
screen,html.Screen,0_4_1_0_1_22,2021-11-12T11:57:38.893Z,,,,,,,,,,,,,,,,11,,,,,,,,,,,,,,351.0319999761705,,response,,,4,C,,,,,Space,keypress(Space),,,,instrumental,----- -- ---- --- -- --- -------- ------------ ---------- --<br>- ------- ------ --------- -- ------------ -- --- ---- -----<br>------ ---- many ------ ------ ------- --- ----- ---------<br>---- --- -------- -------- --- --- -- ------- --- --- -----<br>-- --- ------ ------- --- --- -------- ---- --------- --<br>---------- -- -------- ----------------,183327.79999995232,183326.89999997616,182959.199,182968.09999996424,182975.868,183342.685,,22,many
screen,html.Screen,0_4_1_0_1_23,2021-11-12T11:57:39.237Z,,,,,,,,,,,,,,,,11,,,,,,,,,,,,,,328.21499997616047,,response,,,4,C,,,,,Space,keypress(Space),,,,instrumental,----- -- ---- --- -- --- -------- ------------ ---------- --<br>- ------- ------ --------- -- ------------ -- --- ---- -----<br>------ ---- ---- oblong ------ ------- --- ----- ---------<br>---- --- -------- -------- --- --- -- ------- --- --- -----<br>-- --- ------ ------- --- --- -------- ---- --------- --<br>---------- -- -------- ----------------,183671.69999998808,183670.89999997616,183326.015,183328.09999996424,183342.685,183676.129,,23,oblong
screen,html.Screen,0_4_1_0_1_24,2021-11-12T11:57:39.581Z,,,,,,,,,,,,,,,,11,,,,,,,,,,,,,,338.67099995233,,response,,,4,C,,,,,Space,keypress(Space),,,,instrumental,----- -- ---- --- -- --- -------- ------------ ---------- --<br>- ------- ------ --------- -- ------------ -- --- ---- -----<br>------ ---- ---- ------ wooden ------- --- ----- ---------<br>---- --- -------- -------- --- --- -- ------- --- --- -----<br>-- --- ------ ------- --- --- -------- ---- --------- --<br>---------- -- -------- ----------------,184015.69999998808,184014.79999995232,183659.459,183672,183676.129,184026.332,,24,wooden
screen,html.Screen,0_4_1_0_1_25,2021-11-12T11:57:39.949Z,,,,,,,,,,,,,,,,11,,,,,,,,,,,,,,356.9679999523214,,response,,,4,C,,,,,Space,keypress(Space),,,,instrumental,----- -- ---- --- -- --- -------- ------------ ---------- --<br>- ------- ------ --------- -- ------------ -- --- ---- -----<br>------ ---- ---- ------ ------ tablets --- ----- ---------<br>---- --- -------- -------- --- --- -- ------- --- --- -----<br>-- --- ------ ------- --- --- -------- ---- --------- --<br>---------- -- -------- ----------------,184384.19999998808,184383.29999995232,184009.66,184015.79999995232,184026.332,184393.018,,25,tablets
screen,html.Screen,0_4_1_0_1_26,2021-11-12T11:57:40.317Z,,,,,,,,,,,,,,,,11,,,,,,,,,,,,,,357.8819999761472,,response,,,4,C,,,,,Space,keypress(Space),,,,instrumental,----- -- ---- --- -- --- -------- ------------ ---------- --<br>- ------- ------ --------- -- ------------ -- --- ---- -----<br>------ ---- ---- ------ ------ ------- and ----- ---------<br>---- --- -------- -------- --- --- -- ------- --- --- -----<br>-- --- ------ ------- --- --- -------- ---- --------- --<br>---------- -- -------- ----------------,184751.69999998808,184750.89999997616,184376.348,184384.39999997616,184393.018,184759.634,,26,and
screen,html.Screen,0_4_1_0_1_27,2021-11-12T11:57:40.653Z,,,,,,,,,,,,,,,,11,,,,,,,,,,,,,,327.2659999761672,,response,,,4,C,,,,,Space,keypress(Space),,,,instrumental,----- -- ---- --- -- --- -------- ------------ ---------- --<br>- ------- ------ --------- -- ------------ -- --- ---- -----<br>------ ---- ---- ------ ------ ------- --- other ---------<br>---- --- -------- -------- --- --- -- ------- --- --- -----<br>-- --- ------ ------- --- --- -------- ---- --------- --<br>---------- -- -------- ----------------,185087.69999998808,185086.89999997616,184742.966,184751.89999997616,184759.634,185093.26,,27,other
screen,html.Screen,0_4_1_0_1_28,2021-11-12T11:57:40.973Z,,,,,,,,,,,,,,,,11,,,,,,,,,,,,,,313.53999995230697,,response,,,4,C,,,,,Space,keypress(Space),,,,instrumental,----- -- ---- --- -- --- -------- ------------ ---------- --<br>- ------- ------ --------- -- ------------ -- --- ---- -----<br>------ ---- ---- ------ ------ ------- --- ----- artifacts<br>---- --- -------- -------- --- --- -- ------- --- --- -----<br>-- --- ------ ------- --- --- -------- ---- --------- --<br>---------- -- -------- ----------------,185407.79999995232,185406.79999995232,185076.588,185087.89999997616,185093.26,185409.859,,28,artifacts
screen,html.Screen,0_4_1_0_1_29,2021-11-12T11:57:41.405Z,,,,,,,,,,,,,,,,11,,,,,,,,,,,,,,428.94099995231954,,response,,,4,C,,,,,Space,keypress(Space),,,,instrumental,----- -- ---- --- -- --- -------- ------------ ---------- --<br>- ------- ------ --------- -- ------------ -- --- ---- -----<br>------ ---- ---- ------ ------ ------- --- ----- ---------<br>from --- -------- -------- --- --- -- ------- --- --- -----<br>-- --- ------ ------- --- --- -------- ---- --------- --<br>---------- -- -------- ----------------,185839.59999996424,185838.79999995232,185393.19,185408.09999996424,185409.859,185843.408,,29,from
screen,html.Screen,0_4_1_0_1_30,2021-11-12T11:57:41.757Z,,,,,,,,,,,,,,,,11,,,,,,,,,,,,,,347.3919999523205,,response,,,4,C,,,,,Space,keypress(Space),,,,instrumental,----- -- ---- --- -- --- -------- ------------ ---------- --<br>- ------- ------ --------- -- ------------ -- --- ---- -----<br>------ ---- ---- ------ ------ ------- --- ----- ---------<br>---- the -------- -------- --- --- -- ------- --- --- -----<br>-- --- ------ ------- --- --- -------- ---- --------- --<br>---------- -- -------- ----------------,186191.59999996424,186190.79999995232,185826.737,185839.89999997616,185843.408,186193.401,,30,the
screen,html.Screen,0_4_1_0_1_31,2021-11-12T11:57:42.125Z,,,,,,,,,,,,,,,,11,,,,,,,,,,,,,,365.3989999523037,,response,,,4,C,,,,,Space,keypress(Space),,,,instrumental,----- -- ---- --- -- --- -------- ------------ ---------- --<br>- ------- ------ --------- -- ------------ -- --- ---- -----<br>------ ---- ---- ------ ------ ------- --- ----- ---------<br>---- --- island's -------- --- --- -- ------- --- --- -----<br>-- --- ------ ------- --- --- -------- ---- --------- --<br>---------- -- -------- ----------------,186559.5,186558.79999995232,186176.732,186191.89999997616,186193.401,186577.001,,31,island's
screen,html.Screen,0_4_1_0_1_32,2021-11-12T11:57:42.501Z,,,,,,,,,,,,,,,,11,,,,,,,,,,,,,,357.6989999880898,,response,,,4,C,,,,,Space,keypress(Space),,,,instrumental,----- -- ---- --- -- --- -------- ------------ ---------- --<br>- ------- ------ --------- -- ------------ -- --- ---- -----<br>------ ---- ---- ------ ------ ------- --- ----- ---------<br>---- --- -------- history. --- --- -- ------- --- --- -----<br>-- --- ------ ------- --- --- -------- ---- --------- --<br>---------- -- -------- ----------------,186935.59999996424,186934.69999998808,186560.329,186559.79999995232,186577.001,186943.669,,32,history.
screen,html.Screen,0_4_1_0_1_33,2021-11-12T11:57:42.869Z,,,,,,,,,,,,,,,,11,,,,,,,,,,,,,,359.03099998808466,,response,,,4,C,,,,,Space,keypress(Space),,,,instrumental,----- -- ---- --- -- --- -------- ------------ ---------- --<br>- ------- ------ --------- -- ------------ -- --- ---- -----<br>------ ---- ---- ------ ------ ------- --- ----- ---------<br>---- --- -------- -------- The --- -- ------- --- --- -----<br>-- --- ------ ------- --- --- -------- ---- --------- --<br>---------- -- -------- ----------------,187303.5,187302.69999998808,186926.999,186935.79999995232,186943.669,187310.29,,33,The
screen,html.Screen,0_4_1_0_1_34,2021-11-12T11:57:43.213Z,,,,,,,,,,,,,,,,11,,,,,,,,,,,,,,336.4099999880709,,response,,,4,C,,,,,Space,keypress(Space),,,,instrumental,----- -- ---- --- -- --- -------- ------------ ---------- --<br>- ------- ------ --------- -- ------------ -- --- ---- -----<br>------ ---- ---- ------ ------ ------- --- ----- ---------<br>---- --- -------- -------- --- art -- ------- --- --- -----<br>-- --- ------ ------- --- --- -------- ---- --------- --<br>---------- -- -------- ----------------,187647.5,187646.69999998808,187293.622,187303.69999998808,187310.29,187660.599,,34,art
screen,html.Screen,0_4_1_0_1_35,2021-11-12T11:57:43.581Z,,,,,,,,,,,,,,,,11,,,,,,,,,,,,,,354.0009999642498,,response,,,4,C,,,,,Space,keypress(Space),,,,instrumental,----- -- ---- --- -- --- -------- ------------ ---------- --<br>- ------- ------ --------- -- ------------ -- --- ---- -----<br>------ ---- ---- ------ ------ ------- --- ----- ---------<br>---- --- -------- -------- --- --- of ------- --- --- -----<br>-- --- ------ ------- --- --- -------- ---- --------- --<br>---------- -- -------- ----------------,188015.39999997616,188014.59999996424,187643.927,187647.69999998808,187660.599,188027.282,,35,of
screen,html.Screen,0_4_1_0_1_36,2021-11-12T11:57:43.917Z,,,,,,,,,,,,,,,,11,,,,,,,,,,,,,,323.41799998807255,,response,,,4,C,,,,,Space,keypress(Space),,,,instrumental,----- -- ---- --- -- --- -------- ------------ ---------- --<br>- ------- ------ --------- -- ------------ -- --- ---- -----<br>------ ---- ---- ------ ------ ------- --- ----- ---------<br>---- --- -------- -------- --- --- -- writing --- --- -----<br>-- --- ------ ------- --- --- -------- ---- --------- --<br>---------- -- -------- ----------------,188351.5,188350.69999998808,188010.612,188015.69999998808,188027.282,188360.707,,36,writing
screen,html.Screen,0_4_1_0_1_37,2021-11-12T11:57:44.245Z,,,,,,,,,,,,,,,,11,,,,,,,,,,,,,,317.89299996424234,,response,,,4,C,,,,,Space,keypress(Space),,,,instrumental,----- -- ---- --- -- --- -------- ------------ ---------- --<br>- ------- ------ --------- -- ------------ -- --- ---- -----<br>------ ---- ---- ------ ------ ------- --- ----- ---------<br>---- --- -------- -------- --- --- -- ------- was --- -----<br>-- --- ------ ------- --- --- -------- ---- --------- --<br>---------- -- -------- ----------------,188679.39999997616,188678.59999996424,188344.037,188351.69999998808,188360.707,188694.182,,37,was
screen,html.Screen,0_4_1_0_1_38,2021-11-12T11:57:44.605Z,,,,,,,,,,,,,,,,11,,,,,,,,,,,,,,344.4179999642365,,response,,,4,C,,,,,Space,keypress(Space),,,,instrumental,----- -- ---- --- -- --- -------- ------------ ---------- --<br>- ------- ------ --------- -- ------------ -- --- ---- -----<br>------ ---- ---- ------ ------ ------- --- ----- ---------<br>---- --- -------- -------- --- --- -- ------- --- not -----<br>-- --- ------ ------- --- --- -------- ---- --------- --<br>---------- -- -------- ----------------,189039.5,189038.59999996424,188677.511,188679.69999998808,188694.182,189044.209,,38,not
screen,html.Screen,0_4_1_0_1_39,2021-11-12T11:57:44.941Z,,,,,,,,,,,,,,,,11,,,,,,,,,,,,,,330.39099996423465,,response,,,4,C,,,,,Space,keypress(Space),,,,instrumental,----- -- ---- --- -- --- -------- ------------ ---------- --<br>- ------- ------ --------- -- ------------ -- --- ---- -----<br>------ ---- ---- ------ ------ ------- --- ----- ---------<br>---- --- -------- -------- --- --- -- ------- --- --- known<br>-- --- ------ ------- --- --- -------- ---- --------- --<br>---------- -- -------- ----------------,189375.39999997616,189374.59999996424,189027.539,189039.69999998808,189044.209,189377.643,,39,known
screen,html.Screen,0_4_1_0_1_40,2021-11-12T11:57:45.316Z,,,,,,,,,,,,,,,,11,,,,,,,,,,,,,,372.95699996422627,,response,,,4,C,,,,,Space,keypress(Space),,,,instrumental,----- -- ---- --- -- --- -------- ------------ ---------- --<br>- ------- ------ --------- -- ------------ -- --- ---- -----<br>------ ---- ---- ------ ------ ------- --- ----- ---------<br>---- --- -------- -------- --- --- -- ------- --- --- -----<br>in --- ------ ------- --- --- -------- ---- --------- --<br>---------- -- -------- ----------------,189751.39999997616,189750.59999996424,189360.973,189375.59999996424,189377.643,189761.061,,40,in
screen,html.Screen,0_4_1_0_1_41,2021-11-12T11:57:45.652Z,,,,,,,,,,,,,,,,11,,,,,,,,,,,,,,325.53899996425025,,response,,,4,C,,,,,Space,keypress(Space),,,,instrumental,----- -- ---- --- -- --- -------- ------------ ---------- --<br>- ------- ------ --------- -- ------------ -- --- ---- -----<br>------ ---- ---- ------ ------ ------- --- ----- ---------<br>---- --- -------- -------- --- --- -- ------- --- --- -----<br>-- any ------ ------- --- --- -------- ---- --------- --<br>---------- -- -------- ----------------,190087.39999997616,190086.59999996424,189744.391,189751.69999998808,189761.061,190094.434,,41,any
screen,html.Screen,0_4_1_0_1_42,2021-11-12T11:57:46.013Z,,,,,,,,,,,,,,,,11,,,,,,,,,,,,,,352.16599996422883,,response,,,4,C,,,,,Space,keypress(Space),,,,instrumental,----- -- ---- --- -- --- -------- ------------ ---------- --<br>- ------- ------ --------- -- ------------ -- --- ---- -----<br>------ ---- ---- ------ ------ ------- --- ----- ---------<br>---- --- -------- -------- --- --- -- ------- --- --- -----<br>-- --- nearby ------- --- --- -------- ---- --------- --<br>---------- -- -------- ----------------,190447.5,190446.59999996424,190077.765,190087.59999996424,190094.434,190461.325,,42,nearby
screen,html.Screen,0_4_1_0_1_43,2021-11-12T11:57:46.340Z,,,,,,,,,,,,,,,,11,,,,,,,,,,,,,,313.2749999642256,,response,,,4,C,,,,,Space,keypress(Space),,,,instrumental,----- -- ---- --- -- --- -------- ------------ ---------- --<br>- ------- ------ --------- -- ------------ -- --- ---- -----<br>------ ---- ---- ------ ------ ------- --- ----- ---------<br>---- --- -------- -------- --- --- -- ------- --- --- -----<br>-- --- ------ islands --- --- -------- ---- --------- --<br>---------- -- -------- ----------------,190775.39999997616,190774.59999996424,190444.653,190447.79999995232,190461.325,190778.001,,43,islands
screen,html.Screen,0_4_1_0_1_44,2021-11-12T11:57:46.692Z,,,,,,,,,,,,,,,,11,,,,,,,,,,,,,,348.4990000000107,,response,,,4,C,,,,,Space,keypress(Space),,,,instrumental,----- -- ---- --- -- --- -------- ------------ ---------- --<br>- ------- ------ --------- -- ------------ -- --- ---- -----<br>------ ---- ---- ------ ------ ------- --- ----- ---------<br>---- --- -------- -------- --- --- -- ------- --- --- -----<br>-- --- ------ ------- and --- -------- ---- --------- --<br>---------- -- -------- ----------------,191127.29999995232,191126.5,190761.331,190775.69999998808,190778.001,191144.709,,44,and
screen,html.Screen,0_4_1_0_1_45,2021-11-12T11:57:47.076Z,,,,,,,,,,,,,,,,11,,,,,,,,,,,,,,365.79099999999744,,response,,,4,C,,,,,Space,keypress(Space),,,,instrumental,----- -- ---- --- -- --- -------- ------------ ---------- --<br>- ------- ------ --------- -- ------------ -- --- ---- -----<br>------ ---- ---- ------ ------ ------- --- ----- ---------<br>---- --- -------- -------- --- --- -- ------- --- --- -----<br>-- --- ------ ------- --- the -------- ---- --------- --<br>---------- -- -------- ----------------,191511.29999995232,191510.5,191128.04,191127.5,191144.709,191528.234,,45,the
screen,html.Screen,0_4_1_0_1_46,2021-11-12T11:57:47.460Z,,,,,,,,,,,,,,,,11,,,,,,,,,,,,,,366.1659999761614,,response,,,4,C,,,,,Space,keypress(Space),,,,instrumental,----- -- ---- --- -- --- -------- ------------ ---------- --<br>- ------- ------ --------- -- ------------ -- --- ---- -----<br>------ ---- ---- ------ ------ ------- --- ----- ---------<br>---- --- -------- -------- --- --- -- ------- --- --- -----<br>-- --- ------ ------- --- --- script's ---- --------- --<br>---------- -- -------- ----------------,191895.19999998808,191894.39999997616,191511.563,191511.5,191528.234,191911.536,,46,script's
screen,html.Screen,0_4_1_0_1_47,2021-11-12T11:57:47.844Z,,,,,,,,,,,,,,,,11,,,,,,,,,,,,,,366.86399997616536,,response,,,4,C,,,,,Space,keypress(Space),,,,instrumental,----- -- ---- --- -- --- -------- ------------ ---------- --<br>- ------- ------ --------- -- ------------ -- --- ---- -----<br>------ ---- ---- ------ ------ ------- --- ----- ---------<br>---- --- -------- -------- --- --- -- ------- --- --- -----<br>-- --- ------ ------- --- --- -------- mere --------- --<br>---------- -- -------- ----------------,192279.09999996424,192278.39999997616,191894.867,191895.5,191911.536,192295.08,,47,mere
screen,html.Screen,0_4_1_0_1_48,2021-11-12T11:57:48.276Z,,,,,,,,,,,,,,,,11,,,,,,,,,,,,,,415.31999997617095,,response,,,4,C,,,,,Space,keypress(Space),,,,instrumental,----- -- ---- --- -- --- -------- ------------ ---------- --<br>- ------- ------ --------- -- ------------ -- --- ---- -----<br>------ ---- ---- ------ ------ ------- --- ----- ---------<br>---- --- -------- -------- --- --- -- ------- --- --- -----<br>-- --- ------ ------- --- --- -------- ---- existence --<br>---------- -- -------- ----------------,192711.29999995232,192710.39999997616,192278.409,192279.39999997616,192295.08,192728.528,,48,existence
screen,html.Screen,0_4_1_0_1_49,2021-11-12T11:57:48.716Z,,,,,,,,,,,,,,,,11,,,,,,,,,,,,,,421.871999976167,,response,,,4,C,,,,,Space,keypress(Space),,,,instrumental,----- -- ---- --- -- --- -------- ------------ ---------- --<br>- ------- ------ --------- -- ------------ -- --- ---- -----<br>------ ---- ---- ------ ------ ------- --- ----- ---------<br>---- --- -------- -------- --- --- -- ------- --- --- -----<br>-- --- ------ ------- --- --- -------- ---- --------- is<br>---------- -- -------- ----------------,193151.29999995232,193150.39999997616,192711.857,192711.5,192728.528,193161.792,,49,is
screen,html.Screen,0_4_1_0_1_50,2021-11-12T11:57:49.172Z,,,,,,,,,,,,,,,,11,,,,,,,,,,,,,,444.6079999761714,,response,,,4,C,,,,,Space,keypress(Space),,,,instrumental,----- -- ---- --- -- --- -------- ------------ ---------- --<br>- ------- ------ --------- -- ------------ -- --- ---- -----<br>------ ---- ---- ------ ------ ------- --- ----- ---------<br>---- --- -------- -------- --- --- -- ------- --- --- -----<br>-- --- ------ ------- --- --- -------- ---- --------- --<br>sufficient -- -------- ----------------,193607.19999998808,193606.39999997616,193145.124,193151.59999996424,193161.792,193612.141,,50,sufficient
