sender,sender_type,sender_id,timestamp,meta,,Blues,Classical,Country,Dance,Electronic,Folk,Gospel,Hip-Hop,Jazz,Latin,Musical/Film,New-age,Pop,Provo_ID,R&B,Rap,Reggae,Religious,Rock,Soul,Swing,Traditional,age,artist_name,correct,correctResponse,distraction,duration,education,ended_on,familiarity,gender,item,list,music_frequency,offensiveness,pleasantness,preference,response,response_action,snippet_file,song_name,song_rating,sound,text,time_commit,time_end,time_render,time_run,time_show,time_switch,url,word,word_ID
Instructions,html.Page,0_0,2021-11-19T14:50:56.020Z,"{""labjs_version"":""20.2.3"",""labjs_build"":{""flavor"":""production"",""commit"":""7ea907d66ca8aeef8054924ca5d82ffbe11e34e5""},""location"":""https://run.pavlovia.org/mvasilev/lab_music_d/"",""userAgent"":""Mozilla/5.0 (Windows NT 6.1; Win64; x64) AppleWebKit/537.36 (KHTML, like Gecko) Chrome/96.0.4664.45 Safari/537.36"",""platform"":""Win32"",""language"":""en-US"",""locale"":""en-US"",""timeZone"":""Europe/London"",""timezoneOffset"":0,""screen_width"":1920,""screen_height"":1080,""scroll_width"":1920,""scroll_height"":959,""window_innerWidth"":1920,""window_innerHeight"":1007,""devicePixelRatio"":1}",,,,,,,,,,,,,,,,,,,,,,,,,,,,,24512.57699990463,,form submission,,,,,,,,,,,,,,,,37297.39999985695,37296.59999990463,12767.358,12775.599999904633,12784.023,37300.517,{},,
Headphones,html.Page,0_1,2021-11-19T14:50:58.024Z,,,,,,,,,,,,,,,,,,,,,,,,,,,,,,2000.382999856949,,form submission,,,,,,,,,,,,,,,,39301.199999809265,39300.89999985695,37283.85,37297.89999985695,37300.517,39315.001,,,
Holding screen,html.Screen,0_2_0_0,2021-11-19T14:51:08.025Z,,,,,,,,,,,,,,,,,,,,,,,,,,,,,,10000.405000000006,,timeout,,,,,,,,,,,,,,,,49302.5,49298.741,39298.337,39301.5,39315.001,49315.406,,,
screen,html.Screen,0_2_0_1_0,2021-11-19T14:51:09.001Z,,,,,,,,,,,,,,,,53,,,,,,,,,,,,,,962.4939998569462,,response,,,99,,,,,,Space,keypress(Space),,,,,When -- ----- -- ------ - ------- --- ----------<br>------------- ------ ------ ---- ---- ------- ----- -- ----<br>-------- ------- -- ---------- --- - --- ----- ----- ----<br>---- --- --- ----- --- ---- ---- ------- ----- ---- -------<br>--- --- -- ----- -- --- ---- -- --- ---- -- ------ ------<br>--- ----- -- ----,50279,50277.89999985695,49298.741,49302.799999952316,49315.406,50282.134,,0,When
screen,html.Screen,0_2_0_1_1,2021-11-19T14:51:09.537Z,,,,,,,,,,,,,,,,53,,,,,,,,,,,,,,531.6659999523181,,response,,,99,,,,,,Space,keypress(Space),,,,,---- it ----- -- ------ - ------- --- ----------<br>------------- ------ ------ ---- ---- ------- ----- -- ----<br>-------- ------- -- ---------- --- - --- ----- ----- ----<br>---- --- --- ----- --- ---- ---- ------- ----- ---- -------<br>--- --- -- ----- -- --- ---- -- --- ---- -- ------ ------<br>--- ----- -- ----,50814.39999985695,50813.799999952316,50265.468,50279.199999809265,50282.134,50815.354,,1,it
screen,html.Screen,0_2_0_1_2,2021-11-19T14:51:10.121Z,,,,,,,,,,,,,,,,53,,,,,,,,,,,,,,582.4459999523169,,response,,,99,,,,,,Space,keypress(Space),,,,,---- -- comes -- ------ - ------- --- ----------<br>------------- ------ ------ ---- ---- ------- ----- -- ----<br>-------- ------- -- ---------- --- - --- ----- ----- ----<br>---- --- --- ----- --- ---- ---- ------- ----- ---- -------<br>--- --- -- ----- -- --- ---- -- --- ---- -- ------ ------<br>--- ----- -- ----,51398.39999985695,51397.799999952316,50798.689,50814.59999990463,50815.354,51415.34,,2,comes
screen,html.Screen,0_2_0_1_3,2021-11-19T14:51:10.689Z,,,,,,,,,,,,,,,,53,,,,,,,,,,,,,,550.3599998092686,,response,,,99,,,,,,Space,keypress(Space),,,,,---- -- ----- to ------ - ------- --- ----------<br>------------- ------ ------ ---- ---- ------- ----- -- ----<br>-------- ------- -- ---------- --- - --- ----- ----- ----<br>---- --- --- ----- --- ---- ---- ------- ----- ---- -------<br>--- --- -- ----- -- --- ---- -- --- ---- -- ------ ------<br>--- ----- -- ----,51966.5,51965.699999809265,51398.675,51398.5,51415.34,51981.864,,3,to
screen,html.Screen,0_2_0_1_4,2021-11-19T14:51:11.457Z,,,,,,,,,,,,,,,,53,,,,,,,,,,,,,,751.8359998092637,,response,,,99,,,,,,Space,keypress(Space),,,,,---- -- ----- -- having - ------- --- ----------<br>------------- ------ ------ ---- ---- ------- ----- -- ----<br>-------- ------- -- ---------- --- - --- ----- ----- ----<br>---- --- --- ----- --- ---- ---- ------- ----- ---- -------<br>--- --- -- ----- -- --- ---- -- --- ---- -- ------ ------<br>--- ----- -- ----,52734.5,52733.699999809265,51965.2,51966.699999809265,51981.864,52748.629,,4,having
screen,html.Screen,0_2_0_1_5,2021-11-19T14:51:11.937Z,,,,,,,,,,,,,,,,53,,,,,,,,,,,,,,465.0709998092643,,response,,,99,,,,,,Space,keypress(Space),,,,,---- -- ----- -- ------ a ------- --- ----------<br>------------- ------ ------ ---- ---- ------- ----- -- ----<br>-------- ------- -- ---------- --- - --- ----- ----- ----<br>---- --- --- ----- --- ---- ---- ------- ----- ---- -------<br>--- --- -- ----- -- --- ---- -- --- ---- -- ------ ------<br>--- ----- -- ----,53214.299999952316,53213.699999809265,52731.963,52734.699999809265,52748.629,53231.745,,5,a
screen,html.Screen,0_2_0_1_6,2021-11-19T14:51:12.481Z,,,,,,,,,,,,,,,,53,,,,,,,,,,,,,,525.85499990463,,response,,,99,,,,,,Space,keypress(Space),,,,,---- -- ----- -- ------ - lasting --- ----------<br>------------- ------ ------ ---- ---- ------- ----- -- ----<br>-------- ------- -- ---------- --- - --- ----- ----- ----<br>---- --- --- ----- --- ---- ---- ------- ----- ---- -------<br>--- --- -- ----- -- --- ---- -- --- ---- -- ------ ------<br>--- ----- -- ----,53758.299999952316,53757.59999990463,53215.081,53214.699999809265,53231.745,53765.247,,6,lasting
screen,html.Screen,0_2_0_1_7,2021-11-19T14:51:13.073Z,,,,,,,,,,,,,,,,53,,,,,,,,,,,,,,584.3529999046295,,response,,,99,,,,,,Space,keypress(Space),,,,,---- -- ----- -- ------ - ------- and ----------<br>------------- ------ ------ ---- ---- ------- ----- -- ----<br>-------- ------- -- ---------- --- - --- ----- ----- ----<br>---- --- --- ----- --- ---- ---- ------- ----- ---- -------<br>--- --- -- ----- -- --- ---- -- --- ---- -- ------ ------<br>--- ----- -- ----,54350.39999985695,54349.59999990463,53748.581,53758.59999990463,53765.247,54365.138,,7,and
screen,html.Screen,0_2_0_1_8,2021-11-19T14:51:13.633Z,,,,,,,,,,,,,,,,53,,,,,,,,,,,,,,544.362000000001,,response,,,99,,,,,,Space,keypress(Space),,,,,---- -- ----- -- ------ - ------- --- fulfilling<br>------------- ------ ------ ---- ---- ------- ----- -- ----<br>-------- ------- -- ---------- --- - --- ----- ----- ----<br>---- --- --- ----- --- ---- ---- ------- ----- ---- -------<br>--- --- -- ----- -- --- ---- -- --- ---- -- ------ ------<br>--- ----- -- ----,54910.39999985695,54909.5,54348.473,54350.5,54365.138,54915.077,,8,fulfilling
screen,html.Screen,0_2_0_1_9,2021-11-19T14:51:14.185Z,,,,,,,,,,,,,,,,53,,,,,,,,,,,,,,546.4230000000025,,response,,,99,,,,,,Space,keypress(Space),,,,,"---- -- ----- -- ------ - ------- --- ----------<br>relationship, ------ ------ ---- ---- ------- ----- -- ----<br>-------- ------- -- ---------- --- - --- ----- ----- ----<br>---- --- --- ----- --- ---- ---- ------- ----- ---- -------<br>--- --- -- ----- -- --- ---- -- --- ---- -- ------ ------<br>--- ----- -- ----",55462.199999809265,55461.5,54898.412,54910.59999990463,54915.077,55465.055,,9,"relationship,"
screen,html.Screen,0_2_0_1_10,2021-11-19T14:51:14.713Z,,,,,,,,,,,,,,,,53,,,,,,,,,,,,,,524.4449999999997,,response,,,99,,,,,,Space,keypress(Space),,,,,---- -- ----- -- ------ - ------- --- ----------<br>------------- common ------ ---- ---- ------- ----- -- ----<br>-------- ------- -- ---------- --- - --- ----- ----- ----<br>---- --- --- ----- --- ---- ---- ------- ----- ---- -------<br>--- --- -- ----- -- --- ---- -- --- ---- -- ------ ------<br>--- ----- -- ----,55990.199999809265,55989.5,55448.39,55462.39999985695,55465.055,55998.425,,10,common
screen,html.Screen,0_2_0_1_11,2021-11-19T14:51:15.400Z,,,,,,,,,,,,,,,,53,,,,,,,,,,,,,,679.0749999999971,,response,,,99,,,,,,Space,keypress(Space),,,,,---- -- ----- -- ------ - ------- --- ----------<br>------------- ------ wisdom ---- ---- ------- ----- -- ----<br>-------- ------- -- ---------- --- - --- ----- ----- ----<br>---- --- --- ----- --- ---- ---- ------- ----- ---- -------<br>--- --- -- ----- -- --- ---- -- --- ---- -- ------ ------<br>--- ----- -- ----,56678.09999990463,56677.5,55981.759,55990.299999952316,55998.425,56681.637,,11,wisdom
screen,html.Screen,0_2_0_1_12,2021-11-19T14:51:16.040Z,,,,,,,,,,,,,,,,53,,,,,,,,,,,,,,635.7629998569464,,response,,,99,,,,,,Space,keypress(Space),,,,,---- -- ----- -- ------ - ------- --- ----------<br>------------- ------ ------ says ---- ------- ----- -- ----<br>-------- ------- -- ---------- --- - --- ----- ----- ----<br>---- --- --- ----- --- ---- ---- ------- ----- ---- -------<br>--- --- -- ----- -- --- ---- -- --- ---- -- ------ ------<br>--- ----- -- ----,57318.09999990463,57317.39999985695,56664.972,56678.299999952316,56681.637,57331.683,,12,says
screen,html.Screen,0_2_0_1_13,2021-11-19T14:51:16.448Z,,,,,,,,,,,,,,,,53,,,,,,,,,,,,,,393.9169999046353,,response,,,99,,,,,,Space,keypress(Space),,,,,---- -- ----- -- ------ - ------- --- ----------<br>------------- ------ ------ ---- that ------- ----- -- ----<br>-------- ------- -- ---------- --- - --- ----- ----- ----<br>---- --- --- ----- --- ---- ---- ------- ----- ---- -------<br>--- --- -- ----- -- --- ---- -- --- ---- -- ------ ------<br>--- ----- -- ----,57726.09999990463,57725.59999990463,57315.017,57318.299999952316,57331.683,57731.626,,13,that
screen,html.Screen,0_2_0_1_14,2021-11-19T14:51:17.264Z,,,,,,,,,,,,,,,,53,,,,,,,,,,,,,,809.7739998569523,,response,,,99,,,,,,Space,keypress(Space),,,,,---- -- ----- -- ------ - ------- --- ----------<br>------------- ------ ------ ---- ---- feeling ----- -- ----<br>-------- ------- -- ---------- --- - --- ----- ----- ----<br>---- --- --- ----- --- ---- ---- ------- ----- ---- -------<br>--- --- -- ----- -- --- ---- -- --- ---- -- ------ ------<br>--- ----- -- ----,58542,58541.39999985695,57714.961,57726.299999952316,57731.626,58548.2,,14,feeling
screen,html.Screen,0_2_0_1_15,2021-11-19T14:51:17.784Z,,,,,,,,,,,,,,,,53,,,,,,,,,,,,,,513.1999998569518,,response,,,99,,,,,,Space,keypress(Space),,,,,---- -- ----- -- ------ - ------- --- ----------<br>------------- ------ ------ ---- ---- ------- close -- ----<br>-------- ------- -- ---------- --- - --- ----- ----- ----<br>---- --- --- ----- --- ---- ---- ------- ----- ---- -------<br>--- --- -- ----- -- --- ---- -- --- ---- -- ------ ------<br>--- ----- -- ----,59061.89999985695,59061.39999985695,58531.535,58542.199999809265,58548.2,59064.865,,15,close
screen,html.Screen,0_2_0_1_16,2021-11-19T14:51:18.256Z,,,,,,,,,,,,,,,,53,,,,,,,,,,,,,,468.3349998092672,,response,,,99,,,,,,Space,keypress(Space),,,,,---- -- ----- -- ------ - ------- --- ----------<br>------------- ------ ------ ---- ---- ------- ----- to ----<br>-------- ------- -- ---------- --- - --- ----- ----- ----<br>---- --- --- ----- --- ---- ---- ------- ----- ---- -------<br>--- --- -- ----- -- --- ---- -- --- ---- -- ------ ------<br>--- ----- -- ----,59533.799999952316,59533.199999809265,59048.2,59062.09999990463,59064.865,59548.085,,16,to
screen,html.Screen,0_2_0_1_17,2021-11-19T14:51:18.712Z,,,,,,,,,,,,,,,,53,,,,,,,,,,,,,,441.114999809266,,response,,,99,,,,,,Space,keypress(Space),,,,,---- -- ----- -- ------ - ------- --- ----------<br>------------- ------ ------ ---- ---- ------- ----- -- your<br>-------- ------- -- ---------- --- - --- ----- ----- ----<br>---- --- --- ----- --- ---- ---- ------- ----- ---- -------<br>--- --- -- ----- -- --- ---- -- --- ---- -- ------ ------<br>--- ----- -- ----,59989.89999985695,59989.199999809265,59531.421,59534,59548.085,59998.122,,17,your
screen,html.Screen,0_2_0_1_18,2021-11-19T14:51:19.307Z,,,,,,,,,,,,,,,,53,,,,,,,,,,,,,,583.0779998092621,,response,,,99,,,,,,Space,keypress(Space),,,,,---- -- ----- -- ------ - ------- --- ----------<br>------------- ------ ------ ---- ---- ------- ----- -- ----<br>romantic ------- -- ---------- --- - --- ----- ----- ----<br>---- --- --- ----- --- ---- ---- ------- ----- ---- -------<br>--- --- -- ----- -- --- ---- -- --- ---- -- ------ ------<br>--- ----- -- ----,60581.89999985695,60581.199999809265,59981.457,59990.09999990463,59998.122,60598.067,,18,romantic
screen,html.Screen,0_2_0_1_19,2021-11-19T14:51:19.843Z,,,,,,,,,,,,,,,,53,,,,,,,,,,,,,,519.1329998092624,,response,,,99,,,,,,Space,keypress(Space),,,,,---- -- ----- -- ------ - ------- --- ----------<br>------------- ------ ------ ---- ---- ------- ----- -- ----<br>-------- partner -- ---------- --- - --- ----- ----- ----<br>---- --- --- ----- --- ---- ---- ------- ----- ---- -------<br>--- --- -- ----- -- --- ---- -- --- ---- -- ------ ------<br>--- ----- -- ----,61118,61117.199999809265,60581.402,60582,60598.067,61131.364,,19,partner
screen,html.Screen,0_2_0_1_20,2021-11-19T14:51:20.331Z,,,,,,,,,,,,,,,,53,,,,,,,,,,,,,,473.83599980926374,,response,,,99,,,,,,Space,keypress(Space),,,,,---- -- ----- -- ------ - ------- --- ----------<br>------------- ------ ------ ---- ---- ------- ----- -- ----<br>-------- ------- is ---------- --- - --- ----- ----- ----<br>---- --- --- ----- --- ---- ---- ------- ----- ---- -------<br>--- --- -- ----- -- --- ---- -- --- ---- -- ------ ------<br>--- ----- -- ----,61605.699999809265,61605.199999809265,61114.699,61118.09999990463,61131.364,61614.689,,20,is
screen,html.Screen,0_2_0_1_21,2021-11-19T14:51:21.275Z,,,,,,,,,,,,,,,,53,,,,,,,,,,,,,,934.4109999046341,,response,,,99,,,,,,Space,keypress(Space),,,,,---- -- ----- -- ------ - ------- --- ----------<br>------------- ------ ------ ---- ---- ------- ----- -- ----<br>-------- ------- -- paramount. --- - --- ----- ----- ----<br>---- --- --- ----- --- ---- ---- ------- ----- ---- -------<br>--- --- -- ----- -- --- ---- -- --- ---- -- ------ ------<br>--- ----- -- ----,62549.699999809265,62549.09999990463,61598.024,61605.89999985695,61614.689,62564.694,,21,paramount.
screen,html.Screen,0_2_0_1_22,2021-11-19T14:51:21.899Z,,,,,,,,,,,,,,,,53,,,,,,,,,,,,,,608.4059999046294,,response,,,99,,,,,,Space,keypress(Space),,,,,---- -- ----- -- ------ - ------- --- ----------<br>------------- ------ ------ ---- ---- ------- ----- -- ----<br>-------- ------- -- ---------- But - --- ----- ----- ----<br>---- --- --- ----- --- ---- ---- ------- ----- ---- -------<br>--- --- -- ----- -- --- ---- -- --- ---- -- ------ ------<br>--- ----- -- ----,63173.699999809265,63173.09999990463,62548.028,62550,62564.694,63181.167,,22,But
screen,html.Screen,0_2_0_1_23,2021-11-19T14:51:22.411Z,,,,,,,,,,,,,,,,53,,,,,,,,,,,,,,503.7329998569476,,response,,,99,,,,,,Space,keypress(Space),,,,,---- -- ----- -- ------ - ------- --- ----------<br>------------- ------ ------ ---- ---- ------- ----- -- ----<br>-------- ------- -- ---------- --- a --- ----- ----- ----<br>---- --- --- ----- --- ---- ---- ------- ----- ---- -------<br>--- --- -- ----- -- --- ---- -- --- ---- -- ------ ------<br>--- ----- -- ----,63685.59999990463,63684.89999985695,63164.503,63173.89999985695,63181.167,63697.964,,23,a
screen,html.Screen,0_2_0_1_24,2021-11-19T14:51:22.915Z,,,,,,,,,,,,,,,,53,,,,,,,,,,,,,,491.03600000000006,,response,,,99,,,,,,Space,keypress(Space),,,,,---- -- ----- -- ------ - ------- --- ----------<br>------------- ------ ------ ---- ---- ------- ----- -- ----<br>-------- ------- -- ---------- --- - new ----- ----- ----<br>---- --- --- ----- --- ---- ---- ------- ----- ---- -------<br>--- --- -- ----- -- --- ---- -- --- ---- -- ------ ------<br>--- ----- -- ----,64189.59999990463,64189,63681.298,63685.699999809265,63697.964,64197.861,,24,new
screen,html.Screen,0_2_0_1_25,2021-11-19T14:51:23.395Z,,,,,,,,,,,,,,,,53,,,,,,,,,,,,,,471.0389998569517,,response,,,99,,,,,,Space,keypress(Space),,,,,---- -- ----- -- ------ - ------- --- ----------<br>------------- ------ ------ ---- ---- ------- ----- -- ----<br>-------- ------- -- ---------- --- - --- study ----- ----<br>---- --- --- ----- --- ---- ---- ------- ----- ---- -------<br>--- --- -- ----- -- --- ---- -- --- ---- -- ------ ------<br>--- ----- -- ----,64669.5,64668.89999985695,64181.196,64189.699999809265,64197.861,64681.189,,25,study
screen,html.Screen,0_2_0_1_26,2021-11-19T14:51:23.907Z,,,,,,,,,,,,,,,,53,,,,,,,,,,,,,,499.8110000000015,,response,,,99,,,,,,Space,keypress(Space),,,,,---- -- ----- -- ------ - ------- --- ----------<br>------------- ------ ------ ---- ---- ------- ----- -- ----<br>-------- ------- -- ---------- --- - --- ----- finds ----<br>---- --- --- ----- --- ---- ---- ------- ----- ---- -------<br>--- --- -- ----- -- --- ---- -- --- ---- -- ------ ------<br>--- ----- -- ----,65181.59999990463,65181,64664.524,64669.699999809265,64681.189,65197.825,,26,finds
screen,html.Screen,0_2_0_1_27,2021-11-19T14:51:24.442Z,,,,,,,,,,,,,,,,53,,,,,,,,,,,,,,519.0749998569518,,response,,,99,,,,,,Space,keypress(Space),,,,,---- -- ----- -- ------ - ------- --- ----------<br>------------- ------ ------ ---- ---- ------- ----- -- ----<br>-------- ------- -- ---------- --- - --- ----- ----- that<br>---- --- --- ----- --- ---- ---- ------- ----- ---- -------<br>--- --- -- ----- -- --- ---- -- --- ---- -- ------ ------<br>--- ----- -- ----,65717.39999985695,65716.89999985695,65181.16,65181.699999809265,65197.825,65731.109,,27,that
screen,html.Screen,0_2_0_1_28,2021-11-19T14:51:24.954Z,,,,,,,,,,,,,,,,53,,,,,,,,,,,,,,497.7909998569521,,response,,,99,,,,,,Space,keypress(Space),,,,,---- -- ----- -- ------ - ------- --- ----------<br>------------- ------ ------ ---- ---- ------- ----- -- ----<br>-------- ------- -- ---------- --- - --- ----- ----- ----<br>it's --- --- ----- --- ---- ---- ------- ----- ---- -------<br>--- --- -- ----- -- --- ---- -- --- ---- -- ------ ------<br>--- ----- -- ----,66229.39999985695,66228.89999985695,65714.444,65717.5,65731.109,66231.093,,28,it's
screen,html.Screen,0_2_0_1_29,2021-11-19T14:51:25.418Z,,,,,,,,,,,,,,,,53,,,,,,,,,,,,,,461.7069999523228,,response,,,99,,,,,,Space,keypress(Space),,,,,---- -- ----- -- ------ - ------- --- ----------<br>------------- ------ ------ ---- ---- ------- ----- -- ----<br>-------- ------- -- ---------- --- - --- ----- ----- ----<br>---- not --- ----- --- ---- ---- ------- ----- ---- -------<br>--- --- -- ----- -- --- ---- -- --- ---- -- ------ ------<br>--- ----- -- ----,66693.39999985695,66692.79999995232,66214.428,66229.59999990463,66231.093,66697.722,,29,not
screen,html.Screen,0_2_0_1_30,2021-11-19T14:51:25.970Z,,,,,,,,,,,,,,,,53,,,,,,,,,,,,,,547.077999952322,,response,,,99,,,,,,Space,keypress(Space),,,,,---- -- ----- -- ------ - ------- --- ----------<br>------------- ------ ------ ---- ---- ------- ----- -- ----<br>-------- ------- -- ---------- --- - --- ----- ----- ----<br>---- --- how ----- --- ---- ---- ------- ----- ---- -------<br>--- --- -- ----- -- --- ---- -- --- ---- -- ------ ------<br>--- ----- -- ----,67245.39999985695,67244.79999995232,66681.057,66693.5,66697.722,67247.618,,30,how
screen,html.Screen,0_2_0_1_31,2021-11-19T14:51:26.491Z,,,,,,,,,,,,,,,,53,,,,,,,,,,,,,,517.2819998569466,,response,,,99,,,,,,Space,keypress(Space),,,,,---- -- ----- -- ------ - ------- --- ----------<br>------------- ------ ------ ---- ---- ------- ----- -- ----<br>-------- ------- -- ---------- --- - --- ----- ----- ----<br>---- --- --- close --- ---- ---- ------- ----- ---- -------<br>--- --- -- ----- -- --- ---- -- --- ---- -- ------ ------<br>--- ----- -- ----,67765.39999985695,67764.89999985695,67230.954,67245.59999990463,67247.618,67781.019,,31,close
screen,html.Screen,0_2_0_1_32,2021-11-19T14:51:27.307Z,,,,,,,,,,,,,,,,53,,,,,,,,,,,,,,799.6809998092649,,response,,,99,,,,,,Space,keypress(Space),,,,,---- -- ----- -- ------ - ------- --- ----------<br>------------- ------ ------ ---- ---- ------- ----- -- ----<br>-------- ------- -- ---------- --- - --- ----- ----- ----<br>---- --- --- ----- you ---- ---- ------- ----- ---- -------<br>--- --- -- ----- -- --- ---- -- --- ---- -- ------ ------<br>--- ----- -- ----,68581.5,68580.69999980927,67764.353,67765.59999990463,67781.019,68597.568,,32,you
screen,html.Screen,0_2_0_1_33,2021-11-19T14:51:27.930Z,,,,,,,,,,,,,,,,53,,,,,,,,,,,,,,607.1319998092658,,response,,,99,,,,,,Space,keypress(Space),,,,,---- -- ----- -- ------ - ------- --- ----------<br>------------- ------ ------ ---- ---- ------- ----- -- ----<br>-------- ------- -- ---------- --- - --- ----- ----- ----<br>---- --- --- ----- --- feel ---- ------- ----- ---- -------<br>--- --- -- ----- -- --- ---- -- --- ---- -- ------ ------<br>--- ----- -- ----,69205.5,69204.69999980927,68580.903,68581.59999990463,68597.568,69214.179,,33,feel
screen,html.Screen,0_2_0_1_34,2021-11-19T14:51:28.426Z,,,,,,,,,,,,,,,,53,,,,,,,,,,,,,,486.3209999999963,,response,,,99,,,,,,Space,keypress(Space),,,,,---- -- ----- -- ------ - ------- --- ----------<br>------------- ------ ------ ---- ---- ------- ----- -- ----<br>-------- ------- -- ---------- --- - --- ----- ----- ----<br>---- --- --- ----- --- ---- that ------- ----- ---- -------<br>--- --- -- ----- -- --- ---- -- --- ---- -- ------ ------<br>--- ----- -- ----,69701.09999990463,69700.5,69197.514,69205.59999990463,69214.179,69714.254,,34,that
screen,html.Screen,0_2_0_1_35,2021-11-19T14:51:28.970Z,,,,,,,,,,,,,,,,53,,,,,,,,,,,,,,530.3459999046318,,response,,,99,,,,,,Space,keypress(Space),,,,,---- -- ----- -- ------ - ------- --- ----------<br>------------- ------ ------ ---- ---- ------- ----- -- ----<br>-------- ------- -- ---------- --- - --- ----- ----- ----<br>---- --- --- ----- --- ---- ---- matters ----- ---- -------<br>--- --- -- ----- -- --- ---- -- --- ---- -- ------ ------<br>--- ----- -- ----,70245.29999995232,70244.59999990463,69697.588,69701.29999995232,69714.254,70247.432,,35,matters
screen,html.Screen,0_2_0_1_36,2021-11-19T14:51:29.658Z,,,,,,,,,,,,,,,,53,,,,,,,,,,,,,,685.2679998092644,,response,,,99,,,,,,Space,keypress(Space),,,,,"---- -- ----- -- ------ - ------- --- ----------<br>------------- ------ ------ ---- ---- ------- ----- -- ----<br>-------- ------- -- ---------- --- - --- ----- ----- ----<br>---- --- --- ----- --- ---- ---- ------- most, ---- -------<br>--- --- -- ----- -- --- ---- -- --- ---- -- ------ ------<br>--- ----- -- ----",70933.29999995232,70932.69999980927,70230.768,70245.5,70247.432,70947.432,,36,"most,"
screen,html.Screen,0_2_0_1_37,2021-11-19T14:51:30.226Z,,,,,,,,,,,,,,,,53,,,,,,,,,,,,,,553.0679999999993,,response,,,99,,,,,,Space,keypress(Space),,,,,---- -- ----- -- ------ - ------- --- ----------<br>------------- ------ ------ ---- ---- ------- ----- -- ----<br>-------- ------- -- ---------- --- - --- ----- ----- ----<br>---- --- --- ----- --- ---- ---- ------- ----- it's -------<br>--- --- -- ----- -- --- ---- -- --- ---- -- ------ ------<br>--- ----- -- ----,71501.09999990463,71500.5,70930.767,70933.39999985695,70947.432,71514.087,,37,it's
screen,html.Screen,0_2_0_1_38,2021-11-19T14:51:30.946Z,,,,,,,,,,,,,,,,53,,,,,,,,,,,,,,706.4130000000005,,response,,,99,,,,,,Space,keypress(Space),,,,,---- -- ----- -- ------ - ------- --- ----------<br>------------- ------ ------ ---- ---- ------- ----- -- ----<br>-------- ------- -- ---------- --- - --- ----- ----- ----<br>---- --- --- ----- --- ---- ---- ------- ----- ---- whether<br>--- --- -- ----- -- --- ---- -- --- ---- -- ------ ------<br>--- ----- -- ----,72221.09999990463,72220.5,71497.422,71501.19999980927,71514.087,72230.717,,38,whether
screen,html.Screen,0_2_0_1_39,2021-11-19T14:51:31.658Z,,,,,,,,,,,,,,,,53,,,,,,,,,,,,,,701.7829999999958,,response,,,99,,,,,,Space,keypress(Space),,,,,---- -- ----- -- ------ - ------- --- ----------<br>------------- ------ ------ ---- ---- ------- ----- -- ----<br>-------- ------- -- ---------- --- - --- ----- ----- ----<br>---- --- --- ----- --- ---- ---- ------- ----- ---- -------<br>you --- -- ----- -- --- ---- -- --- ---- -- ------ ------<br>--- ----- -- ----,72933.09999990463,72932.5,72214.052,72221.29999995232,72230.717,72947.191,,39,you
screen,html.Screen,0_2_0_1_40,2021-11-19T14:51:32.202Z,,,,,,,,,,,,,,,,53,,,,,,,,,,,,,,529.1089999523101,,response,,,99,,,,,,Space,keypress(Space),,,,,---- -- ----- -- ------ - ------- --- ----------<br>------------- ------ ------ ---- ---- ------- ----- -- ----<br>-------- ------- -- ---------- --- - --- ----- ----- ----<br>---- --- --- ----- --- ---- ---- ------- ----- ---- -------<br>--- are -- ----- -- --- ---- -- --- ---- -- ------ ------<br>--- ----- -- ----,73477,73476.29999995232,72930.527,72933.19999980927,72947.191,73480.718,,40,are
screen,html.Screen,0_2_0_1_41,2021-11-19T14:51:32.714Z,,,,,,,,,,,,,,,,53,,,,,,,,,,,,,,507.6819998569554,,response,,,99,,,,,,Space,keypress(Space),,,,,---- -- ----- -- ------ - ------- --- ----------<br>------------- ------ ------ ---- ---- ------- ----- -- ----<br>-------- ------- -- ---------- --- - --- ----- ----- ----<br>---- --- --- ----- --- ---- ---- ------- ----- ---- -------<br>--- --- as ----- -- --- ---- -- --- ---- -- ------ ------<br>--- ----- -- ----,73988.89999985695,73988.39999985695,73464.052,73477.09999990463,73480.718,73997.273,,41,as
screen,html.Screen,0_2_0_1_42,2021-11-19T14:51:33.290Z,,,,,,,,,,,,,,,,53,,,,,,,,,,,,,,567.0269999523152,,response,,,99,,,,,,Space,keypress(Space),,,,,---- -- ----- -- ------ - ------- --- ----------<br>------------- ------ ------ ---- ---- ------- ----- -- ----<br>-------- ------- -- ---------- --- - --- ----- ----- ----<br>---- --- --- ----- --- ---- ---- ------- ----- ---- -------<br>--- --- -- close -- --- ---- -- --- ---- -- ------ ------<br>--- ----- -- ----,74564.89999985695,74564.29999995232,73980.608,73989.09999990463,73997.273,74580.584,,42,close
screen,html.Screen,0_2_0_1_43,2021-11-19T14:51:33.730Z,,,,,,,,,,,,,,,,53,,,,,,,,,,,,,,423.8159998569463,,response,,,99,,,,,,Space,keypress(Space),,,,,---- -- ----- -- ------ - ------- --- ----------<br>------------- ------ ------ ---- ---- ------- ----- -- ----<br>-------- ------- -- ---------- --- - --- ----- ----- ----<br>---- --- --- ----- --- ---- ---- ------- ----- ---- -------<br>--- --- -- ----- as --- ---- -- --- ---- -- ------ ------<br>--- ----- -- ----,75004.89999985695,75004.39999985695,74563.919,74565.09999990463,74580.584,75013.88,,43,as
screen,html.Screen,0_2_0_1_44,2021-11-19T14:51:34.194Z,,,,,,,,,,,,,,,,53,,,,,,,,,,,,,,454.3199998092605,,response,,,99,,,,,,Space,keypress(Space),,,,,---- -- ----- -- ------ - ------- --- ----------<br>------------- ------ ------ ---- ---- ------- ----- -- ----<br>-------- ------- -- ---------- --- - --- ----- ----- ----<br>---- --- --- ----- --- ---- ---- ------- ----- ---- -------<br>--- --- -- ----- -- you ---- -- --- ---- -- ------ ------<br>--- ----- -- ----,75468.89999985695,75468.19999980927,74997.215,75005.19999980927,75013.88,75480.518,,44,you
screen,html.Screen,0_2_0_1_45,2021-11-19T14:51:34.650Z,,,,,,,,,,,,,,,,53,,,,,,,,,,,,,,443.7819999523199,,response,,,99,,,,,,Space,keypress(Space),,,,,---- -- ----- -- ------ - ------- --- ----------<br>------------- ------ ------ ---- ---- ------- ----- -- ----<br>-------- ------- -- ---------- --- - --- ----- ----- ----<br>---- --- --- ----- --- ---- ---- ------- ----- ---- -------<br>--- --- -- ----- -- --- want -- --- ---- -- ------ ------<br>--- ----- -- ----,75924.89999985695,75924.29999995232,75463.853,75469,75480.518,75930.486,,45,want
screen,html.Screen,0_2_0_1_46,2021-11-19T14:51:35.090Z,,,,,,,,,,,,,,,,53,,,,,,,,,,,,,,433.7139998092607,,response,,,99,,,,,,Space,keypress(Space),,,,,---- -- ----- -- ------ - ------- --- ----------<br>------------- ------ ------ ---- ---- ------- ----- -- ----<br>-------- ------- -- ---------- --- - --- ----- ----- ----<br>---- --- --- ----- --- ---- ---- ------- ----- ---- -------<br>--- --- -- ----- -- --- ---- to --- ---- -- ------ ------<br>--- ----- -- ----,76364.79999995232,76364.19999980927,75913.821,75925.09999990463,75930.486,76380.454,,46,to
screen,html.Screen,0_2_0_1_47,2021-11-19T14:51:35.554Z,,,,,,,,,,,,,,,,53,,,,,,,,,,,,,,447.74599980926723,,response,,,99,,,,,,Space,keypress(Space),,,,,"---- -- ----- -- ------ - ------- --- ----------<br>------------- ------ ------ ---- ---- ------- ----- -- ----<br>-------- ------- -- ---------- --- - --- ----- ----- ----<br>---- --- --- ----- --- ---- ---- ------- ----- ---- -------<br>--- --- -- ----- -- --- ---- -- be, ---- -- ------ ------<br>--- ----- -- ----",76828.69999980927,76828.19999980927,76363.789,76365,76380.454,76830.372,,47,"be,"
screen,html.Screen,0_2_0_1_48,2021-11-19T14:51:36.018Z,,,,,,,,,,,,,,,,53,,,,,,,,,,,,,,461.72799990462954,,response,,,99,,,,,,Space,keypress(Space),,,,,---- -- ----- -- ------ - ------- --- ----------<br>------------- ------ ------ ---- ---- ------- ----- -- ----<br>-------- ------- -- ---------- --- - --- ----- ----- ----<br>---- --- --- ----- --- ---- ---- ------- ----- ---- -------<br>--- --- -- ----- -- --- ---- -- --- even -- ------ ------<br>--- ----- -- ----,77292.79999995232,77292.09999990463,76813.708,76828.89999985695,76830.372,77297.123,,48,even
screen,html.Screen,0_2_0_1_49,2021-11-19T14:51:36.498Z,,,,,,,,,,,,,,,,53,,,,,,,,,,,,,,475.1769999523094,,response,,,99,,,,,,Space,keypress(Space),,,,,---- -- ----- -- ------ - ------- --- ----------<br>------------- ------ ------ ---- ---- ------- ----- -- ----<br>-------- ------- -- ---------- --- - --- ----- ----- ----<br>---- --- --- ----- --- ---- ---- ------- ----- ---- -------<br>--- --- -- ----- -- --- ---- -- --- ---- if ------ ------<br>--- ----- -- ----,77772.89999985695,77772.29999995232,77280.457,77292.89999985695,77297.123,77780.369,,49,if
screen,html.Screen,0_2_0_1_50,2021-11-19T14:51:36.962Z,,,,,,,,,,,,,,,,53,,,,,,,,,,,,,,455.7309999046265,,response,,,99,,,,,,Space,keypress(Space),,,,,---- -- ----- -- ------ - ------- --- ----------<br>------------- ------ ------ ---- ---- ------- ----- -- ----<br>-------- ------- -- ---------- --- - --- ----- ----- ----<br>---- --- --- ----- --- ---- ---- ------- ----- ---- -------<br>--- --- -- ----- -- --- ---- -- --- ---- -- that's ------<br>--- ----- -- ----,78236.69999980927,78236.09999990463,77763.704,77773.09999990463,77780.369,78246.944,,50,that's
screen,html.Screen,0_2_0_1_51,2021-11-19T14:51:37.410Z,,,,,,,,,,,,,,,,53,,,,,,,,,,,,,,437.05599999999686,,response,,,99,,,,,,Space,keypress(Space),,,,,---- -- ----- -- ------ - ------- --- ----------<br>------------- ------ ------ ---- ---- ------- ----- -- ----<br>-------- ------- -- ---------- --- - --- ----- ----- ----<br>---- --- --- ----- --- ---- ---- ------- ----- ---- -------<br>--- --- -- ----- -- --- ---- -- --- ---- -- ------ really<br>--- ----- -- ----,78684.59999990463,78684,78230.28,78236.89999985695,78246.944,78697.037,,51,really
screen,html.Screen,0_2_0_1_52,2021-11-19T14:51:37.898Z,,,,,,,,,,,,,,,,53,,,,,,,,,,,,,,474.9630000000034,,response,,,99,,,,,,Space,keypress(Space),,,,,---- -- ----- -- ------ - ------- --- ----------<br>------------- ------ ------ ---- ---- ------- ----- -- ----<br>-------- ------- -- ---------- --- - --- ----- ----- ----<br>---- --- --- ----- --- ---- ---- ------- ----- ---- -------<br>--- --- -- ----- -- --- ---- -- --- ---- -- ------ ------<br>not ----- -- ----,79172.69999980927,79172,78680.371,78684.79999995232,78697.037,79180.209,,52,not
screen,html.Screen,0_2_0_1_53,2021-11-19T14:51:38.346Z,,,,,,,,,,,,,,,,53,,,,,,,,,,,,,,439.79099999999744,,response,,,99,,,,,,Space,keypress(Space),,,,,---- -- ----- -- ------ - ------- --- ----------<br>------------- ------ ------ ---- ---- ------- ----- -- ----<br>-------- ------- -- ---------- --- - --- ----- ----- ----<br>---- --- --- ----- --- ---- ---- ------- ----- ---- -------<br>--- --- -- ----- -- --- ---- -- --- ---- -- ------ ------<br>--- close -- ----,79620.69999980927,79620,79163.545,79172.79999995232,79180.209,79630.31,,53,close
screen,html.Screen,0_2_0_1_54,2021-11-19T14:51:38.986Z,,,,,,,,,,,,,,,,53,,,,,,,,,,,,,,629.6900000000023,,response,,,99,,,,,,Space,keypress(Space),,,,,---- -- ----- -- ------ - ------- --- ----------<br>------------- ------ ------ ---- ---- ------- ----- -- ----<br>-------- ------- -- ---------- --- - --- ----- ----- ----<br>---- --- --- ----- --- ---- ---- ------- ----- ---- -------<br>--- --- -- ----- -- --- ---- -- --- ---- -- ------ ------<br>--- ----- at ----,80260.59999990463,80260,79613.644,79620.79999995232,79630.31,80263.547,,54,at
screen,html.Screen,0_2_0_1_55,2021-11-19T14:51:39.490Z,,,,,,,,,,,,,,,,53,,,,,,,,,,,,,,500.3529998569429,,response,,,99,,,,,,Space,keypress(Space),,,,,---- -- ----- -- ------ - ------- --- ----------<br>------------- ------ ------ ---- ---- ------- ----- -- ----<br>-------- ------- -- ---------- --- - --- ----- ----- ----<br>---- --- --- ----- --- ---- ---- ------- ----- ---- -------<br>--- --- -- ----- -- --- ---- -- --- ---- -- ------ ------<br>--- ----- -- all.,80764.5,80763.89999985695,80246.882,80260.89999985695,80263.547,80780.184,,55,all.
Item 99,flow.Loop,0_2_0_1,2021-11-19T14:51:39.492Z,,,,,,,,,,,,,,,,,,,,,,,,,,,,,,31448.493999856946,,completion,,,,D,,,,,,,,,,silence,,80767.39999985695,80763.89999985695,49298.741,49302.699999809265,49315.406,80780.184,,,
Question 1,html.Screen,0_2_0_2,2021-11-19T14:51:43.756Z,,,,,,,,,,,,,,,,,,,,,,,,,,,false,FALSE,,4249.215999856955,,response,,,99,D,,,,,TRUE,click #choice-1,,,,silence,,85030.59999990463,85029.39999985695,80763.519,80767.59999990463,80780.184,85046.504,,,
Question 2,html.Screen,0_2_0_3,2021-11-19T14:51:48.485Z,,,,,,,,,,,,,,,,,,,,,,,,,,,true,TRUE,,4712.195999809264,,response,,,99,D,,,,,TRUE,click #choice-1,,,,silence,,89759.5,89758.69999980927,85029.84,85030.89999985695,85046.504,89763.066,,,
Item 99,flow.Sequence,0_2_0,2021-11-19T14:51:48.485Z,,,,,,,,,,,,,,,,,,,,,,,,,,,,,,50443.69899980927,,completion,,,,,,,,,,,,,,,,89759.79999995232,89758.69999980927,39298.337,39301.5,39315.001,89763.066,,,
Holding screen,html.Screen,0_2_1_0,2021-11-19T14:51:58.472Z,,,,,,,,,,,,,,,,,,,,,,,,,,,,,,9999.244999999995,,timeout,,,,,,,,,,,,,,,,99747,99745.646,89746.398,89760,89763.066,99762.311,,,
screen,html.Screen,0_2_1_1_0,2021-11-19T14:51:59.201Z,,,,,,,,,,,,,,,,54,,,,,,,,,,,,,,712.6889999999985,,response,,,100,,,,,,Space,keypress(Space),,,,,At --- ---- --- ------ ----- ------- ---- -- --- ------- --<br>------- ---------- ------ -- ----- -- ----- -- ---- ------<br>--- ----- --- --- ------ -------- ----- --- ------ ----- --<br>----- ----- ---------- --- --- ------ ------ ---- -- ------<br>------- --- ------ ----- --- ---- ------- -- ---- --- --<br>------- ------,100475.69999980927,100475,99745.646,99747.29999995232,99762.311,100478.945,,0,At
screen,html.Screen,0_2_1_1_1,2021-11-19T14:51:59.736Z,,,,,,,,,,,,,,,,54,,,,,,,,,,,,,,531.7549998092582,,response,,,100,,,,,,Space,keypress(Space),,,,,-- the ---- --- ------ ----- ------- ---- -- --- ------- --<br>------- ---------- ------ -- ----- -- ----- -- ---- ------<br>--- ----- --- --- ------ -------- ----- --- ------ ----- --<br>----- ----- ---------- --- --- ------ ------ ---- -- ------<br>------- --- ------ ----- --- ---- ------- -- ---- --- --<br>------- ------,101011.29999995232,101010.69999980927,100462.28,100475.89999985695,100478.945,101012.288,,1,the
screen,html.Screen,0_2_1_1_2,2021-11-19T14:52:00.344Z,,,,,,,,,,,,,,,,54,,,,,,,,,,,,,,606.3119999046321,,response,,,100,,,,,,Space,keypress(Space),,,,,-- --- time --- ------ ----- ------- ---- -- --- ------- --<br>------- ---------- ------ -- ----- -- ----- -- ---- ------<br>--- ----- --- --- ------ -------- ----- --- ------ ----- --<br>----- ----- ---------- --- --- ------ ------ ---- -- ------<br>------- --- ------ ----- --- ---- ------- -- ---- --- --<br>------- ------,101619,101618.59999990463,100995.623,101011.39999985695,101012.288,101628.926,,2,time
screen,html.Screen,0_2_1_1_3,2021-11-19T14:52:01.016Z,,,,,,,,,,,,,,,,54,,,,,,,,,,,,,,661.7739998092584,,response,,,100,,,,,,Space,keypress(Space),,,,,-- --- ---- the ------ ----- ------- ---- -- --- ------- --<br>------- ---------- ------ -- ----- -- ----- -- ---- ------<br>--- ----- --- --- ------ -------- ----- --- ------ ----- --<br>----- ----- ---------- --- --- ------ ------ ---- -- ------<br>------- --- ------ ----- --- ---- ------- -- ---- --- --<br>------- ------,102291.39999985695,102290.69999980927,101612.261,101619.09999990463,101628.926,102295.532,,3,the
screen,html.Screen,0_2_1_1_4,2021-11-19T14:52:01.656Z,,,,,,,,,,,,,,,,54,,,,,,,,,,,,,,635.067999904626,,response,,,100,,,,,,Space,keypress(Space),,,,,-- --- ---- --- French ----- ------- ---- -- --- ------- --<br>------- ---------- ------ -- ----- -- ----- -- ---- ------<br>--- ----- --- --- ------ -------- ----- --- ------ ----- --<br>----- ----- ---------- --- --- ------ ------ ---- -- ------<br>------- --- ------ ----- --- ---- ------- -- ---- --- --<br>------- ------,102931.19999980927,102930.59999990463,102278.867,102291.59999990463,102295.532,102945.351,,4,French
screen,html.Screen,0_2_1_1_5,2021-11-19T14:52:02.344Z,,,,,,,,,,,,,,,,54,,,,,,,,,,,,,,673.2489999046375,,response,,,100,,,,,,Space,keypress(Space),,,,,-- --- ---- --- ------ crown ------- ---- -- --- ------- --<br>------- ---------- ------ -- ----- -- ----- -- ---- ------<br>--- ----- --- --- ------ -------- ----- --- ------ ----- --<br>----- ----- ---------- --- --- ------ ------ ---- -- ------<br>------- --- ------ ----- --- ---- ------- -- ---- --- --<br>------- ------,103619.29999995232,103618.59999990463,102928.687,102931.39999985695,102945.351,103628.863,,5,crown
screen,html.Screen,0_2_1_1_6,2021-11-19T14:52:02.800Z,,,,,,,,,,,,,,,,54,,,,,,,,,,,,,,445.63700000000244,,response,,,100,,,,,,Space,keypress(Space),,,,,-- --- ---- --- ------ ----- secured ---- -- --- ------- --<br>------- ---------- ------ -- ----- -- ----- -- ---- ------<br>--- ----- --- --- ------ -------- ----- --- ------ ----- --<br>----- ----- ---------- --- --- ------ ------ ---- -- ------<br>------- --- ------ ----- --- ---- ------- -- ---- --- --<br>------- ------,104075.09999990463,104074.5,103612.197,103619.39999985695,103628.863,104078.634,,6,secured
screen,html.Screen,0_2_1_1_7,2021-11-19T14:52:03.408Z,,,,,,,,,,,,,,,,54,,,,,,,,,,,,,,603.9659999046271,,response,,,100,,,,,,Space,keypress(Space),,,,,-- --- ---- --- ------ ----- ------- much -- --- ------- --<br>------- ---------- ------ -- ----- -- ----- -- ---- ------<br>--- ----- --- --- ------ -------- ----- --- ------ ----- --<br>----- ----- ---------- --- --- ------ ------ ---- -- ------<br>------- --- ------ ----- --- ---- ------- -- ---- --- --<br>------- ------,104683.19999980927,104682.59999990463,104061.97,104075.29999995232,104078.634,104695.437,,7,much
screen,html.Screen,0_2_1_1_8,2021-11-19T14:52:04.048Z,,,,,,,,,,,,,,,,54,,,,,,,,,,,,,,627.0629999999946,,response,,,100,,,,,,Space,keypress(Space),,,,,-- --- ---- --- ------ ----- ------- ---- of --- ------- --<br>------- ---------- ------ -- ----- -- ----- -- ---- ------<br>--- ----- --- --- ------ -------- ----- --- ------ ----- --<br>----- ----- ---------- --- --- ------ ------ ---- -- ------<br>------- --- ------ ----- --- ---- ------- -- ---- --- --<br>------- ------,105323.09999990463,105322.5,104678.771,104683.29999995232,104695.437,105328.695,,8,of
screen,html.Screen,0_2_1_1_9,2021-11-19T14:52:04.480Z,,,,,,,,,,,,,,,,54,,,,,,,,,,,,,,425.70499985694187,,response,,,100,,,,,,Space,keypress(Space),,,,,-- --- ---- --- ------ ----- ------- ---- -- its ------- --<br>------- ---------- ------ -- ----- -- ----- -- ---- ------<br>--- ----- --- --- ------ -------- ----- --- ------ ----- --<br>----- ----- ---------- --- --- ------ ------ ---- -- ------<br>------- --- ------ ----- --- ---- ------- -- ---- --- --<br>------- ------,105754.89999985695,105754.39999985695,105312.03,105323.19999980927,105328.695,105761.874,,9,its
screen,html.Screen,0_2_1_1_10,2021-11-19T14:52:05.208Z,,,,,,,,,,,,,,,,54,,,,,,,,,,,,,,720.5259998569527,,response,,,100,,,,,,Space,keypress(Space),,,,,-- --- ---- --- ------ ----- ------- ---- -- --- revenue --<br>------- ---------- ------ -- ----- -- ----- -- ---- ------<br>--- ----- --- --- ------ -------- ----- --- ------ ----- --<br>----- ----- ---------- --- --- ------ ------ ---- -- ------<br>------- --- ------ ----- --- ---- ------- -- ---- --- --<br>------- ------,106483,106482.39999985695,105745.21,105755.09999990463,105761.874,106495.342,,10,revenue
screen,html.Screen,0_2_1_1_11,2021-11-19T14:52:05.640Z,,,,,,,,,,,,,,,,54,,,,,,,,,,,,,,419.05799985694466,,response,,,100,,,,,,Space,keypress(Space),,,,,-- --- ---- --- ------ ----- ------- ---- -- --- ------- by<br>------- ---------- ------ -- ----- -- ----- -- ---- ------<br>--- ----- --- --- ------ -------- ----- --- ------ ----- --<br>----- ----- ---------- --- --- ------ ------ ---- -- ------<br>------- --- ------ ----- --- ---- ------- -- ---- --- --<br>------- ------,106915,106914.39999985695,106478.676,106483.19999980927,106495.342,106928.512,,11,by
screen,html.Screen,0_2_1_1_12,2021-11-19T14:52:06.152Z,,,,,,,,,,,,,,,,54,,,,,,,,,,,,,,497.78799995231384,,response,,,100,,,,,,Space,keypress(Space),,,,,-- --- ---- --- ------ ----- ------- ---- -- --- ------- --<br>issuing ---------- ------ -- ----- -- ----- -- ---- ------<br>--- ----- --- --- ------ -------- ----- --- ------ ----- --<br>----- ----- ---------- --- --- ------ ------ ---- -- ------<br>------- --- ------ ----- --- ---- ------- -- ---- --- --<br>------- ------,107426.89999985695,107426.29999995232,106911.848,106915.09999990463,106928.512,107428.528,,12,issuing
screen,html.Screen,0_2_1_1_13,2021-11-19T14:52:06.736Z,,,,,,,,,,,,,,,,54,,,,,,,,,,,,,,581.7719999523106,,response,,,100,,,,,,Space,keypress(Space),,,,,-- --- ---- --- ------ ----- ------- ---- -- --- ------- --<br>------- government ------ -- ----- -- ----- -- ---- ------<br>--- ----- --- --- ------ -------- ----- --- ------ ----- --<br>----- ----- ---------- --- --- ------ ------ ---- -- ------<br>------- --- ------ ----- --- ---- ------- -- ---- --- --<br>------- ------,108010.89999985695,108010.29999995232,107411.863,107427,107428.528,108011.918,,13,government
screen,html.Screen,0_2_1_1_14,2021-11-19T14:52:07.272Z,,,,,,,,,,,,,,,,54,,,,,,,,,,,,,,534.3819999523112,,response,,,100,,,,,,Space,keypress(Space),,,,,-- --- ---- --- ------ ----- ------- ---- -- --- ------- --<br>------- ---------- bonds. -- ----- -- ----- -- ---- ------<br>--- ----- --- --- ------ -------- ----- --- ------ ----- --<br>----- ----- ---------- --- --- ------ ------ ---- -- ------<br>------- --- ------ ----- --- ---- ------- -- ---- --- --<br>------- ------,108546.79999995232,108546.29999995232,107995.252,108011.09999990463,108011.918,108561.812,,14,bonds.
screen,html.Screen,0_2_1_1_15,2021-11-19T14:52:07.904Z,,,,,,,,,,,,,,,,54,,,,,,,,,,,,,,616.3879998092598,,response,,,100,,,,,,Space,keypress(Space),,,,,-- --- ---- --- ------ ----- ------- ---- -- --- ------- --<br>------- ---------- ------ In ----- -- ----- -- ---- ------<br>--- ----- --- --- ------ -------- ----- --- ------ ----- --<br>----- ----- ---------- --- --- ------ ------ ---- -- ------<br>------- --- ------ ----- --- ---- ------- -- ---- --- --<br>------- ------,109178.79999995232,109178.19999980927,108545.147,108547,108561.812,109195.078,,15,In
screen,html.Screen,0_2_1_1_16,2021-11-19T14:52:09.200Z,,,,,,,,,,,,,,,,54,,,,,,,,,,,,,,1279.121999809271,,response,,,100,,,,,,Space,keypress(Space),,,,,"-- --- ---- --- ------ ----- ------- ---- -- --- ------- --<br>------- ---------- ------ -- 1727, -- ----- -- ---- ------<br>--- ----- --- --- ------ -------- ----- --- ------ ----- --<br>----- ----- ---------- --- --- ------ ------ ---- -- ------<br>------- --- ------ ----- --- ---- ------- -- ---- --- --<br>------- ------",110474.79999995232,110474.19999980927,109178.413,109178.89999985695,109195.078,110478.314,,16,"1727,"
screen,html.Screen,0_2_1_1_17,2021-11-19T14:52:09.776Z,,,,,,,,,,,,,,,,54,,,,,,,,,,,,,,571.9859999523178,,response,,,100,,,,,,Space,keypress(Space),,,,,-- --- ---- --- ------ ----- ------- ---- -- --- ------- --<br>------- ---------- ------ -- ----- in ----- -- ---- ------<br>--- ----- --- --- ------ -------- ----- --- ------ ----- --<br>----- ----- ---------- --- --- ------ ------ ---- -- ------<br>------- --- ------ ----- --- ---- ------- -- ---- --- --<br>------- ------,111050.89999985695,111050.29999995232,110461.649,110475,110478.314,111061.525,,17,in
screen,html.Screen,0_2_1_1_18,2021-11-19T14:52:10.328Z,,,,,,,,,,,,,,,,54,,,,,,,,,,,,,,540.5749999046384,,response,,,100,,,,,,Space,keypress(Space),,,,,-- --- ---- --- ------ ----- ------- ---- -- --- ------- --<br>------- ---------- ------ -- ----- -- order -- ---- ------<br>--- ----- --- --- ------ -------- ----- --- ------ ----- --<br>----- ----- ---------- --- --- ------ ------ ---- -- ------<br>------- --- ------ ----- --- ---- ------- -- ---- --- --<br>------- ------,111602.69999980927,111602.09999990463,111044.861,111051,111061.525,111611.679,,18,order
screen,html.Screen,0_2_1_1_19,2021-11-19T14:52:10.776Z,,,,,,,,,,,,,,,,54,,,,,,,,,,,,,,438.42099990462884,,response,,,100,,,,,,Space,keypress(Space),,,,,-- --- ---- --- ------ ----- ------- ---- -- --- ------- --<br>------- ---------- ------ -- ----- -- ----- to ---- ------<br>--- ----- --- --- ------ -------- ----- --- ------ ----- --<br>----- ----- ---------- --- --- ------ ------ ---- -- ------<br>------- --- ------ ----- --- ---- ------- -- ---- --- --<br>------- ------,112050.5,112050.09999990463,111595.013,111602.79999995232,111611.679,112061.575,,19,to
screen,html.Screen,0_2_1_1_20,2021-11-19T14:52:11.184Z,,,,,,,,,,,,,,,,54,,,,,,,,,,,,,,396.4250000000029,,response,,,100,,,,,,Space,keypress(Space),,,,,-- --- ---- --- ------ ----- ------- ---- -- --- ------- --<br>------- ---------- ------ -- ----- -- ----- -- save ------<br>--- ----- --- --- ------ -------- ----- --- ------ ----- --<br>----- ----- ---------- --- --- ------ ------ ---- -- ------<br>------- --- ------ ----- --- ---- ------- -- ---- --- --<br>------- ------,112458.59999990463,112458,112044.91,112050.79999995232,112061.575,112461.566,,20,save
screen,html.Screen,0_2_1_1_21,2021-11-19T14:52:11.616Z,,,,,,,,,,,,,,,,54,,,,,,,,,,,,,,428.3339998569427,,response,,,100,,,,,,Space,keypress(Space),,,,,"-- --- ---- --- ------ ----- ------- ---- -- --- ------- --<br>------- ---------- ------ -- ----- -- ----- -- ---- money,<br>--- ----- --- --- ------ -------- ----- --- ------ ----- --<br>----- ----- ---------- --- --- ------ ------ ---- -- ------<br>------- --- ------ ----- --- ---- ------- -- ---- --- --<br>------- ------",112890.5,112889.89999985695,112444.901,112458.69999980927,112461.566,112894.925,,21,"money,"
screen,html.Screen,0_2_1_1_22,2021-11-19T14:52:12.096Z,,,,,,,,,,,,,,,,54,,,,,,,,,,,,,,475.0749999999971,,response,,,100,,,,,,Space,keypress(Space),,,,,-- --- ---- --- ------ ----- ------- ---- -- --- ------- --<br>------- ---------- ------ -- ----- -- ----- -- ---- ------<br>the ----- --- --- ------ -------- ----- --- ------ ----- --<br>----- ----- ---------- --- --- ------ ------ ---- -- ------<br>------- --- ------ ----- --- ---- ------- -- ---- --- --<br>------- ------,113370.69999980927,113370,112878.259,112890.69999980927,112894.925,113378.127,,22,the
screen,html.Screen,0_2_1_1_23,2021-11-19T14:52:12.728Z,,,,,,,,,,,,,,,,54,,,,,,,,,,,,,,623.7729998569557,,response,,,100,,,,,,Space,keypress(Space),,,,,-- --- ---- --- ------ ----- ------- ---- -- --- ------- --<br>------- ---------- ------ -- ----- -- ----- -- ---- ------<br>--- state --- --- ------ -------- ----- --- ------ ----- --<br>----- ----- ---------- --- --- ------ ------ ---- -- ------<br>------- --- ------ ----- --- ---- ------- -- ---- --- --<br>------- ------,114002.59999990463,114001.89999985695,113361.463,113370.79999995232,113378.127,114011.473,,23,state
screen,html.Screen,0_2_1_1_24,2021-11-19T14:52:13.184Z,,,,,,,,,,,,,,,,54,,,,,,,,,,,,,,446.4269998569507,,response,,,100,,,,,,Space,keypress(Space),,,,,-- --- ---- --- ------ ----- ------- ---- -- --- ------- --<br>------- ---------- ------ -- ----- -- ----- -- ---- ------<br>--- ----- cut --- ------ -------- ----- --- ------ ----- --<br>----- ----- ---------- --- --- ------ ------ ---- -- ------<br>------- --- ------ ----- --- ---- ------- -- ---- --- --<br>------- ------,114458.5,114457.89999985695,113994.808,114002.69999980927,114011.473,114461.419,,24,cut
screen,html.Screen,0_2_1_1_25,2021-11-19T14:52:13.583Z,,,,,,,,,,,,,,,,54,,,,,,,,,,,,,,396.3809999523219,,response,,,100,,,,,,Space,keypress(Space),,,,,-- --- ---- --- ------ ----- ------- ---- -- --- ------- --<br>------- ---------- ------ -- ----- -- ----- -- ---- ------<br>--- ----- --- the ------ -------- ----- --- ------ ----- --<br>----- ----- ---------- --- --- ------ ------ ---- -- ------<br>------- --- ------ ----- --- ---- ------- -- ---- --- --<br>------- ------,114858.29999995232,114857.79999995232,114444.754,114458.69999980927,114461.419,114861.424,,25,the
screen,html.Screen,0_2_1_1_26,2021-11-19T14:52:13.991Z,,,,,,,,,,,,,,,,54,,,,,,,,,,,,,,404.3759999523172,,response,,,100,,,,,,Space,keypress(Space),,,,,-- --- ---- --- ------ ----- ------- ---- -- --- ------- --<br>------- ---------- ------ -- ----- -- ----- -- ---- ------<br>--- ----- --- --- bonds' -------- ----- --- ------ ----- --<br>----- ----- ---------- --- --- ------ ------ ---- -- ------<br>------- --- ------ ----- --- ---- ------- -- ---- --- --<br>------- ------,115266.39999985695,115265.79999995232,114844.759,114858.5,114861.424,115278.058,,26,bonds'
screen,html.Screen,0_2_1_1_27,2021-11-19T14:52:14.471Z,,,,,,,,,,,,,,,,54,,,,,,,,,,,,,,467.74199995231174,,response,,,100,,,,,,Space,keypress(Space),,,,,-- --- ---- --- ------ ----- ------- ---- -- --- ------- --<br>------- ---------- ------ -- ----- -- ----- -- ---- ------<br>--- ----- --- --- ------ interest ----- --- ------ ----- --<br>----- ----- ---------- --- --- ------ ------ ---- -- ------<br>------- --- ------ ----- --- ---- ------- -- ---- --- --<br>------- ------,115746.29999995232,115745.79999995232,115261.393,115266.5,115278.058,115761.367,,27,interest
screen,html.Screen,0_2_1_1_28,2021-11-19T14:52:14.975Z,,,,,,,,,,,,,,,,54,,,,,,,,,,,,,,488.4329999523179,,response,,,100,,,,,,Space,keypress(Space),,,,,-- --- ---- --- ------ ----- ------- ---- -- --- ------- --<br>------- ---------- ------ -- ----- -- ----- -- ---- ------<br>--- ----- --- --- ------ -------- rate. --- ------ ----- --<br>----- ----- ---------- --- --- ------ ------ ---- -- ------<br>------- --- ------ ----- --- ---- ------- -- ---- --- --<br>------- ------,116250.39999985695,116249.79999995232,115744.702,115746.5,115761.367,116261.419,,28,rate.
screen,html.Screen,0_2_1_1_29,2021-11-19T14:52:15.479Z,,,,,,,,,,,,,,,,54,,,,,,,,,,,,,,492.2809998092707,,response,,,100,,,,,,Space,keypress(Space),,,,,-- --- ---- --- ------ ----- ------- ---- -- --- ------- --<br>------- ---------- ------ -- ----- -- ----- -- ---- ------<br>--- ----- --- --- ------ -------- ----- The ------ ----- --<br>----- ----- ---------- --- --- ------ ------ ---- -- ------<br>------- --- ------ ----- --- ---- ------- -- ---- --- --<br>------- ------,116754.29999995232,116753.69999980927,116244.753,116250.59999990463,116261.419,116761.238,,29,The
screen,html.Screen,0_2_1_1_30,2021-11-19T14:52:16.184Z,,,,,,,,,,,,,,,,54,,,,,,,,,,,,,,696.5619999523187,,response,,,100,,,,,,Space,keypress(Space),,,,,-- --- ---- --- ------ ----- ------- ---- -- --- ------- --<br>------- ---------- ------ -- ----- -- ----- -- ---- ------<br>--- ----- --- --- ------ -------- ----- --- market ----- --<br>----- ----- ---------- --- --- ------ ------ ---- -- ------<br>------- --- ------ ----- --- ---- ------- -- ---- --- --<br>------- ------,117458.5,117457.79999995232,116744.574,116754.59999990463,116761.238,117461.245,,30,market
screen,html.Screen,0_2_1_1_31,2021-11-19T14:52:16.607Z,,,,,,,,,,,,,,,,54,,,,,,,,,,,,,,420.3549999046372,,response,,,100,,,,,,Space,keypress(Space),,,,,-- --- ---- --- ------ ----- ------- ---- -- --- ------- --<br>------- ---------- ------ -- ----- -- ----- -- ---- ------<br>--- ----- --- --- ------ -------- ----- --- ------ value --<br>----- ----- ---------- --- --- ------ ------ ---- -- ------<br>------- --- ------ ----- --- ---- ------- -- ---- --- --<br>------- ------,117882.19999980927,117881.59999990463,117444.58,117458.79999995232,117461.245,117894.629,,31,value
screen,html.Screen,0_2_1_1_32,2021-11-19T14:52:16.991Z,,,,,,,,,,,,,,,,54,,,,,,,,,,,,,,370.97099990463175,,response,,,100,,,,,,Space,keypress(Space),,,,,-- --- ---- --- ------ ----- ------- ---- -- --- ------- --<br>------- ---------- ------ -- ----- -- ----- -- ---- ------<br>--- ----- --- --- ------ -------- ----- --- ------ ----- of<br>----- ----- ---------- --- --- ------ ------ ---- -- ------<br>------- --- ------ ----- --- ---- ------- -- ---- --- --<br>------- ------,118266.29999995232,118265.59999990463,117877.963,117882.5,117894.629,118277.905,,32,of
screen,html.Screen,0_2_1_1_33,2021-11-19T14:52:17.391Z,,,,,,,,,,,,,,,,54,,,,,,,,,,,,,,387.69499990463373,,response,,,100,,,,,,Space,keypress(Space),,,,,-- --- ---- --- ------ ----- ------- ---- -- --- ------- --<br>------- ---------- ------ -- ----- -- ----- -- ---- ------<br>--- ----- --- --- ------ -------- ----- --- ------ ----- --<br>these ----- ---------- --- --- ------ ------ ---- -- ------<br>------- --- ------ ----- --- ---- ------- -- ---- --- --<br>------- ------,118666.19999980927,118665.59999990463,118261.24,118266.39999985695,118277.905,118677.872,,33,these
screen,html.Screen,0_2_1_1_34,2021-11-19T14:52:17.887Z,,,,,,,,,,,,,,,,54,,,,,,,,,,,,,,483.72799990462954,,response,,,100,,,,,,Space,keypress(Space),,,,,-- --- ---- --- ------ ----- ------- ---- -- --- ------- --<br>------- ---------- ------ -- ----- -- ----- -- ---- ------<br>--- ----- --- --- ------ -------- ----- --- ------ ----- --<br>----- bonds ---------- --- --- ------ ------ ---- -- ------<br>------- --- ------ ----- --- ---- ------- -- ---- --- --<br>------- ------,119162.09999990463,119161.59999990463,118661.207,118666.29999995232,118677.872,119177.85,,34,bonds
screen,html.Screen,0_2_1_1_35,2021-11-19T14:52:18.639Z,,,,,,,,,,,,,,,,54,,,,,,,,,,,,,,735.7499999046267,,response,,,100,,,,,,Space,keypress(Space),,,,,"-- --- ---- --- ------ ----- ------- ---- -- --- ------- --<br>------- ---------- ------ -- ----- -- ----- -- ---- ------<br>--- ----- --- --- ------ -------- ----- --- ------ ----- --<br>----- ----- plummeted, --- --- ------ ------ ---- -- ------<br>------- --- ------ ----- --- ---- ------- -- ---- --- --<br>------- ------",119914.29999995232,119913.59999990463,119161.185,119162.29999995232,119177.85,119927.797,,35,"plummeted,"
screen,html.Screen,0_2_1_1_36,2021-11-19T14:52:19.119Z,,,,,,,,,,,,,,,,54,,,,,,,,,,,,,,465.70299999999406,,response,,,100,,,,,,Space,keypress(Space),,,,,-- --- ---- --- ------ ----- ------- ---- -- --- ------- --<br>------- ---------- ------ -- ----- -- ----- -- ---- ------<br>--- ----- --- --- ------ -------- ----- --- ------ ----- --<br>----- ----- ---------- and --- ------ ------ ---- -- ------<br>------- --- ------ ----- --- ---- ------- -- ---- --- --<br>------- ------,120394.19999980927,120393.5,119911.132,119914.59999990463,119927.797,120411.096,,36,and
screen,html.Screen,0_2_1_1_37,2021-11-19T14:52:19.530Z,,,,,,,,,,,,,,,,54,,,,,,,,,,,,,,390.403999999995,,response,,,100,,,,,,Space,keypress(Space),,,,,-- --- ---- --- ------ ----- ------- ---- -- --- ------- --<br>------- ---------- ------ -- ----- -- ----- -- ---- ------<br>--- ----- --- --- ------ -------- ----- --- ------ ----- --<br>----- ----- ---------- --- the ------ ------ ---- -- ------<br>------- --- ------ ----- --- ---- ------- -- ---- --- --<br>------- ------,120802.09999990463,120801.5,120394.431,120394.39999985695,120411.096,120811.069,,37,the
screen,html.Screen,0_2_1_1_38,2021-11-19T14:52:20.019Z,,,,,,,,,,,,,,,,54,,,,,,,,,,,,,,478.630999809262,,response,,,100,,,,,,Space,keypress(Space),,,,,-- --- ---- --- ------ ----- ------- ---- -- --- ------- --<br>------- ---------- ------ -- ----- -- ----- -- ---- ------<br>--- ----- --- --- ------ -------- ----- --- ------ ----- --<br>----- ----- ---------- --- --- market ------ ---- -- ------<br>------- --- ------ ----- --- ---- ------- -- ---- --- --<br>------- ------,121290.39999985695,121289.69999980927,120794.404,120802.29999995232,120811.069,121294.381,,38,market
screen,html.Screen,0_2_1_1_39,2021-11-19T14:52:20.538Z,,,,,,,,,,,,,,,,54,,,,,,,,,,,,,,515.0189998569549,,response,,,100,,,,,,Space,keypress(Space),,,,,-- --- ---- --- ------ ----- ------- ---- -- --- ------- --<br>------- ---------- ------ -- ----- -- ----- -- ---- ------<br>--- ----- --- --- ------ -------- ----- --- ------ ----- --<br>----- ----- ---------- --- --- ------ became ---- -- ------<br>------- --- ------ ----- --- ---- ------- -- ---- --- --<br>------- ------,121810,121809.39999985695,121277.716,121290.59999990463,121294.381,121811.066,,39,became
screen,html.Screen,0_2_1_1_40,2021-11-19T14:52:20.914Z,,,,,,,,,,,,,,,,54,,,,,,,,,,,,,,374.3339998569427,,response,,,100,,,,,,Space,keypress(Space),,,,,-- --- ---- --- ------ ----- ------- ---- -- --- ------- --<br>------- ---------- ------ -- ----- -- ----- -- ---- ------<br>--- ----- --- --- ------ -------- ----- --- ------ ----- --<br>----- ----- ---------- --- --- ------ ------ wary -- ------<br>------- --- ------ ----- --- ---- ------- -- ---- --- --<br>------- ------,122185.89999985695,122185.39999985695,121794.4,121810.19999980927,121811.066,122194.231,,40,wary
screen,html.Screen,0_2_1_1_41,2021-11-19T14:52:21.522Z,,,,,,,,,,,,,,,,54,,,,,,,,,,,,,,599.0689999523165,,response,,,100,,,,,,Space,keypress(Space),,,,,-- --- ---- --- ------ ----- ------- ---- -- --- ------- --<br>------- ---------- ------ -- ----- -- ----- -- ---- ------<br>--- ----- --- --- ------ -------- ----- --- ------ ----- --<br>----- ----- ---------- --- --- ------ ------ ---- of ------<br>------- --- ------ ----- --- ---- ------- -- ---- --- --<br>------- ------,122793.89999985695,122793.29999995232,122177.567,122186.09999990463,122194.231,122810.907,,41,of
screen,html.Screen,0_2_1_1_42,2021-11-19T14:52:21.986Z,,,,,,,,,,,,,,,,54,,,,,,,,,,,,,,446.39299995230976,,response,,,100,,,,,,Space,keypress(Space),,,,,-- --- ---- --- ------ ----- ------- ---- -- --- ------- --<br>------- ---------- ------ -- ----- -- ----- -- ---- ------<br>--- ----- --- --- ------ -------- ----- --- ------ ----- --<br>----- ----- ---------- --- --- ------ ------ ---- -- French<br>------- --- ------ ----- --- ---- ------- -- ---- --- --<br>------- ------,123257.89999985695,123257.29999995232,122794.242,122794.09999990463,122810.907,123260.896,,42,French
screen,html.Screen,0_2_1_1_43,2021-11-19T14:52:22.546Z,,,,,,,,,,,,,,,,54,,,,,,,,,,,,,,556.4039999523229,,response,,,100,,,,,,Space,keypress(Space),,,,,-- --- ---- --- ------ ----- ------- ---- -- --- ------- --<br>------- ---------- ------ -- ----- -- ----- -- ---- ------<br>--- ----- --- --- ------ -------- ----- --- ------ ----- --<br>----- ----- ---------- --- --- ------ ------ ---- -- ------<br>credit. --- ------ ----- --- ---- ------- -- ---- --- --<br>------- ------,123817.79999995232,123817.29999995232,123244.231,123258,123260.896,123827.535,,43,credit.
screen,html.Screen,0_2_1_1_44,2021-11-19T14:52:23.050Z,,,,,,,,,,,,,,,,54,,,,,,,,,,,,,,493.66499980926164,,response,,,100,,,,,,Space,keypress(Space),,,,,-- --- ---- --- ------ ----- ------- ---- -- --- ------- --<br>------- ---------- ------ -- ----- -- ----- -- ---- ------<br>--- ----- --- --- ------ -------- ----- --- ------ ----- --<br>----- ----- ---------- --- --- ------ ------ ---- -- ------<br>------- The ------ ----- --- ---- ------- -- ---- --- --<br>------- ------,124321.89999985695,124321.19999980927,123810.87,123818,123827.535,124327.585,,44,The
screen,html.Screen,0_2_1_1_45,2021-11-19T14:52:23.394Z,,,,,,,,,,,,,,,,54,,,,,,,,,,,,,,337.61499980925873,,response,,,100,,,,,,Space,keypress(Space),,,,,-- --- ---- --- ------ ----- ------- ---- -- --- ------- --<br>------- ---------- ------ -- ----- -- ----- -- ---- ------<br>--- ----- --- --- ------ -------- ----- --- ------ ----- --<br>----- ----- ---------- --- --- ------ ------ ---- -- ------<br>------- --- French ----- --- ---- ------- -- ---- --- --<br>------- ------,124665.79999995232,124665.19999980927,124310.919,124322,124327.585,124677.492,,45,French
screen,html.Screen,0_2_1_1_46,2021-11-19T14:52:23.810Z,,,,,,,,,,,,,,,,54,,,,,,,,,,,,,,403.8079999523179,,response,,,100,,,,,,Space,keypress(Space),,,,,-- --- ---- --- ------ ----- ------- ---- -- --- ------- --<br>------- ---------- ------ -- ----- -- ----- -- ---- ------<br>--- ----- --- --- ------ -------- ----- --- ------ ----- --<br>----- ----- ---------- --- --- ------ ------ ---- -- ------<br>------- --- ------ state --- ---- ------- -- ---- --- --<br>------- ------,125081.79999995232,125081.29999995232,124660.827,124665.89999985695,124677.492,125094.139,,46,state
screen,html.Screen,0_2_1_1_47,2021-11-19T14:52:24.250Z,,,,,,,,,,,,,,,,54,,,,,,,,,,,,,,427.06099980926956,,response,,,100,,,,,,Space,keypress(Space),,,,,-- --- ---- --- ------ ----- ------- ---- -- --- ------- --<br>------- ---------- ------ -- ----- -- ----- -- ---- ------<br>--- ----- --- --- ------ -------- ----- --- ------ ----- --<br>----- ----- ---------- --- --- ------ ------ ---- -- ------<br>------- --- ------ ----- was ---- ------- -- ---- --- --<br>------- ------,125521.79999995232,125521.19999980927,125077.474,125082,125094.139,125527.454,,47,was
screen,html.Screen,0_2_1_1_48,2021-11-19T14:52:24.682Z,,,,,,,,,,,,,,,,54,,,,,,,,,,,,,,425.8459999523184,,response,,,100,,,,,,Space,keypress(Space),,,,,-- --- ---- --- ------ ----- ------- ---- -- --- ------- --<br>------- ---------- ------ -- ----- -- ----- -- ---- ------<br>--- ----- --- --- ------ -------- ----- --- ------ ----- --<br>----- ----- ---------- --- --- ------ ------ ---- -- ------<br>------- --- ------ ----- --- left ------- -- ---- --- --<br>------- ------,125953.79999995232,125953.29999995232,125510.789,125522,125527.454,125960.683,,48,left
screen,html.Screen,0_2_1_1_49,2021-11-19T14:52:25.130Z,,,,,,,,,,,,,,,,54,,,,,,,,,,,,,,440.416999904628,,response,,,100,,,,,,Space,keypress(Space),,,,,-- --- ---- --- ------ ----- ------- ---- -- --- ------- --<br>------- ---------- ------ -- ----- -- ----- -- ---- ------<br>--- ----- --- --- ------ -------- ----- --- ------ ----- --<br>----- ----- ---------- --- --- ------ ------ ---- -- ------<br>------- --- ------ ----- --- ---- without -- ---- --- --<br>------- ------,126401.69999980927,126401.09999990463,125944.019,125954,125960.683,126410.771,,49,without
screen,html.Screen,0_2_1_1_50,2021-11-19T14:52:25.586Z,,,,,,,,,,,,,,,,54,,,,,,,,,,,,,,446.3289999046392,,response,,,100,,,,,,Space,keypress(Space),,,,,-- --- ---- --- ------ ----- ------- ---- -- --- ------- --<br>------- ---------- ------ -- ----- -- ----- -- ---- ------<br>--- ----- --- --- ------ -------- ----- --- ------ ----- --<br>----- ----- ---------- --- --- ------ ------ ---- -- ------<br>------- --- ------ ----- --- ---- ------- an ---- --- --<br>------- ------,126857.69999980927,126857.09999990463,126394.105,126401.89999985695,126410.771,126860.636,,50,an
screen,html.Screen,0_2_1_1_51,2021-11-19T14:52:26.002Z,,,,,,,,,,,,,,,,54,,,,,,,,,,,,,,412.3640000000014,,response,,,100,,,,,,Space,keypress(Space),,,,,-- --- ---- --- ------ ----- ------- ---- -- --- ------- --<br>------- ---------- ------ -- ----- -- ----- -- ---- ------<br>--- ----- --- --- ------ -------- ----- --- ------ ----- --<br>----- ----- ---------- --- --- ------ ------ ---- -- ------<br>------- --- ------ ----- --- ---- ------- -- easy --- --<br>------- ------,127273.69999980927,127273,126843.972,126857.89999985695,126860.636,127277.405,,51,easy
screen,html.Screen,0_2_1_1_52,2021-11-19T14:52:26.434Z,,,,,,,,,,,,,,,,54,,,,,,,,,,,,,,427.59500000000116,,response,,,100,,,,,,Space,keypress(Space),,,,,-- --- ---- --- ------ ----- ------- ---- -- --- ------- --<br>------- ---------- ------ -- ----- -- ----- -- ---- ------<br>--- ----- --- --- ------ -------- ----- --- ------ ----- --<br>----- ----- ---------- --- --- ------ ------ ---- -- ------<br>------- --- ------ ----- --- ---- ------- -- ---- way --<br>------- ------,127705.59999990463,127705,127260.739,127273.89999985695,127277.405,127710.599,,52,way
screen,html.Screen,0_2_1_1_53,2021-11-19T14:52:26.898Z,,,,,,,,,,,,,,,,54,,,,,,,,,,,,,,458.5009999046306,,response,,,100,,,,,,Space,keypress(Space),,,,,-- --- ---- --- ------ ----- ------- ---- -- --- ------- --<br>------- ---------- ------ -- ----- -- ----- -- ---- ------<br>--- ----- --- --- ------ -------- ----- --- ------ ----- --<br>----- ----- ---------- --- --- ------ ------ ---- -- ------<br>------- --- ------ ----- --- ---- ------- -- ---- --- of<br>------- ------,128169.69999980927,128169.09999990463,127693.935,127705.69999980927,127710.599,128177.288,,53,of
screen,html.Screen,0_2_1_1_54,2021-11-19T14:52:27.322Z,,,,,,,,,,,,,,,,54,,,,,,,,,,,,,,415.71199999999953,,response,,,100,,,,,,Space,keypress(Space),,,,,-- --- ---- --- ------ ----- ------- ---- -- --- ------- --<br>------- ---------- ------ -- ----- -- ----- -- ---- ------<br>--- ----- --- --- ------ -------- ----- --- ------ ----- --<br>----- ----- ---------- --- --- ------ ------ ---- -- ------<br>------- --- ------ ----- --- ---- ------- -- ---- --- --<br>raising ------,128593.69999980927,128593,128160.623,128169.89999985695,128177.288,128610.529,,54,raising
screen,html.Screen,0_2_1_1_55,2021-11-19T14:52:27.698Z,,,,,,,,,,,,,,,,54,,,,,,,,,,,,,,358.471000000005,,response,,,100,,,,,,Space,keypress(Space),,,,,-- --- ---- --- ------ ----- ------- ---- -- --- ------- --<br>------- ---------- ------ -- ----- -- ----- -- ---- ------<br>--- ----- --- --- ------ -------- ----- --- ------ ----- --<br>----- ----- ---------- --- --- ------ ------ ---- -- ------<br>------- --- ------ ----- --- ---- ------- -- ---- --- --<br>------- money.,128969.59999990463,128969,128593.865,128593.79999995232,128610.529,128977.269,,55,money.
Item 100,flow.Loop,0_2_1_1,2021-11-19T14:52:27.698Z,,,,,,,,,,,,,,,,,,,,,,,,,,,,,,29206.689,,completion,,,,D,,,,,,,,,,silence,,128969.79999995232,128969,99745.646,99747.19999980927,99762.311,128977.269,,,
Question 1,html.Screen,0_2_1_2,2021-11-19T14:52:32.026Z,,,,,,,,,,,,,,,,,,,,,,,,,,,true,TRUE,,4319.830999904632,,response,,,100,D,,,,,TRUE,click #choice-1,,,,silence,,133298,133297.09999990463,128960.603,128970,128977.269,133310.293,,,
Question 2,html.Screen,0_2_1_3,2021-11-19T14:52:34.230Z,,,,,,,,,,,,,,,,,,,,,,,,,,,true,FALSE,,2190.3069999046274,,response,,,100,D,,,,,FALSE,click #choice-2,,,,silence,,135501.39999985695,135500.59999990463,133293.628,133298.19999980927,133310.293,135510.139,,,
Item 100,flow.Sequence,0_2_1,2021-11-19T14:52:34.230Z,,,,,,,,,,,,,,,,,,,,,,,,,,,,,,45737.53399990463,,completion,,,,,,,,,,,,,,,,135501.59999990463,135500.59999990463,89746.398,89760,89763.066,135510.139,,,
End of Practice,html.Page,0_2_2,2021-11-19T14:52:37.392Z,,,,,,,,,,,,,,,,,,,,,,,,,,,,,,3152.6609999523207,,form submission,,,,,,,,,,,,,,,,138663.29999995232,138662.79999995232,135493.474,135501.79999995232,135510.139,138675.732,,,
Practice,flow.Sequence,0_2,2021-11-19T14:52:37.392Z,,,,,,,,,,,,,,,,,,,,,,,,,,,,,,99347.79899995233,,completion,,,,,,,,,,,,,,,,138663.5,138662.79999995232,39298.337,39301.39999985695,39315.001,138675.732,,,
Trap_instruction,html.Page,0_3_0,2021-11-19T14:52:41.528Z,,,,,,,,,,,,,,,,,,,,,,,,,,,,,,4123.467999809276,,form submission,,,,,,,,,,,,,,,,142799.5,142799.19999980927,138659.096,138663.69999980927,138675.732,142809.525,,,
trap_trial,html.Screen,0_3_1,2021-11-19T14:52:44.717Z,,,,,,,,,,,,,,,,,,,,,,,,,,,true,1,,3177.975000000006,,response,,,,,,,,,1,click #choice-1,,,,,,145988.39999985695,145987.5,142792.86,142799.69999980927,142809.525,145992.728,,,
end of trap trial,html.Page,0_3_2,2021-11-19T14:52:46.522Z,,,,,,,,,,,,,,,,,,,,,,,,,,,,,,1800.2719999999972,,form submission,,,,,,,,,,,,,,,,147793.39999985695,147793,145976.063,145988.59999990463,145992.728,147792.774,,,
Trap 1,flow.Sequence,0_3,2021-11-19T14:52:46.522Z,,,,,,,,,,,,,,,,,,,,,,,,,,,,,,9117.268000000011,,completion,,,,,,,,,,,,,,,,147793.5,147793,138659.096,138663.59999990463,138675.732,147792.774,,,
Standby,html.Page,0_4_0,2021-11-19T14:52:54.505Z,,,,,,,,,,,,,,,,,,,,,,,,,,,,,,7999.171999999991,,timeout,,,,,,,,,,,,,,,,155776.19999980927,155775.281,147776.109,147793.79999995232,147792.774,155791.946,,,
Holding screen,html.Screen,0_4_1_0_0,2021-11-19T14:53:01.504Z,,,,,,,,,,,,,,,,,,,,,,,,,,,,,,6999.782999999996,,timeout,,,,,,,,,,,,,,,,162776.19999980927,162775.064,155775.281,155776.59999990463,155791.946,162791.729,,,
screen,html.Screen,0_4_1_0_1_0,2021-11-19T14:53:02.992Z,,,,,,,,,,,,,,,,48,,,,,,,,,,,,,,1471.3709999046405,,response,,,10,D,,,,,Space,keypress(Space),,,,silence,As -- --- ------ ------- --------- ----------- --------<br>--------- -------- --- ------- -- ------- ---- -- ------<br>-- --- -------- -------- ---------- ---- ---- ---- ------<br>-- --------- -- ---- -- --- -- --- ------- -- - -----<br>---------- -- -- -- ---- ----- -- ------ -- --- ------<br>-------,164263.89999985695,164263.09999990463,162775.064,162776.39999985695,162791.729,164275.125,,0,As
screen,html.Screen,0_4_1_0_1_1,2021-11-19T14:53:03.416Z,,,,,,,,,,,,,,,,48,,,,,,,,,,,,,,411.57499980926514,,response,,,10,D,,,,,Space,keypress(Space),,,,silence,-- in --- ------ ------- --------- ----------- --------<br>--------- -------- --- ------- -- ------- ---- -- ------<br>-- --- -------- -------- ---------- ---- ---- ---- ------<br>-- --------- -- ---- -- --- -- --- ------- -- - -----<br>---------- -- -- -- ---- ----- -- ------ -- --- ------<br>-------,164687.39999985695,164686.69999980927,164258.459,164264.19999980927,164275.125,164691.573,,1,in
screen,html.Screen,0_4_1_0_1_2,2021-11-19T14:53:03.848Z,,,,,,,,,,,,,,,,48,,,,,,,,,,,,,,427.3269998569449,,response,,,10,D,,,,,Space,keypress(Space),,,,silence,-- -- the ------ ------- --------- ----------- --------<br>--------- -------- --- ------- -- ------- ---- -- ------<br>-- --- -------- -------- ---------- ---- ---- ---- ------<br>-- --------- -- ---- -- --- -- --- ------- -- - -----<br>---------- -- -- -- ---- ----- -- ------ -- --- ------<br>-------,165119.39999985695,165118.89999985695,164674.909,164687.59999990463,164691.573,165125.065,,2,the
screen,html.Screen,0_4_1_0_1_3,2021-11-19T14:53:04.488Z,,,,,,,,,,,,,,,,48,,,,,,,,,,,,,,633.734999952314,,response,,,10,D,,,,,Space,keypress(Space),,,,silence,-- -- --- United ------- --------- ----------- --------<br>--------- -------- --- ------- -- ------- ---- -- ------<br>-- --- -------- -------- ---------- ---- ---- ---- ------<br>-- --------- -- ---- -- --- -- --- ------- -- - -----<br>---------- -- -- -- ---- ----- -- ------ -- --- ------<br>-------,165759.29999995232,165758.79999995232,165108.399,165119.69999980927,165125.065,165774.891,,3,United
screen,html.Screen,0_4_1_0_1_4,2021-11-19T14:53:05.072Z,,,,,,,,,,,,,,,,48,,,,,,,,,,,,,,567.7089999046293,,response,,,10,D,,,,,Space,keypress(Space),,,,silence,"-- -- --- ------ States, --------- ----------- --------<br>--------- -------- --- ------- -- ------- ---- -- ------<br>-- --- -------- -------- ---------- ---- ---- ---- ------<br>-- --------- -- ---- -- --- -- --- ------- -- - -----<br>---------- -- -- -- ---- ----- -- ------ -- --- ------<br>-------",166343.19999980927,166342.59999990463,165758.227,165759.5,165774.891,166358.32,,4,"States,"
screen,html.Screen,0_4_1_0_1_5,2021-11-19T14:53:05.896Z,,,,,,,,,,,,,,,,48,,,,,,,,,,,,,,808.3799998092582,,response,,,10,D,,,,,Space,keypress(Space),,,,silence,-- -- --- ------ ------- Colombian ----------- --------<br>--------- -------- --- ------- -- ------- ---- -- ------<br>-- --- -------- -------- ---------- ---- ---- ---- ------<br>-- --------- -- ---- -- --- -- --- ------- -- - -----<br>---------- -- -- -- ---- ----- -- ------ -- --- ------<br>-------,167167.29999995232,167166.69999980927,166341.654,166343.39999985695,166358.32,167174.888,,5,Colombian
screen,html.Screen,0_4_1_0_1_6,2021-11-19T14:53:06.624Z,,,,,,,,,,,,,,,,48,,,,,,,,,,,,,,719.7119999046263,,response,,,10,D,,,,,Space,keypress(Space),,,,silence,-- -- --- ------ ------- --------- legislation --------<br>--------- -------- --- ------- -- ------- ---- -- ------<br>-- --- -------- -------- ---------- ---- ---- ---- ------<br>-- --------- -- ---- -- --- -- --- ------- -- - -----<br>---------- -- -- -- ---- ----- -- ------ -- --- ------<br>-------,167895.19999980927,167894.59999990463,167158.223,167167.39999985695,167174.888,167908.042,,6,legislation
screen,html.Screen,0_4_1_0_1_7,2021-11-19T14:53:07.512Z,,,,,,,,,,,,,,,,48,,,,,,,,,,,,,,874.5579999046458,,response,,,10,D,,,,,Space,keypress(Space),,,,silence,-- -- --- ------ ------- --------- ----------- requires<br>--------- -------- --- ------- -- ------- ---- -- ------<br>-- --- -------- -------- ---------- ---- ---- ---- ------<br>-- --------- -- ---- -- --- -- --- ------- -- - -----<br>---------- -- -- -- ---- ----- -- ------ -- --- ------<br>-------,168783.29999995232,168782.59999990463,167891.378,167895.29999995232,167908.042,168791.512,,7,requires
screen,html.Screen,0_4_1_0_1_8,2021-11-19T14:53:08.343Z,,,,,,,,,,,,,,,,48,,,,,,,,,,,,,,823.0879999046447,,response,,,10,D,,,,,Space,keypress(Space),,,,silence,-- -- --- ------ ------- --------- ----------- --------<br>travelers -------- --- ------- -- ------- ---- -- ------<br>-- --- -------- -------- ---------- ---- ---- ---- ------<br>-- --------- -- ---- -- --- -- --- ------- -- - -----<br>---------- -- -- -- ---- ----- -- ------ -- --- ------<br>-------,169615.19999980927,169614.59999990463,168774.846,168783.29999995232,168791.512,169624.681,,8,travelers
screen,html.Screen,0_4_1_0_1_9,2021-11-19T14:53:09.111Z,,,,,,,,,,,,,,,,48,,,,,,,,,,,,,,757.8189999999886,,response,,,10,D,,,,,Space,keypress(Space),,,,silence,-- -- --- ------ ------- --------- ----------- --------<br>--------- entering --- ------- -- ------- ---- -- ------<br>-- --- -------- -------- ---------- ---- ---- ---- ------<br>-- --------- -- ---- -- --- -- --- ------- -- - -----<br>---------- -- -- -- ---- ----- -- ------ -- --- ------<br>-------,170383.19999980927,170382.5,169608.016,169615.39999985695,169624.681,170391.311,,9,entering
screen,html.Screen,0_4_1_0_1_10,2021-11-19T14:53:09.615Z,,,,,,,,,,,,,,,,48,,,,,,,,,,,,,,495.18900000001304,,response,,,10,D,,,,,Space,keypress(Space),,,,silence,-- -- --- ------ ------- --------- ----------- --------<br>--------- -------- the ------- -- ------- ---- -- ------<br>-- --- -------- -------- ---------- ---- ---- ---- ------<br>-- --------- -- ---- -- --- -- --- ------- -- - -----<br>---------- -- -- -- ---- ----- -- ------ -- --- ------<br>-------,170887,170886.5,170374.646,170383.29999995232,170391.311,170891.382,,10,the
screen,html.Screen,0_4_1_0_1_11,2021-11-19T14:53:10.271Z,,,,,,,,,,,,,,,,48,,,,,,,,,,,,,,651.1179999999877,,response,,,10,D,,,,,Space,keypress(Space),,,,silence,-- -- --- ------ ------- --------- ----------- --------<br>--------- -------- --- country -- ------- ---- -- ------<br>-- --- -------- -------- ---------- ---- ---- ---- ------<br>-- --------- -- ---- -- --- -- --- ------- -- - -----<br>---------- -- -- -- ---- ----- -- ------ -- --- ------<br>-------,171543,171542.5,170874.716,170887.19999980927,170891.382,171557.913,,11,country
screen,html.Screen,0_4_1_0_1_12,2021-11-19T14:53:10.759Z,,,,,,,,,,,,,,,,48,,,,,,,,,,,,,,472.4869998569484,,response,,,10,D,,,,,Space,keypress(Space),,,,silence,-- -- --- ------ ------- --------- ----------- --------<br>--------- -------- --- ------- to ------- ---- -- ------<br>-- --- -------- -------- ---------- ---- ---- ---- ------<br>-- --------- -- ---- -- --- -- --- ------- -- - -----<br>---------- -- -- -- ---- ----- -- ------ -- --- ------<br>-------,172031,172030.39999985695,171541.248,171543.19999980927,171557.913,172041.23,,12,to
screen,html.Screen,0_4_1_0_1_13,2021-11-19T14:53:11.231Z,,,,,,,,,,,,,,,,48,,,,,,,,,,,,,,461.0699999523058,,response,,,10,D,,,,,Space,keypress(Space),,,,silence,-- -- --- ------ ------- --------- ----------- --------<br>--------- -------- --- ------- -- declare ---- -- ------<br>-- --- -------- -------- ---------- ---- ---- ---- ------<br>-- --------- -- ---- -- --- -- --- ------- -- - -----<br>---------- -- -- -- ---- ----- -- ------ -- --- ------<br>-------,172503,172502.29999995232,172024.565,172031.19999980927,172041.23,172507.886,,13,declare
screen,html.Screen,0_4_1_0_1_14,2021-11-19T14:53:11.751Z,,,,,,,,,,,,,,,,48,,,,,,,,,,,,,,514.4139999523177,,response,,,10,D,,,,,Space,keypress(Space),,,,silence,-- -- --- ------ ------- --------- ----------- --------<br>--------- -------- --- ------- -- ------- cash -- ------<br>-- --- -------- -------- ---------- ---- ---- ---- ------<br>-- --------- -- ---- -- --- -- --- ------- -- - -----<br>---------- -- -- -- ---- ----- -- ------ -- --- ------<br>-------,173022.89999985695,173022.29999995232,172491.221,172503.09999990463,172507.886,173024.571,,14,cash
screen,html.Screen,0_4_1_0_1_15,2021-11-19T14:53:12.191Z,,,,,,,,,,,,,,,,48,,,,,,,,,,,,,,437.72899995232,,response,,,10,D,,,,,Space,keypress(Space),,,,silence,-- -- --- ------ ------- --------- ----------- --------<br>--------- -------- --- ------- -- ------- ---- in ------<br>-- --- -------- -------- ---------- ---- ---- ---- ------<br>-- --------- -- ---- -- --- -- --- ------- -- - -----<br>---------- -- -- -- ---- ----- -- ------ -- --- ------<br>-------,173462.89999985695,173462.29999995232,173007.905,173023,173024.571,173474.473,,15,in
screen,html.Screen,0_4_1_0_1_16,2021-11-19T14:53:12.655Z,,,,,,,,,,,,,,,,48,,,,,,,,,,,,,,451.726999809267,,response,,,10,D,,,,,Space,keypress(Space),,,,silence,-- -- --- ------ ------- --------- ----------- --------<br>--------- -------- --- ------- -- ------- ---- -- excess<br>-- --- -------- -------- ---------- ---- ---- ---- ------<br>-- --------- -- ---- -- --- -- --- ------- -- - -----<br>---------- -- -- -- ---- ----- -- ------ -- --- ------<br>-------,173926.79999995232,173926.19999980927,173457.808,173463,173474.473,173941.194,,16,excess
screen,html.Screen,0_4_1_0_1_17,2021-11-19T14:53:13.167Z,,,,,,,,,,,,,,,,48,,,,,,,,,,,,,,497.20599985696026,,response,,,10,D,,,,,Space,keypress(Space),,,,silence,-- -- --- ------ ------- --------- ----------- --------<br>--------- -------- --- ------- -- ------- ---- -- ------<br>of --- -------- -------- ---------- ---- ---- ---- ------<br>-- --------- -- ---- -- --- -- --- ------- -- - -----<br>---------- -- -- -- ---- ----- -- ------ -- --- ------<br>-------,174439,174438.39999985695,173924.528,173927,173941.194,174441.108,,17,of
screen,html.Screen,0_4_1_0_1_18,2021-11-19T14:53:13.623Z,,,,,,,,,,,,,,,,48,,,,,,,,,,,,,,452.9919999046251,,response,,,10,D,,,,,Space,keypress(Space),,,,silence,-- -- --- ------ ------- --------- ----------- --------<br>--------- -------- --- ------- -- ------- ---- -- ------<br>-- ten -------- -------- ---------- ---- ---- ---- ------<br>-- --------- -- ---- -- --- -- --- ------- -- - -----<br>---------- -- -- -- ---- ----- -- ------ -- --- ------<br>-------,174894.69999980927,174894.09999990463,174424.443,174439.19999980927,174441.108,174907.758,,18,ten
screen,html.Screen,0_4_1_0_1_19,2021-11-19T14:53:14.103Z,,,,,,,,,,,,,,,,48,,,,,,,,,,,,,,466.4419998092635,,response,,,10,D,,,,,Space,keypress(Space),,,,silence,-- -- --- ------ ------- --------- ----------- --------<br>--------- -------- --- ------- -- ------- ---- -- ------<br>-- --- thousand -------- ---------- ---- ---- ---- ------<br>-- --------- -- ---- -- --- -- --- ------- -- - -----<br>---------- -- -- -- ---- ----- -- ------ -- --- ------<br>-------,175374.69999980927,175374.19999980927,174891.093,174894.89999985695,174907.758,175391.052,,19,thousand
screen,html.Screen,0_4_1_0_1_20,2021-11-19T14:53:14.607Z,,,,,,,,,,,,,,,,48,,,,,,,,,,,,,,486.94800000000396,,response,,,10,D,,,,,Space,keypress(Space),,,,silence,-- -- --- ------ ------- --------- ----------- --------<br>--------- -------- --- ------- -- ------- ---- -- ------<br>-- --- -------- dollars. ---------- ---- ---- ---- ------<br>-- --------- -- ---- -- --- -- --- ------- -- - -----<br>---------- -- -- -- ---- ----- -- ------ -- --- ------<br>-------,175878.59999990463,175878,175374.387,175374.89999985695,175391.052,175891.036,,20,dollars.
screen,html.Screen,0_4_1_0_1_21,2021-11-19T14:53:15.319Z,,,,,,,,,,,,,,,,48,,,,,,,,,,,,,,699.0639999046398,,response,,,10,D,,,,,Space,keypress(Space),,,,silence,-- -- --- ------ ------- --------- ----------- --------<br>--------- -------- --- ------- -- ------- ---- -- ------<br>-- --- -------- -------- Concealing ---- ---- ---- ------<br>-- --------- -- ---- -- --- -- --- ------- -- - -----<br>---------- -- -- -- ---- ----- -- ------ -- --- ------<br>-------,176590.69999980927,176590.09999990463,175874.371,175878.69999980927,175891.036,176607.539,,21,Concealing
screen,html.Screen,0_4_1_0_1_22,2021-11-19T14:53:15.791Z,,,,,,,,,,,,,,,,48,,,,,,,,,,,,,,454.46100000001024,,response,,,10,D,,,,,Space,keypress(Space),,,,silence,-- -- --- ------ ------- --------- ----------- --------<br>--------- -------- --- ------- -- ------- ---- -- ------<br>-- --- -------- -------- ---------- more ---- ---- ------<br>-- --------- -- ---- -- --- -- --- ------- -- - -----<br>---------- -- -- -- ---- ----- -- ------ -- --- ------<br>-------,177062.69999980927,177062,176590.875,176590.79999995232,176607.539,177074.314,,22,more
screen,html.Screen,0_4_1_0_1_23,2021-11-19T14:53:16.287Z,,,,,,,,,,,,,,,,48,,,,,,,,,,,,,,483.68599999998696,,response,,,10,D,,,,,Space,keypress(Space),,,,silence,-- -- --- ------ ------- --------- ----------- --------<br>--------- -------- --- ------- -- ------- ---- -- ------<br>-- --- -------- -------- ---------- ---- than ---- ------<br>-- --------- -- ---- -- --- -- --- ------- -- - -----<br>---------- -- -- -- ---- ----- -- ------ -- --- ------<br>-------,177558.69999980927,177558,177057.648,177062.79999995232,177074.314,177574.251,,23,than
screen,html.Screen,0_4_1_0_1_24,2021-11-19T14:53:16.639Z,,,,,,,,,,,,,,,,48,,,,,,,,,,,,,,335.64899985695956,,response,,,10,D,,,,,Space,keypress(Space),,,,silence,-- -- --- ------ ------- --------- ----------- --------<br>--------- -------- --- ------- -- ------- ---- -- ------<br>-- --- -------- -------- ---------- ---- ---- that ------<br>-- --------- -- ---- -- --- -- --- ------- -- - -----<br>---------- -- -- -- ---- ----- -- ------ -- --- ------<br>-------,177910.5,177909.89999985695,177557.586,177558.79999995232,177574.251,177924.218,,24,that
screen,html.Screen,0_4_1_0_1_25,2021-11-19T14:53:17.359Z,,,,,,,,,,,,,,,,48,,,,,,,,,,,,,,705.7820000000065,,response,,,10,D,,,,,Space,keypress(Space),,,,silence,-- -- --- ------ ------- --------- ----------- --------<br>--------- -------- --- ------- -- ------- ---- -- ------<br>-- --- -------- -------- ---------- ---- ---- ---- amount<br>-- --------- -- ---- -- --- -- --- ------- -- - -----<br>---------- -- -- -- ---- ----- -- ------ -- --- ------<br>-------,178630.5,178630,177907.553,177910.79999995232,177924.218,178640.908,,25,amount
screen,html.Screen,0_4_1_0_1_26,2021-11-19T14:53:17.927Z,,,,,,,,,,,,,,,,48,,,,,,,,,,,,,,557.0920000000042,,response,,,10,D,,,,,Space,keypress(Space),,,,silence,-- -- --- ------ ------- --------- ----------- --------<br>--------- -------- --- ------- -- ------- ---- -- ------<br>-- --- -------- -------- ---------- ---- ---- ---- ------<br>to --------- -- ---- -- --- -- --- ------- -- - -----<br>---------- -- -- -- ---- ----- -- ------ -- --- ------<br>-------,179198.59999990463,179198,178624.242,178630.69999980927,178640.908,179207.462,,26,to
screen,html.Screen,0_4_1_0_1_27,2021-11-19T14:53:18.471Z,,,,,,,,,,,,,,,,48,,,,,,,,,,,,,,534.3379999523167,,response,,,10,D,,,,,Space,keypress(Space),,,,silence,-- -- --- ------ ------- --------- ----------- --------<br>--------- -------- --- ------- -- ------- ---- -- ------<br>-- --- -------- -------- ---------- ---- ---- ---- ------<br>-- transport -- ---- -- --- -- --- ------- -- - -----<br>---------- -- -- -- ---- ----- -- ------ -- --- ------<br>-------,179742.39999985695,179741.79999995232,179190.797,179198.79999995232,179207.462,179757.446,,27,transport
screen,html.Screen,0_4_1_0_1_28,2021-11-19T14:53:18.951Z,,,,,,,,,,,,,,,,48,,,,,,,,,,,,,,464.4539998569526,,response,,,10,D,,,,,Space,keypress(Space),,,,silence,-- -- --- ------ ------- --------- ----------- --------<br>--------- -------- --- ------- -- ------- ---- -- ------<br>-- --- -------- -------- ---------- ---- ---- ---- ------<br>-- --------- it ---- -- --- -- --- ------- -- - -----<br>---------- -- -- -- ---- ----- -- ------ -- --- ------<br>-------,180222.39999985695,180221.89999985695,179740.781,179742.59999990463,179757.446,180224.086,,28,it
screen,html.Screen,0_4_1_0_1_29,2021-11-19T14:53:19.423Z,,,,,,,,,,,,,,,,48,,,,,,,,,,,,,,469.8139998569386,,response,,,10,D,,,,,Space,keypress(Space),,,,silence,-- -- --- ------ ------- --------- ----------- --------<br>--------- -------- --- ------- -- ------- ---- -- ------<br>-- --- -------- -------- ---------- ---- ---- ---- ------<br>-- --------- -- into -- --- -- --- ------- -- - -----<br>---------- -- -- -- ---- ----- -- ------ -- --- ------<br>-------,180694.39999985695,180693.89999985695,180207.421,180222.59999990463,180224.086,180707.39,,29,into
screen,html.Screen,0_4_1_0_1_30,2021-11-19T14:53:19.826Z,,,,,,,,,,,,,,,,48,,,,,,,,,,,,,,386.5099998569349,,response,,,10,D,,,,,Space,keypress(Space),,,,silence,-- -- --- ------ ------- --------- ----------- --------<br>--------- -------- --- ------- -- ------- ---- -- ------<br>-- --- -------- -------- ---------- ---- ---- ---- ------<br>-- --------- -- ---- or --- -- --- ------- -- - -----<br>---------- -- -- -- ---- ----- -- ------ -- --- ------<br>-------,181094.39999985695,181093.89999985695,180690.725,180694.59999990463,180707.39,181107.386,,30,or
screen,html.Screen,0_4_1_0_1_31,2021-11-19T14:53:20.266Z,,,,,,,,,,,,,,,,48,,,,,,,,,,,,,,426.31399980926653,,response,,,10,D,,,,,Space,keypress(Space),,,,silence,-- -- --- ------ ------- --------- ----------- --------<br>--------- -------- --- ------- -- ------- ---- -- ------<br>-- --- -------- -------- ---------- ---- ---- ---- ------<br>-- --------- -- ---- -- out -- --- ------- -- - -----<br>---------- -- -- -- ---- ----- -- ------ -- --- ------<br>-------,181534.39999985695,181533.69999980927,181090.721,181094.69999980927,181107.386,181540.592,,31,out
screen,html.Screen,0_4_1_0_1_32,2021-11-19T14:53:20.666Z,,,,,,,,,,,,,,,,48,,,,,,,,,,,,,,393.2079999523121,,response,,,10,D,,,,,Space,keypress(Space),,,,silence,-- -- --- ------ ------- --------- ----------- --------<br>--------- -------- --- ------- -- ------- ---- -- ------<br>-- --- -------- -------- ---------- ---- ---- ---- ------<br>-- --------- -- ---- -- --- of --- ------- -- - -----<br>---------- -- -- -- ---- ----- -- ------ -- --- ------<br>-------,181934.29999995232,181933.79999995232,181523.928,181534.5,181540.592,181940.672,,32,of
screen,html.Screen,0_4_1_0_1_33,2021-11-19T14:53:21.058Z,,,,,,,,,,,,,,,,48,,,,,,,,,,,,,,385.02799980927375,,response,,,10,D,,,,,Space,keypress(Space),,,,silence,-- -- --- ------ ------- --------- ----------- --------<br>--------- -------- --- ------- -- ------- ---- -- ------<br>-- --- -------- -------- ---------- ---- ---- ---- ------<br>-- --------- -- ---- -- --- -- the ------- -- - -----<br>---------- -- -- -- ---- ----- -- ------ -- --- ------<br>-------,182326.29999995232,182325.69999980927,181924.006,181934.5,181940.672,182340.675,,33,the
screen,html.Screen,0_4_1_0_1_34,2021-11-19T14:53:21.546Z,,,,,,,,,,,,,,,,48,,,,,,,,,,,,,,473.0249998092768,,response,,,10,D,,,,,Space,keypress(Space),,,,silence,-- -- --- ------ ------- --------- ----------- --------<br>--------- -------- --- ------- -- ------- ---- -- ------<br>-- --- -------- -------- ---------- ---- ---- ---- ------<br>-- --------- -- ---- -- --- -- --- country -- - -----<br>---------- -- -- -- ---- ----- -- ------ -- --- ------<br>-------,182814.29999995232,182813.69999980927,182324.009,182326.39999985695,182340.675,182823.94,,34,country
screen,html.Screen,0_4_1_0_1_35,2021-11-19T14:53:22.074Z,,,,,,,,,,,,,,,,48,,,,,,,,,,,,,,517.6599999046302,,response,,,10,D,,,,,Space,keypress(Space),,,,silence,-- -- --- ------ ------- --------- ----------- --------<br>--------- -------- --- ------- -- ------- ---- -- ------<br>-- --- -------- -------- ---------- ---- ---- ---- ------<br>-- --------- -- ---- -- --- -- --- ------- is - -----<br>---------- -- -- -- ---- ----- -- ------ -- --- ------<br>-------,183342.89999985695,183341.59999990463,182807.275,182814.39999985695,182823.94,183357.229,,35,is
screen,html.Screen,0_4_1_0_1_36,2021-11-19T14:53:22.506Z,,,,,,,,,,,,,,,,48,,,,,,,,,,,,,,416.3709999046405,,response,,,10,D,,,,,Space,keypress(Space),,,,silence,-- -- --- ------ ------- --------- ----------- --------<br>--------- -------- --- ------- -- ------- ---- -- ------<br>-- --- -------- -------- ---------- ---- ---- ---- ------<br>-- --------- -- ---- -- --- -- --- ------- -- a -----<br>---------- -- -- -- ---- ----- -- ------ -- --- ------<br>-------,183774.19999980927,183773.59999990463,183340.564,183343.09999990463,183357.229,183790.55,,36,a
screen,html.Screen,0_4_1_0_1_37,2021-11-19T14:53:22.937Z,,,,,,,,,,,,,,,,48,,,,,,,,,,,,,,415.0499999046442,,response,,,10,D,,,,,Space,keypress(Space),,,,silence,-- -- --- ------ ------- --------- ----------- --------<br>--------- -------- --- ------- -- ------- ---- -- ------<br>-- --- -------- -------- ---------- ---- ---- ---- ------<br>-- --------- -- ---- -- --- -- --- ------- -- - crime<br>---------- -- -- -- ---- ----- -- ------ -- --- ------<br>-------,184206.19999980927,184205.59999990463,183773.885,183774.29999995232,183790.55,184207.119,,37,crime
screen,html.Screen,0_4_1_0_1_38,2021-11-19T14:53:23.226Z,,,,,,,,,,,,,,,,48,,,,,,,,,,,,,,286.5809998092591,,response,,,10,D,,,,,Space,keypress(Space),,,,silence,-- -- --- ------ ------- --------- ----------- --------<br>--------- -------- --- ------- -- ------- ---- -- ------<br>-- --- -------- -------- ---------- ---- ---- ---- ------<br>-- --------- -- ---- -- --- -- --- ------- -- - -----<br>punishable -- -- -- ---- ----- -- ------ -- --- ------<br>-------,184494.29999995232,184493.69999980927,184190.455,184206.29999995232,184207.119,184507.203,,38,punishable
screen,html.Screen,0_4_1_0_1_39,2021-11-19T14:53:23.866Z,,,,,,,,,,,,,,,,48,,,,,,,,,,,,,,626.396999904624,,response,,,10,D,,,,,Space,keypress(Space),,,,silence,-- -- --- ------ ------- --------- ----------- --------<br>--------- -------- --- ------- -- ------- ---- -- ------<br>-- --- -------- -------- ---------- ---- ---- ---- ------<br>-- --------- -- ---- -- --- -- --- ------- -- - -----<br>---------- by -- -- ---- ----- -- ------ -- --- ------<br>-------,185134.19999980927,185133.59999990463,184490.537,184494.5,184507.203,185140.428,,39,by
screen,html.Screen,0_4_1_0_1_40,2021-11-19T14:53:24.249Z,,,,,,,,,,,,,,,,48,,,,,,,,,,,,,,377.07199999998556,,response,,,10,D,,,,,Space,keypress(Space),,,,silence,-- -- --- ------ ------- --------- ----------- --------<br>--------- -------- --- ------- -- ------- ---- -- ------<br>-- --- -------- -------- ---------- ---- ---- ---- ------<br>-- --------- -- ---- -- --- -- --- ------- -- - -----<br>---------- -- up -- ---- ----- -- ------ -- --- ------<br>-------,185518.09999990463,185517.5,185123.763,185134.39999985695,185140.428,185523.744,,40,up
screen,html.Screen,0_4_1_0_1_41,2021-11-19T14:53:24.689Z,,,,,,,,,,,,,,,,48,,,,,,,,,,,,,,433.75599999999395,,response,,,10,D,,,,,Space,keypress(Space),,,,silence,-- -- --- ------ ------- --------- ----------- --------<br>--------- -------- --- ------- -- ------- ---- -- ------<br>-- --- -------- -------- ---------- ---- ---- ---- ------<br>-- --------- -- ---- -- --- -- --- ------- -- - -----<br>---------- -- -- to ---- ----- -- ------ -- --- ------<br>-------,185958.09999990463,185957.5,185507.079,185518.29999995232,185523.744,185973.728,,41,to
screen,html.Screen,0_4_1_0_1_42,2021-11-19T14:53:25.041Z,,,,,,,,,,,,,,,,48,,,,,,,,,,,,,,335.7719999999972,,response,,,10,D,,,,,Space,keypress(Space),,,,silence,-- -- --- ------ ------- --------- ----------- --------<br>--------- -------- --- ------- -- ------- ---- -- ------<br>-- --- -------- -------- ---------- ---- ---- ---- ------<br>-- --------- -- ---- -- --- -- --- ------- -- - -----<br>---------- -- -- -- five ----- -- ------ -- --- ------<br>-------,186310,186309.5,185957.063,185958.19999980927,185973.728,186323.754,,42,five
screen,html.Screen,0_4_1_0_1_43,2021-11-19T14:53:25.401Z,,,,,,,,,,,,,,,,48,,,,,,,,,,,,,,345.6459998569626,,response,,,10,D,,,,,Space,keypress(Space),,,,silence,-- -- --- ------ ------- --------- ----------- --------<br>--------- -------- --- ------- -- ------- ---- -- ------<br>-- --- -------- -------- ---------- ---- ---- ---- ------<br>-- --------- -- ---- -- --- -- --- ------- -- - -----<br>---------- -- -- -- ---- years -- ------ -- --- ------<br>-------,186670,186669.39999985695,186307.088,186310.19999980927,186323.754,186673.699,,43,years
screen,html.Screen,0_4_1_0_1_44,2021-11-19T14:53:25.793Z,,,,,,,,,,,,,,,,48,,,,,,,,,,,,,,387.80100000000675,,response,,,10,D,,,,,Space,keypress(Space),,,,silence,-- -- --- ------ ------- --------- ----------- --------<br>--------- -------- --- ------- -- ------- ---- -- ------<br>-- --- -------- -------- ---------- ---- ---- ---- ------<br>-- --------- -- ---- -- --- -- --- ------- -- - -----<br>---------- -- -- -- ---- ----- in ------ -- --- ------<br>-------,187062.09999990463,187061.5,186657.034,186670.19999980927,186673.699,187073.67,,44,in
screen,html.Screen,0_4_1_0_1_45,2021-11-19T14:53:26.113Z,,,,,,,,,,,,,,,,48,,,,,,,,,,,,,,307.72999985693605,,response,,,10,D,,,,,Space,keypress(Space),,,,silence,-- -- --- ------ ------- --------- ----------- --------<br>--------- -------- --- ------- -- ------- ---- -- ------<br>-- --- -------- -------- ---------- ---- ---- ---- ------<br>-- --------- -- ---- -- --- -- --- ------- -- - -----<br>---------- -- -- -- ---- ----- -- prison -- --- ------<br>-------,187382,187381.39999985695,187057.005,187062.19999980927,187073.67,187390.328,,45,prison
screen,html.Screen,0_4_1_0_1_46,2021-11-19T14:53:26.521Z,,,,,,,,,,,,,,,,48,,,,,,,,,,,,,,399.07199985694024,,response,,,10,D,,,,,Space,keypress(Space),,,,silence,-- -- --- ------ ------- --------- ----------- --------<br>--------- -------- --- ------- -- ------- ---- -- ------<br>-- --- -------- -------- ---------- ---- ---- ---- ------<br>-- --------- -- ---- -- --- -- --- ------- -- - -----<br>---------- -- -- -- ---- ----- -- ------ in --- ------<br>-------,187789.89999985695,187789.39999985695,187373.663,187382.09999990463,187390.328,187806.96,,46,in
screen,html.Screen,0_4_1_0_1_47,2021-11-19T14:53:26.977Z,,,,,,,,,,,,,,,,48,,,,,,,,,,,,,,438.439999856957,,response,,,10,D,,,,,Space,keypress(Space),,,,silence,-- -- --- ------ ------- --------- ----------- --------<br>--------- -------- --- ------- -- ------- ---- -- ------<br>-- --- -------- -------- ---------- ---- ---- ---- ------<br>-- --------- -- ---- -- --- -- --- ------- -- - -----<br>---------- -- -- -- ---- ----- -- ------ -- the ------<br>-------,188246,188245.39999985695,187790.295,187790.09999990463,187806.96,188256.862,,47,the
screen,html.Screen,0_4_1_0_1_48,2021-11-19T14:53:27.353Z,,,,,,,,,,,,,,,,48,,,,,,,,,,,,,,364.43799995232257,,response,,,10,D,,,,,Space,keypress(Space),,,,silence,-- -- --- ------ ------- --------- ----------- --------<br>--------- -------- --- ------- -- ------- ---- -- ------<br>-- --- -------- -------- ---------- ---- ---- ---- ------<br>-- --------- -- ---- -- --- -- --- ------- -- - -----<br>---------- -- -- -- ---- ----- -- ------ -- --- United<br>-------,188622,188621.29999995232,188240.198,188246.09999990463,188256.862,188623.621,,48,United
screen,html.Screen,0_4_1_0_1_49,2021-11-19T14:53:27.713Z,,,,,,,,,,,,,,,,48,,,,,,,,,,,,,,357.7789998569351,,response,,,10,D,,,,,Space,keypress(Space),,,,silence,-- -- --- ------ ------- --------- ----------- --------<br>--------- -------- --- ------- -- ------- ---- -- ------<br>-- --- -------- -------- ---------- ---- ---- ---- ------<br>-- --------- -- ---- -- --- -- --- ------- -- - -----<br>---------- -- -- -- ---- ----- -- ------ -- --- ------<br>States.,188981.89999985695,188981.39999985695,188606.955,188622.09999990463,188623.621,188990.17,,49,States.
Item 10,flow.Loop,0_4_1_0_1,2021-11-19T14:53:27.714Z,,,,,,,,,,,,,,,,,,,,,,,,,,,,,,26189.670999856957,,completion,,,,,,,,,,,,,,,,188982.19999980927,188981.39999985695,162775.064,162776.39999985695,162791.729,188990.17,,,
Question 1,html.Screen,0_4_1_0_2,2021-11-19T14:53:31.405Z,,,,,,,,,,,,,,,,,,,,,,,,,,,true,TRUE,,3682.4299999046198,,response,,,10,D,,,,,TRUE,click #choice-1,,,,silence,,192673.39999985695,192672.59999990463,188973.506,188982.29999995232,188990.17,192673.307,,,
Question 2,html.Screen,0_4_1_0_3,2021-11-19T14:53:33.950Z,,,,,,,,,,,,,,,,,,,,,,,,,,,true,TRUE,,2544.3929998092644,,response,,,10,D,,,,,TRUE,click #choice-1,,,,silence,,195218.5,195217.69999980927,192656.642,192673.69999980927,192673.307,195223.16,,,
Item 10,flow.Sequence,0_4_1_0,2021-11-19T14:53:33.950Z,,,,,,,,,,,,,,,,,,,,,,,,,,,,,,39425.75399980927,,completion,,,,,,,,,,,,,,,,195218.79999995232,195217.69999980927,155775.281,155776.5,155791.946,195223.16,,,
Holding screen,html.Screen,0_4_1_1_0,2021-11-19T14:53:40.939Z,,,,,,,,,,,,,,,,,,,,,,,,,,,,,,6999.402000000002,,timeout,,,,,,,,,,,,,,,,202207.29999995232,202205.898,195206.495,195219.09999990463,195223.16,202222.562,,,
screen,html.Screen,0_4_1_1_1_0,2021-11-19T14:53:41.921Z,,,,,,,,,,,,,,,,11,,,,,,,,,,,,,,965.9379999999946,,response,,,4,D,,,,,Space,keypress(Space),,,,silence,Known -- ---- --- -- --- -------- ------------ ---------- --<br>- ------- ------ --------- -- ------------ -- --- ---- -----<br>------ ---- ---- ------ ------ ------- --- ----- ---------<br>---- --- -------- -------- --- --- -- ------- --- --- -----<br>-- --- ------ ------- --- --- -------- ---- --------- --<br>---------- -- -------- ----------------,203189.19999980927,203188.5,202205.898,202207.69999980927,202222.562,203189.408,,0,Known
screen,html.Screen,0_4_1_1_1_1,2021-11-19T14:53:42.376Z,,,,,,,,,,,,,,,,11,,,,,,,,,,,,,,454.99199985695304,,response,,,4,D,,,,,Space,keypress(Space),,,,silence,----- as ---- --- -- --- -------- ------------ ---------- --<br>- ------- ------ --------- -- ------------ -- --- ---- -----<br>------ ---- ---- ------ ------ ------- --- ----- ---------<br>---- --- -------- -------- --- --- -- ------- --- --- -----<br>-- --- ------ ------- --- --- -------- ---- --------- --<br>---------- -- -------- ----------------,203645,203644.39999985695,203172.742,203189.39999985695,203189.408,203655.997,,1,as
screen,html.Screen,0_4_1_1_1_2,2021-11-19T14:53:42.800Z,,,,,,,,,,,,,,,,11,,,,,,,,,,,,,,412.4029998569458,,response,,,4,D,,,,,Space,keypress(Space),,,,silence,----- -- Rapa --- -- --- -------- ------------ ---------- --<br>- ------- ------ --------- -- ------------ -- --- ---- -----<br>------ ---- ---- ------ ------ ------- --- ----- ---------<br>---- --- -------- -------- --- --- -- ------- --- --- -----<br>-- --- ------ ------- --- --- -------- ---- --------- --<br>---------- -- -------- ----------------,204069,204068.39999985695,203639.332,203645.19999980927,203655.997,204072.602,,2,Rapa
screen,html.Screen,0_4_1_1_1_3,2021-11-19T14:53:43.408Z,,,,,,,,,,,,,,,,11,,,,,,,,,,,,,,603.8979999999865,,response,,,4,D,,,,,Space,keypress(Space),,,,silence,----- -- ---- Nui -- --- -------- ------------ ---------- --<br>- ------- ------ --------- -- ------------ -- --- ---- -----<br>------ ---- ---- ------ ------ ------- --- ----- ---------<br>---- --- -------- -------- --- --- -- ------- --- --- -----<br>-- --- ------ ------- --- --- -------- ---- --------- --<br>---------- -- -------- ----------------,204677,204676.5,204055.937,204069.19999980927,204072.602,204689.231,,3,Nui
