sender,sender_type,sender_id,timestamp,meta,,Blues,Classical,Country,Dance,Electronic,Folk,Gospel,Hip-Hop,Jazz,Latin,Musical/Film,New-age,Pop,Provo_ID,R&B,Rap,Reggae,Religious,Rock,Soul,Swing,Traditional,age,artist_name,correct,correctResponse,distraction,duration,education,ended_on,familiarity,gender,item,list,music_frequency,offensiveness,pleasantness,preference,response,response_action,snippet_file,song_name,song_rating,sound,text,time_commit,time_end,time_render,time_run,time_show,time_switch,url,word,word_ID
Instructions,html.Page,0_0,2021-11-12T15:29:49.580Z,"{""labjs_version"":""20.2.3"",""labjs_build"":{""flavor"":""production"",""commit"":""7ea907d66ca8aeef8054924ca5d82ffbe11e34e5""},""location"":""https://run.pavlovia.org/mvasilev/lab_music_c/"",""userAgent"":""Mozilla/5.0 (Windows NT 6.1; Win64; x64) AppleWebKit/537.36 (KHTML, like Gecko) Chrome/95.0.4638.69 Safari/537.36"",""platform"":""Win32"",""language"":""en-US"",""locale"":""en-US"",""timeZone"":""Europe/London"",""timezoneOffset"":0,""screen_width"":1920,""screen_height"":1080,""scroll_width"":1920,""scroll_height"":959,""window_innerWidth"":1920,""window_innerHeight"":1007,""devicePixelRatio"":1}",,,,,,,,,,,,,,,,,,,,,,,,,,,,,34022.428,,form submission,,,,,,,,,,,,,,,,41384.300000071526,41383,7327.232,7347,7360.572,41386.577,{},,
Headphones,html.Page,0_1,2021-11-12T15:29:52.060Z,,,,,,,,,,,,,,,,,,,,,,,,,,,,,,2477.8229999761606,,form submission,,,,,,,,,,,,,,,,43865,43864.39999997616,41369.906,41385.10000002384,41386.577,43870.664,,,
Holding screen,html.Screen,0_2_0_0,2021-11-12T15:30:02.057Z,,,,,,,,,,,,,,,,,,,,,,,,,,,,,,10002.524000000005,,timeout,,,,,,,,,,,,,,,,53861.89999997616,53856.518,43853.993,43865.5,43870.664,53873.188,,,
screen,html.Screen,0_2_0_1_0,2021-11-12T15:30:02.932Z,,,,,,,,,,,,,,,,53,,,,,,,,,,,,,,862.3119999999981,,response,,,99,,,,,,Space,keypress(Space),,,,,When -- ----- -- ------ - ------- --- ----------<br>------------- ------ ------ ---- ---- ------- ----- -- ----<br>-------- ------- -- ---------- --- - --- ----- ----- ----<br>---- --- --- ----- --- ---- ---- ------- ----- ---- -------<br>--- --- -- ----- -- --- ---- -- --- ---- -- ------ ------<br>--- ----- -- ----,54736.89999997616,54735.5,53856.518,53862.39999997616,53873.188,54740.346,,0,When
screen,html.Screen,0_2_0_1_1,2021-11-12T15:30:03.555Z,,,,,,,,,,,,,,,,53,,,,,,,,,,,,,,618.5539999761604,,response,,,99,,,,,,Space,keypress(Space),,,,,---- it ----- -- ------ - ------- --- ----------<br>------------- ------ ------ ---- ---- ------- ----- -- ----<br>-------- ------- -- ---------- --- - --- ----- ----- ----<br>---- --- --- ----- --- ---- ---- ------- ----- ---- -------<br>--- --- -- ----- -- --- ---- -- --- ---- -- ------ ------<br>--- ----- -- ----,55359.800000071526,55358.89999997616,54723.674,54737.200000047684,54740.346,55373.677,,1,it
screen,html.Screen,0_2_0_1_2,2021-11-12T15:30:04.155Z,,,,,,,,,,,,,,,,53,,,,,,,,,,,,,,585.0230000476804,,response,,,99,,,,,,Space,keypress(Space),,,,,---- -- comes -- ------ - ------- --- ----------<br>------------- ------ ------ ---- ---- ------- ----- -- ----<br>-------- ------- -- ---------- --- - --- ----- ----- ----<br>---- --- --- ----- --- ---- ---- ------- ----- ---- -------<br>--- --- -- ----- -- --- ---- -- --- ---- -- ------ ------<br>--- ----- -- ----,55959.60000002384,55958.700000047684,55357.007,55360.10000002384,55373.677,55973.912,,2,comes
screen,html.Screen,0_2_0_1_3,2021-11-12T15:30:04.827Z,,,,,,,,,,,,,,,,53,,,,,,,,,,,,,,656.9879999761615,,response,,,99,,,,,,Space,keypress(Space),,,,,---- -- ----- to ------ - ------- --- ----------<br>------------- ------ ------ ---- ---- ------- ----- -- ----<br>-------- ------- -- ---------- --- - --- ----- ----- ----<br>---- --- --- ----- --- ---- ---- ------- ----- ---- -------<br>--- --- -- ----- -- --- ---- -- --- ---- -- ------ ------<br>--- ----- -- ----,56631.800000071526,56630.89999997616,55957.241,55960,55973.912,56640.69,,3,to
screen,html.Screen,0_2_0_1_4,2021-11-12T15:30:05.387Z,,,,,,,,,,,,,,,,53,,,,,,,,,,,,,,550.1100000715232,,response,,,99,,,,,,Space,keypress(Space),,,,,---- -- ----- -- having - ------- --- ----------<br>------------- ------ ------ ---- ---- ------- ----- -- ----<br>-------- ------- -- ---------- --- - --- ----- ----- ----<br>---- --- --- ----- --- ---- ---- ------- ----- ---- -------<br>--- --- -- ----- -- --- ---- -- --- ---- -- ------ ------<br>--- ----- -- ----,57192.10000002384,57190.800000071526,56624.02,56632.300000071526,56640.69,57207.585,,4,having
screen,html.Screen,0_2_0_1_5,2021-11-12T15:30:05.955Z,,,,,,,,,,,,,,,,53,,,,,,,,,,,,,,551.2150000715264,,response,,,99,,,,,,Space,keypress(Space),,,,,---- -- ----- -- ------ a ------- --- ----------<br>------------- ------ ------ ---- ---- ------- ----- -- ----<br>-------- ------- -- ---------- --- - --- ----- ----- ----<br>---- --- --- ----- --- ---- ---- ------- ----- ---- -------<br>--- --- -- ----- -- --- ---- -- --- ---- -- ------ ------<br>--- ----- -- ----,57759.700000047684,57758.800000071526,57190.914,57192.300000071526,57207.585,57774.346,,5,a
screen,html.Screen,0_2_0_1_6,2021-11-12T15:30:06.539Z,,,,,,,,,,,,,,,,53,,,,,,,,,,,,,,568.4540000715278,,response,,,99,,,,,,Space,keypress(Space),,,,,---- -- ----- -- ------ - lasting --- ----------<br>------------- ------ ------ ---- ---- ------- ----- -- ----<br>-------- ------- -- ---------- --- - --- ----- ----- ----<br>---- --- --- ----- --- ---- ---- ------- ----- ---- -------<br>--- --- -- ----- -- --- ---- -- --- ---- -- ------ ------<br>--- ----- -- ----,58343.700000047684,58342.800000071526,57757.676,57760.200000047684,57774.346,58357.881,,6,lasting
screen,html.Screen,0_2_0_1_7,2021-11-12T15:30:07.083Z,,,,,,,,,,,,,,,,53,,,,,,,,,,,,,,528.8190000476825,,response,,,99,,,,,,Space,keypress(Space),,,,,---- -- ----- -- ------ - ------- and ----------<br>------------- ------ ------ ---- ---- ------- ----- -- ----<br>-------- ------- -- ---------- --- - --- ----- ----- ----<br>---- --- --- ----- --- ---- ---- ------- ----- ---- -------<br>--- --- -- ----- -- --- ---- -- --- ---- -- ------ ------<br>--- ----- -- ----,58887.700000047684,58886.700000047684,58341.21,58344,58357.881,58891.292,,7,and
screen,html.Screen,0_2_0_1_8,2021-11-12T15:30:07.651Z,,,,,,,,,,,,,,,,53,,,,,,,,,,,,,,563.5080000715243,,response,,,99,,,,,,Space,keypress(Space),,,,,---- -- ----- -- ------ - ------- --- fulfilling<br>------------- ------ ------ ---- ---- ------- ----- -- ----<br>-------- ------- -- ---------- --- - --- ----- ----- ----<br>---- --- --- ----- --- ---- ---- ------- ----- ---- -------<br>--- --- -- ----- -- --- ---- -- --- ---- -- ------ ------<br>--- ----- -- ----,59455.800000071526,59454.800000071526,58874.622,58888,58891.292,59458.189,,8,fulfilling
screen,html.Screen,0_2_0_1_9,2021-11-12T15:30:08.294Z,,,,,,,,,,,,,,,,53,,,,,,,,,,,,,,636.5110000476852,,response,,,99,,,,,,Space,keypress(Space),,,,,"---- -- ----- -- ------ - ------- --- ----------<br>relationship, ------ ------ ---- ---- ------- ----- -- ----<br>-------- ------- -- ---------- --- - --- ----- ----- ----<br>---- --- --- ----- --- ---- ---- ------- ----- ---- -------<br>--- --- -- ----- -- --- ---- -- --- ---- -- ------ ------<br>--- ----- -- ----",60095.700000047684,60094.700000047684,59441.518,59456.10000002384,59458.189,60108.301,,9,"relationship,"
screen,html.Screen,0_2_0_1_10,2021-11-12T15:30:08.869Z,,,,,,,,,,,,,,,,53,,,,,,,,,,,,,,562.2990000238424,,response,,,99,,,,,,Space,keypress(Space),,,,,---- -- ----- -- ------ - ------- --- ----------<br>------------- common ------ ---- ---- ------- ----- -- ----<br>-------- ------- -- ---------- --- - --- ----- ----- ----<br>---- --- --- ----- --- ---- ---- ------- ----- ---- -------<br>--- --- -- ----- -- --- ---- -- --- ---- -- ------ ------<br>--- ----- -- ----,60671.5,60670.60000002384,60091.631,60096.10000002384,60108.301,60675.169,,10,common
screen,html.Screen,0_2_0_1_11,2021-11-12T15:30:09.469Z,,,,,,,,,,,,,,,,53,,,,,,,,,,,,,,595.4310000238402,,response,,,99,,,,,,Space,keypress(Space),,,,,---- -- ----- -- ------ - ------- --- ----------<br>------------- ------ wisdom ---- ---- ------- ----- -- ----<br>-------- ------- -- ---------- --- - --- ----- ----- ----<br>---- --- --- ----- --- ---- ---- ------- ----- ---- -------<br>--- --- -- ----- -- --- ---- -- --- ---- -- ------ ------<br>--- ----- -- ----,61271.5,61270.60000002384,60658.498,60671.800000071526,60675.169,61275.274,,11,wisdom
screen,html.Screen,0_2_0_1_12,2021-11-12T15:30:10.109Z,,,,,,,,,,,,,,,,53,,,,,,,,,,,,,,635.3260000238442,,response,,,99,,,,,,Space,keypress(Space),,,,,---- -- ----- -- ------ - ------- --- ----------<br>------------- ------ ------ says ---- ------- ----- -- ----<br>-------- ------- -- ---------- --- - --- ----- ----- ----<br>---- --- --- ----- --- ---- ---- ------- ----- ---- -------<br>--- --- -- ----- -- --- ---- -- --- ---- -- ------ ------<br>--- ----- -- ----,61911.39999997616,61910.60000002384,61258.604,61271.800000071526,61275.274,61925.519,,12,says
screen,html.Screen,0_2_0_1_13,2021-11-12T15:30:10.773Z,,,,,,,,,,,,,,,,53,,,,,,,,,,,,,,648.9809999999998,,response,,,99,,,,,,Space,keypress(Space),,,,,---- -- ----- -- ------ - ------- --- ----------<br>------------- ------ ------ ---- that ------- ----- -- ----<br>-------- ------- -- ---------- --- - --- ----- ----- ----<br>---- --- --- ----- --- ---- ---- ------- ----- ---- -------<br>--- --- -- ----- -- --- ---- -- --- ---- -- ------ ------<br>--- ----- -- ----,62575.300000071526,62574.5,61908.848,61911.60000002384,61925.519,62592.355,,13,that
screen,html.Screen,0_2_0_1_14,2021-11-12T15:30:11.429Z,,,,,,,,,,,,,,,,53,,,,,,,,,,,,,,638.0449999761549,,response,,,99,,,,,,Space,keypress(Space),,,,,---- -- ----- -- ------ - ------- --- ----------<br>------------- ------ ------ ---- ---- feeling ----- -- ----<br>-------- ------- -- ---------- --- - --- ----- ----- ----<br>---- --- --- ----- --- ---- ---- ------- ----- ---- -------<br>--- --- -- ----- -- --- ---- -- --- ---- -- ------ ------<br>--- ----- -- ----,63231.300000071526,63230.39999997616,62575.684,62575.60000002384,62592.355,63242.471,,14,feeling
screen,html.Screen,0_2_0_1_15,2021-11-12T15:30:12.021Z,,,,,,,,,,,,,,,,53,,,,,,,,,,,,,,580.0290000000023,,response,,,99,,,,,,Space,keypress(Space),,,,,---- -- ----- -- ------ - ------- --- ----------<br>------------- ------ ------ ---- ---- ------- close -- ----<br>-------- ------- -- ---------- --- - --- ----- ----- ----<br>---- --- --- ----- --- ---- ---- ------- ----- ---- -------<br>--- --- -- ----- -- --- ---- -- --- ---- -- ------ ------<br>--- ----- -- ----,63823.300000071526,63822.5,63225.801,63231.60000002384,63242.471,63825.955,,15,close
screen,html.Screen,0_2_0_1_16,2021-11-12T15:30:12.565Z,,,,,,,,,,,,,,,,53,,,,,,,,,,,,,,540.5449999999983,,response,,,99,,,,,,Space,keypress(Space),,,,,---- -- ----- -- ------ - ------- --- ----------<br>------------- ------ ------ ---- ---- ------- ----- to ----<br>-------- ------- -- ---------- --- - --- ----- ----- ----<br>---- --- --- ----- --- ---- ---- ------- ----- ---- -------<br>--- --- -- ----- -- --- ---- -- --- ---- -- ------ ------<br>--- ----- -- ----,64367.300000071526,64366.5,63809.285,63823.60000002384,63825.955,64376.17,,16,to
screen,html.Screen,0_2_0_1_17,2021-11-12T15:30:13.190Z,,,,,,,,,,,,,,,,53,,,,,,,,,,,,,,614.7299999761599,,response,,,99,,,,,,Space,keypress(Space),,,,,---- -- ----- -- ------ - ------- --- ----------<br>------------- ------ ------ ---- ---- ------- ----- -- your<br>-------- ------- -- ---------- --- - --- ----- ----- ----<br>---- --- --- ----- --- ---- ---- ------- ----- ---- -------<br>--- --- -- ----- -- --- ---- -- --- ---- -- ------ ------<br>--- ----- -- ----,64991.700000047684,64990.89999997616,64359.499,64367.5,64376.17,64992.991,,17,your
screen,html.Screen,0_2_0_1_18,2021-11-12T15:30:13.789Z,,,,,,,,,,,,,,,,53,,,,,,,,,,,,,,597.5089999999982,,response,,,99,,,,,,Space,keypress(Space),,,,,---- -- ----- -- ------ - ------- --- ----------<br>------------- ------ ------ ---- ---- ------- ----- -- ----<br>romantic ------- -- ---------- --- - --- ----- ----- ----<br>---- --- --- ----- --- ---- ---- ------- ----- ---- -------<br>--- --- -- ----- -- --- ---- -- --- ---- -- ------ ------<br>--- ----- -- ----,65591.30000007153,65590.5,64976.32,64992,64992.991,65593.19,,18,romantic
screen,html.Screen,0_2_0_1_19,2021-11-12T15:30:14.405Z,,,,,,,,,,,,,,,,53,,,,,,,,,,,,,,613.3099999999977,,response,,,99,,,,,,Space,keypress(Space),,,,,---- -- ----- -- ------ - ------- --- ----------<br>------------- ------ ------ ---- ---- ------- ----- -- ----<br>-------- partner -- ---------- --- - --- ----- ----- ----<br>---- --- --- ----- --- ---- ---- ------- ----- ---- -------<br>--- --- -- ----- -- --- ---- -- --- ---- -- ------ ------<br>--- ----- -- ----,66207.20000004768,66206.5,65576.519,65591.5,65593.19,66209.928,,19,partner
screen,html.Screen,0_2_0_1_20,2021-11-12T15:30:14.941Z,,,,,,,,,,,,,,,,53,,,,,,,,,,,,,,532.4719999761583,,response,,,99,,,,,,Space,keypress(Space),,,,,---- -- ----- -- ------ - ------- --- ----------<br>------------- ------ ------ ---- ---- ------- ----- -- ----<br>-------- ------- is ---------- --- - --- ----- ----- ----<br>---- --- --- ----- --- ---- ---- ------- ----- ---- -------<br>--- --- -- ----- -- --- ---- -- --- ---- -- ------ ------<br>--- ----- -- ----,66743.20000004768,66742.39999997616,66193.258,66207.5,66209.928,66760.133,,20,is
screen,html.Screen,0_2_0_1_21,2021-11-12T15:30:15.829Z,,,,,,,,,,,,,,,,53,,,,,,,,,,,,,,870.2669999761565,,response,,,99,,,,,,Space,keypress(Space),,,,,---- -- ----- -- ------ - ------- --- ----------<br>------------- ------ ------ ---- ---- ------- ----- -- ----<br>-------- ------- -- paramount. --- - --- ----- ----- ----<br>---- --- --- ----- --- ---- ---- ------- ----- ---- -------<br>--- --- -- ----- -- --- ---- -- --- ---- -- ------ ------<br>--- ----- -- ----,67631.20000004768,67630.39999997616,66743.462,66743.5,66760.133,67643.704,,21,paramount.
screen,html.Screen,0_2_0_1_22,2021-11-12T15:30:16.413Z,,,,,,,,,,,,,,,,53,,,,,,,,,,,,,,570.5960000715277,,response,,,99,,,,,,Space,keypress(Space),,,,,---- -- ----- -- ------ - ------- --- ----------<br>------------- ------ ------ ---- ---- ------- ----- -- ----<br>-------- ------- -- ---------- But - --- ----- ----- ----<br>---- --- --- ----- --- ---- ---- ------- ----- ---- -------<br>--- --- -- ----- -- --- ---- -- --- ---- -- ------ ------<br>--- ----- -- ----,68215.10000002384,68214.30000007153,67627.033,67631.60000002384,67643.704,68227.221,,22,But
screen,html.Screen,0_2_0_1_23,2021-11-12T15:30:16.789Z,,,,,,,,,,,,,,,,53,,,,,,,,,,,,,,363.07900007152057,,response,,,99,,,,,,Space,keypress(Space),,,,,---- -- ----- -- ------ - ------- --- ----------<br>------------- ------ ------ ---- ---- ------- ----- -- ----<br>-------- ------- -- ---------- --- a --- ----- ----- ----<br>---- --- --- ----- --- ---- ---- ------- ----- ---- -------<br>--- --- -- ----- -- --- ---- -- --- ---- -- ------ ------<br>--- ----- -- ----,68591.10000002384,68590.30000007153,68210.55,68215.39999997616,68227.221,68593.928,,23,a
screen,html.Screen,0_2_0_1_24,2021-11-12T15:30:17.229Z,,,,,,,,,,,,,,,,53,,,,,,,,,,,,,,436.3720000715257,,response,,,99,,,,,,Space,keypress(Space),,,,,---- -- ----- -- ------ - ------- --- ----------<br>------------- ------ ------ ---- ---- ------- ----- -- ----<br>-------- ------- -- ---------- --- - new ----- ----- ----<br>---- --- --- ----- --- ---- ---- ------- ----- ---- -------<br>--- --- -- ----- -- --- ---- -- --- ---- -- ------ ------<br>--- ----- -- ----,69031.10000002384,69030.30000007153,68577.258,68591.39999997616,68593.928,69044.083,,24,new
screen,html.Screen,0_2_0_1_25,2021-11-12T15:30:17.709Z,,,,,,,,,,,,,,,,53,,,,,,,,,,,,,,466.21700007152685,,response,,,99,,,,,,Space,keypress(Space),,,,,---- -- ----- -- ------ - ------- --- ----------<br>------------- ------ ------ ---- ---- ------- ----- -- ----<br>-------- ------- -- ---------- --- - --- study ----- ----<br>---- --- --- ----- --- ---- ---- ------- ----- ---- -------<br>--- --- -- ----- -- --- ---- -- --- ---- -- ------ ------<br>--- ----- -- ----,69511.10000002384,69510.30000007153,69027.412,69031.30000007153,69044.083,69527.506,,25,study
screen,html.Screen,0_2_0_1_26,2021-11-12T15:30:18.173Z,,,,,,,,,,,,,,,,53,,,,,,,,,,,,,,446.7940000715316,,response,,,99,,,,,,Space,keypress(Space),,,,,---- -- ----- -- ------ - ------- --- ----------<br>------------- ------ ------ ---- ---- ------- ----- -- ----<br>-------- ------- -- ---------- --- - --- ----- finds ----<br>---- --- --- ----- --- ---- ---- ------- ----- ---- -------<br>--- --- -- ----- -- --- ---- -- --- ---- -- ------ ------<br>--- ----- -- ----,69975,69974.30000007153,69510.836,69511.39999997616,69527.506,69977.664,,26,finds
screen,html.Screen,0_2_0_1_27,2021-11-12T15:30:18.621Z,,,,,,,,,,,,,,,,53,,,,,,,,,,,,,,444.63600007152127,,response,,,99,,,,,,Space,keypress(Space),,,,,---- -- ----- -- ------ - ------- --- ----------<br>------------- ------ ------ ---- ---- ------- ----- -- ----<br>-------- ------- -- ---------- --- - --- ----- ----- that<br>---- --- --- ----- --- ---- ---- ------- ----- ---- -------<br>--- --- -- ----- -- --- ---- -- --- ---- -- ------ ------<br>--- ----- -- ----,70423.10000002384,70422.30000007153,69960.993,69975.30000007153,69977.664,70427.799,,27,that
screen,html.Screen,0_2_0_1_28,2021-11-12T15:30:19.101Z,,,,,,,,,,,,,,,,53,,,,,,,,,,,,,,474.40100004768465,,response,,,99,,,,,,Space,keypress(Space),,,,,---- -- ----- -- ------ - ------- --- ----------<br>------------- ------ ------ ---- ---- ------- ----- -- ----<br>-------- ------- -- ---------- --- - --- ----- ----- ----<br>it's --- --- ----- --- ---- ---- ------- ----- ---- -------<br>--- --- -- ----- -- --- ---- -- --- ---- -- ------ ------<br>--- ----- -- ----,70903,70902.20000004768,70411.128,70423.30000007153,70427.799,70911.139,,28,it's
screen,html.Screen,0_2_0_1_29,2021-11-12T15:30:19.597Z,,,,,,,,,,,,,,,,53,,,,,,,,,,,,,,487.16100007153,,response,,,99,,,,,,Space,keypress(Space),,,,,---- -- ----- -- ------ - ------- --- ----------<br>------------- ------ ------ ---- ---- ------- ----- -- ----<br>-------- ------- -- ---------- --- - --- ----- ----- ----<br>---- not --- ----- --- ---- ---- ------- ----- ---- -------<br>--- --- -- ----- -- --- ---- -- --- ---- -- ------ ------<br>--- ----- -- ----,71399,71398.30000007153,70894.47,70903.30000007153,70911.139,71411.41,,29,not
screen,html.Screen,0_2_0_1_30,2021-11-12T15:30:20.101Z,,,,,,,,,,,,,,,,53,,,,,,,,,,,,,,490.7900000476802,,response,,,99,,,,,,Space,keypress(Space),,,,,---- -- ----- -- ------ - ------- --- ----------<br>------------- ------ ------ ---- ---- ------- ----- -- ----<br>-------- ------- -- ---------- --- - --- ----- ----- ----<br>---- --- how ----- --- ---- ---- ------- ----- ---- -------<br>--- --- -- ----- -- --- ---- -- --- ---- -- ------ ------<br>--- ----- -- ----,71903,71902.20000004768,71394.739,71399.30000007153,71411.41,71911.523,,30,how
screen,html.Screen,0_2_0_1_31,2021-11-12T15:30:20.661Z,,,,,,,,,,,,,,,,53,,,,,,,,,,,,,,550.5770000238408,,response,,,99,,,,,,Space,keypress(Space),,,,,---- -- ----- -- ------ - ------- --- ----------<br>------------- ------ ------ ---- ---- ------- ----- -- ----<br>-------- ------- -- ---------- --- - --- ----- ----- ----<br>---- --- --- close --- ---- ---- ------- ----- ---- -------<br>--- --- -- ----- -- --- ---- -- --- ---- -- ------ ------<br>--- ----- -- ----,72463,72462.10000002384,71894.852,71903.20000004768,71911.523,72478.192,,31,close
screen,html.Screen,0_2_0_1_32,2021-11-12T15:30:21.077Z,,,,,,,,,,,,,,,,53,,,,,,,,,,,,,,400.00800004768826,,response,,,99,,,,,,Space,keypress(Space),,,,,---- -- ----- -- ------ - ------- --- ----------<br>------------- ------ ------ ---- ---- ------- ----- -- ----<br>-------- ------- -- ---------- --- - --- ----- ----- ----<br>---- --- --- ----- you ---- ---- ------- ----- ---- -------<br>--- --- -- ----- -- --- ---- -- --- ---- -- ------ ------<br>--- ----- -- ----,72879.20000004768,72878.20000004768,72461.523,72463.20000004768,72478.192,72895.142,,32,you
screen,html.Screen,0_2_0_1_33,2021-11-12T15:30:21.565Z,,,,,,,,,,,,,,,,53,,,,,,,,,,,,,,470.95800002383476,,response,,,99,,,,,,Space,keypress(Space),,,,,---- -- ----- -- ------ - ------- --- ----------<br>------------- ------ ------ ---- ---- ------- ----- -- ----<br>-------- ------- -- ---------- --- - --- ----- ----- ----<br>---- --- --- ----- --- feel ---- ------- ----- ---- -------<br>--- --- -- ----- -- --- ---- -- --- ---- -- ------ ------<br>--- ----- -- ----,73366.89999997616,73366.10000002384,72878.471,72879.5,72895.142,73378.449,,33,feel
screen,html.Screen,0_2_0_1_34,2021-11-12T15:30:22.021Z,,,,,,,,,,,,,,,,53,,,,,,,,,,,,,,443.6510000238486,,response,,,99,,,,,,Space,keypress(Space),,,,,---- -- ----- -- ------ - ------- --- ----------<br>------------- ------ ------ ---- ---- ------- ----- -- ----<br>-------- ------- -- ---------- --- - --- ----- ----- ----<br>---- --- --- ----- --- ---- that ------- ----- ---- -------<br>--- --- -- ----- -- --- ---- -- --- ---- -- ------ ------<br>--- ----- -- ----,73822.80000007153,73822.10000002384,73361.78,73367.10000002384,73378.449,73828.779,,34,that
screen,html.Screen,0_2_0_1_35,2021-11-12T15:30:22.565Z,,,,,,,,,,,,,,,,53,,,,,,,,,,,,,,537.3210000238469,,response,,,99,,,,,,Space,keypress(Space),,,,,---- -- ----- -- ------ - ------- --- ----------<br>------------- ------ ------ ---- ---- ------- ----- -- ----<br>-------- ------- -- ---------- --- - --- ----- ----- ----<br>---- --- --- ----- --- ---- ---- matters ----- ---- -------<br>--- --- -- ----- -- --- ---- -- --- ---- -- ------ ------<br>--- ----- -- ----,74366.89999997616,74366.10000002384,73812.107,73823.10000002384,73828.779,74378.85,,35,matters
screen,html.Screen,0_2_0_1_36,2021-11-12T15:30:23.205Z,,,,,,,,,,,,,,,,53,,,,,,,,,,,,,,627.6499999999942,,response,,,99,,,,,,Space,keypress(Space),,,,,"---- -- ----- -- ------ - ------- --- ----------<br>------------- ------ ------ ---- ---- ------- ----- -- ----<br>-------- ------- -- ---------- --- - --- ----- ----- ----<br>---- --- --- ----- --- ---- ---- ------- most, ---- -------<br>--- --- -- ----- -- --- ---- -- --- ---- -- ------ ------<br>--- ----- -- ----",75007.5,75006.5,74362.179,74367.10000002384,74378.85,75012.175,,36,"most,"
screen,html.Screen,0_2_0_1_37,2021-11-12T15:30:23.941Z,,,,,,,,,,,,,,,,53,,,,,,,,,,,,,,729.8249999999971,,response,,,99,,,,,,Space,keypress(Space),,,,,---- -- ----- -- ------ - ------- --- ----------<br>------------- ------ ------ ---- ---- ------- ----- -- ----<br>-------- ------- -- ---------- --- - --- ----- ----- ----<br>---- --- --- ----- --- ---- ---- ------- ----- it's -------<br>--- --- -- ----- -- --- ---- -- --- ---- -- ------ ------<br>--- ----- -- ----,75742.80000007153,75742,74995.506,75007.80000007153,75012.175,75745.772,,37,it's
screen,html.Screen,0_2_0_1_38,2021-11-12T15:30:24.469Z,,,,,,,,,,,,,,,,53,,,,,,,,,,,,,,524.2280000000028,,response,,,99,,,,,,Space,keypress(Space),,,,,---- -- ----- -- ------ - ------- --- ----------<br>------------- ------ ------ ---- ---- ------- ----- -- ----<br>-------- ------- -- ---------- --- - --- ----- ----- ----<br>---- --- --- ----- --- ---- ---- ------- ----- ---- whether<br>--- --- -- ----- -- --- ---- -- --- ---- -- ------ ------<br>--- ----- -- ----,76270.80000007153,76270,75729.102,75743,75745.772,76279.46,,38,whether
screen,html.Screen,0_2_0_1_39,2021-11-12T15:30:24.973Z,,,,,,,,,,,,,,,,53,,,,,,,,,,,,,,494.5399999999936,,response,,,99,,,,,,Space,keypress(Space),,,,,---- -- ----- -- ------ - ------- --- ----------<br>------------- ------ ------ ---- ---- ------- ----- -- ----<br>-------- ------- -- ---------- --- - --- ----- ----- ----<br>---- --- --- ----- --- ---- ---- ------- ----- ---- -------<br>you --- -- ----- -- --- ---- -- --- ---- -- ------ ------<br>--- ----- -- ----,76774.70000004768,76774,76262.788,76271,76279.46,76779.449,,39,you
screen,html.Screen,0_2_0_1_40,2021-11-12T15:30:25.541Z,,,,,,,,,,,,,,,,53,,,,,,,,,,,,,,562.5510000000068,,response,,,99,,,,,,Space,keypress(Space),,,,,---- -- ----- -- ------ - ------- --- ----------<br>------------- ------ ------ ---- ---- ------- ----- -- ----<br>-------- ------- -- ---------- --- - --- ----- ----- ----<br>---- --- --- ----- --- ---- ---- ------- ----- ---- -------<br>--- are -- ----- -- --- ---- -- --- ---- -- ------ ------<br>--- ----- -- ----,77342.80000007153,77342,76762.779,76774.89999997616,76779.449,77346.237,,40,are
screen,html.Screen,0_2_0_1_41,2021-11-12T15:30:26.140Z,,,,,,,,,,,,,,,,53,,,,,,,,,,,,,,595.6629999761644,,response,,,99,,,,,,Space,keypress(Space),,,,,---- -- ----- -- ------ - ------- --- ----------<br>------------- ------ ------ ---- ---- ------- ----- -- ----<br>-------- ------- -- ---------- --- - --- ----- ----- ----<br>---- --- --- ----- --- ---- ---- ------- ----- ---- -------<br>--- --- as ----- -- --- ---- -- --- ---- -- ------ ------<br>--- ----- -- ----,77942.70000004768,77941.89999997616,77329.567,77342.89999997616,77346.237,77946.509,,41,as
screen,html.Screen,0_2_0_1_42,2021-11-12T15:30:26.716Z,,,,,,,,,,,,,,,,53,,,,,,,,,,,,,,571.2910000715201,,response,,,99,,,,,,Space,keypress(Space),,,,,---- -- ----- -- ------ - ------- --- ----------<br>------------- ------ ------ ---- ---- ------- ----- -- ----<br>-------- ------- -- ---------- --- - --- ----- ----- ----<br>---- --- --- ----- --- ---- ---- ------- ----- ---- -------<br>--- --- -- close -- --- ---- -- --- ---- -- ------ ------<br>--- ----- -- ----,78518.70000004768,78517.80000007153,77929.838,77943,77946.509,78529.969,,42,close
screen,html.Screen,0_2_0_1_43,2021-11-12T15:30:27.148Z,,,,,,,,,,,,,,,,53,,,,,,,,,,,,,,419.83100007152825,,response,,,99,,,,,,Space,keypress(Space),,,,,---- -- ----- -- ------ - ------- --- ----------<br>------------- ------ ------ ---- ---- ------- ----- -- ----<br>-------- ------- -- ---------- --- - --- ----- ----- ----<br>---- --- --- ----- --- ---- ---- ------- ----- ---- -------<br>--- --- -- ----- as --- ---- -- --- ---- -- ------ ------<br>--- ----- -- ----,78950.60000002384,78949.80000007153,78513.298,78518.89999997616,78529.969,78963.422,,43,as
screen,html.Screen,0_2_0_1_44,2021-11-12T15:30:27.564Z,,,,,,,,,,,,,,,,53,,,,,,,,,,,,,,402.2780000476778,,response,,,99,,,,,,Space,keypress(Space),,,,,---- -- ----- -- ------ - ------- --- ----------<br>------------- ------ ------ ---- ---- ------- ----- -- ----<br>-------- ------- -- ---------- --- - --- ----- ----- ----<br>---- --- --- ----- --- ---- ---- ------- ----- ---- -------<br>--- --- -- ----- -- you ---- -- --- ---- -- ------ ------<br>--- ----- -- ----,79366.5,79365.70000004768,78946.751,78950.89999997616,78963.422,79380.16,,44,you
screen,html.Screen,0_2_0_1_45,2021-11-12T15:30:28.004Z,,,,,,,,,,,,,,,,53,,,,,,,,,,,,,,425.5400000476802,,response,,,99,,,,,,Space,keypress(Space),,,,,---- -- ----- -- ------ - ------- --- ----------<br>------------- ------ ------ ---- ---- ------- ----- -- ----<br>-------- ------- -- ---------- --- - --- ----- ----- ----<br>---- --- --- ----- --- ---- ---- ------- ----- ---- -------<br>--- --- -- ----- -- --- want -- --- ---- -- ------ ------<br>--- ----- -- ----,79806.5,79805.70000004768,79363.49,79366.80000007153,79380.16,79813.518,,45,want
screen,html.Screen,0_2_0_1_46,2021-11-12T15:30:28.412Z,,,,,,,,,,,,,,,,53,,,,,,,,,,,,,,400.1820000476873,,response,,,99,,,,,,Space,keypress(Space),,,,,---- -- ----- -- ------ - ------- --- ----------<br>------------- ------ ------ ---- ---- ------- ----- -- ----<br>-------- ------- -- ---------- --- - --- ----- ----- ----<br>---- --- --- ----- --- ---- ---- ------- ----- ---- -------<br>--- --- -- ----- -- --- ---- to --- ---- -- ------ ------<br>--- ----- -- ----,80214.60000002384,80213.70000004768,79796.849,79806.80000007153,79813.518,80230.484,,46,to
screen,html.Screen,0_2_0_1_47,2021-11-12T15:30:28.876Z,,,,,,,,,,,,,,,,53,,,,,,,,,,,,,,447.216000047687,,response,,,99,,,,,,Space,keypress(Space),,,,,"---- -- ----- -- ------ - ------- --- ----------<br>------------- ------ ------ ---- ---- ------- ----- -- ----<br>-------- ------- -- ---------- --- - --- ----- ----- ----<br>---- --- --- ----- --- ---- ---- ------- ----- ---- -------<br>--- --- -- ----- -- --- ---- -- be, ---- -- ------ ------<br>--- ----- -- ----",80678.5,80677.70000004768,80213.812,80214.80000007153,80230.484,80680.572,,47,"be,"
screen,html.Screen,0_2_0_1_48,2021-11-12T15:30:29.308Z,,,,,,,,,,,,,,,,53,,,,,,,,,,,,,,429.1280000476836,,response,,,99,,,,,,Space,keypress(Space),,,,,---- -- ----- -- ------ - ------- --- ----------<br>------------- ------ ------ ---- ---- ------- ----- -- ----<br>-------- ------- -- ---------- --- - --- ----- ----- ----<br>---- --- --- ----- --- ---- ---- ------- ----- ---- -------<br>--- --- -- ----- -- --- ---- -- --- even -- ------ ------<br>--- ----- -- ----,81110.5,81109.70000004768,80663.901,80678.70000004768,80680.572,81113.866,,48,even
screen,html.Screen,0_2_0_1_49,2021-11-12T15:30:29.684Z,,,,,,,,,,,,,,,,53,,,,,,,,,,,,,,371.8340000476892,,response,,,99,,,,,,Space,keypress(Space),,,,,---- -- ----- -- ------ - ------- --- ----------<br>------------- ------ ------ ---- ---- ------- ----- -- ----<br>-------- ------- -- ---------- --- - --- ----- ----- ----<br>---- --- --- ----- --- ---- ---- ------- ----- ---- -------<br>--- --- -- ----- -- --- ---- -- --- ---- if ------ ------<br>--- ----- -- ----,81486.5,81485.70000004768,81097.197,81110.70000004768,81113.866,81497.45,,49,if
screen,html.Screen,0_2_0_1_50,2021-11-12T15:30:30.116Z,,,,,,,,,,,,,,,,53,,,,,,,,,,,,,,420.2500000476866,,response,,,99,,,,,,Space,keypress(Space),,,,,---- -- ----- -- ------ - ------- --- ----------<br>------------- ------ ------ ---- ---- ------- ----- -- ----<br>-------- ------- -- ---------- --- - --- ----- ----- ----<br>---- --- --- ----- --- ---- ---- ------- ----- ---- -------<br>--- --- -- ----- -- --- ---- -- --- ---- -- that's ------<br>--- ----- -- ----,81918.5,81917.70000004768,81480.779,81486.70000004768,81497.45,81930.889,,50,that's
screen,html.Screen,0_2_0_1_51,2021-11-12T15:30:30.556Z,,,,,,,,,,,,,,,,53,,,,,,,,,,,,,,426.91100007153,,response,,,99,,,,,,Space,keypress(Space),,,,,---- -- ----- -- ------ - ------- --- ----------<br>------------- ------ ------ ---- ---- ------- ----- -- ----<br>-------- ------- -- ---------- --- - --- ----- ----- ----<br>---- --- --- ----- --- ---- ---- ------- ----- ---- -------<br>--- --- -- ----- -- --- ---- -- --- ---- -- ------ really<br>--- ----- -- ----,82358.5,82357.80000007153,81914.218,81918.80000007153,81930.889,82364.264,,51,really
screen,html.Screen,0_2_0_1_52,2021-11-12T15:30:30.988Z,,,,,,,,,,,,,,,,53,,,,,,,,,,,,,,425.43600004768814,,response,,,99,,,,,,Space,keypress(Space),,,,,---- -- ----- -- ------ - ------- --- ----------<br>------------- ------ ------ ---- ---- ------- ----- -- ----<br>-------- ------- -- ---------- --- - --- ----- ----- ----<br>---- --- --- ----- --- ---- ---- ------- ----- ---- -------<br>--- --- -- ----- -- --- ---- -- --- ---- -- ------ ------<br>not ----- -- ----,82790.5,82789.70000004768,82347.594,82358.70000004768,82364.264,82797.792,,52,not
screen,html.Screen,0_2_0_1_53,2021-11-12T15:30:31.468Z,,,,,,,,,,,,,,,,53,,,,,,,,,,,,,,471.90800004768244,,response,,,99,,,,,,Space,keypress(Space),,,,,---- -- ----- -- ------ - ------- --- ----------<br>------------- ------ ------ ---- ---- ------- ----- -- ----<br>-------- ------- -- ---------- --- - --- ----- ----- ----<br>---- --- --- ----- --- ---- ---- ------- ----- ---- -------<br>--- --- -- ----- -- --- ---- -- --- ---- -- ------ ------<br>--- close -- ----,83270.5,83269.70000004768,82781.121,82790.70000004768,82797.792,83281.257,,53,close
screen,html.Screen,0_2_0_1_54,2021-11-12T15:30:31.916Z,,,,,,,,,,,,,,,,53,,,,,,,,,,,,,,436.34300002384407,,response,,,99,,,,,,Space,keypress(Space),,,,,---- -- ----- -- ------ - ------- --- ----------<br>------------- ------ ------ ---- ---- ------- ----- -- ----<br>-------- ------- -- ---------- --- - --- ----- ----- ----<br>---- --- --- ----- --- ---- ---- ------- ----- ---- -------<br>--- --- -- ----- -- --- ---- -- --- ---- -- ------ ------<br>--- ----- at ----,83718.39999997616,83717.60000002384,83264.586,83270.70000004768,83281.257,83731.241,,54,at
screen,html.Screen,0_2_0_1_55,2021-11-12T15:30:32.620Z,,,,,,,,,,,,,,,,53,,,,,,,,,,,,,,690.4590000476892,,response,,,99,,,,,,Space,keypress(Space),,,,,---- -- ----- -- ------ - ------- --- ----------<br>------------- ------ ------ ---- ---- ------- ----- -- ----<br>-------- ------- -- ---------- --- - --- ----- ----- ----<br>---- --- --- ----- --- ---- ---- ------- ----- ---- -------<br>--- --- -- ----- -- --- ---- -- --- ---- -- ------ ------<br>--- ----- -- all.,84422.5,84421.70000004768,83714.572,83718.70000004768,83731.241,84431.571,,55,all.
Item 99,flow.Loop,0_2_0_1,2021-11-12T15:30:32.625Z,,,,,,,,,,,,,,,,,,,,,,,,,,,,,,30548.51200004768,,completion,,,,C,,,,,,,,,,silence,,84426.80000007153,84421.70000004768,53856.518,53862.200000047684,53873.188,84431.571,,,
Question 1,html.Screen,0_2_0_2,2021-11-12T15:30:40.316Z,,,,,,,,,,,,,,,,,,,,,,,,,,,true,FALSE,,7685.529000023846,,response,,,99,C,,,,,FALSE,click #choice-2,,,,silence,,92118.60000002384,92117.10000002384,84414.9,84427.10000002384,84431.571,92133.647,,,
Question 2,html.Screen,0_2_0_3,2021-11-12T15:30:54.162Z,,,,,,,,,,,,,,,,,,,,,,,,,,,true,TRUE,,13830.453000023845,,response,,,99,C,,,,,TRUE,click #choice-1,,,,silence,,105964.70000004768,105964.10000002384,92116.976,92118.89999997616,92133.647,105970.673,,,
Item 99,flow.Sequence,0_2_0,2021-11-12T15:30:54.163Z,,,,,,,,,,,,,,,,,,,,,,,,,,,,,,62093.436000023845,,completion,,,,,,,,,,,,,,,,105964.89999997616,105964.10000002384,43853.993,43865.39999997616,43870.664,105970.673,,,
Holding screen,html.Screen,0_2_1_0,2021-11-12T15:31:04.155Z,,,,,,,,,,,,,,,,,,,,,,,,,,,,,,10002.430000000008,,timeout,,,,,,,,,,,,,,,,115957.39999997616,115956.434,105954.002,105964.89999997616,105970.673,115973.103,,,
screen,html.Screen,0_2_1_1_0,2021-11-12T15:31:05.107Z,,,,,,,,,,,,,,,,54,,,,,,,,,,,,,,935.4970000238391,,response,,,100,,,,,,Space,keypress(Space),,,,,At --- ---- --- ------ ----- ------- ---- -- --- ------- --<br>------- ---------- ------ -- ----- -- ----- -- ---- ------<br>--- ----- --- --- ------ -------- ----- --- ------ ----- --<br>----- ----- ---------- --- --- ------ ------ ---- -- ------<br>------- --- ------ ----- --- ---- ------- -- ---- --- --<br>------- ------,116909.60000002384,116908.60000002384,115956.434,115957.89999997616,115973.103,116923.658,,0,At
screen,html.Screen,0_2_1_1_1,2021-11-12T15:31:05.475Z,,,,,,,,,,,,,,,,54,,,,,,,,,,,,,,352.5420000476879,,response,,,100,,,,,,Space,keypress(Space),,,,,-- the ---- --- ------ ----- ------- ---- -- --- ------- --<br>------- ---------- ------ -- ----- -- ----- -- ---- ------<br>--- ----- --- --- ------ -------- ----- --- ------ ----- --<br>----- ----- ---------- --- --- ------ ------ ---- -- ------<br>------- --- ------ ----- --- ---- ------- -- ---- --- --<br>------- ------,117277,117276.20000004768,116906.987,116909.80000007153,116923.658,117290.28,,1,the
screen,html.Screen,0_2_1_1_2,2021-11-12T15:31:05.827Z,,,,,,,,,,,,,,,,54,,,,,,,,,,,,,,337.820000023843,,response,,,100,,,,,,Space,keypress(Space),,,,,-- --- time --- ------ ----- ------- ---- -- --- ------- --<br>------- ---------- ------ -- ----- -- ----- -- ---- ------<br>--- ----- --- --- ------ -------- ----- --- ------ ----- --<br>----- ----- ---------- --- --- ------ ------ ---- -- ------<br>------- --- ------ ----- --- ---- ------- -- ---- --- --<br>------- ------,117628.89999997616,117628.10000002384,117273.61,117277.20000004768,117290.28,117640.484,,2,time
screen,html.Screen,0_2_1_1_3,2021-11-12T15:31:06.195Z,,,,,,,,,,,,,,,,54,,,,,,,,,,,,,,355.716000047687,,response,,,100,,,,,,Space,keypress(Space),,,,,-- --- ---- the ------ ----- ------- ---- -- --- ------- --<br>------- ---------- ------ -- ----- -- ----- -- ---- ------<br>--- ----- --- --- ------ -------- ----- --- ------ ----- --<br>----- ----- ---------- --- --- ------ ------ ---- -- ------<br>------- --- ------ ----- --- ---- ------- -- ---- --- --<br>------- ------,117996.89999997616,117996.20000004768,117623.813,117629.20000004768,117640.484,118007.254,,3,the
screen,html.Screen,0_2_1_1_4,2021-11-12T15:31:06.483Z,,,,,,,,,,,,,,,,54,,,,,,,,,,,,,,276.7459999999992,,response,,,100,,,,,,Space,keypress(Space),,,,,-- --- ---- --- French ----- ------- ---- -- --- ------- --<br>------- ---------- ------ -- ----- -- ----- -- ---- ------<br>--- ----- --- --- ------ -------- ----- --- ------ ----- --<br>----- ----- ---------- --- --- ------ ------ ---- -- ------<br>------- --- ------ ----- --- ---- ------- -- ---- --- --<br>------- ------,118285.5,118284,117990.583,117997.10000002384,118007.254,118290.619,,4,French
screen,html.Screen,0_2_1_1_5,2021-11-12T15:31:06.843Z,,,,,,,,,,,,,,,,54,,,,,,,,,,,,,,353.4810000238358,,response,,,100,,,,,,Space,keypress(Space),,,,,-- --- ---- --- ------ crown ------- ---- -- --- ------- --<br>------- ---------- ------ -- ----- -- ----- -- ---- ------<br>--- ----- --- --- ------ -------- ----- --- ------ ----- --<br>----- ----- ---------- --- --- ------ ------ ---- -- ------<br>------- --- ------ ----- --- ---- ------- -- ---- --- --<br>------- ------,118645,118644.10000002384,118273.949,118285.70000004768,118290.619,118657.425,,5,crown
screen,html.Screen,0_2_1_1_6,2021-11-12T15:31:07.163Z,,,,,,,,,,,,,,,,54,,,,,,,,,,,,,,306.67500002383895,,response,,,100,,,,,,Space,keypress(Space),,,,,-- --- ---- --- ------ ----- secured ---- -- --- ------- --<br>------- ---------- ------ -- ----- -- ----- -- ---- ------<br>--- ----- --- --- ------ -------- ----- --- ------ ----- --<br>----- ----- ---------- --- --- ------ ------ ---- -- ------<br>------- --- ------ ----- --- ---- ------- -- ---- --- --<br>------- ------,118964.89999997616,118964.10000002384,118640.754,118645.20000004768,118657.425,118974.131,,6,secured
screen,html.Screen,0_2_1_1_7,2021-11-12T15:31:07.579Z,,,,,,,,,,,,,,,,54,,,,,,,,,,,,,,405.9690000238479,,response,,,100,,,,,,Space,keypress(Space),,,,,-- --- ---- --- ------ ----- ------- much -- --- ------- --<br>------- ---------- ------ -- ----- -- ----- -- ---- ------<br>--- ----- --- --- ------ -------- ----- --- ------ ----- --<br>----- ----- ---------- --- --- ------ ------ ---- -- ------<br>------- --- ------ ----- --- ---- ------- -- ---- --- --<br>------- ------,119380.89999997616,119380.10000002384,118957.461,118965.10000002384,118974.131,119390.953,,7,much
screen,html.Screen,0_2_1_1_8,2021-11-12T15:31:07.931Z,,,,,,,,,,,,,,,,54,,,,,,,,,,,,,,341.04700000000594,,response,,,100,,,,,,Space,keypress(Space),,,,,-- --- ---- --- ------ ----- ------- ---- of --- ------- --<br>------- ---------- ------ -- ----- -- ----- -- ---- ------<br>--- ----- --- --- ------ -------- ----- --- ------ ----- --<br>----- ----- ---------- --- --- ------ ------ ---- -- ------<br>------- --- ------ ----- --- ---- ------- -- ---- --- --<br>------- ------,119732.80000007153,119732,119374.282,119381.20000004768,119390.953,119740.998,,8,of
screen,html.Screen,0_2_1_1_9,2021-11-12T15:31:08.283Z,,,,,,,,,,,,,,,,54,,,,,,,,,,,,,,343.102000023835,,response,,,100,,,,,,Space,keypress(Space),,,,,-- --- ---- --- ------ ----- ------- ---- -- its ------- --<br>------- ---------- ------ -- ----- -- ----- -- ---- ------<br>--- ----- --- --- ------ -------- ----- --- ------ ----- --<br>----- ----- ---------- --- --- ------ ------ ---- -- ------<br>------- --- ------ ----- --- ---- ------- -- ---- --- --<br>------- ------,120084.89999997616,120084.10000002384,119724.328,119733.10000002384,119740.998,120091.019,,9,its
screen,html.Screen,0_2_1_1_10,2021-11-12T15:31:08.726Z,,,,,,,,,,,,,,,,54,,,,,,,,,,,,,,433.0810000238416,,response,,,100,,,,,,Space,keypress(Space),,,,,-- --- ---- --- ------ ----- ------- ---- -- --- revenue --<br>------- ---------- ------ -- ----- -- ----- -- ---- ------<br>--- ----- --- --- ------ -------- ----- --- ------ ----- --<br>----- ----- ---------- --- --- ------ ------ ---- -- ------<br>------- --- ------ ----- --- ---- ------- -- ---- --- --<br>------- ------,120524.89999997616,120524.10000002384,120074.35,120085.10000002384,120091.019,120541.3,,10,revenue
screen,html.Screen,0_2_1_1_11,2021-11-12T15:31:09.118Z,,,,,,,,,,,,,,,,54,,,,,,,,,,,,,,374.80000002383895,,response,,,100,,,,,,Space,keypress(Space),,,,,-- --- ---- --- ------ ----- ------- ---- -- --- ------- by<br>------- ---------- ------ -- ----- -- ----- -- ---- ------<br>--- ----- --- --- ------ -------- ----- --- ------ ----- --<br>----- ----- ---------- --- --- ------ ------ ---- -- ------<br>------- --- ------ ----- --- ---- ------- -- ---- --- --<br>------- ------,120916.89999997616,120916.10000002384,120524.628,120525.10000002384,120541.3,120924.707,,11,by
screen,html.Screen,0_2_1_1_12,2021-11-12T15:31:09.510Z,,,,,,,,,,,,,,,,54,,,,,,,,,,,,,,383.7930000000051,,response,,,100,,,,,,Space,keypress(Space),,,,,-- --- ---- --- ------ ----- ------- ---- -- --- ------- --<br>issuing ---------- ------ -- ----- -- ----- -- ---- ------<br>--- ----- --- --- ------ -------- ----- --- ------ ----- --<br>----- ----- ---------- --- --- ------ ------ ---- -- ------<br>------- --- ------ ----- --- ---- ------- -- ---- --- --<br>------- ------,121309.30000007153,121308.5,120908.036,120917.10000002384,120924.707,121324.804,,12,issuing
screen,html.Screen,0_2_1_1_13,2021-11-12T15:31:09.902Z,,,,,,,,,,,,,,,,54,,,,,,,,,,,,,,375.1959999999963,,response,,,100,,,,,,Space,keypress(Space),,,,,-- --- ---- --- ------ ----- ------- ---- -- --- ------- --<br>------- government ------ -- ----- -- ----- -- ---- ------<br>--- ----- --- --- ------ -------- ----- --- ------ ----- --<br>----- ----- ---------- --- --- ------ ------ ---- -- ------<br>------- --- ------ ----- --- ---- ------- -- ---- --- --<br>------- ------,121700.80000007153,121700,121308.133,121309.5,121324.804,121708.076,,13,government
screen,html.Screen,0_2_1_1_14,2021-11-12T15:31:10.422Z,,,,,,,,,,,,,,,,54,,,,,,,,,,,,,,511.92399999999907,,response,,,100,,,,,,Space,keypress(Space),,,,,-- --- ---- --- ------ ----- ------- ---- -- --- ------- --<br>------- ---------- bonds. -- ----- -- ----- -- ---- ------<br>--- ----- --- --- ------ -------- ----- --- ------ ----- --<br>----- ----- ---------- --- --- ------ ------ ---- -- ------<br>------- --- ------ ----- --- ---- ------- -- ---- --- --<br>------- ------,122220.80000007153,122220,121691.408,121701,121708.076,122225.147,,14,bonds.
screen,html.Screen,0_2_1_1_15,2021-11-12T15:31:11.126Z,,,,,,,,,,,,,,,,54,,,,,,,,,,,,,,698.8530000000028,,response,,,100,,,,,,Space,keypress(Space),,,,,-- --- ---- --- ------ ----- ------- ---- -- --- ------- --<br>------- ---------- ------ In ----- -- ----- -- ---- ------<br>--- ----- --- --- ------ -------- ----- --- ------ ----- --<br>----- ----- ---------- --- --- ------ ------ ---- -- ------<br>------- --- ------ ----- --- ---- ------- -- ---- --- --<br>------- ------,122924.80000007153,122924,122208.474,122221,122225.147,122941.911,,15,In
screen,html.Screen,0_2_1_1_16,2021-11-12T15:31:11.542Z,,,,,,,,,,,,,,,,54,,,,,,,,,,,,,,398.0890000000072,,response,,,100,,,,,,Space,keypress(Space),,,,,"-- --- ---- --- ------ ----- ------- ---- -- --- ------- --<br>------- ---------- ------ -- 1727, -- ----- -- ---- ------<br>--- ----- --- --- ------ -------- ----- --- ------ ----- --<br>----- ----- ---------- --- --- ------ ------ ---- -- ------<br>------- --- ------ ----- --- ---- ------- -- ---- --- --<br>------- ------",123340.70000004768,123340,122925.24,122924.89999997616,122941.911,123342.015,,16,"1727,"
screen,html.Screen,0_2_1_1_17,2021-11-12T15:31:11.966Z,,,,,,,,,,,,,,,,54,,,,,,,,,,,,,,421.8849999761587,,response,,,100,,,,,,Space,keypress(Space),,,,,-- --- ---- --- ------ ----- ------- ---- -- --- ------- --<br>------- ---------- ------ -- ----- in ----- -- ---- ------<br>--- ----- --- --- ------ -------- ----- --- ------ ----- --<br>----- ----- ---------- --- --- ------ ------ ---- -- ------<br>------- --- ------ ----- --- ---- ------- -- ---- --- --<br>------- ------,123764.70000004768,123763.89999997616,123325.344,123341,123342.015,123775.47,,17,in
screen,html.Screen,0_2_1_1_18,2021-11-12T15:31:12.438Z,,,,,,,,,,,,,,,,54,,,,,,,,,,,,,,460.429999976157,,response,,,100,,,,,,Space,keypress(Space),,,,,-- --- ---- --- ------ ----- ------- ---- -- --- ------- --<br>------- ---------- ------ -- ----- -- order -- ---- ------<br>--- ----- --- --- ------ -------- ----- --- ------ ----- --<br>----- ----- ---------- --- --- ------ ------ ---- -- ------<br>------- --- ------ ----- --- ---- ------- -- ---- --- --<br>------- ------,124236.70000004768,124235.89999997616,123758.799,123765,123775.47,124242.219,,18,order
screen,html.Screen,0_2_1_1_19,2021-11-12T15:31:12.982Z,,,,,,,,,,,,,,,,54,,,,,,,,,,,,,,537.5810000715283,,response,,,100,,,,,,Space,keypress(Space),,,,,-- --- ---- --- ------ ----- ------- ---- -- --- ------- --<br>------- ---------- ------ -- ----- -- ----- to ---- ------<br>--- ----- --- --- ------ -------- ----- --- ------ ----- --<br>----- ----- ---------- --- --- ------ ------ ---- -- ------<br>------- --- ------ ----- --- ---- ------- -- ---- --- --<br>------- ------,124780.60000002384,124779.80000007153,124225.549,124236.89999997616,124242.219,124792.4,,19,to
screen,html.Screen,0_2_1_1_20,2021-11-12T15:31:13.422Z,,,,,,,,,,,,,,,,54,,,,,,,,,,,,,,427.49999997616396,,response,,,100,,,,,,Space,keypress(Space),,,,,-- --- ---- --- ------ ----- ------- ---- -- --- ------- --<br>------- ---------- ------ -- ----- -- ----- -- save ------<br>--- ----- --- --- ------ -------- ----- --- ------ ----- --<br>----- ----- ---------- --- --- ------ ------ ---- -- ------<br>------- --- ------ ----- --- ---- ------- -- ---- --- --<br>------- ------,125220.60000002384,125219.89999997616,124775.729,124780.89999997616,124792.4,125225.872,,20,save
screen,html.Screen,0_2_1_1_21,2021-11-12T15:31:13.942Z,,,,,,,,,,,,,,,,54,,,,,,,,,,,,,,513.9280000715225,,response,,,100,,,,,,Space,keypress(Space),,,,,"-- --- ---- --- ------ ----- ------- ---- -- --- ------- --<br>------- ---------- ------ -- ----- -- ----- -- ---- money,<br>--- ----- --- --- ------ -------- ----- --- ------ ----- --<br>----- ----- ---------- --- --- ------ ------ ---- -- ------<br>------- --- ------ ----- --- ---- ------- -- ---- --- --<br>------- ------",125740.60000002384,125739.80000007153,125209.201,125220.80000007153,125225.872,125742.606,,21,"money,"
screen,html.Screen,0_2_1_1_22,2021-11-12T15:31:14.446Z,,,,,,,,,,,,,,,,54,,,,,,,,,,,,,,501.1940000715258,,response,,,100,,,,,,Space,keypress(Space),,,,,-- --- ---- --- ------ ----- ------- ---- -- --- ------- --<br>------- ---------- ------ -- ----- -- ----- -- ---- ------<br>the ----- --- --- ------ -------- ----- --- ------ ----- --<br>----- ----- ---------- --- --- ------ ------ ---- -- ------<br>------- --- ------ ----- --- ---- ------- -- ---- --- --<br>------- ------,126244.60000002384,126243.80000007153,125725.936,125740.89999997616,125742.606,126259.414,,22,the
screen,html.Screen,0_2_1_1_23,2021-11-12T15:31:14.814Z,,,,,,,,,,,,,,,,54,,,,,,,,,,,,,,352.38600007152127,,response,,,100,,,,,,Space,keypress(Space),,,,,-- --- ---- --- ------ ----- ------- ---- -- --- ------- --<br>------- ---------- ------ -- ----- -- ----- -- ---- ------<br>--- state --- --- ------ -------- ----- --- ------ ----- --<br>----- ----- ---------- --- --- ------ ------ ---- -- ------<br>------- --- ------ ----- --- ---- ------- -- ---- --- --<br>------- ------,126612.5,126611.80000007153,126242.744,126244.80000007153,126259.414,126626.241,,23,state
screen,html.Screen,0_2_1_1_24,2021-11-12T15:31:15.270Z,,,,,,,,,,,,,,,,54,,,,,,,,,,,,,,441.9590000476892,,response,,,100,,,,,,Space,keypress(Space),,,,,-- --- ---- --- ------ ----- ------- ---- -- --- ------- --<br>------- ---------- ------ -- ----- -- ----- -- ---- ------<br>--- ----- cut --- ------ -------- ----- --- ------ ----- --<br>----- ----- ---------- --- --- ------ ------ ---- -- ------<br>------- --- ------ ----- --- ---- ------- -- ---- --- --<br>------- ------,127069,127068.20000004768,126609.57,126612.80000007153,126626.241,127076.316,,24,cut
screen,html.Screen,0_2_1_1_25,2021-11-12T15:31:15.726Z,,,,,,,,,,,,,,,,54,,,,,,,,,,,,,,447.4840000715194,,response,,,100,,,,,,Space,keypress(Space),,,,,-- --- ---- --- ------ ----- ------- ---- -- --- ------- --<br>------- ---------- ------ -- ----- -- ----- -- ---- ------<br>--- ----- --- the ------ -------- ----- --- ------ ----- --<br>----- ----- ---------- --- --- ------ ------ ---- -- ------<br>------- --- ------ ----- --- ---- ------- -- ---- --- --<br>------- ------,127524.5,127523.80000007153,127059.646,127069.20000004768,127076.316,127526.471,,25,the
screen,html.Screen,0_2_1_1_26,2021-11-12T15:31:16.222Z,,,,,,,,,,,,,,,,54,,,,,,,,,,,,,,493.2290000476787,,response,,,100,,,,,,Space,keypress(Space),,,,,-- --- ---- --- ------ ----- ------- ---- -- --- ------- --<br>------- ---------- ------ -- ----- -- ----- -- ---- ------<br>--- ----- --- --- bonds' -------- ----- --- ------ ----- --<br>----- ----- ---------- --- --- ------ ------ ---- -- ------<br>------- --- ------ ----- --- ---- ------- -- ---- --- --<br>------- ------,128020.5,128019.70000004768,127509.8,127524.80000007153,127526.471,128026.488,,26,bonds'
screen,html.Screen,0_2_1_1_27,2021-11-12T15:31:16.742Z,,,,,,,,,,,,,,,,54,,,,,,,,,,,,,,513.2120000476862,,response,,,100,,,,,,Space,keypress(Space),,,,,-- --- ---- --- ------ ----- ------- ---- -- --- ------- --<br>------- ---------- ------ -- ----- -- ----- -- ---- ------<br>--- ----- --- --- ------ interest ----- --- ------ ----- --<br>----- ----- ---------- --- --- ------ ------ ---- -- ------<br>------- --- ------ ----- --- ---- ------- -- ---- --- --<br>------- ------,128540.5,128539.70000004768,128009.819,128020.70000004768,128026.488,128543.398,,27,interest
screen,html.Screen,0_2_1_1_28,2021-11-12T15:31:17.334Z,,,,,,,,,,,,,,,,54,,,,,,,,,,,,,,588.2020000238408,,response,,,100,,,,,,Space,keypress(Space),,,,,-- --- ---- --- ------ ----- ------- ---- -- --- ------- --<br>------- ---------- ------ -- ----- -- ----- -- ---- ------<br>--- ----- --- --- ------ -------- rate. --- ------ ----- --<br>----- ----- ---------- --- --- ------ ------ ---- -- ------<br>------- --- ------ ----- --- ---- ------- -- ---- --- --<br>------- ------,129132.39999997616,129131.60000002384,128526.727,128540.70000004768,128543.398,129143.587,,28,rate.
screen,html.Screen,0_2_1_1_29,2021-11-12T15:31:17.814Z,,,,,,,,,,,,,,,,54,,,,,,,,,,,,,,468.0130000238423,,response,,,100,,,,,,Space,keypress(Space),,,,,-- --- ---- --- ------ ----- ------- ---- -- --- ------- --<br>------- ---------- ------ -- ----- -- ----- -- ---- ------<br>--- ----- --- --- ------ -------- ----- The ------ ----- --<br>----- ----- ---------- --- --- ------ ------ ---- -- ------<br>------- --- ------ ----- --- ---- ------- -- ---- --- --<br>------- ------,129612.39999997616,129611.60000002384,129126.916,129132.70000004768,129143.587,129626.948,,29,The
screen,html.Screen,0_2_1_1_30,2021-11-12T15:31:18.262Z,,,,,,,,,,,,,,,,54,,,,,,,,,,,,,,432.6520000238379,,response,,,100,,,,,,Space,keypress(Space),,,,,-- --- ---- --- ------ ----- ------- ---- -- --- ------- --<br>------- ---------- ------ -- ----- -- ----- -- ---- ------<br>--- ----- --- --- ------ -------- ----- --- market ----- --<br>----- ----- ---------- --- --- ------ ------ ---- -- ------<br>------- --- ------ ----- --- ---- ------- -- ---- --- --<br>------- ------,130060.39999997616,130059.60000002384,129610.278,129612.70000004768,129626.948,130077.182,,30,market
screen,html.Screen,0_2_1_1_31,2021-11-12T15:31:18.838Z,,,,,,,,,,,,,,,,54,,,,,,,,,,,,,,558.4180000238412,,response,,,100,,,,,,Space,keypress(Space),,,,,-- --- ---- --- ------ ----- ------- ---- -- --- ------- --<br>------- ---------- ------ -- ----- -- ----- -- ---- ------<br>--- ----- --- --- ------ -------- ----- --- ------ value --<br>----- ----- ---------- --- --- ------ ------ ---- -- ------<br>------- --- ------ ----- --- ---- ------- -- ---- --- --<br>------- ------,130636.39999997616,130635.60000002384,130060.511,130060.70000004768,130077.182,130643.924,,31,value
screen,html.Screen,0_2_1_1_32,2021-11-12T15:31:19.350Z,,,,,,,,,,,,,,,,54,,,,,,,,,,,,,,503.6760000238428,,response,,,100,,,,,,Space,keypress(Space),,,,,-- --- ---- --- ------ ----- ------- ---- -- --- ------- --<br>------- ---------- ------ -- ----- -- ----- -- ---- ------<br>--- ----- --- --- ------ -------- ----- --- ------ ----- of<br>----- ----- ---------- --- --- ------ ------ ---- -- ------<br>------- --- ------ ----- --- ---- ------- -- ---- --- --<br>------- ------,131148.39999997616,131147.60000002384,130627.254,130636.60000002384,130643.924,131160.709,,32,of
screen,html.Screen,0_2_1_1_33,2021-11-12T15:31:19.878Z,,,,,,,,,,,,,,,,54,,,,,,,,,,,,,,514.7909999999974,,response,,,100,,,,,,Space,keypress(Space),,,,,-- --- ---- --- ------ ----- ------- ---- -- --- ------- --<br>------- ---------- ------ -- ----- -- ----- -- ---- ------<br>--- ----- --- --- ------ -------- ----- --- ------ ----- --<br>these ----- ---------- --- --- ------ ------ ---- -- ------<br>------- --- ------ ----- --- ---- ------- -- ---- --- --<br>------- ------,131676.30000007153,131675.5,131144.039,131148.60000002384,131160.709,131677.602,,33,these
screen,html.Screen,0_2_1_1_34,2021-11-12T15:31:20.230Z,,,,,,,,,,,,,,,,54,,,,,,,,,,,,,,349.8979999999865,,response,,,100,,,,,,Space,keypress(Space),,,,,-- --- ---- --- ------ ----- ------- ---- -- --- ------- --<br>------- ---------- ------ -- ----- -- ----- -- ---- ------<br>--- ----- --- --- ------ -------- ----- --- ------ ----- --<br>----- bonds ---------- --- --- ------ ------ ---- -- ------<br>------- --- ------ ----- --- ---- ------- -- ---- --- --<br>------- ------,132028.39999997616,132027.5,131660.931,131676.5,131677.602,132044.355,,34,bonds
screen,html.Screen,0_2_1_1_35,2021-11-12T15:31:20.757Z,,,,,,,,,,,,,,,,54,,,,,,,,,,,,,,511.04499997614766,,response,,,100,,,,,,Space,keypress(Space),,,,,"-- --- ---- --- ------ ----- ------- ---- -- --- ------- --<br>------- ---------- ------ -- ----- -- ----- -- ---- ------<br>--- ----- --- --- ------ -------- ----- --- ------ ----- --<br>----- ----- plummeted, --- --- ------ ------ ---- -- ------<br>------- --- ------ ----- --- ---- ------- -- ---- --- --<br>------- ------",132556.30000007153,132555.39999997616,132027.684,132028.60000002384,132044.355,132561.01,,35,"plummeted,"
screen,html.Screen,0_2_1_1_36,2021-11-12T15:31:21.246Z,,,,,,,,,,,,,,,,54,,,,,,,,,,,,,,482.38999997614883,,response,,,100,,,,,,Space,keypress(Space),,,,,-- --- ---- --- ------ ----- ------- ---- -- --- ------- --<br>------- ---------- ------ -- ----- -- ----- -- ---- ------<br>--- ----- --- --- ------ -------- ----- --- ------ ----- --<br>----- ----- ---------- and --- ------ ------ ---- -- ------<br>------- --- ------ ----- --- ---- ------- -- ---- --- --<br>------- ------,133044.30000007153,133043.39999997616,132544.341,132556.5,132561.01,133061.36,,36,and
screen,html.Screen,0_2_1_1_37,2021-11-12T15:31:21.725Z,,,,,,,,,,,,,,,,54,,,,,,,,,,,,,,462.0399999761721,,response,,,100,,,,,,Space,keypress(Space),,,,,-- --- ---- --- ------ ----- ------- ---- -- --- ------- --<br>------- ---------- ------ -- ----- -- ----- -- ---- ------<br>--- ----- --- --- ------ -------- ----- --- ------ ----- --<br>----- ----- ---------- --- the ------ ------ ---- -- ------<br>------- --- ------ ----- --- ---- ------- -- ---- --- --<br>------- ------,133524.20000004768,133523.39999997616,133044.688,133044.70000004768,133061.36,133528.088,,37,the
screen,html.Screen,0_2_1_1_38,2021-11-12T15:31:22.765Z,,,,,,,,,,,,,,,,54,,,,,,,,,,,,,,1035.4120000000112,,response,,,100,,,,,,Space,keypress(Space),,,,,-- --- ---- --- ------ ----- ------- ---- -- --- ------- --<br>------- ---------- ------ -- ----- -- ----- -- ---- ------<br>--- ----- --- --- ------ -------- ----- --- ------ ----- --<br>----- ----- ---------- --- --- market ------ ---- -- ------<br>------- --- ------ ----- --- ---- ------- -- ---- --- --<br>------- ------,134564.30000007153,134563.5,133511.417,133524.39999997616,133528.088,134578.281,,38,market
screen,html.Screen,0_2_1_1_39,2021-11-12T15:31:23.341Z,,,,,,,,,,,,,,,,54,,,,,,,,,,,,,,561.11899997617,,response,,,100,,,,,,Space,keypress(Space),,,,,-- --- ---- --- ------ ----- ------- ---- -- --- ------- --<br>------- ---------- ------ -- ----- -- ----- -- ---- ------<br>--- ----- --- --- ------ -------- ----- --- ------ ----- --<br>----- ----- ---------- --- --- ------ became ---- -- ------<br>------- --- ------ ----- --- ---- ------- -- ---- --- --<br>------- ------,135140.20000004768,135139.39999997616,134561.611,134564.5,134578.281,135145.198,,39,became
screen,html.Screen,0_2_1_1_40,2021-11-12T15:31:23.853Z,,,,,,,,,,,,,,,,54,,,,,,,,,,,,,,506.2019999761542,,response,,,100,,,,,,Space,keypress(Space),,,,,-- --- ---- --- ------ ----- ------- ---- -- --- ------- --<br>------- ---------- ------ -- ----- -- ----- -- ---- ------<br>--- ----- --- --- ------ -------- ----- --- ------ ----- --<br>----- ----- ---------- --- --- ------ ------ wary -- ------<br>------- --- ------ ----- --- ---- ------- -- ---- --- --<br>------- ------,135652.10000002384,135651.39999997616,135128.527,135140.5,135145.198,135661.988,,40,wary
screen,html.Screen,0_2_1_1_41,2021-11-12T15:31:24.301Z,,,,,,,,,,,,,,,,54,,,,,,,,,,,,,,437.41199997614603,,response,,,100,,,,,,Space,keypress(Space),,,,,-- --- ---- --- ------ ----- ------- ---- -- --- ------- --<br>------- ---------- ------ -- ----- -- ----- -- ---- ------<br>--- ----- --- --- ------ -------- ----- --- ------ ----- --<br>----- ----- ---------- --- --- ------ ------ ---- of ------<br>------- --- ------ ----- --- ---- ------- -- ---- --- --<br>------- ------,136100.30000007153,136099.39999997616,135645.317,135652.39999997616,135661.988,136112.112,,41,of
screen,html.Screen,0_2_1_1_42,2021-11-12T15:31:24.877Z,,,,,,,,,,,,,,,,54,,,,,,,,,,,,,,563.2879999761644,,response,,,100,,,,,,Space,keypress(Space),,,,,-- --- ---- --- ------ ----- ------- ---- -- --- ------- --<br>------- ---------- ------ -- ----- -- ----- -- ---- ------<br>--- ----- --- --- ------ -------- ----- --- ------ ----- --<br>----- ----- ---------- --- --- ------ ------ ---- -- French<br>------- --- ------ ----- --- ---- ------- -- ---- --- --<br>------- ------,136676.20000004768,136675.39999997616,136095.441,136100.39999997616,136112.112,136678.928,,42,French
screen,html.Screen,0_2_1_1_43,2021-11-12T15:31:25.414Z,,,,,,,,,,,,,,,,54,,,,,,,,,,,,,,532.8720000715111,,response,,,100,,,,,,Space,keypress(Space),,,,,-- --- ---- --- ------ ----- ------- ---- -- --- ------- --<br>------- ---------- ------ -- ----- -- ----- -- ---- ------<br>--- ----- --- --- ------ -------- ----- --- ------ ----- --<br>----- ----- ---------- --- --- ------ ------ ---- -- ------<br>credit. --- ------ ----- --- ---- ------- -- ---- --- --<br>------- ------,137212.70000004768,137211.80000007153,136662.257,136676.39999997616,136678.928,137229.03,,43,credit.
screen,html.Screen,0_2_1_1_44,2021-11-12T15:31:26.045Z,,,,,,,,,,,,,,,,54,,,,,,,,,,,,,,614.2700000715267,,response,,,100,,,,,,Space,keypress(Space),,,,,-- --- ---- --- ------ ----- ------- ---- -- --- ------- --<br>------- ---------- ------ -- ----- -- ----- -- ---- ------<br>--- ----- --- --- ------ -------- ----- --- ------ ----- --<br>----- ----- ---------- --- --- ------ ------ ---- -- ------<br>------- The ------ ----- --- ---- ------- -- ---- --- --<br>------- ------,137844.10000002384,137843.30000007153,137212.36,137212.89999997616,137229.03,137845.853,,44,The
screen,html.Screen,0_2_1_1_45,2021-11-12T15:31:26.573Z,,,,,,,,,,,,,,,,54,,,,,,,,,,,,,,525.4470000715228,,response,,,100,,,,,,Space,keypress(Space),,,,,-- --- ---- --- ------ ----- ------- ---- -- --- ------- --<br>------- ---------- ------ -- ----- -- ----- -- ---- ------<br>--- ----- --- --- ------ -------- ----- --- ------ ----- --<br>----- ----- ---------- --- --- ------ ------ ---- -- ------<br>------- --- French ----- --- ---- ------- -- ---- --- --<br>------- ------,138372.10000002384,138371.30000007153,137829.183,137844.30000007153,137845.853,138379.398,,45,French
screen,html.Screen,0_2_1_1_46,2021-11-12T15:31:27.029Z,,,,,,,,,,,,,,,,54,,,,,,,,,,,,,,447.9020000715391,,response,,,100,,,,,,Space,keypress(Space),,,,,-- --- ---- --- ------ ----- ------- ---- -- --- ------- --<br>------- ---------- ------ -- ----- -- ----- -- ---- ------<br>--- ----- --- --- ------ -------- ----- --- ------ ----- --<br>----- ----- ---------- --- --- ------ ------ ---- -- ------<br>------- --- ------ state --- ---- ------- -- ---- --- --<br>------- ------,138828.10000002384,138827.30000007153,138362.727,138372.30000007153,138379.398,138829.466,,46,state
screen,html.Screen,0_2_1_1_47,2021-11-12T15:31:27.501Z,,,,,,,,,,,,,,,,54,,,,,,,,,,,,,,469.8340000715398,,response,,,100,,,,,,Space,keypress(Space),,,,,-- --- ---- --- ------ ----- ------- ---- -- --- ------- --<br>------- ---------- ------ -- ----- -- ----- -- ---- ------<br>--- ----- --- --- ------ -------- ----- --- ------ ----- --<br>----- ----- ---------- --- --- ------ ------ ---- -- ------<br>------- --- ------ ----- was ---- ------- -- ---- --- --<br>------- ------,139300,139299.30000007153,138812.796,138828.30000007153,138829.466,139312.971,,47,was
screen,html.Screen,0_2_1_1_48,2021-11-12T15:31:27.997Z,,,,,,,,,,,,,,,,54,,,,,,,,,,,,,,482.22900004769326,,response,,,100,,,,,,Space,keypress(Space),,,,,-- --- ---- --- ------ ----- ------- ---- -- --- ------- --<br>------- ---------- ------ -- ----- -- ----- -- ---- ------<br>--- ----- --- --- ------ -------- ----- --- ------ ----- --<br>----- ----- ---------- --- --- ------ ------ ---- -- ------<br>------- --- ------ ----- --- left ------- -- ---- --- --<br>------- ------,139796,139795.20000004768,139296.3,139300.20000004768,139312.971,139812.965,,48,left
screen,html.Screen,0_2_1_1_49,2021-11-12T15:31:28.485Z,,,,,,,,,,,,,,,,54,,,,,,,,,,,,,,470.2350000476872,,response,,,100,,,,,,Space,keypress(Space),,,,,-- --- ---- --- ------ ----- ------- ---- -- --- ------- --<br>------- ---------- ------ -- ----- -- ----- -- ---- ------<br>--- ----- --- --- ------ -------- ----- --- ------ ----- --<br>----- ----- ---------- --- --- ------ ------ ---- -- ------<br>------- --- ------ ----- --- ---- without -- ---- --- --<br>------- ------,140284.10000002384,140283.20000004768,139796.296,139796.30000007153,139812.965,140296.64,,49,without
screen,html.Screen,0_2_1_1_50,2021-11-12T15:31:28.989Z,,,,,,,,,,,,,,,,54,,,,,,,,,,,,,,490.4600000238279,,response,,,100,,,,,,Space,keypress(Space),,,,,-- --- ---- --- ------ ----- ------- ---- -- --- ------- --<br>------- ---------- ------ -- ----- -- ----- -- ---- ------<br>--- ----- --- --- ------ -------- ----- --- ------ ----- --<br>----- ----- ---------- --- --- ------ ------ ---- -- ------<br>------- --- ------ ----- --- ---- ------- an ---- --- --<br>------- ------,140787.89999997616,140787.10000002384,140279.968,140284.30000007153,140296.64,140796.717,,50,an
screen,html.Screen,0_2_1_1_51,2021-11-12T15:31:29.477Z,,,,,,,,,,,,,,,,54,,,,,,,,,,,,,,478.38300002383767,,response,,,100,,,,,,Space,keypress(Space),,,,,-- --- ---- --- ------ ----- ------- ---- -- --- ------- --<br>------- ---------- ------ -- ----- -- ----- -- ---- ------<br>--- ----- --- --- ------ -------- ----- --- ------ ----- --<br>----- ----- ---------- --- --- ------ ------ ---- -- ------<br>------- --- ------ ----- --- ---- ------- -- easy --- --<br>------- ------,141276,141275.10000002384,140780.046,140788.10000002384,140796.717,141280.123,,51,easy
screen,html.Screen,0_2_1_1_52,2021-11-12T15:31:29.973Z,,,,,,,,,,,,,,,,54,,,,,,,,,,,,,,490.97700002384954,,response,,,100,,,,,,Space,keypress(Space),,,,,-- --- ---- --- ------ ----- ------- ---- -- --- ------- --<br>------- ---------- ------ -- ----- -- ----- -- ---- ------<br>--- ----- --- --- ------ -------- ----- --- ------ ----- --<br>----- ----- ---------- --- --- ------ ------ ---- -- ------<br>------- --- ------ ----- --- ---- ------- -- ---- way --<br>------- ------,141771.89999997616,141771.10000002384,141263.453,141276.30000007153,141280.123,141780.297,,52,way
screen,html.Screen,0_2_1_1_53,2021-11-12T15:31:30.469Z,,,,,,,,,,,,,,,,54,,,,,,,,,,,,,,486.8030000238505,,response,,,100,,,,,,Space,keypress(Space),,,,,-- --- ---- --- ------ ----- ------- ---- -- --- ------- --<br>------- ---------- ------ -- ----- -- ----- -- ---- ------<br>--- ----- --- --- ------ -------- ----- --- ------ ----- --<br>----- ----- ---------- --- --- ------ ------ ---- -- ------<br>------- --- ------ ----- --- ---- ------- -- ---- --- of<br>------- ------,142267.89999997616,142267.10000002384,141763.626,141772.10000002384,141780.297,142280.428,,53,of
screen,html.Screen,0_2_1_1_54,2021-11-12T15:31:30.981Z,,,,,,,,,,,,,,,,54,,,,,,,,,,,,,,498.6720000238274,,response,,,100,,,,,,Space,keypress(Space),,,,,-- --- ---- --- ------ ----- ------- ---- -- --- ------- --<br>------- ---------- ------ -- ----- -- ----- -- ---- ------<br>--- ----- --- --- ------ -------- ----- --- ------ ----- --<br>----- ----- ---------- --- --- ------ ------ ---- -- ------<br>------- --- ------ ----- --- ---- ------- -- ---- --- --<br>raising ------,142779.89999997616,142779.10000002384,142263.757,142268.20000004768,142280.428,142797.184,,54,raising
screen,html.Screen,0_2_1_1_55,2021-11-12T15:31:31.541Z,,,,,,,,,,,,,,,,54,,,,,,,,,,,,,,541.9160000238335,,response,,,100,,,,,,Space,keypress(Space),,,,,-- --- ---- --- ------ ----- ------- ---- -- --- ------- --<br>------- ---------- ------ -- ----- -- ----- -- ---- ------<br>--- ----- --- --- ------ -------- ----- --- ------ ----- --<br>----- ----- ---------- --- --- ------ ------ ---- -- ------<br>------- --- ------ ----- --- ---- ------- -- ---- --- --<br>------- money.,143339.89999997616,143339.10000002384,142780.514,142780.10000002384,142797.184,143347.393,,55,money.
Item 100,flow.Loop,0_2_1_1,2021-11-12T15:31:31.542Z,,,,,,,,,,,,,,,,,,,,,,,,,,,,,,27365.99700002384,,completion,,,,C,,,,,,,,,,silence,,143340.39999997616,143339.10000002384,115956.434,115957.80000007153,115973.103,143347.393,,,
Question 1,html.Screen,0_2_1_2,2021-11-12T15:31:35.037Z,,,,,,,,,,,,,,,,,,,,,,,,,,,true,TRUE,,3487.307000047673,,response,,,100,C,,,,,TRUE,click #choice-1,,,,silence,,146835.89999997616,146834.70000004768,143330.722,143340.60000002384,143347.393,146864.937,,,
Question 2,html.Screen,0_2_1_3,2021-11-12T15:31:38.309Z,,,,,,,,,,,,,,,,,,,,,,,,,,,false,FALSE,,3241.5629999999946,,response,,,100,C,,,,,TRUE,click #choice-1,,,,silence,,150107.70000004768,150106.5,146848.268,146836.10000002384,146864.937,150115.87,,,
Item 100,flow.Sequence,0_2_1,2021-11-12T15:31:38.309Z,,,,,,,,,,,,,,,,,,,,,,,,,,,,,,44135.827000000005,,completion,,,,,,,,,,,,,,,,150108.10000002384,150106.5,105954.002,105964.89999997616,105970.673,150115.87,,,
End of Practice,html.Page,0_2_2,2021-11-12T15:31:42.222Z,,,,,,,,,,,,,,,,,,,,,,,,,,,,,,3904.2300000238465,,form submission,,,,,,,,,,,,,,,,154020.60000002384,154020.10000002384,150099.199,150108.30000007153,150115.87,154033.494,,,
Practice,flow.Sequence,0_2,2021-11-12T15:31:42.222Z,,,,,,,,,,,,,,,,,,,,,,,,,,,,,,110149.43600002385,,completion,,,,,,,,,,,,,,,,154021,154020.10000002384,43853.993,43865.300000071526,43870.664,154033.494,,,
Trap_instruction,html.Page,0_3_0,2021-11-12T15:31:47.477Z,,,,,,,,,,,,,,,,,,,,,,,,,,,,,,5242.106000023836,,form submission,,,,,,,,,,,,,,,,159276.10000002384,159275.60000002384,154016.824,154021.39999997616,154033.494,159318.25,,,
trap_trial,html.Screen,0_3_1,2021-11-12T15:31:50.756Z,,,,,,,,,,,,,,,,,,,,,,,,,,,true,1,,3235.75,,response,,,,,,,,,1,click #choice-1,,,,,,162555.20000004768,162554,159268.24,159276.39999997616,159318.25,162568.556,,,
end of trap trial,html.Page,0_3_2,2021-11-12T15:31:52.885Z,,,,,,,,,,,,,,,,,,,,,,,,,,,,,,2114.744000071514,,form submission,,,,,,,,,,,,,,,,164683.80000007153,164683.30000007153,162551.888,162555.39999997616,162568.556,164686.375,,,
Trap 1,flow.Sequence,0_3,2021-11-12T15:31:52.885Z,,,,,,,,,,,,,,,,,,,,,,,,,,,,,,10649.80600007152,,completion,,,,,,,,,,,,,,,,164684.20000004768,164683.30000007153,154016.824,154021.30000007153,154033.494,164686.375,,,
Standby,html.Page,0_4_0,2021-11-12T15:32:00.874Z,,,,,,,,,,,,,,,,,,,,,,,,,,,,,,8002.128999999986,,timeout,,,,,,,,,,,,,,,,172672.80000007153,172671.833,164669.704,164684.5,164686.375,172688.504,,,
Holding screen,html.Screen,0_4_1_0_0,2021-11-12T15:32:07.877Z,,,,,,,,,,,,,,,,,,,,,,,,,,,,,,7001.975000000006,,timeout,,,,,,,,,,,,,,,,179675.60000002384,179673.808,172671.833,172673.20000004768,172688.504,179690.479,,,
screen,html.Screen,0_4_1_0_1_0,2021-11-12T15:32:08.767Z,,,,,,,,,,,,,,,,2,,,,,,,,,,,,,,871.4209999761661,,response,,,1,C,,,,,Space,keypress(Space),,,,instrumental,Two ---- ------ --- ------- ---------- ------- ----------<br>--- --------- --- ----------- ------- ----- ------- ---<br>--------- ---- -- --- ---- -- --------- -- ---- -------<br>-- --------- ------ --- ----- ------ ---- --- --------- --<br>------ - ---- -- --- ----------- ------- ---- ----- -----<br>--- -------- - ------ ---- -- ----- ---- --- --- -----------<br>-- -------,180563,180561.89999997616,179673.808,179676,179690.479,180573.888,,0,Two
screen,html.Screen,0_4_1_0_1_1,2021-11-12T15:32:09.222Z,,,,,,,,,,,,,,,,2,,,,,,,,,,,,,,443.51199997615186,,response,,,1,C,,,,,Space,keypress(Space),,,,instrumental,--- days ------ --- ------- ---------- ------- ----------<br>--- --------- --- ----------- ------- ----- ------- ---<br>--------- ---- -- --- ---- -- --------- -- ---- -------<br>-- --------- ------ --- ----- ------ ---- --- --------- --<br>------ - ---- -- --- ----------- ------- ---- ----- -----<br>--- -------- - ------ ---- -- ----- ---- --- --- -----------<br>-- -------,181018.20000004768,181017.39999997616,180557.218,180563.39999997616,180573.888,181024.193,,1,days
screen,html.Screen,0_4_1_0_1_2,2021-11-12T15:32:09.726Z,,,,,,,,,,,,,,,,2,,,,,,,,,,,,,,497.1070000715263,,response,,,1,C,,,,,Space,keypress(Space),,,,instrumental,"--- ---- later, --- ------- ---------- ------- ----------<br>--- --------- --- ----------- ------- ----- ------- ---<br>--------- ---- -- --- ---- -- --------- -- ---- -------<br>-- --------- ------ --- ----- ------ ---- --- --------- --<br>------ - ---- -- --- ----------- ------- ---- ----- -----<br>--- -------- - ------ ---- -- ----- ---- --- --- -----------<br>-- -------",181522,181521.30000007153,181007.522,181018.5,181024.193,181524.22,,2,"later,"
screen,html.Screen,0_4_1_0_1_3,2021-11-12T15:32:10.197Z,,,,,,,,,,,,,,,,2,,,,,,,,,,,,,,468.77999999999884,,response,,,1,C,,,,,Space,keypress(Space),,,,instrumental,--- ---- ------ the ------- ---------- ------- ----------<br>--- --------- --- ----------- ------- ----- ------- ---<br>--------- ---- -- --- ---- -- --------- -- ---- -------<br>-- --------- ------ --- ----- ------ ---- --- --------- --<br>------ - ---- -- --- ----------- ------- ---- ----- -----<br>--- -------- - ------ ---- -- ----- ---- --- --- -----------<br>-- -------,181993.60000002384,181993,181507.55,181522.30000007153,181524.22,182007.868,,3,the
screen,html.Screen,0_4_1_0_1_4,2021-11-12T15:32:10.709Z,,,,,,,,,,,,,,,,2,,,,,,,,,,,,,,497.0319999761705,,response,,,1,C,,,,,Space,keypress(Space),,,,instrumental,--- ---- ------ --- British ---------- ------- ----------<br>--- --------- --- ----------- ------- ----- ------- ---<br>--------- ---- -- --- ---- -- --------- -- ---- -------<br>-- --------- ------ --- ----- ------ ---- --- --------- --<br>------ - ---- -- --- ----------- ------- ---- ----- -----<br>--- -------- - ------ ---- -- ----- ---- --- --- -----------<br>-- -------,182505.30000007153,182504.89999997616,181991.195,181993.80000007153,182007.868,182507.798,,4,British
screen,html.Screen,0_4_1_0_1_5,2021-11-12T15:32:11.350Z,,,,,,,,,,,,,,,,2,,,,,,,,,,,,,,637.5020000715158,,response,,,1,C,,,,,Space,keypress(Space),,,,instrumental,--- ---- ------ --- ------- astronomer ------- ----------<br>--- --------- --- ----------- ------- ----- ------- ---<br>--------- ---- -- --- ---- -- --------- -- ---- -------<br>-- --------- ------ --- ----- ------ ---- --- --------- --<br>------ - ---- -- --- ----------- ------- ---- ----- -----<br>--- -------- - ------ ---- -- ----- ---- --- --- -----------<br>-- -------,183146.20000004768,183145.30000007153,182491.129,182505.30000007153,182507.798,183157.885,,5,astronomer
screen,html.Screen,0_4_1_0_1_6,2021-11-12T15:32:11.862Z,,,,,,,,,,,,,,,,2,,,,,,,,,,,,,,499.41500007151626,,response,,,1,C,,,,,Space,keypress(Space),,,,instrumental,--- ---- ------ --- ------- ---------- Richard ----------<br>--- --------- --- ----------- ------- ----- ------- ---<br>--------- ---- -- --- ---- -- --------- -- ---- -------<br>-- --------- ------ --- ----- ------ ---- --- --------- --<br>------ - ---- -- --- ----------- ------- ---- ----- -----<br>--- -------- - ------ ---- -- ----- ---- --- --- -----------<br>-- -------,183658.10000002384,183657.30000007153,183141.216,183146.39999997616,183157.885,183674.819,,6,Richard
screen,html.Screen,0_4_1_0_1_7,2021-11-12T15:32:12.374Z,,,,,,,,,,,,,,,,2,,,,,,,,,,,,,,494.481000071537,,response,,,1,C,,,,,Space,keypress(Space),,,,instrumental,--- ---- ------ --- ------- ---------- ------- Carrington<br>--- --------- --- ----------- ------- ----- ------- ---<br>--------- ---- -- --- ---- -- --------- -- ---- -------<br>-- --------- ------ --- ----- ------ ---- --- --------- --<br>------ - ---- -- --- ----------- ------- ---- ----- -----<br>--- -------- - ------ ---- -- ----- ---- --- --- -----------<br>-- -------,184170.10000002384,184169.30000007153,183658.148,183658.30000007153,183674.819,184175.104,,7,Carrington
screen,html.Screen,0_4_1_0_1_8,2021-11-12T15:32:12.878Z,,,,,,,,,,,,,,,,2,,,,,,,,,,,,,,498.09600004769163,,response,,,1,C,,,,,Space,keypress(Space),,,,instrumental,--- ---- ------ --- ------- ---------- ------- ----------<br>was --------- --- ----------- ------- ----- ------- ---<br>--------- ---- -- --- ---- -- --------- -- ---- -------<br>-- --------- ------ --- ----- ------ ---- --- --------- --<br>------ - ---- -- --- ----------- ------- ---- ----- -----<br>--- -------- - ------ ---- -- ----- ---- --- --- -----------<br>-- -------,184674.10000002384,184673.20000004768,184158.432,184170.30000007153,184175.104,184675.074,,8,was
screen,html.Screen,0_4_1_0_1_9,2021-11-12T15:32:13.406Z,,,,,,,,,,,,,,,,2,,,,,,,,,,,,,,526.0260000238486,,response,,,1,C,,,,,Space,keypress(Space),,,,instrumental,--- ---- ------ --- ------- ---------- ------- ----------<br>--- observing --- ----------- ------- ----- ------- ---<br>--------- ---- -- --- ---- -- --------- -- ---- -------<br>-- --------- ------ --- ----- ------ ---- --- --------- --<br>------ - ---- -- --- ----------- ------- ---- ----- -----<br>--- -------- - ------ ---- -- ----- ---- --- --- -----------<br>-- -------,185202,185201.10000002384,184658.404,184674.30000007153,184675.074,185208.709,,9,observing
screen,html.Screen,0_4_1_0_1_10,2021-11-12T15:32:13.918Z,,,,,,,,,,,,,,,,2,,,,,,,,,,,,,,504.49100004768115,,response,,,1,C,,,,,Space,keypress(Space),,,,instrumental,--- ---- ------ --- ------- ---------- ------- ----------<br>--- --------- the ----------- ------- ----- ------- ---<br>--------- ---- -- --- ---- -- --------- -- ---- -------<br>-- --------- ------ --- ----- ------ ---- --- --------- --<br>------ - ---- -- --- ----------- ------- ---- ----- -----<br>--- -------- - ------ ---- -- ----- ---- --- --- -----------<br>-- -------,185714,185713.20000004768,185192.037,185202.20000004768,185208.709,185725.279,,10,the
screen,html.Screen,0_4_1_0_1_11,2021-11-12T15:32:14.422Z,,,,,,,,,,,,,,,,2,,,,,,,,,,,,,,491.8210000238323,,response,,,1,C,,,,,Space,keypress(Space),,,,instrumental,--- ---- ------ --- ------- ---------- ------- ----------<br>--- --------- --- interesting ------- ----- ------- ---<br>--------- ---- -- --- ---- -- --------- -- ---- -------<br>-- --------- ------ --- ----- ------ ---- --- --------- --<br>------ - ---- -- --- ----------- ------- ---- ----- -----<br>--- -------- - ------ ---- -- ----- ---- --- --- -----------<br>-- -------,186218,186217.10000002384,185708.61,185714.20000004768,185725.279,186225.651,,11,interesting
screen,html.Screen,0_4_1_0_1_12,2021-11-12T15:32:14.982Z,,,,,,,,,,,,,,,,2,,,,,,,,,,,,,,551.5490000476711,,response,,,1,C,,,,,Space,keypress(Space),,,,instrumental,--- ---- ------ --- ------- ---------- ------- ----------<br>--- --------- --- ----------- sunspot ----- ------- ---<br>--------- ---- -- --- ---- -- --------- -- ---- -------<br>-- --------- ------ --- ----- ------ ---- --- --------- --<br>------ - ---- -- --- ----------- ------- ---- ----- -----<br>--- -------- - ------ ---- -- ----- ---- --- --- -----------<br>-- -------,186777.89999997616,186777.20000004768,186208.979,186218.20000004768,186225.651,186792.397,,12,sunspot
screen,html.Screen,0_4_1_0_1_13,2021-11-12T15:32:15.510Z,,,,,,,,,,,,,,,,2,,,,,,,,,,,,,,512.8030000476865,,response,,,1,C,,,,,Space,keypress(Space),,,,instrumental,--- ---- ------ --- ------- ---------- ------- ----------<br>--- --------- --- ----------- ------- group ------- ---<br>--------- ---- -- --- ---- -- --------- -- ---- -------<br>-- --------- ------ --- ----- ------ ---- --- --------- --<br>------ - ---- -- --- ----------- ------- ---- ----- -----<br>--- -------- - ------ ---- -- ----- ---- --- --- -----------<br>-- -------,187305.89999997616,187305.20000004768,186775.726,186778.20000004768,186792.397,187309.202,,13,group
screen,html.Screen,0_4_1_0_1_14,2021-11-12T15:32:16.054Z,,,,,,,,,,,,,,,,2,,,,,,,,,,,,,,539.8980000238516,,response,,,1,C,,,,,Space,keypress(Space),,,,instrumental,--- ---- ------ --- ------- ---------- ------- ----------<br>--- --------- --- ----------- ------- ----- through ---<br>--------- ---- -- --- ---- -- --------- -- ---- -------<br>-- --------- ------ --- ----- ------ ---- --- --------- --<br>------ - ---- -- --- ----------- ------- ---- ----- -----<br>--- -------- - ------ ---- -- ----- ---- --- --- -----------<br>-- -------,187849.89999997616,187849.10000002384,187292.531,187306.20000004768,187309.202,187859.348,,14,through
screen,html.Screen,0_4_1_0_1_15,2021-11-12T15:32:16.582Z,,,,,,,,,,,,,,,,2,,,,,,,,,,,,,,517.6520000000019,,response,,,1,C,,,,,Space,keypress(Space),,,,instrumental,--- ---- ------ --- ------- ---------- ------- ----------<br>--- --------- --- ----------- ------- ----- ------- his<br>--------- ---- -- --- ---- -- --------- -- ---- -------<br>-- --------- ------ --- ----- ------ ---- --- --------- --<br>------ - ---- -- --- ----------- ------- ---- ----- -----<br>--- -------- - ------ ---- -- ----- ---- --- --- -----------<br>-- -------,188377.80000007153,188377,187842.677,187850.20000004768,187859.348,188392.775,,15,his
screen,html.Screen,0_4_1_0_1_16,2021-11-12T15:32:17.262Z,,,,,,,,,,,,,,,,2,,,,,,,,,,,,,,664.3250000238477,,response,,,1,C,,,,,Space,keypress(Space),,,,instrumental,--- ---- ------ --- ------- ---------- ------- ----------<br>--- --------- --- ----------- ------- ----- ------- ---<br>telescope ---- -- --- ---- -- --------- -- ---- -------<br>-- --------- ------ --- ----- ------ ---- --- --------- --<br>------ - ---- -- --- ----------- ------- ---- ----- -----<br>--- -------- - ------ ---- -- ----- ---- --- --- -----------<br>-- -------,189057.89999997616,189057.10000002384,188376.105,188378.10000002384,188392.775,189059.683,,16,telescope
screen,html.Screen,0_4_1_0_1_17,2021-11-12T15:32:17.957Z,,,,,,,,,,,,,,,,2,,,,,,,,,,,,,,693.31700000001,,response,,,1,C,,,,,Space,keypress(Space),,,,instrumental,--- ---- ------ --- ------- ---------- ------- ----------<br>--- --------- --- ----------- ------- ----- ------- ---<br>--------- when -- --- ---- -- --------- -- ---- -------<br>-- --------- ------ --- ----- ------ ---- --- --------- --<br>------ - ---- -- --- ----------- ------- ---- ----- -----<br>--- -------- - ------ ---- -- ----- ---- --- --- -----------<br>-- -------,189753.80000007153,189753,189043.012,189058.10000002384,189059.683,189759.657,,17,when
screen,html.Screen,0_4_1_0_1_18,2021-11-12T15:32:18.517Z,,,,,,,,,,,,,,,,2,,,,,,,,,,,,,,553.2429999761516,,response,,,1,C,,,,,Space,keypress(Space),,,,instrumental,--- ---- ------ --- ------- ---------- ------- ----------<br>--- --------- --- ----------- ------- ----- ------- ---<br>--------- ---- he --- ---- -- --------- -- ---- -------<br>-- --------- ------ --- ----- ------ ---- --- --------- --<br>------ - ---- -- --- ----------- ------- ---- ----- -----<br>--- -------- - ------ ---- -- ----- ---- --- --- -----------<br>-- -------,190313.70000004768,190312.89999997616,189742.988,189754,189759.657,190326.739,,18,he
screen,html.Screen,0_4_1_0_1_19,2021-11-12T15:32:19.126Z,,,,,,,,,,,,,,,,2,,,,,,,,,,,,,,594.5610000715242,,response,,,1,C,,,,,Space,keypress(Space),,,,instrumental,--- ---- ------ --- ------- ---------- ------- ----------<br>--- --------- --- ----------- ------- ----- ------- ---<br>--------- ---- -- saw ---- -- --------- -- ---- -------<br>-- --------- ------ --- ----- ------ ---- --- --------- --<br>------ - ---- -- --- ----------- ------- ---- ----- -----<br>--- -------- - ------ ---- -- ----- ---- --- --- -----------<br>-- -------,190922.20000004768,190921.30000007153,190310.067,190314,190326.739,190926.859,,19,saw
screen,html.Screen,0_4_1_0_1_20,2021-11-12T15:32:19.701Z,,,,,,,,,,,,,,,,2,,,,,,,,,,,,,,570.0409999761614,,response,,,1,C,,,,,Space,keypress(Space),,,,instrumental,--- ---- ------ --- ------- ---------- ------- ----------<br>--- --------- --- ----------- ------- ----- ------- ---<br>--------- ---- -- --- what -- --------- -- ---- -------<br>-- --------- ------ --- ----- ------ ---- --- --------- --<br>------ - ---- -- --- ----------- ------- ---- ----- -----<br>--- -------- - ------ ---- -- ----- ---- --- --- -----------<br>-- -------,191497.80000007153,191496.89999997616,190910.188,190922.39999997616,190926.859,191510.249,,20,what
screen,html.Screen,0_4_1_0_1_21,2021-11-12T15:32:20.245Z,,,,,,,,,,,,,,,,2,,,,,,,,,,,,,,530.5510000715149,,response,,,1,C,,,,,Space,keypress(Space),,,,instrumental,--- ---- ------ --- ------- ---------- ------- ----------<br>--- --------- --- ----------- ------- ----- ------- ---<br>--------- ---- -- --- ---- he --------- -- ---- -------<br>-- --------- ------ --- ----- ------ ---- --- --------- --<br>------ - ---- -- --- ----------- ------- ---- ----- -----<br>--- -------- - ------ ---- -- ----- ---- --- --- -----------<br>-- -------,192041.60000002384,192040.80000007153,191493.579,191498,191510.249,192043.704,,21,he
screen,html.Screen,0_4_1_0_1_22,2021-11-12T15:32:20.765Z,,,,,,,,,,,,,,,,2,,,,,,,,,,,,,,517.1959999761602,,response,,,1,C,,,,,Space,keypress(Space),,,,instrumental,--- ---- ------ --- ------- ---------- ------- ----------<br>--- --------- --- ----------- ------- ----- ------- ---<br>--------- ---- -- --- ---- -- described -- ---- -------<br>-- --------- ------ --- ----- ------ ---- --- --------- --<br>------ - ---- -- --- ----------- ------- ---- ----- -----<br>--- -------- - ------ ---- -- ----- ---- --- --- -----------<br>-- -------,192561.60000002384,192560.89999997616,192027.034,192041.80000007153,192043.704,192577.35,,22,described
screen,html.Screen,0_4_1_0_1_23,2021-11-12T15:32:21.317Z,,,,,,,,,,,,,,,,2,,,,,,,,,,,,,,535.4500000715198,,response,,,1,C,,,,,Space,keypress(Space),,,,instrumental,--- ---- ------ --- ------- ---------- ------- ----------<br>--- --------- --- ----------- ------- ----- ------- ---<br>--------- ---- -- --- ---- -- --------- as ---- -------<br>-- --------- ------ --- ----- ------ ---- --- --------- --<br>------ - ---- -- --- ----------- ------- ---- ----- -----<br>--- -------- - ------ ---- -- ----- ---- --- --- -----------<br>-- -------,193113.70000004768,193112.80000007153,192560.678,192561.89999997616,192577.35,193127.43,,23,as
screen,html.Screen,0_4_1_0_1_24,2021-11-12T15:32:21.941Z,,,,,,,,,,,,,,,,2,,,,,,,,,,,,,,609.3700000715326,,response,,,1,C,,,,,Space,keypress(Space),,,,instrumental,"--- ---- ------ --- ------- ---------- ------- ----------<br>--- --------- --- ----------- ------- ----- ------- ---<br>--------- ---- -- --- ---- -- --------- -- ""two -------<br>-- --------- ------ --- ----- ------ ---- --- --------- --<br>------ - ---- -- --- ----------- ------- ---- ----- -----<br>--- -------- - ------ ---- -- ----- ---- --- --- -----------<br>-- -------",193737.60000002384,193736.80000007153,193110.759,193113.89999997616,193127.43,193744.211,,24,"""two"
screen,html.Screen,0_4_1_0_1_25,2021-11-12T15:32:22.501Z,,,,,,,,,,,,,,,,2,,,,,,,,,,,,,,552.5890000715153,,response,,,1,C,,,,,Space,keypress(Space),,,,instrumental,--- ---- ------ --- ------- ---------- ------- ----------<br>--- --------- --- ----------- ------- ----- ------- ---<br>--------- ---- -- --- ---- -- --------- -- ---- patches<br>-- --------- ------ --- ----- ------ ---- --- --------- --<br>------ - ---- -- --- ----------- ------- ---- ----- -----<br>--- -------- - ------ ---- -- ----- ---- --- --- -----------<br>-- -------,194297.60000002384,194296.80000007153,193727.541,193737.89999997616,193744.211,194311.082,,25,patches
screen,html.Screen,0_4_1_0_1_26,2021-11-12T15:32:22.997Z,,,,,,,,,,,,,,,,2,,,,,,,,,,,,,,481.81799997616326,,response,,,1,C,,,,,Space,keypress(Space),,,,instrumental,--- ---- ------ --- ------- ---------- ------- ----------<br>--- --------- --- ----------- ------- ----- ------- ---<br>--------- ---- -- --- ---- -- --------- -- ---- -------<br>of --------- ------ --- ----- ------ ---- --- --------- --<br>------ - ---- -- --- ----------- ------- ---- ----- -----<br>--- -------- - ------ ---- -- ----- ---- --- --- -----------<br>-- -------,194793.70000004768,194792.89999997616,194294.411,194297.89999997616,194311.082,194794.543,,26,of
screen,html.Screen,0_4_1_0_1_27,2021-11-12T15:32:23.525Z,,,,,,,,,,,,,,,,2,,,,,,,,,,,,,,526.1570000476786,,response,,,1,C,,,,,Space,keypress(Space),,,,instrumental,--- ---- ------ --- ------- ---------- ------- ----------<br>--- --------- --- ----------- ------- ----- ------- ---<br>--------- ---- -- --- ---- -- --------- -- ---- -------<br>-- intensely ------ --- ----- ------ ---- --- --------- --<br>------ - ---- -- --- ----------- ------- ---- ----- -----<br>--- -------- - ------ ---- -- ----- ---- --- --- -----------<br>-- -------,195321.39999997616,195320.70000004768,194777.872,194794,194794.543,195328.018,,27,intensely
screen,html.Screen,0_4_1_0_1_28,2021-11-12T15:32:24.045Z,,,,,,,,,,,,,,,,2,,,,,,,,,,,,,,512.5820000238309,,response,,,1,C,,,,,Space,keypress(Space),,,,instrumental,--- ---- ------ --- ------- ---------- ------- ----------<br>--- --------- --- ----------- ------- ----- ------- ---<br>--------- ---- -- --- ---- -- --------- -- ---- -------<br>-- --------- bright --- ----- ------ ---- --- --------- --<br>------ - ---- -- --- ----------- ------- ---- ----- -----<br>--- -------- - ------ ---- -- ----- ---- --- --- -----------<br>-- -------,195841.5,195840.60000002384,195311.347,195321.70000004768,195328.018,195844.827,,28,bright
screen,html.Screen,0_4_1_0_1_29,2021-11-12T15:32:24.581Z,,,,,,,,,,,,,,,,2,,,,,,,,,,,,,,531.8730000476935,,response,,,1,C,,,,,Space,keypress(Space),,,,instrumental,--- ---- ------ --- ------- ---------- ------- ----------<br>--- --------- --- ----------- ------- ----- ------- ---<br>--------- ---- -- --- ---- -- --------- -- ---- -------<br>-- --------- ------ and ----- ------ ---- --- --------- --<br>------ - ---- -- --- ----------- ------- ---- ----- -----<br>--- -------- - ------ ---- -- ----- ---- --- --- -----------<br>-- -------,196377.60000002384,196376.70000004768,195828.156,195841.70000004768,195844.827,196394.976,,29,and
screen,html.Screen,0_4_1_0_1_30,2021-11-12T15:32:25.101Z,,,,,,,,,,,,,,,,2,,,,,,,,,,,,,,501.62400002384675,,response,,,1,C,,,,,Space,keypress(Space),,,,instrumental,--- ---- ------ --- ------- ---------- ------- ----------<br>--- --------- --- ----------- ------- ----- ------- ---<br>--------- ---- -- --- ---- -- --------- -- ---- -------<br>-- --------- ------ --- white ------ ---- --- --------- --<br>------ - ---- -- --- ----------- ------- ---- ----- -----<br>--- -------- - ------ ---- -- ----- ---- --- --- -----------<br>-- -------,196897.39999997616,196896.60000002384,196378.305,196377.80000007153,196394.976,196911.719,,30,white
screen,html.Screen,0_4_1_0_1_31,2021-11-12T15:32:25.653Z,,,,,,,,,,,,,,,,2,,,,,,,,,,,,,,536.9810000476718,,response,,,1,C,,,,,Space,keypress(Space),,,,instrumental,"--- ---- ------ --- ------- ---------- ------- ----------<br>--- --------- --- ----------- ------- ----- ------- ---<br>--------- ---- -- --- ---- -- --------- -- ---- -------<br>-- --------- ------ --- ----- light"" ---- --- --------- --<br>------ - ---- -- --- ----------- ------- ---- ----- -----<br>--- -------- - ------ ---- -- ----- ---- --- --- -----------<br>-- -------",197449.5,197448.70000004768,196895.049,196897.60000002384,196911.719,197461.938,,31,"light"""
screen,html.Screen,0_4_1_0_1_32,2021-11-12T15:32:26.197Z,,,,,,,,,,,,,,,,2,,,,,,,,,,,,,,530.6620000238472,,response,,,1,C,,,,,Space,keypress(Space),,,,instrumental,--- ---- ------ --- ------- ---------- ------- ----------<br>--- --------- --- ----------- ------- ----- ------- ---<br>--------- ---- -- --- ---- -- --------- -- ---- -------<br>-- --------- ------ --- ----- ------ over --- --------- --<br>------ - ---- -- --- ----------- ------- ---- ----- -----<br>--- -------- - ------ ---- -- ----- ---- --- --- -----------<br>-- -------,197993.5,197992.60000002384,197445.267,197449.80000007153,197461.938,197995.356,,32,over
screen,html.Screen,0_4_1_0_1_33,2021-11-12T15:32:26.749Z,,,,,,,,,,,,,,,,2,,,,,,,,,,,,,,549.2440000238421,,response,,,1,C,,,,,Space,keypress(Space),,,,instrumental,--- ---- ------ --- ------- ---------- ------- ----------<br>--- --------- --- ----------- ------- ----- ------- ---<br>--------- ---- -- --- ---- -- --------- -- ---- -------<br>-- --------- ------ --- ----- ------ ---- the --------- --<br>------ - ---- -- --- ----------- ------- ---- ----- -----<br>--- -------- - ------ ---- -- ----- ---- --- --- -----------<br>-- -------,198545.5,198544.60000002384,197978.686,197993.70000004768,197995.356,198562.132,,33,the
screen,html.Screen,0_4_1_0_1_34,2021-11-12T15:32:27.381Z,,,,,,,,,,,,,,,,2,,,,,,,,,,,,,,614.4680000238295,,response,,,1,C,,,,,Space,keypress(Space),,,,instrumental,--- ---- ------ --- ------- ---------- ------- ----------<br>--- --------- --- ----------- ------- ----- ------- ---<br>--------- ---- -- --- ---- -- --------- -- ---- -------<br>-- --------- ------ --- ----- ------ ---- --- sunspots. --<br>------ - ---- -- --- ----------- ------- ---- ----- -----<br>--- -------- - ------ ---- -- ----- ---- --- --- -----------<br>-- -------,199177.39999997616,199176.60000002384,198545.462,198545.80000007153,198562.132,199178.952,,34,sunspots.
screen,html.Screen,0_4_1_0_1_35,2021-11-12T15:32:27.981Z,,,,,,,,,,,,,,,,2,,,,,,,,,,,,,,597.6480000238516,,response,,,1,C,,,,,Space,keypress(Space),,,,instrumental,--- ---- ------ --- ------- ---------- ------- ----------<br>--- --------- --- ----------- ------- ----- ------- ---<br>--------- ---- -- --- ---- -- --------- -- ---- -------<br>-- --------- ------ --- ----- ------ ---- --- --------- He<br>------ - ---- -- --- ----------- ------- ---- ----- -----<br>--- -------- - ------ ---- -- ----- ---- --- --- -----------<br>-- -------,199777.39999997616,199776.60000002384,199162.282,199177.70000004768,199178.952,199779.23,,35,He
screen,html.Screen,0_4_1_0_1_36,2021-11-12T15:32:28.589Z,,,,,,,,,,,,,,,,2,,,,,,,,,,,,,,605.2699999999895,,response,,,1,C,,,,,Space,keypress(Space),,,,instrumental,--- ---- ------ --- ------- ---------- ------- ----------<br>--- --------- --- ----------- ------- ----- ------- ---<br>--------- ---- -- --- ---- -- --------- -- ---- -------<br>-- --------- ------ --- ----- ------ ---- --- --------- --<br>jotted - ---- -- --- ----------- ------- ---- ----- -----<br>--- -------- - ------ ---- -- ----- ---- --- --- -----------<br>-- -------,200385.39999997616,200384.5,199762.559,199777.70000004768,199779.23,200396.055,,36,jotted
screen,html.Screen,0_4_1_0_1_37,2021-11-12T15:32:29.270Z,,,,,,,,,,,,,,,,2,,,,,,,,,,,,,,669.0450000238488,,response,,,1,C,,,,,Space,keypress(Space),,,,instrumental,--- ---- ------ --- ------- ---------- ------- ----------<br>--- --------- --- ----------- ------- ----- ------- ---<br>--------- ---- -- --- ---- -- --------- -- ---- -------<br>-- --------- ------ --- ----- ------ ---- --- --------- --<br>------ a ---- -- --- ----------- ------- ---- ----- -----<br>--- -------- - ------ ---- -- ----- ---- --- --- -----------<br>-- -------,201065.89999997616,201065.10000002384,200379.384,200385.60000002384,200396.055,201096.234,,37,a
screen,html.Screen,0_4_1_0_1_38,2021-11-12T15:32:29.773Z,,,,,,,,,,,,,,,,2,,,,,,,,,,,,,,472.26600000000326,,response,,,1,C,,,,,Space,keypress(Space),,,,instrumental,--- ---- ------ --- ------- ---------- ------- ----------<br>--- --------- --- ----------- ------- ----- ------- ---<br>--------- ---- -- --- ---- -- --------- -- ---- -------<br>-- --------- ------ --- ----- ------ ---- --- --------- --<br>------ - note -- --- ----------- ------- ---- ----- -----<br>--- -------- - ------ ---- -- ----- ---- --- --- -----------<br>-- -------,201569.5,201568.5,201079.563,201066.10000002384,201096.234,201579.704,,38,note
screen,html.Screen,0_4_1_0_1_39,2021-11-12T15:32:30.325Z,,,,,,,,,,,,,,,,2,,,,,,,,,,,,,,540.6959999761602,,response,,,1,C,,,,,Space,keypress(Space),,,,instrumental,--- ---- ------ --- ------- ---------- ------- ----------<br>--- --------- --- ----------- ------- ----- ------- ---<br>--------- ---- -- --- ---- -- --------- -- ---- -------<br>-- --------- ------ --- ----- ------ ---- --- --------- --<br>------ - ---- in --- ----------- ------- ---- ----- -----<br>--- -------- - ------ ---- -- ----- ---- --- --- -----------<br>-- -------,202121.20000004768,202120.39999997616,201563.033,201569.60000002384,201579.704,202129.781,,39,in
screen,html.Screen,0_4_1_0_1_40,2021-11-12T15:32:30.853Z,,,,,,,,,,,,,,,,2,,,,,,,,,,,,,,518.7190000000119,,response,,,1,C,,,,,Space,keypress(Space),,,,instrumental,--- ---- ------ --- ------- ---------- ------- ----------<br>--- --------- --- ----------- ------- ----- ------- ---<br>--------- ---- -- --- ---- -- --------- -- ---- -------<br>-- --------- ------ --- ----- ------ ---- --- --------- --<br>------ - ---- -- his ----------- ------- ---- ----- -----<br>--- -------- - ------ ---- -- ----- ---- --- --- -----------<br>-- -------,202649.30000007153,202648.5,202113.111,202121.39999997616,202129.781,202663.345,,40,his
screen,html.Screen,0_4_1_0_1_41,2021-11-12T15:32:32.045Z,,,,,,,,,,,,,,,,2,,,,,,,,,,,,,,1177.054999976157,,response,,,1,C,,,,,Space,keypress(Space),,,,instrumental,--- ---- ------ --- ------- ---------- ------- ----------<br>--- --------- --- ----------- ------- ----- ------- ---<br>--------- ---- -- --- ---- -- --------- -- ---- -------<br>-- --------- ------ --- ----- ------ ---- --- --------- --<br>------ - ---- -- --- painstaking ------- ---- ----- -----<br>--- -------- - ------ ---- -- ----- ---- --- --- -----------<br>-- -------,203841.10000002384,203840.39999997616,202646.674,202649.5,202663.345,203846.977,,41,painstaking
screen,html.Screen,0_4_1_0_1_42,2021-11-12T15:32:32.661Z,,,,,,,,,,,,,,,,2,,,,,,,,,,,,,,609.4229999761446,,response,,,1,C,,,,,Space,keypress(Space),,,,instrumental,--- ---- ------ --- ------- ---------- ------- ----------<br>--- --------- --- ----------- ------- ----- ------- ---<br>--------- ---- -- --- ---- -- --------- -- ---- -------<br>-- --------- ------ --- ----- ------ ---- --- --------- --<br>------ - ---- -- --- ----------- record. ---- ----- -----<br>--- -------- - ------ ---- -- ----- ---- --- --- -----------<br>-- -------,204457.20000004768,204456.39999997616,203830.306,203841.30000007153,203846.977,204463.56,,42,record.
screen,html.Screen,0_4_1_0_1_43,2021-11-12T15:32:33.261Z,,,,,,,,,,,,,,,,2,,,,,,,,,,,,,,592.7400000715279,,response,,,1,C,,,,,Space,keypress(Space),,,,instrumental,--- ---- ------ --- ------- ---------- ------- ----------<br>--- --------- --- ----------- ------- ----- ------- ---<br>--------- ---- -- --- ---- -- --------- -- ---- -------<br>-- --------- ------ --- ----- ------ ---- --- --------- --<br>------ - ---- -- --- ----------- ------- That ----- -----<br>--- -------- - ------ ---- -- ----- ---- --- --- -----------<br>-- -------,205057.20000004768,205056.30000007153,204446.891,204457.39999997616,204463.56,205063.922,,43,That
screen,html.Screen,0_4_1_0_1_44,2021-11-12T15:32:33.901Z,,,,,,,,,,,,,,,,2,,,,,,,,,,,,,,632.3780000715342,,response,,,1,C,,,,,Space,keypress(Space),,,,instrumental,--- ---- ------ --- ------- ---------- ------- ----------<br>--- --------- --- ----------- ------- ----- ------- ---<br>--------- ---- -- --- ---- -- --------- -- ---- -------<br>-- --------- ------ --- ----- ------ ---- --- --------- --<br>------ - ---- -- --- ----------- ------- ---- night -----<br>--- -------- - ------ ---- -- ----- ---- --- --- -----------<br>-- -------,205697.20000004768,205696.30000007153,205047.251,205057.39999997616,205063.922,205714.215,,44,night
screen,html.Screen,0_4_1_0_1_45,2021-11-12T15:32:34.389Z,,,,,,,,,,,,,,,,2,,,,,,,,,,,,,,470.08500007152907,,response,,,1,C,,,,,Space,keypress(Space),,,,instrumental,--- ---- ------ --- ------- ---------- ------- ----------<br>--- --------- --- ----------- ------- ----- ------- ---<br>--------- ---- -- --- ---- -- --------- -- ---- -------<br>-- --------- ------ --- ----- ------ ---- --- --------- --<br>------ - ---- -- --- ----------- ------- ---- ----- there<br>--- -------- - ------ ---- -- ----- ---- --- --- -----------<br>-- -------,206185.10000002384,206184.30000007153,205697.543,205697.39999997616,205714.215,206197.602,,45,there
screen,html.Screen,0_4_1_0_1_46,2021-11-12T15:32:34.893Z,,,,,,,,,,,,,,,,2,,,,,,,,,,,,,,490.69800007151207,,response,,,1,C,,,,,Space,keypress(Space),,,,instrumental,--- ---- ------ --- ------- ---------- ------- ----------<br>--- --------- --- ----------- ------- ----- ------- ---<br>--------- ---- -- --- ---- -- --------- -- ---- -------<br>-- --------- ------ --- ----- ------ ---- --- --------- --<br>------ - ---- -- --- ----------- ------- ---- ----- -----<br>was -------- - ------ ---- -- ----- ---- --- --- -----------<br>-- -------,206689.10000002384,206688.30000007153,206180.931,206185.30000007153,206197.602,206697.734,,46,was
screen,html.Screen,0_4_1_0_1_47,2021-11-12T15:32:35.421Z,,,,,,,,,,,,,,,,2,,,,,,,,,,,,,,518.466000047687,,response,,,1,C,,,,,Space,keypress(Space),,,,instrumental,--- ---- ------ --- ------- ---------- ------- ----------<br>--- --------- --- ----------- ------- ----- ------- ---<br>--------- ---- -- --- ---- -- --------- -- ---- -------<br>-- --------- ------ --- ----- ------ ---- --- --------- --<br>------ - ---- -- --- ----------- ------- ---- ----- -----<br>--- scarcely - ------ ---- -- ----- ---- --- --- -----------<br>-- -------,207217,207216.20000004768,206681.063,206689.30000007153,206697.734,207231.213,,47,scarcely
screen,html.Screen,0_4_1_0_1_48,2021-11-12T15:32:35.989Z,,,,,,,,,,,,,,,,2,,,,,,,,,,,,,,553.0870000715367,,response,,,1,C,,,,,Space,keypress(Space),,,,instrumental,--- ---- ------ --- ------- ---------- ------- ----------<br>--- --------- --- ----------- ------- ----- ------- ---<br>--------- ---- -- --- ---- -- --------- -- ---- -------<br>-- --------- ------ --- ----- ------ ---- --- --------- --<br>------ - ---- -- --- ----------- ------- ---- ----- -----<br>--- -------- a ------ ---- -- ----- ---- --- --- -----------<br>-- -------,207785.10000002384,207784.30000007153,207214.542,207217.30000007153,207231.213,207798.052,,48,a
