sender,sender_type,sender_id,timestamp,meta,,Blues,Classical,Country,Dance,Electronic,Folk,Gospel,Hip-Hop,Jazz,Latin,Musical/Film,New-age,Pop,Provo_ID,R&B,Rap,Reggae,Religious,Rock,Soul,Swing,Traditional,age,artist_name,correct,correctResponse,distraction,duration,education,ended_on,familiarity,gender,item,list,music_frequency,offensiveness,pleasantness,preference,response,response_action,snippet_file,song_name,song_rating,sound,text,time_commit,time_end,time_render,time_run,time_show,time_switch,url,word,word_ID
Instructions,html.Page,0_0,2021-11-19T13:19:34.778Z,"{""labjs_version"":""20.2.3"",""labjs_build"":{""flavor"":""production"",""commit"":""7ea907d66ca8aeef8054924ca5d82ffbe11e34e5""},""location"":""https://run.pavlovia.org/mvasilev/lab_music_a/"",""userAgent"":""Mozilla/5.0 (Windows NT 6.1; Win64; x64) AppleWebKit/537.36 (KHTML, like Gecko) Chrome/96.0.4664.45 Safari/537.36"",""platform"":""Win32"",""language"":""en-US"",""locale"":""en-US"",""timeZone"":""Europe/London"",""timezoneOffset"":0,""screen_width"":1920,""screen_height"":1080,""scroll_width"":1920,""scroll_height"":959,""window_innerWidth"":1920,""window_innerHeight"":1007,""devicePixelRatio"":1}",,,,,,,,,,,,,,,,,,,,,,,,,,,,,11618.79,,form submission,,,,,,,,,,,,,,,,20030.200000047684,20029,8343.526,8362.400000095367,8410.21,20025.879,{},,
Headphones,html.Page,0_1,2021-11-19T13:19:34.876Z,,,,,,,,,,,,,,,,,,,,,,,,,,,,,,101.72100014305033,,form submission,,,,,,,,,,,,,,,,20128.10000014305,20127.60000014305,20009.179,20031,20025.879,20130.096,,,
Holding screen,html.Screen,0_2_0_0,2021-11-19T13:19:44.869Z,,,,,,,,,,,,,,,,,,,,,,,,,,,,,,10002.445,,timeout,,,,,,,,,,,,,,,,30121.10000014305,30115.872,20113.425,20128.700000047684,20130.096,30132.541,,,
screen,html.Screen,0_2_0_1_0,2021-11-19T13:19:46.083Z,,,,,,,,,,,,,,,,53,,,,,,,,,,,,,,1201.6590000476826,,response,,,99,,,,,,Space,keypress(Space),,,,,When -- ----- -- ------ - ------- --- ----------<br>------------- ------ ------ ---- ---- ------- ----- -- ----<br>-------- ------- -- ---------- --- - --- ----- ----- ----<br>---- --- --- ----- --- ---- ---- ------- ----- ---- -------<br>--- --- -- ----- -- --- ---- -- --- ---- -- ------ ------<br>--- ----- -- ----,31335.5,31334.200000047684,30115.872,30121.5,30132.541,31349.908,,0,When
screen,html.Screen,0_2_0_1_1,2021-11-19T13:19:46.675Z,,,,,,,,,,,,,,,,53,,,,,,,,,,,,,,576.1920001430517,,response,,,99,,,,,,Space,keypress(Space),,,,,---- it ----- -- ------ - ------- --- ----------<br>------------- ------ ------ ---- ---- ------- ----- -- ----<br>-------- ------- -- ---------- --- - --- ----- ----- ----<br>---- --- --- ----- --- ---- ---- ------- ----- ---- -------<br>--- --- -- ----- -- --- ---- -- --- ---- -- ------ ------<br>--- ----- -- ----,31927.10000014305,31926.10000014305,31333.236,31336,31349.908,31933.213,,1,it
screen,html.Screen,0_2_0_1_2,2021-11-19T13:19:47.259Z,,,,,,,,,,,,,,,,53,,,,,,,,,,,,,,576.987000047684,,response,,,99,,,,,,Space,keypress(Space),,,,,---- -- comes -- ------ - ------- --- ----------<br>------------- ------ ------ ---- ---- ------- ----- -- ----<br>-------- ------- -- ---------- --- - --- ----- ----- ----<br>---- --- --- ----- --- ---- ---- ------- ----- ---- -------<br>--- --- -- ----- -- --- ---- -- --- ---- -- ------ ------<br>--- ----- -- ----,32511.10000014305,32510.200000047684,31916.543,31927.299999952316,31933.213,32516.768,,2,comes
screen,html.Screen,0_2_0_1_3,2021-11-19T13:19:47.795Z,,,,,,,,,,,,,,,,53,,,,,,,,,,,,,,529.3320001430511,,response,,,99,,,,,,Space,keypress(Space),,,,,---- -- ----- to ------ - ------- --- ----------<br>------------- ------ ------ ---- ---- ------- ----- -- ----<br>-------- ------- -- ---------- --- - --- ----- ----- ----<br>---- --- --- ----- --- ---- ---- ------- ----- ---- -------<br>--- --- -- ----- -- --- ---- -- --- ---- -- ------ ------<br>--- ----- -- ----,33047.10000014305,33046.10000014305,32500.097,32511.400000095367,32516.768,33050.242,,3,to
screen,html.Screen,0_2_0_1_4,2021-11-19T13:19:48.379Z,,,,,,,,,,,,,,,,53,,,,,,,,,,,,,,579.9580000476853,,response,,,99,,,,,,Space,keypress(Space),,,,,---- -- ----- -- having - ------- --- ----------<br>------------- ------ ------ ---- ---- ------- ----- -- ----<br>-------- ------- -- ---------- --- - --- ----- ----- ----<br>---- --- --- ----- --- ---- ---- ------- ----- ---- -------<br>--- --- -- ----- -- --- ---- -- --- ---- -- ------ ------<br>--- ----- -- ----,33631.200000047684,33630.200000047684,33033.571,33047.60000014305,33050.242,33633.666,,4,having
screen,html.Screen,0_2_0_1_5,2021-11-19T13:19:48.859Z,,,,,,,,,,,,,,,,53,,,,,,,,,,,,,,476.33400000000256,,response,,,99,,,,,,Space,keypress(Space),,,,,---- -- ----- -- ------ a ------- --- ----------<br>------------- ------ ------ ---- ---- ------- ----- -- ----<br>-------- ------- -- ---------- --- - --- ----- ----- ----<br>---- --- --- ----- --- ---- ---- ------- ----- ---- -------<br>--- --- -- ----- -- --- ---- -- --- ---- -- ------ ------<br>--- ----- -- ----,34110.90000009537,34110,33616.996,33631.60000014305,33633.666,34117.22,,5,a
screen,html.Screen,0_2_0_1_6,2021-11-19T13:19:49.491Z,,,,,,,,,,,,,,,,53,,,,,,,,,,,,,,624.88000014305,,response,,,99,,,,,,Space,keypress(Space),,,,,---- -- ----- -- ------ - lasting --- ----------<br>------------- ------ ------ ---- ---- ------- ----- -- ----<br>-------- ------- -- ---------- --- - --- ----- ----- ----<br>---- --- --- ----- --- ---- ---- ------- ----- ---- -------<br>--- --- -- ----- -- --- ---- -- --- ---- -- ------ ------<br>--- ----- -- ----,34743,34742.10000014305,34100.549,34111.40000009537,34117.22,34750.558,,6,lasting
screen,html.Screen,0_2_0_1_7,2021-11-19T13:19:50.123Z,,,,,,,,,,,,,,,,53,,,,,,,,,,,,,,623.4420000000027,,response,,,99,,,,,,Space,keypress(Space),,,,,---- -- ----- -- ------ - ------- and ----------<br>------------- ------ ------ ---- ---- ------- ----- -- ----<br>-------- ------- -- ---------- --- - --- ----- ----- ----<br>---- --- --- ----- --- ---- ---- ------- ----- ---- -------<br>--- --- -- ----- -- --- ---- -- --- ---- -- ------ ------<br>--- ----- -- ----,35374.90000009537,35374,34733.889,34743.299999952316,34750.558,35384.288,,7,and
screen,html.Screen,0_2_0_1_8,2021-11-19T13:19:50.602Z,,,,,,,,,,,,,,,,53,,,,,,,,,,,,,,469.5119999523158,,response,,,99,,,,,,Space,keypress(Space),,,,,---- -- ----- -- ------ - ------- --- fulfilling<br>------------- ------ ------ ---- ---- ------- ----- -- ----<br>-------- ------- -- ---------- --- - --- ----- ----- ----<br>---- --- --- ----- --- ---- ---- ------- ----- ---- -------<br>--- --- -- ----- -- --- ---- -- --- ---- -- ------ ------<br>--- ----- -- ----,35854.299999952316,35853.799999952316,35367.616,35375.200000047684,35384.288,35867.53,,8,fulfilling
screen,html.Screen,0_2_0_1_9,2021-11-19T13:19:51.211Z,,,,,,,,,,,,,,,,53,,,,,,,,,,,,,,594.4700000000012,,response,,,99,,,,,,Space,keypress(Space),,,,,"---- -- ----- -- ------ - ------- --- ----------<br>relationship, ------ ------ ---- ---- ------- ----- -- ----<br>-------- ------- -- ---------- --- - --- ----- ----- ----<br>---- --- --- ----- --- ---- ---- ------- ----- ---- -------<br>--- --- -- ----- -- --- ---- -- --- ---- -- ------ ------<br>--- ----- -- ----",36463.200000047684,36462,35850.861,35854.5,35867.53,36467.851,,9,"relationship,"
screen,html.Screen,0_2_0_1_10,2021-11-19T13:19:52.770Z,,,,,,,,,,,,,,,,53,,,,,,,,,,,,,,1554.049000095365,,response,,,99,,,,,,Space,keypress(Space),,,,,---- -- ----- -- ------ - ------- --- ----------<br>------------- common ------ ---- ---- ------- ----- -- ----<br>-------- ------- -- ---------- --- - --- ----- ----- ----<br>---- --- --- ----- --- ---- ---- ------- ----- ---- -------<br>--- --- -- ----- -- --- ---- -- --- ---- -- ------ ------<br>--- ----- -- ----,38022.799999952316,38021.90000009537,36451.18,36463.40000009537,36467.851,38034.761,,10,common
screen,html.Screen,0_2_0_1_11,2021-11-19T13:19:53.306Z,,,,,,,,,,,,,,,,53,,,,,,,,,,,,,,523.0389999523177,,response,,,99,,,,,,Space,keypress(Space),,,,,---- -- ----- -- ------ - ------- --- ----------<br>------------- ------ wisdom ---- ---- ------- ----- -- ----<br>-------- ------- -- ---------- --- - --- ----- ----- ----<br>---- --- --- ----- --- ---- ---- ------- ----- ---- -------<br>--- --- -- ----- -- --- ---- -- --- ---- -- ------ ------<br>--- ----- -- ----,38558.700000047684,38557.799999952316,38018.091,38023.10000014305,38034.761,38568.41,,11,wisdom
screen,html.Screen,0_2_0_1_12,2021-11-19T13:19:54.275Z,,,,,,,,,,,,,,,,53,,,,,,,,,,,,,,957.8899999523128,,response,,,99,,,,,,Space,keypress(Space),,,,,---- -- ----- -- ------ - ------- --- ----------<br>------------- ------ ------ says ---- ------- ----- -- ----<br>-------- ------- -- ---------- --- - --- ----- ----- ----<br>---- --- --- ----- --- ---- ---- ------- ----- ---- -------<br>--- --- -- ----- -- --- ---- -- --- ---- -- ------ ------<br>--- ----- -- ----,39527.10000014305,39526.299999952316,38551.739,38558.90000009537,38568.41,39535.314,,12,says
screen,html.Screen,0_2_0_1_13,2021-11-19T13:19:54.730Z,,,,,,,,,,,,,,,,53,,,,,,,,,,,,,,446.38600004768523,,response,,,99,,,,,,Space,keypress(Space),,,,,---- -- ----- -- ------ - ------- --- ----------<br>------------- ------ ------ ---- that ------- ----- -- ----<br>-------- ------- -- ---------- --- - --- ----- ----- ----<br>---- --- --- ----- --- ---- ---- ------- ----- ---- -------<br>--- --- -- ----- -- --- ---- -- --- ---- -- ------ ------<br>--- ----- -- ----,39982.60000014305,39981.700000047684,39518.643,39527.40000009537,39535.314,39985.363,,13,that
screen,html.Screen,0_2_0_1_14,2021-11-19T13:19:55.370Z,,,,,,,,,,,,,,,,53,,,,,,,,,,,,,,636.3370000476862,,response,,,99,,,,,,Space,keypress(Space),,,,,---- -- ----- -- ------ - ------- --- ----------<br>------------- ------ ------ ---- ---- feeling ----- -- ----<br>-------- ------- -- ---------- --- - --- ----- ----- ----<br>---- --- --- ----- --- ---- ---- ------- ----- ---- -------<br>--- --- -- ----- -- --- ---- -- --- ---- -- ------ ------<br>--- ----- -- ----,40622.5,40621.700000047684,39968.693,39982.799999952316,39985.363,40635.619,,14,feeling
screen,html.Screen,0_2_0_1_15,2021-11-19T13:19:55.978Z,,,,,,,,,,,,,,,,53,,,,,,,,,,,,,,594.0810000476849,,response,,,99,,,,,,Space,keypress(Space),,,,,---- -- ----- -- ------ - ------- --- ----------<br>------------- ------ ------ ---- ---- ------- close -- ----<br>-------- ------- -- ---------- --- - --- ----- ----- ----<br>---- --- --- ----- --- ---- ---- ------- ----- ---- -------<br>--- --- -- ----- -- --- ---- -- --- ---- -- ------ ------<br>--- ----- -- ----,41230.5,41229.700000047684,40618.948,40622.799999952316,40635.619,41235.794,,15,close
screen,html.Screen,0_2_0_1_16,2021-11-19T13:19:57.058Z,,,,,,,,,,,,,,,,53,,,,,,,,,,,,,,1073.906000047682,,response,,,99,,,,,,Space,keypress(Space),,,,,---- -- ----- -- ------ - ------- --- ----------<br>------------- ------ ------ ---- ---- ------- ----- to ----<br>-------- ------- -- ---------- --- - --- ----- ----- ----<br>---- --- --- ----- --- ---- ---- ------- ----- ---- -------<br>--- --- -- ----- -- --- ---- -- --- ---- -- ------ ------<br>--- ----- -- ----,42310.5,42309.700000047684,41219.123,41230.700000047684,41235.794,42319.315,,16,to
screen,html.Screen,0_2_0_1_17,2021-11-19T13:19:57.642Z,,,,,,,,,,,,,,,,53,,,,,,,,,,,,,,574.3850000476814,,response,,,99,,,,,,Space,keypress(Space),,,,,---- -- ----- -- ------ - ------- --- ----------<br>------------- ------ ------ ---- ---- ------- ----- -- your<br>-------- ------- -- ---------- --- - --- ----- ----- ----<br>---- --- --- ----- --- ---- ---- ------- ----- ---- -------<br>--- --- -- ----- -- --- ---- -- --- ---- -- ------ ------<br>--- ----- -- ----,42894.5,42893.700000047684,42302.645,42310.799999952316,42319.315,42902.784,,17,your
screen,html.Screen,0_2_0_1_18,2021-11-19T13:19:58.218Z,,,,,,,,,,,,,,,,53,,,,,,,,,,,,,,566.9160000476841,,response,,,99,,,,,,Space,keypress(Space),,,,,---- -- ----- -- ------ - ------- --- ----------<br>------------- ------ ------ ---- ---- ------- ----- -- ----<br>romantic ------- -- ---------- --- - --- ----- ----- ----<br>---- --- --- ----- --- ---- ---- ------- ----- ---- -------<br>--- --- -- ----- -- --- ---- -- --- ---- -- ------ ------<br>--- ----- -- ----,43470.60000014305,43469.700000047684,42886.114,42894.700000047684,42902.784,43486.404,,18,romantic
screen,html.Screen,0_2_0_1_19,2021-11-19T13:19:59.186Z,,,,,,,,,,,,,,,,53,,,,,,,,,,,,,,951.1960001430489,,response,,,99,,,,,,Space,keypress(Space),,,,,---- -- ----- -- ------ - ------- --- ----------<br>------------- ------ ------ ---- ---- ------- ----- -- ----<br>-------- partner -- ---------- --- - --- ----- ----- ----<br>---- --- --- ----- --- ---- ---- ------- ----- ---- -------<br>--- --- -- ----- -- --- ---- -- --- ---- -- ------ ------<br>--- ----- -- ----,44438.40000009537,44437.60000014305,43469.733,43470.799999952316,43486.404,44453.307,,19,partner
screen,html.Screen,0_2_0_1_20,2021-11-19T13:20:00.050Z,,,,,,,,,,,,,,,,53,,,,,,,,,,,,,,848.2930001430504,,response,,,99,,,,,,Space,keypress(Space),,,,,---- -- ----- -- ------ - ------- --- ----------<br>------------- ------ ------ ---- ---- ------- ----- -- ----<br>-------- ------- is ---------- --- - --- ----- ----- ----<br>---- --- --- ----- --- ---- ---- ------- ----- ---- -------<br>--- --- -- ----- -- --- ---- -- --- ---- -- ------ ------<br>--- ----- -- ----,45302.40000009537,45301.60000014305,44436.636,44438.700000047684,44453.307,45303.534,,20,is
screen,html.Screen,0_2_0_1_21,2021-11-19T13:20:00.626Z,,,,,,,,,,,,,,,,53,,,,,,,,,,,,,,574.0660001430515,,response,,,99,,,,,,Space,keypress(Space),,,,,---- -- ----- -- ------ - ------- --- ----------<br>------------- ------ ------ ---- ---- ------- ----- -- ----<br>-------- ------- -- paramount. --- - --- ----- ----- ----<br>---- --- --- ----- --- ---- ---- ------- ----- ---- -------<br>--- --- -- ----- -- --- ---- -- --- ---- -- ------ ------<br>--- ----- -- ----,45878.40000009537,45877.60000014305,45286.863,45302.60000014305,45303.534,45887.023,,21,paramount.
screen,html.Screen,0_2_0_1_22,2021-11-19T13:20:01.306Z,,,,,,,,,,,,,,,,53,,,,,,,,,,,,,,670.476999999999,,response,,,99,,,,,,Space,keypress(Space),,,,,---- -- ----- -- ------ - ------- --- ----------<br>------------- ------ ------ ---- ---- ------- ----- -- ----<br>-------- ------- -- ---------- But - --- ----- ----- ----<br>---- --- --- ----- --- ---- ---- ------- ----- ---- -------<br>--- --- -- ----- -- --- ---- -- --- ---- -- ------ ------<br>--- ----- -- ----,46558.40000009537,46557.5,45870.352,45878.799999952316,45887.023,46570.55,,22,But
screen,html.Screen,0_2_0_1_23,2021-11-19T13:20:01.818Z,,,,,,,,,,,,,,,,53,,,,,,,,,,,,,,498.9499999999971,,response,,,99,,,,,,Space,keypress(Space),,,,,---- -- ----- -- ------ - ------- --- ----------<br>------------- ------ ------ ---- ---- ------- ----- -- ----<br>-------- ------- -- ---------- --- a --- ----- ----- ----<br>---- --- --- ----- --- ---- ---- ------- ----- ---- -------<br>--- --- -- ----- -- --- ---- -- --- ---- -- ------ ------<br>--- ----- -- ----,47070.299999952316,47069.5,46553.879,46558.5,46570.55,47087.303,,23,a
screen,html.Screen,0_2_0_1_24,2021-11-19T13:20:02.370Z,,,,,,,,,,,,,,,,53,,,,,,,,,,,,,,534.1970000000001,,response,,,99,,,,,,Space,keypress(Space),,,,,---- -- ----- -- ------ - ------- --- ----------<br>------------- ------ ------ ---- ---- ------- ----- -- ----<br>-------- ------- -- ---------- --- - new ----- ----- ----<br>---- --- --- ----- --- ---- ---- ------- ----- ---- -------<br>--- --- -- ----- -- --- ---- -- --- ---- -- ------ ------<br>--- ----- -- ----,47622.200000047684,47621.5,47070.633,47070.60000014305,47087.303,47637.352,,24,new
screen,html.Screen,0_2_0_1_25,2021-11-19T13:20:02.986Z,,,,,,,,,,,,,,,,53,,,,,,,,,,,,,,600.0480000953685,,response,,,99,,,,,,Space,keypress(Space),,,,,---- -- ----- -- ------ - ------- --- ----------<br>------------- ------ ------ ---- ---- ------- ----- -- ----<br>-------- ------- -- ---------- --- - --- study ----- ----<br>---- --- --- ----- --- ---- ---- ------- ----- ---- -------<br>--- --- -- ----- -- --- ---- -- --- ---- -- ------ ------<br>--- ----- -- ----,48238.299999952316,48237.40000009537,47620.683,47622.5,47637.352,48254.43,,25,study
screen,html.Screen,0_2_0_1_26,2021-11-19T13:20:03.490Z,,,,,,,,,,,,,,,,53,,,,,,,,,,,,,,487.0699999999997,,response,,,99,,,,,,Space,keypress(Space),,,,,---- -- ----- -- ------ - ------- --- ----------<br>------------- ------ ------ ---- ---- ------- ----- -- ----<br>-------- ------- -- ---------- --- - --- ----- finds ----<br>---- --- --- ----- --- ---- ---- ------- ----- ---- -------<br>--- --- -- ----- -- --- ---- -- --- ---- -- ------ ------<br>--- ----- -- ----,48742.200000047684,48741.5,48237.758,48238.60000014305,48254.43,48754.426,,26,finds
screen,html.Screen,0_2_0_1_27,2021-11-19T13:20:03.954Z,,,,,,,,,,,,,,,,53,,,,,,,,,,,,,,450.77400004768424,,response,,,99,,,,,,Space,keypress(Space),,,,,---- -- ----- -- ------ - ------- --- ----------<br>------------- ------ ------ ---- ---- ------- ----- -- ----<br>-------- ------- -- ---------- --- - --- ----- ----- that<br>---- --- --- ----- --- ---- ---- ------- ----- ---- -------<br>--- --- -- ----- -- --- ---- -- --- ---- -- ------ ------<br>--- ----- -- ----,49206.10000014305,49205.200000047684,48737.756,48742.5,48754.426,49221.266,,27,that
screen,html.Screen,0_2_0_1_28,2021-11-19T13:20:04.634Z,,,,,,,,,,,,,,,,53,,,,,,,,,,,,,,664.533999952313,,response,,,99,,,,,,Space,keypress(Space),,,,,---- -- ----- -- ------ - ------- --- ----------<br>------------- ------ ------ ---- ---- ------- ----- -- ----<br>-------- ------- -- ---------- --- - --- ----- ----- ----<br>it's --- --- ----- --- ---- ---- ------- ----- ---- -------<br>--- --- -- ----- -- --- ---- -- --- ---- -- ------ ------<br>--- ----- -- ----,49886.60000014305,49885.799999952316,49204.595,49206.299999952316,49221.266,49888.108,,28,it's
screen,html.Screen,0_2_0_1_29,2021-11-19T13:20:05.354Z,,,,,,,,,,,,,,,,53,,,,,,,,,,,,,,717.2920000953673,,response,,,99,,,,,,Space,keypress(Space),,,,,---- -- ----- -- ------ - ------- --- ----------<br>------------- ------ ------ ---- ---- ------- ----- -- ----<br>-------- ------- -- ---------- --- - --- ----- ----- ----<br>---- not --- ----- --- ---- ---- ------- ----- ---- -------<br>--- --- -- ----- -- --- ---- -- --- ---- -- ------ ------<br>--- ----- -- ----,50606.299999952316,50605.40000009537,49871.437,49886.90000009537,49888.108,50621.636,,29,not
screen,html.Screen,0_2_0_1_30,2021-11-19T13:20:05.922Z,,,,,,,,,,,,,,,,53,,,,,,,,,,,,,,551.6639999523177,,response,,,99,,,,,,Space,keypress(Space),,,,,---- -- ----- -- ------ - ------- --- ----------<br>------------- ------ ------ ---- ---- ------- ----- -- ----<br>-------- ------- -- ---------- --- - --- ----- ----- ----<br>---- --- how ----- --- ---- ---- ------- ----- ---- -------<br>--- --- -- ----- -- --- ---- -- --- ---- -- ------ ------<br>--- ----- -- ----,51174.200000047684,51173.299999952316,50604.965,50606.5,50621.636,51188.4,,30,how
screen,html.Screen,0_2_0_1_31,2021-11-19T13:20:06.490Z,,,,,,,,,,,,,,,,53,,,,,,,,,,,,,,552.8999999523148,,response,,,99,,,,,,Space,keypress(Space),,,,,---- -- ----- -- ------ - ------- --- ----------<br>------------- ------ ------ ---- ---- ------- ----- -- ----<br>-------- ------- -- ---------- --- - --- ----- ----- ----<br>---- --- --- close --- ---- ---- ------- ----- ---- -------<br>--- --- -- ----- -- --- ---- -- --- ---- -- ------ ------<br>--- ----- -- ----,51742,51741.299999952316,51171.73,51174.60000014305,51188.4,51755.115,,31,close
screen,html.Screen,0_2_0_1_32,2021-11-19T13:20:07.034Z,,,,,,,,,,,,,,,,53,,,,,,,,,,,,,,530.1849999523183,,response,,,99,,,,,,Space,keypress(Space),,,,,---- -- ----- -- ------ - ------- --- ----------<br>------------- ------ ------ ---- ---- ------- ----- -- ----<br>-------- ------- -- ---------- --- - --- ----- ----- ----<br>---- --- --- ----- you ---- ---- ------- ----- ---- -------<br>--- --- -- ----- -- --- ---- -- --- ---- -- ------ ------<br>--- ----- -- ----,52286,52285.299999952316,51738.446,51742.299999952316,51755.115,52288.814,,32,you
screen,html.Screen,0_2_0_1_33,2021-11-19T13:20:07.594Z,,,,,,,,,,,,,,,,53,,,,,,,,,,,,,,556.4859999523178,,response,,,99,,,,,,Space,keypress(Space),,,,,---- -- ----- -- ------ - ------- --- ----------<br>------------- ------ ------ ---- ---- ------- ----- -- ----<br>-------- ------- -- ---------- --- - --- ----- ----- ----<br>---- --- --- ----- --- feel ---- ------- ----- ---- -------<br>--- --- -- ----- -- --- ---- -- --- ---- -- ------ ------<br>--- ----- -- ----,52846.10000014305,52845.299999952316,52272.142,52286.299999952316,52288.814,52855.579,,33,feel
screen,html.Screen,0_2_0_1_34,2021-11-19T13:20:08.218Z,,,,,,,,,,,,,,,,53,,,,,,,,,,,,,,613.6210000476858,,response,,,99,,,,,,Space,keypress(Space),,,,,---- -- ----- -- ------ - ------- --- ----------<br>------------- ------ ------ ---- ---- ------- ----- -- ----<br>-------- ------- -- ---------- --- - --- ----- ----- ----<br>---- --- --- ----- --- ---- that ------- ----- ---- -------<br>--- --- -- ----- -- --- ---- -- --- ---- -- ------ ------<br>--- ----- -- ----,53470,53469.200000047684,52838.908,52846.40000009537,52855.579,53472.352,,34,that
screen,html.Screen,0_2_0_1_35,2021-11-19T13:20:08.786Z,,,,,,,,,,,,,,,,53,,,,,,,,,,,,,,564.8480000476848,,response,,,99,,,,,,Space,keypress(Space),,,,,---- -- ----- -- ------ - ------- --- ----------<br>------------- ------ ------ ---- ---- ------- ----- -- ----<br>-------- ------- -- ---------- --- - --- ----- ----- ----<br>---- --- --- ----- --- ---- ---- matters ----- ---- -------<br>--- --- -- ----- -- --- ---- -- --- ---- -- ------ ------<br>--- ----- -- ----,54038,54037.200000047684,53455.682,53470.200000047684,53472.352,54039.165,,35,matters
screen,html.Screen,0_2_0_1_36,2021-11-19T13:20:09.378Z,,,,,,,,,,,,,,,,53,,,,,,,,,,,,,,590.0350000476828,,response,,,99,,,,,,Space,keypress(Space),,,,,"---- -- ----- -- ------ - ------- --- ----------<br>------------- ------ ------ ---- ---- ------- ----- -- ----<br>-------- ------- -- ---------- --- - --- ----- ----- ----<br>---- --- --- ----- --- ---- ---- ------- most, ---- -------<br>--- --- -- ----- -- --- ---- -- --- ---- -- ------ ------<br>--- ----- -- ----",54630.10000014305,54629.200000047684,54022.495,54038.200000047684,54039.165,54639.391,,36,"most,"
screen,html.Screen,0_2_0_1_37,2021-11-19T13:20:09.946Z,,,,,,,,,,,,,,,,53,,,,,,,,,,,,,,557.7090001430479,,response,,,99,,,,,,Space,keypress(Space),,,,,---- -- ----- -- ------ - ------- --- ----------<br>------------- ------ ------ ---- ---- ------- ----- -- ----<br>-------- ------- -- ---------- --- - --- ----- ----- ----<br>---- --- --- ----- --- ---- ---- ------- ----- it's -------<br>--- --- -- ----- -- --- ---- -- --- ---- -- ------ ------<br>--- ----- -- ----,55197.90000009537,55197.10000014305,54622.72,54630.40000009537,54639.391,55206.198,,37,it's
screen,html.Screen,0_2_0_1_38,2021-11-19T13:20:10.482Z,,,,,,,,,,,,,,,,53,,,,,,,,,,,,,,526.9020001430545,,response,,,99,,,,,,Space,keypress(Space),,,,,---- -- ----- -- ------ - ------- --- ----------<br>------------- ------ ------ ---- ---- ------- ----- -- ----<br>-------- ------- -- ---------- --- - --- ----- ----- ----<br>---- --- --- ----- --- ---- ---- ------- ----- ---- whether<br>--- --- -- ----- -- --- ---- -- --- ---- -- ------ ------<br>--- ----- -- ----,55733.90000009537,55733.10000014305,55189.527,55198.10000014305,55206.198,55739.677,,38,whether
screen,html.Screen,0_2_0_1_39,2021-11-19T13:20:11.001Z,,,,,,,,,,,,,,,,53,,,,,,,,,,,,,,513.2230000953641,,response,,,99,,,,,,Space,keypress(Space),,,,,---- -- ----- -- ------ - ------- --- ----------<br>------------- ------ ------ ---- ---- ------- ----- -- ----<br>-------- ------- -- ---------- --- - --- ----- ----- ----<br>---- --- --- ----- --- ---- ---- ------- ----- ---- -------<br>you --- -- ----- -- --- ---- -- --- ---- -- ------ ------<br>--- ----- -- ----,56253.700000047684,56252.90000009537,55723.006,55734.10000014305,55739.677,56256.417,,39,you
screen,html.Screen,0_2_0_1_40,2021-11-19T13:20:11.530Z,,,,,,,,,,,,,,,,53,,,,,,,,,,,,,,524.5829999999987,,response,,,99,,,,,,Space,keypress(Space),,,,,---- -- ----- -- ------ - ------- --- ----------<br>------------- ------ ------ ---- ---- ------- ----- -- ----<br>-------- ------- -- ---------- --- - --- ----- ----- ----<br>---- --- --- ----- --- ---- ---- ------- ----- ---- -------<br>--- are -- ----- -- --- ---- -- --- ---- -- ------ ------<br>--- ----- -- ----,56781.799999952316,56781,56239.747,56254,56256.417,56789.984,,40,are
screen,html.Screen,0_2_0_1_41,2021-11-19T13:20:12.065Z,,,,,,,,,,,,,,,,53,,,,,,,,,,,,,,527.0160000000033,,response,,,99,,,,,,Space,keypress(Space),,,,,---- -- ----- -- ------ - ------- --- ----------<br>------------- ------ ------ ---- ---- ------- ----- -- ----<br>-------- ------- -- ---------- --- - --- ----- ----- ----<br>---- --- --- ----- --- ---- ---- ------- ----- ---- -------<br>--- --- as ----- -- --- ---- -- --- ---- -- ------ ------<br>--- ----- -- ----,57317.799999952316,57317,56773.313,56782.10000014305,56789.984,57323.38,,41,as
screen,html.Screen,0_2_0_1_42,2021-11-19T13:20:12.625Z,,,,,,,,,,,,,,,,53,,,,,,,,,,,,,,553.52000009537,,response,,,99,,,,,,Space,keypress(Space),,,,,---- -- ----- -- ------ - ------- --- ----------<br>------------- ------ ------ ---- ---- ------- ----- -- ----<br>-------- ------- -- ---------- --- - --- ----- ----- ----<br>---- --- --- ----- --- ---- ---- ------- ----- ---- -------<br>--- --- -- close -- --- ---- -- --- ---- -- ------ ------<br>--- ----- -- ----,57877.700000047684,57876.90000009537,57306.71,57318,57323.38,57890.247,,42,close
screen,html.Screen,0_2_0_1_43,2021-11-19T13:20:13.153Z,,,,,,,,,,,,,,,,53,,,,,,,,,,,,,,514.6530000953644,,response,,,99,,,,,,Space,keypress(Space),,,,,---- -- ----- -- ------ - ------- --- ----------<br>------------- ------ ------ ---- ---- ------- ----- -- ----<br>-------- ------- -- ---------- --- - --- ----- ----- ----<br>---- --- --- ----- --- ---- ---- ------- ----- ---- -------<br>--- --- -- ----- as --- ---- -- --- ---- -- ------ ------<br>--- ----- -- ----,58405.60000014305,58404.90000009537,57873.576,57877.90000009537,57890.247,58407.057,,43,as
screen,html.Screen,0_2_0_1_44,2021-11-19T13:20:13.721Z,,,,,,,,,,,,,,,,53,,,,,,,,,,,,,,565.8430000953667,,response,,,99,,,,,,Space,keypress(Space),,,,,---- -- ----- -- ------ - ------- --- ----------<br>------------- ------ ------ ---- ---- ------- ----- -- ----<br>-------- ------- -- ---------- --- - --- ----- ----- ----<br>---- --- --- ----- --- ---- ---- ------- ----- ---- -------<br>--- --- -- ----- -- you ---- -- --- ---- -- ------ ------<br>--- ----- -- ----,58973.799999952316,58972.90000009537,58390.386,58405.90000009537,58407.057,58990.566,,44,you
screen,html.Screen,0_2_0_1_45,2021-11-19T13:20:14.217Z,,,,,,,,,,,,,,,,53,,,,,,,,,,,,,,478.33400009536854,,response,,,99,,,,,,Space,keypress(Space),,,,,---- -- ----- -- ------ - ------- --- ----------<br>------------- ------ ------ ---- ---- ------- ----- -- ----<br>-------- ------- -- ---------- --- - --- ----- ----- ----<br>---- --- --- ----- --- ---- ---- ------- ----- ---- -------<br>--- --- -- ----- -- --- want -- --- ---- -- ------ ------<br>--- ----- -- ----,59469.700000047684,59468.90000009537,58973.895,58974,58990.566,59473.939,,45,want
screen,html.Screen,0_2_0_1_46,2021-11-19T13:20:14.738Z,,,,,,,,,,,,,,,,53,,,,,,,,,,,,,,515.461000095369,,response,,,99,,,,,,Space,keypress(Space),,,,,---- -- ----- -- ------ - ------- --- ----------<br>------------- ------ ------ ---- ---- ------- ----- -- ----<br>-------- ------- -- ---------- --- - --- ----- ----- ----<br>---- --- --- ----- --- ---- ---- ------- ----- ---- -------<br>--- --- -- ----- -- --- ---- to --- ---- -- ------ ------<br>--- ----- -- ----,59990.10000014305,59989.40000009537,59457.269,59470,59473.939,60007.526,,46,to
screen,html.Screen,0_2_0_1_47,2021-11-19T13:20:15.308Z,,,,,,,,,,,,,,,,53,,,,,,,,,,,,,,549.3740000953694,,response,,,99,,,,,,Space,keypress(Space),,,,,"---- -- ----- -- ------ - ------- --- ----------<br>------------- ------ ------ ---- ---- ------- ----- -- ----<br>-------- ------- -- ---------- --- - --- ----- ----- ----<br>---- --- --- ----- --- ---- ---- ------- ----- ---- -------<br>--- --- -- ----- -- --- ---- -- be, ---- -- ------ ------<br>--- ----- -- ----",60557.799999952316,60556.90000009537,59990.855,59990.299999952316,60007.526,60574.163,,47,"be,"
screen,html.Screen,0_2_0_1_48,2021-11-19T13:20:15.892Z,,,,,,,,,,,,,,,,53,,,,,,,,,,,,,,566.737000095367,,response,,,99,,,,,,Space,keypress(Space),,,,,---- -- ----- -- ------ - ------- --- ----------<br>------------- ------ ------ ---- ---- ------- ----- -- ----<br>-------- ------- -- ---------- --- - --- ----- ----- ----<br>---- --- --- ----- --- ---- ---- ------- ----- ---- -------<br>--- --- -- ----- -- --- ---- -- --- even -- ------ ------<br>--- ----- -- ----,61141.700000047684,61140.90000009537,60557.494,60558,60574.163,61157.892,,48,even
screen,html.Screen,0_2_0_1_49,2021-11-19T13:20:16.396Z,,,,,,,,,,,,,,,,53,,,,,,,,,,,,,,487.0080000953676,,response,,,99,,,,,,Space,keypress(Space),,,,,---- -- ----- -- ------ - ------- --- ----------<br>------------- ------ ------ ---- ---- ------- ----- -- ----<br>-------- ------- -- ---------- --- - --- ----- ----- ----<br>---- --- --- ----- --- ---- ---- ------- ----- ---- -------<br>--- --- -- ----- -- --- ---- -- --- ---- if ------ ------<br>--- ----- -- ----,61645.60000014305,61644.90000009537,61141.22,61141.90000009537,61157.892,61657.898,,49,if
screen,html.Screen,0_2_0_1_50,2021-11-19T13:20:16.908Z,,,,,,,,,,,,,,,,53,,,,,,,,,,,,,,498.90199995231524,,response,,,99,,,,,,Space,keypress(Space),,,,,---- -- ----- -- ------ - ------- --- ----------<br>------------- ------ ------ ---- ---- ------- ----- -- ----<br>-------- ------- -- ---------- --- - --- ----- ----- ----<br>---- --- --- ----- --- ---- ---- ------- ----- ---- -------<br>--- --- -- ----- -- --- ---- -- --- ---- -- that's ------<br>--- ----- -- ----,62157.700000047684,62156.799999952316,61641.228,61645.90000009537,61657.898,62174.611,,50,that's
screen,html.Screen,0_2_0_1_51,2021-11-19T13:20:17.388Z,,,,,,,,,,,,,,,,53,,,,,,,,,,,,,,462.2890000953703,,response,,,99,,,,,,Space,keypress(Space),,,,,---- -- ----- -- ------ - ------- --- ----------<br>------------- ------ ------ ---- ---- ------- ----- -- ----<br>-------- ------- -- ---------- --- - --- ----- ----- ----<br>---- --- --- ----- --- ---- ---- ------- ----- ---- -------<br>--- --- -- ----- -- --- ---- -- --- ---- -- ------ really<br>--- ----- -- ----,62637.700000047684,62636.90000009537,62157.942,62157.799999952316,62174.611,62641.601,,51,really
screen,html.Screen,0_2_0_1_52,2021-11-19T13:20:17.860Z,,,,,,,,,,,,,,,,53,,,,,,,,,,,,,,467.29900009536505,,response,,,99,,,,,,Space,keypress(Space),,,,,---- -- ----- -- ------ - ------- --- ----------<br>------------- ------ ------ ---- ---- ------- ----- -- ----<br>-------- ------- -- ---------- --- - --- ----- ----- ----<br>---- --- --- ----- --- ---- ---- ------- ----- ---- -------<br>--- --- -- ----- -- --- ---- -- --- ---- -- ------ ------<br>not ----- -- ----,63109.60000014305,63108.90000009537,62624.929,62637.799999952316,62641.601,63124.863,,52,not
screen,html.Screen,0_2_0_1_53,2021-11-19T13:20:18.676Z,,,,,,,,,,,,,,,,53,,,,,,,,,,,,,,799.9369999523187,,response,,,99,,,,,,Space,keypress(Space),,,,,---- -- ----- -- ------ - ------- --- ----------<br>------------- ------ ------ ---- ---- ------- ----- -- ----<br>-------- ------- -- ---------- --- - --- ----- ----- ----<br>---- --- --- ----- --- ---- ---- ------- ----- ---- -------<br>--- --- -- ----- -- --- ---- -- --- ---- -- ------ ------<br>--- close -- ----,63925.5,63924.799999952316,63108.194,63109.90000009537,63124.863,63941.958,,53,close
screen,html.Screen,0_2_0_1_54,2021-11-19T13:20:19.052Z,,,,,,,,,,,,,,,,53,,,,,,,,,,,,,,358.84199995231756,,response,,,99,,,,,,Space,keypress(Space),,,,,---- -- ----- -- ------ - ------- --- ----------<br>------------- ------ ------ ---- ---- ------- ----- -- ----<br>-------- ------- -- ---------- --- - --- ----- ----- ----<br>---- --- --- ----- --- ---- ---- ------- ----- ---- -------<br>--- --- -- ----- -- --- ---- -- --- ---- -- ------ ------<br>--- ----- at ----,64301.5,64300.799999952316,63925.286,63925.799999952316,63941.958,64308.648,,54,at
screen,html.Screen,0_2_0_1_55,2021-11-19T13:20:19.476Z,,,,,,,,,,,,,,,,53,,,,,,,,,,,,,,416.15199995231524,,response,,,99,,,,,,Space,keypress(Space),,,,,---- -- ----- -- ------ - ------- --- ----------<br>------------- ------ ------ ---- ---- ------- ----- -- ----<br>-------- ------- -- ---------- --- - --- ----- ----- ----<br>---- --- --- ----- --- ---- ---- ------- ----- ---- -------<br>--- --- -- ----- -- --- ---- -- --- ---- -- ------ ------<br>--- ----- -- all.,64725.60000014305,64724.799999952316,64291.977,64301.799999952316,64308.648,64742.054,,55,all.
Item 99,flow.Loop,0_2_0_1,2021-11-19T13:20:19.480Z,,,,,,,,,,,,,,,,,,,,,,,,,,,,,,34592.25899995232,,completion,,,,A,,,,,,,,,,silence,,64729.90000009537,64724.799999952316,30115.872,30121.400000095367,30132.541,64742.054,,,
Question 1,html.Screen,0_2_0_2,2021-11-19T13:20:25.324Z,,,,,,,,,,,,,,,,,,,,,,,,,,,false,FALSE,,5830.24599995232,,response,,,99,A,,,,,TRUE,click #choice-1,,,,silence,,70573.70000004768,70572.29999995232,64725.384,64730.200000047684,64742.054,70576.986,,,
Question 2,html.Screen,0_2_0_3,2021-11-19T13:20:28.236Z,,,,,,,,,,,,,,,,,,,,,,,,,,,true,TRUE,,2907.0139999999956,,response,,,99,A,,,,,TRUE,click #choice-1,,,,silence,,73485.10000014305,73484,70560.315,70573.90000009537,70576.986,73494.445,,,
Item 99,flow.Sequence,0_2_0,2021-11-19T13:20:28.236Z,,,,,,,,,,,,,,,,,,,,,,,,,,,,,,53353.903999999995,,completion,,,,,,,,,,,,,,,,73485.70000004768,73484,20113.425,20128.60000014305,20130.096,73494.445,,,
Holding screen,html.Screen,0_2_1_0,2021-11-19T13:20:38.232Z,,,,,,,,,,,,,,,,,,,,,,,,,,,,,,10002.622999999992,,timeout,,,,,,,,,,,,,,,,83481.40000009537,83480.397,73477.774,73486.20000004768,73494.445,83497.068,,,
screen,html.Screen,0_2_1_1_0,2021-11-19T13:20:39.132Z,,,,,,,,,,,,,,,,54,,,,,,,,,,,,,,883.231999952317,,response,,,100,,,,,,Space,keypress(Space),,,,,At --- ---- --- ------ ----- ------- ---- -- --- ------- --<br>------- ---------- ------ -- ----- -- ----- -- ---- ------<br>--- ----- --- --- ------ -------- ----- --- ------ ----- --<br>----- ----- ---------- --- --- ------ ------ ---- -- ------<br>------- --- ------ ----- --- ---- ------- -- ---- --- --<br>------- ------,84381.20000004768,84380.29999995232,83480.397,83481.79999995232,83497.068,84397.506,,0,At
screen,html.Screen,0_2_1_1_1,2021-11-19T13:20:39.539Z,,,,,,,,,,,,,,,,54,,,,,,,,,,,,,,390.29399995232234,,response,,,100,,,,,,Space,keypress(Space),,,,,-- the ---- --- ------ ----- ------- ---- -- --- ------- --<br>------- ---------- ------ -- ----- -- ----- -- ---- ------<br>--- ----- --- --- ------ -------- ----- --- ------ ----- --<br>----- ----- ---------- --- --- ------ ------ ---- -- ------<br>------- --- ------ ----- --- ---- ------- -- ---- --- --<br>------- ------,84788.60000014305,84787.79999995232,84380.834,84381.40000009537,84397.506,84797.491,,1,the
screen,html.Screen,0_2_1_1_2,2021-11-19T13:20:39.995Z,,,,,,,,,,,,,,,,54,,,,,,,,,,,,,,446.30899995232176,,response,,,100,,,,,,Space,keypress(Space),,,,,-- --- time --- ------ ----- ------- ---- -- --- ------- --<br>------- ---------- ------ -- ----- -- ----- -- ---- ------<br>--- ----- --- --- ------ -------- ----- --- ------ ----- --<br>----- ----- ---------- --- --- ------ ------ ---- -- ------<br>------- --- ------ ----- --- ---- ------- -- ---- --- --<br>------- ------,85244.70000004768,85243.79999995232,84780.82,84788.90000009537,84797.491,85247.569,,2,time
screen,html.Screen,0_2_1_1_3,2021-11-19T13:20:40.427Z,,,,,,,,,,,,,,,,54,,,,,,,,,,,,,,428.23099995231314,,response,,,100,,,,,,Space,keypress(Space),,,,,-- --- ---- the ------ ----- ------- ---- -- --- ------- --<br>------- ---------- ------ -- ----- -- ----- -- ---- ------<br>--- ----- --- --- ------ -------- ----- --- ------ ----- --<br>----- ----- ---------- --- --- ------ ------ ---- -- ------<br>------- --- ------ ----- --- ---- ------- -- ---- --- --<br>------- ------,85676.70000004768,85675.79999995232,85230.899,85244.90000009537,85247.569,85681.051,,3,the
screen,html.Screen,0_2_1_1_4,2021-11-19T13:20:40.868Z,,,,,,,,,,,,,,,,54,,,,,,,,,,,,,,434.64900004767696,,response,,,100,,,,,,Space,keypress(Space),,,,,-- --- ---- --- French ----- ------- ---- -- --- ------- --<br>------- ---------- ------ -- ----- -- ----- -- ---- ------<br>--- ----- --- --- ------ -------- ----- --- ------ ----- --<br>----- ----- ---------- --- --- ------ ------ ---- -- ------<br>------- --- ------ ----- --- ---- ------- -- ---- --- --<br>------- ------,86117.90000009537,86115.70000004768,85664.38,85676.90000009537,85681.051,86131.174,,4,French
screen,html.Screen,0_2_1_1_5,2021-11-19T13:20:41.603Z,,,,,,,,,,,,,,,,54,,,,,,,,,,,,,,720.6259999523172,,response,,,100,,,,,,Space,keypress(Space),,,,,-- --- ---- --- ------ crown ------- ---- -- --- ------- --<br>------- ---------- ------ -- ----- -- ----- -- ---- ------<br>--- ----- --- --- ------ -------- ----- --- ------ ----- --<br>----- ----- ---------- --- --- ------ ------ ---- -- ------<br>------- --- ------ ----- --- ---- ------- -- ---- --- --<br>------- ------,86852.60000014305,86851.79999995232,86114.503,86118,86131.174,86864.717,,5,crown
screen,html.Screen,0_2_1_1_6,2021-11-19T13:20:42.107Z,,,,,,,,,,,,,,,,54,,,,,,,,,,,,,,490.9830000476795,,response,,,100,,,,,,Space,keypress(Space),,,,,-- --- ---- --- ------ ----- secured ---- -- --- ------- --<br>------- ---------- ------ -- ----- -- ----- -- ---- ------<br>--- ----- --- --- ------ -------- ----- --- ------ ----- --<br>----- ----- ---------- --- --- ------ ------ ---- -- ------<br>------- --- ------ ----- --- ---- ------- -- ---- --- --<br>------- ------,87356.60000014305,87355.70000004768,86848.046,86852.79999995232,86864.717,87364.778,,6,secured
screen,html.Screen,0_2_1_1_7,2021-11-19T13:20:42.683Z,,,,,,,,,,,,,,,,54,,,,,,,,,,,,,,566.922000047678,,response,,,100,,,,,,Space,keypress(Space),,,,,-- --- ---- --- ------ ----- ------- much -- --- ------- --<br>------- ---------- ------ -- ----- -- ----- -- ---- ------<br>--- ----- --- --- ------ -------- ----- --- ------ ----- --<br>----- ----- ---------- --- --- ------ ------ ---- -- ------<br>------- --- ------ ----- --- ---- ------- -- ---- --- --<br>------- ------,87932.60000014305,87931.70000004768,87348.108,87356.79999995232,87364.778,87948.343,,7,much
screen,html.Screen,0_2_1_1_8,2021-11-19T13:20:43.123Z,,,,,,,,,,,,,,,,54,,,,,,,,,,,,,,423.35700004769024,,response,,,100,,,,,,Space,keypress(Space),,,,,-- --- ---- --- ------ ----- ------- ---- of --- ------- --<br>------- ---------- ------ -- ----- -- ----- -- ---- ------<br>--- ----- --- --- ------ -------- ----- --- ------ ----- --<br>----- ----- ---------- --- --- ------ ------ ---- -- ------<br>------- --- ------ ----- --- ---- ------- -- ---- --- --<br>------- ------,88372.5,88371.70000004768,87931.672,87932.79999995232,87948.343,88381.789,,8,of
screen,html.Screen,0_2_1_1_9,2021-11-19T13:20:43.731Z,,,,,,,,,,,,,,,,54,,,,,,,,,,,,,,597.9110000476794,,response,,,100,,,,,,Space,keypress(Space),,,,,-- --- ---- --- ------ ----- ------- ---- -- its ------- --<br>------- ---------- ------ -- ----- -- ----- -- ---- ------<br>--- ----- --- --- ------ -------- ----- --- ------ ----- --<br>----- ----- ---------- --- --- ------ ------ ---- -- ------<br>------- --- ------ ----- --- ---- ------- -- ---- --- --<br>------- ------,88980.40000009537,88979.70000004768,88365.118,88372.79999995232,88381.789,88981.901,,9,its
screen,html.Screen,0_2_1_1_10,2021-11-19T13:20:44.227Z,,,,,,,,,,,,,,,,54,,,,,,,,,,,,,,493.7990000476857,,response,,,100,,,,,,Space,keypress(Space),,,,,-- --- ---- --- ------ ----- ------- ---- -- --- revenue --<br>------- ---------- ------ -- ----- -- ----- -- ---- ------<br>--- ----- --- --- ------ -------- ----- --- ------ ----- --<br>----- ----- ---------- --- --- ------ ------ ---- -- ------<br>------- --- ------ ----- --- ---- ------- -- ---- --- --<br>------- ------,89476.5,89475.70000004768,88965.231,88980.60000014305,88981.901,89482.096,,10,revenue
screen,html.Screen,0_2_1_1_11,2021-11-19T13:20:44.683Z,,,,,,,,,,,,,,,,54,,,,,,,,,,,,,,449.50400014304614,,response,,,100,,,,,,Space,keypress(Space),,,,,-- --- ---- --- ------ ----- ------- ---- -- --- ------- by<br>------- ---------- ------ -- ----- -- ----- -- ---- ------<br>--- ----- --- --- ------ -------- ----- --- ------ ----- --<br>----- ----- ---------- --- --- ------ ------ ---- -- ------<br>------- --- ------ ----- --- ---- ------- -- ---- --- --<br>------- ------,89932.40000009537,89931.60000014305,89465.425,89476.70000004768,89482.096,89948.833,,11,by
screen,html.Screen,0_2_1_1_12,2021-11-19T13:20:45.171Z,,,,,,,,,,,,,,,,54,,,,,,,,,,,,,,470.7670001430524,,response,,,100,,,,,,Space,keypress(Space),,,,,-- --- ---- --- ------ ----- ------- ---- -- --- ------- --<br>issuing ---------- ------ -- ----- -- ----- -- ---- ------<br>--- ----- --- --- ------ -------- ----- --- ------ ----- --<br>----- ----- ---------- --- --- ------ ------ ---- -- ------<br>------- --- ------ ----- --- ---- ------- -- ---- --- --<br>------- ------,90420.40000009537,90419.60000014305,89932.163,89932.70000004768,89948.833,90432.346,,12,issuing
screen,html.Screen,0_2_1_1_13,2021-11-19T13:20:45.755Z,,,,,,,,,,,,,,,,54,,,,,,,,,,,,,,571.2540001430461,,response,,,100,,,,,,Space,keypress(Space),,,,,-- --- ---- --- ------ ----- ------- ---- -- --- ------- --<br>------- government ------ -- ----- -- ----- -- ---- ------<br>--- ----- --- --- ------ -------- ----- --- ------ ----- --<br>----- ----- ---------- --- --- ------ ------ ---- -- ------<br>------- --- ------ ----- --- ---- ------- -- ---- --- --<br>------- ------,91004.40000009537,91003.60000014305,90415.675,90420.60000014305,90432.346,91015.775,,13,government
screen,html.Screen,0_2_1_1_14,2021-11-19T13:20:46.259Z,,,,,,,,,,,,,,,,54,,,,,,,,,,,,,,491.7250000000058,,response,,,100,,,,,,Space,keypress(Space),,,,,-- --- ---- --- ------ ----- ------- ---- -- --- ------- --<br>------- ---------- bonds. -- ----- -- ----- -- ---- ------<br>--- ----- --- --- ------ -------- ----- --- ------ ----- --<br>----- ----- ---------- --- --- ------ ------ ---- -- ------<br>------- --- ------ ----- --- ---- ------- -- ---- --- --<br>------- ------,91508.29999995232,91507.5,90999.105,91004.5,91015.775,91515.951,,14,bonds.
screen,html.Screen,0_2_1_1_15,2021-11-19T13:20:47.331Z,,,,,,,,,,,,,,,,54,,,,,,,,,,,,,,1063.548999999999,,response,,,100,,,,,,Space,keypress(Space),,,,,-- --- ---- --- ------ ----- ------- ---- -- --- ------- --<br>------- ---------- ------ In ----- -- ----- -- ---- ------<br>--- ----- --- --- ------ -------- ----- --- ------ ----- --<br>----- ----- ---------- --- --- ------ ------ ---- -- ------<br>------- --- ------ ----- --- ---- ------- -- ---- --- --<br>------- ------,92580.29999995232,92579.5,91499.28,91508.5,91515.951,92582.917,,15,In
screen,html.Screen,0_2_1_1_16,2021-11-19T13:20:47.691Z,,,,,,,,,,,,,,,,54,,,,,,,,,,,,,,356.48300009536615,,response,,,100,,,,,,Space,keypress(Space),,,,,"-- --- ---- --- ------ ----- ------- ---- -- --- ------- --<br>------- ---------- ------ -- 1727, -- ----- -- ---- ------<br>--- ----- --- --- ------ -------- ----- --- ------ ----- --<br>----- ----- ---------- --- --- ------ ------ ---- -- ------<br>------- --- ------ ----- --- ---- ------- -- ---- --- --<br>------- ------",92940.10000014305,92939.40000009537,92566.246,92580.5,92582.917,92949.676,,16,"1727,"
screen,html.Screen,0_2_1_1_17,2021-11-19T13:20:48.411Z,,,,,,,,,,,,,,,,54,,,,,,,,,,,,,,709.7240000953607,,response,,,100,,,,,,Space,keypress(Space),,,,,-- --- ---- --- ------ ----- ------- ---- -- --- ------- --<br>------- ---------- ------ -- ----- in ----- -- ---- ------<br>--- ----- --- --- ------ -------- ----- --- ------ ----- --<br>----- ----- ---------- --- --- ------ ------ ---- -- ------<br>------- --- ------ ----- --- ---- ------- -- ---- --- --<br>------- ------,93660.10000014305,93659.40000009537,92933.005,92940.29999995232,92949.676,93666.535,,17,in
screen,html.Screen,0_2_1_1_18,2021-11-19T13:20:48.794Z,,,,,,,,,,,,,,,,54,,,,,,,,,,,,,,376.6650000476802,,response,,,100,,,,,,Space,keypress(Space),,,,,-- --- ---- --- ------ ----- ------- ---- -- --- ------- --<br>------- ---------- ------ -- ----- -- order -- ---- ------<br>--- ----- --- --- ------ -------- ----- --- ------ ----- --<br>----- ----- ---------- --- --- ------ ------ ---- -- ------<br>------- --- ------ ----- --- ---- ------- -- ---- --- --<br>------- ------,94043.5,94043.20000004768,93649.864,93660.29999995232,93666.535,94049.738,,18,order
screen,html.Screen,0_2_1_1_19,2021-11-19T13:20:49.227Z,,,,,,,,,,,,,,,,54,,,,,,,,,,,,,,426.1620000953699,,response,,,100,,,,,,Space,keypress(Space),,,,,-- --- ---- --- ------ ----- ------- ---- -- --- ------- --<br>------- ---------- ------ -- ----- -- ----- to ---- ------<br>--- ----- --- --- ------ -------- ----- --- ------ ----- --<br>----- ----- ---------- --- --- ------ ------ ---- -- ------<br>------- --- ------ ----- --- ---- ------- -- ---- --- --<br>------- ------,94476.60000014305,94475.90000009537,94033.07,94043.60000014305,94049.738,94483.384,,19,to
screen,html.Screen,0_2_1_1_20,2021-11-19T13:20:49.651Z,,,,,,,,,,,,,,,,54,,,,,,,,,,,,,,416.01600009536196,,response,,,100,,,,,,Space,keypress(Space),,,,,-- --- ---- --- ------ ----- ------- ---- -- --- ------- --<br>------- ---------- ------ -- ----- -- ----- -- save ------<br>--- ----- --- --- ------ -------- ----- --- ------ ----- --<br>----- ----- ---------- --- --- ------ ------ ---- -- ------<br>------- --- ------ ----- --- ---- ------- -- ---- --- --<br>------- ------,94900.20000004768,94899.40000009537,94466.713,94476.79999995232,94483.384,94916.936,,20,save
screen,html.Screen,0_2_1_1_21,2021-11-19T13:20:50.106Z,,,,,,,,,,,,,,,,54,,,,,,,,,,,,,,438.2640000476822,,response,,,100,,,,,,Space,keypress(Space),,,,,"-- --- ---- --- ------ ----- ------- ---- -- --- ------- --<br>------- ---------- ------ -- ----- -- ----- -- ---- money,<br>--- ----- --- --- ------ -------- ----- --- ------ ----- --<br>----- ----- ---------- --- --- ------ ------ ---- -- ------<br>------- --- ------ ----- --- ---- ------- -- ---- --- --<br>------- ------",95355.60000014305,95355.20000004768,94900.264,94900.40000009537,94916.936,95366.943,,21,"money,"
screen,html.Screen,0_2_1_1_22,2021-11-19T13:20:50.523Z,,,,,,,,,,,,,,,,54,,,,,,,,,,,,,,404.356999952317,,response,,,100,,,,,,Space,keypress(Space),,,,,-- --- ---- --- ------ ----- ------- ---- -- --- ------- --<br>------- ---------- ------ -- ----- -- ----- -- ---- ------<br>the ----- --- --- ------ -------- ----- --- ------ ----- --<br>----- ----- ---------- --- --- ------ ------ ---- -- ------<br>------- --- ------ ----- --- ---- ------- -- ---- --- --<br>------- ------,95772.10000014305,95771.29999995232,95350.273,95355.70000004768,95366.943,95783.634,,22,the
screen,html.Screen,0_2_1_1_23,2021-11-19T13:20:51.211Z,,,,,,,,,,,,,,,,54,,,,,,,,,,,,,,675.6659999523108,,response,,,100,,,,,,Space,keypress(Space),,,,,-- --- ---- --- ------ ----- ------- ---- -- --- ------- --<br>------- ---------- ------ -- ----- -- ----- -- ---- ------<br>--- state --- --- ------ -------- ----- --- ------ ----- --<br>----- ----- ---------- --- --- ------ ------ ---- -- ------<br>------- --- ------ ----- --- ---- ------- -- ---- --- --<br>------- ------,96460.20000004768,96459.29999995232,95766.965,95772.40000009537,95783.634,96467.341,,23,state
screen,html.Screen,0_2_1_1_24,2021-11-19T13:20:51.682Z,,,,,,,,,,,,,,,,54,,,,,,,,,,,,,,463.85900004768337,,response,,,100,,,,,,Space,keypress(Space),,,,,-- --- ---- --- ------ ----- ------- ---- -- --- ------- --<br>------- ---------- ------ -- ----- -- ----- -- ---- ------<br>--- ----- cut --- ------ -------- ----- --- ------ ----- --<br>----- ----- ---------- --- --- ------ ------ ---- -- ------<br>------- --- ------ ----- --- ---- ------- -- ---- --- --<br>------- ------,96931.60000014305,96931.20000004768,96450.669,96460.5,96467.341,96933.839,,24,cut
screen,html.Screen,0_2_1_1_25,2021-11-19T13:20:52.162Z,,,,,,,,,,,,,,,,54,,,,,,,,,,,,,,477.3610000476765,,response,,,100,,,,,,Space,keypress(Space),,,,,-- --- ---- --- ------ ----- ------- ---- -- --- ------- --<br>------- ---------- ------ -- ----- -- ----- -- ---- ------<br>--- ----- --- the ------ -------- ----- --- ------ ----- --<br>----- ----- ---------- --- --- ------ ------ ---- -- ------<br>------- --- ------ ----- --- ---- ------- -- ---- --- --<br>------- ------,97412,97411.20000004768,96917.171,96931.79999995232,96933.839,97417.483,,25,the
screen,html.Screen,0_2_1_1_26,2021-11-19T13:20:52.562Z,,,,,,,,,,,,,,,,54,,,,,,,,,,,,,,393.61700014305825,,response,,,100,,,,,,Space,keypress(Space),,,,,-- --- ---- --- ------ ----- ------- ---- -- --- ------- --<br>------- ---------- ------ -- ----- -- ----- -- ---- ------<br>--- ----- --- --- bonds' -------- ----- --- ------ ----- --<br>----- ----- ---------- --- --- ------ ------ ---- -- ------<br>------- --- ------ ----- --- ---- ------- -- ---- --- --<br>------- ------,97811.90000009537,97811.10000014305,97400.812,97412.20000004768,97417.483,97817.605,,26,bonds'
screen,html.Screen,0_2_1_1_27,2021-11-19T13:20:53.067Z,,,,,,,,,,,,,,,,54,,,,,,,,,,,,,,497.69499995232036,,response,,,100,,,,,,Space,keypress(Space),,,,,-- --- ---- --- ------ ----- ------- ---- -- --- ------- --<br>------- ---------- ------ -- ----- -- ----- -- ---- ------<br>--- ----- --- --- ------ interest ----- --- ------ ----- --<br>----- ----- ---------- --- --- ------ ------ ---- -- ------<br>------- --- ------ ----- --- ---- ------- -- ---- --- --<br>------- ------,98316,98315.29999995232,97800.934,97812.10000014305,97817.605,98317.747,,27,interest
screen,html.Screen,0_2_1_1_28,2021-11-19T13:20:53.562Z,,,,,,,,,,,,,,,,54,,,,,,,,,,,,,,493.1530000953644,,response,,,100,,,,,,Space,keypress(Space),,,,,-- --- ---- --- ------ ----- ------- ---- -- --- ------- --<br>------- ---------- ------ -- ----- -- ----- -- ---- ------<br>--- ----- --- --- ------ -------- rate. --- ------ ----- --<br>----- ----- ---------- --- --- ------ ------ ---- -- ------<br>------- --- ------ ----- --- ---- ------- -- ---- --- --<br>------- ------,98811.29999995232,98810.90000009537,98301.076,98316.29999995232,98317.747,98817.982,,28,rate.
screen,html.Screen,0_2_1_1_29,2021-11-19T13:20:54.058Z,,,,,,,,,,,,,,,,54,,,,,,,,,,,,,,489.3179999523127,,response,,,100,,,,,,Space,keypress(Space),,,,,-- --- ---- --- ------ ----- ------- ---- -- --- ------- --<br>------- ---------- ------ -- ----- -- ----- -- ---- ------<br>--- ----- --- --- ------ -------- ----- The ------ ----- --<br>----- ----- ---------- --- --- ------ ------ ---- -- ------<br>------- --- ------ ----- --- ---- ------- -- ---- --- --<br>------- ------,99307.90000009537,99307.29999995232,98801.31,98811.5,98817.982,99317.9,,29,The
screen,html.Screen,0_2_1_1_30,2021-11-19T13:20:54.450Z,,,,,,,,,,,,,,,,54,,,,,,,,,,,,,,381.20000014305697,,response,,,100,,,,,,Space,keypress(Space),,,,,-- --- ---- --- ------ ----- ------- ---- -- --- ------- --<br>------- ---------- ------ -- ----- -- ----- -- ---- ------<br>--- ----- --- --- ------ -------- ----- --- market ----- --<br>----- ----- ---------- --- --- ------ ------ ---- -- ------<br>------- --- ------ ----- --- ---- ------- -- ---- --- --<br>------- ------,99699.79999995232,99699.10000014305,99301.231,99308.20000004768,99317.9,99701.438,,30,market
screen,html.Screen,0_2_1_1_31,2021-11-19T13:20:55.266Z,,,,,,,,,,,,,,,,54,,,,,,,,,,,,,,813.6620001430565,,response,,,100,,,,,,Space,keypress(Space),,,,,-- --- ---- --- ------ ----- ------- ---- -- --- ------- --<br>------- ---------- ------ -- ----- -- ----- -- ---- ------<br>--- ----- --- --- ------ -------- ----- --- ------ value --<br>----- ----- ---------- --- --- ------ ------ ---- -- ------<br>------- --- ------ ----- --- ---- ------- -- ---- --- --<br>------- ------,100515.79999995232,100515.10000014305,99684.767,99700.10000014305,99701.438,100518.428,,31,value
screen,html.Screen,0_2_1_1_32,2021-11-19T13:20:56.066Z,,,,,,,,,,,,,,,,54,,,,,,,,,,,,,,796.6720001430513,,response,,,100,,,,,,Space,keypress(Space),,,,,-- --- ---- --- ------ ----- ------- ---- -- --- ------- --<br>------- ---------- ------ -- ----- -- ----- -- ---- ------<br>--- ----- --- --- ------ -------- ----- --- ------ ----- of<br>----- ----- ---------- --- --- ------ ------ ---- -- ------<br>------- --- ------ ----- --- ---- ------- -- ---- --- --<br>------- ------,101315.79999995232,101315.10000014305,100501.756,100516.10000014305,100518.428,101318.385,,32,of
screen,html.Screen,0_2_1_1_33,2021-11-19T13:20:56.634Z,,,,,,,,,,,,,,,,54,,,,,,,,,,,,,,564.6150000000052,,response,,,100,,,,,,Space,keypress(Space),,,,,-- --- ---- --- ------ ----- ------- ---- -- --- ------- --<br>------- ---------- ------ -- ----- -- ----- -- ---- ------<br>--- ----- --- --- ------ -------- ----- --- ------ ----- --<br>these ----- ---------- --- --- ------ ------ ---- -- ------<br>------- --- ------ ----- --- ---- ------- -- ---- --- --<br>------- ------,101883.79999995232,101883,101301.716,101316.10000014305,101318.385,101885.363,,33,these
screen,html.Screen,0_2_1_1_34,2021-11-19T13:20:57.346Z,,,,,,,,,,,,,,,,54,,,,,,,,,,,,,,709.6370000000024,,response,,,100,,,,,,Space,keypress(Space),,,,,-- --- ---- --- ------ ----- ------- ---- -- --- ------- --<br>------- ---------- ------ -- ----- -- ----- -- ---- ------<br>--- ----- --- --- ------ -------- ----- --- ------ ----- --<br>----- bonds ---------- --- --- ------ ------ ---- -- ------<br>------- --- ------ ----- --- ---- ------- -- ---- --- --<br>------- ------,102595.70000004768,102595,101868.692,101884,101885.363,102602.292,,34,bonds
screen,html.Screen,0_2_1_1_35,2021-11-19T13:20:57.946Z,,,,,,,,,,,,,,,,54,,,,,,,,,,,,,,592.7079999999987,,response,,,100,,,,,,Space,keypress(Space),,,,,"-- --- ---- --- ------ ----- ------- ---- -- --- ------- --<br>------- ---------- ------ -- ----- -- ----- -- ---- ------<br>--- ----- --- --- ------ -------- ----- --- ------ ----- --<br>----- ----- plummeted, --- --- ------ ------ ---- -- ------<br>------- --- ------ ----- --- ---- ------- -- ---- --- --<br>------- ------",103195.70000004768,103195,102585.621,102595.79999995232,102602.292,103202.449,,35,"plummeted,"
screen,html.Screen,0_2_1_1_36,2021-11-19T13:20:58.746Z,,,,,,,,,,,,,,,,54,,,,,,,,,,,,,,792.4510000953742,,response,,,100,,,,,,Space,keypress(Space),,,,,-- --- ---- --- ------ ----- ------- ---- -- --- ------- --<br>------- ---------- ------ -- ----- -- ----- -- ---- ------<br>--- ----- --- --- ------ -------- ----- --- ------ ----- --<br>----- ----- ---------- and --- ------ ------ ---- -- ------<br>------- --- ------ ----- --- ---- ------- -- ---- --- --<br>------- ------,103995.70000004768,103994.90000009537,103185.778,103195.90000009537,103202.449,104002.647,,36,and
screen,html.Screen,0_2_1_1_37,2021-11-19T13:20:59.170Z,,,,,,,,,,,,,,,,54,,,,,,,,,,,,,,416.3530000000028,,response,,,100,,,,,,Space,keypress(Space),,,,,-- --- ---- --- ------ ----- ------- ---- -- --- ------- --<br>------- ---------- ------ -- ----- -- ----- -- ---- ------<br>--- ----- --- --- ------ -------- ----- --- ------ ----- --<br>----- ----- ---------- --- the ------ ------ ---- -- ------<br>------- --- ------ ----- --- ---- ------- -- ---- --- --<br>------- ------,104419.70000004768,104419,103985.976,103995.90000009537,104002.647,104435.93,,37,the
screen,html.Screen,0_2_1_1_38,2021-11-19T13:20:59.667Z,,,,,,,,,,,,,,,,54,,,,,,,,,,,,,,479.36999995232327,,response,,,100,,,,,,Space,keypress(Space),,,,,-- --- ---- --- ------ ----- ------- ---- -- --- ------- --<br>------- ---------- ------ -- ----- -- ----- -- ---- ------<br>--- ----- --- --- ------ -------- ----- --- ------ ----- --<br>----- ----- ---------- --- --- market ------ ---- -- ------<br>------- --- ------ ----- --- ---- ------- -- ---- --- --<br>------- ------,104916.10000014305,104915.29999995232,104419.261,104420,104435.93,104919.624,,38,market
screen,html.Screen,0_2_1_1_39,2021-11-19T13:21:00.178Z,,,,,,,,,,,,,,,,54,,,,,,,,,,,,,,507.2760000953713,,response,,,100,,,,,,Space,keypress(Space),,,,,-- --- ---- --- ------ ----- ------- ---- -- --- ------- --<br>------- ---------- ------ -- ----- -- ----- -- ---- ------<br>--- ----- --- --- ------ -------- ----- --- ------ ----- --<br>----- ----- ---------- --- --- ------ became ---- -- ------<br>------- --- ------ ----- --- ---- ------- -- ---- --- --<br>------- ------,105427.60000014305,105426.90000009537,104902.952,104916.40000009537,104919.624,105436.325,,39,became
screen,html.Screen,0_2_1_1_40,2021-11-19T13:21:00.634Z,,,,,,,,,,,,,,,,54,,,,,,,,,,,,,,446.57500009537034,,response,,,100,,,,,,Space,keypress(Space),,,,,-- --- ---- --- ------ ----- ------- ---- -- --- ------- --<br>------- ---------- ------ -- ----- -- ----- -- ---- ------<br>--- ----- --- --- ------ -------- ----- --- ------ ----- --<br>----- ----- ---------- --- --- ------ ------ wary -- ------<br>------- --- ------ ----- --- ---- ------- -- ---- --- --<br>------- ------,105883.70000004768,105882.90000009537,105419.655,105427.90000009537,105436.325,105886.486,,40,wary
screen,html.Screen,0_2_1_1_41,2021-11-19T13:21:01.450Z,,,,,,,,,,,,,,,,54,,,,,,,,,,,,,,812.414000095363,,response,,,100,,,,,,Space,keypress(Space),,,,,-- --- ---- --- ------ ----- ------- ---- -- --- ------- --<br>------- ---------- ------ -- ----- -- ----- -- ---- ------<br>--- ----- --- --- ------ -------- ----- --- ------ ----- --<br>----- ----- ---------- --- --- ------ ------ ---- of ------<br>------- --- ------ ----- --- ---- ------- -- ---- --- --<br>------- ------,106699.70000004768,106698.90000009537,105869.815,105884,105886.486,106703.373,,41,of
screen,html.Screen,0_2_1_1_42,2021-11-19T13:21:02.098Z,,,,,,,,,,,,,,,,54,,,,,,,,,,,,,,643.5270000953606,,response,,,100,,,,,,Space,keypress(Space),,,,,-- --- ---- --- ------ ----- ------- ---- -- --- ------- --<br>------- ---------- ------ -- ----- -- ----- -- ---- ------<br>--- ----- --- --- ------ -------- ----- --- ------ ----- --<br>----- ----- ---------- --- --- ------ ------ ---- -- French<br>------- --- ------ ----- --- ---- ------- -- ---- --- --<br>------- ------,107347.60000014305,107346.90000009537,106686.702,106699.90000009537,106703.373,107353.487,,42,French
screen,html.Screen,0_2_1_1_43,2021-11-19T13:21:02.714Z,,,,,,,,,,,,,,,,54,,,,,,,,,,,,,,609.3129999523226,,response,,,100,,,,,,Space,keypress(Space),,,,,-- --- ---- --- ------ ----- ------- ---- -- --- ------- --<br>------- ---------- ------ -- ----- -- ----- -- ---- ------<br>--- ----- --- --- ------ -------- ----- --- ------ ----- --<br>----- ----- ---------- --- --- ------ ------ ---- -- ------<br>credit. --- ------ ----- --- ---- ------- -- ---- --- --<br>------- ------,107963.60000014305,107962.79999995232,107336.817,107347.79999995232,107353.487,107970.395,,43,credit.
screen,html.Screen,0_2_1_1_44,2021-11-19T13:21:03.514Z,,,,,,,,,,,,,,,,54,,,,,,,,,,,,,,792.4049999523122,,response,,,100,,,,,,Space,keypress(Space),,,,,-- --- ---- --- ------ ----- ------- ---- -- --- ------- --<br>------- ---------- ------ -- ----- -- ----- -- ---- ------<br>--- ----- --- --- ------ -------- ----- --- ------ ----- --<br>----- ----- ---------- --- --- ------ ------ ---- -- ------<br>------- The ------ ----- --- ---- ------- -- ---- --- --<br>------- ------,108763.60000014305,108762.79999995232,107953.724,107963.79999995232,107970.395,108770.532,,44,The
screen,html.Screen,0_2_1_1_45,2021-11-19T13:21:04.002Z,,,,,,,,,,,,,,,,54,,,,,,,,,,,,,,480.1680000476772,,response,,,100,,,,,,Space,keypress(Space),,,,,-- --- ---- --- ------ ----- ------- ---- -- --- ------- --<br>------- ---------- ------ -- ----- -- ----- -- ---- ------<br>--- ----- --- --- ------ -------- ----- --- ------ ----- --<br>----- ----- ---------- --- --- ------ ------ ---- -- ------<br>------- --- French ----- --- ---- ------- -- ---- --- --<br>------- ------,109251.5,109250.70000004768,108753.862,108763.79999995232,108770.532,109254.06,,45,French
screen,html.Screen,0_2_1_1_46,2021-11-19T13:21:04.530Z,,,,,,,,,,,,,,,,54,,,,,,,,,,,,,,524.640000047686,,response,,,100,,,,,,Space,keypress(Space),,,,,-- --- ---- --- ------ ----- ------- ---- -- --- ------- --<br>------- ---------- ------ -- ----- -- ----- -- ---- ------<br>--- ----- --- --- ------ -------- ----- --- ------ ----- --<br>----- ----- ---------- --- --- ------ ------ ---- -- ------<br>------- --- ------ state --- ---- ------- -- ---- --- --<br>------- ------,109779.60000014305,109778.70000004768,109237.389,109251.70000004768,109254.06,109787.492,,46,state
screen,html.Screen,0_2_1_1_47,2021-11-19T13:21:05.298Z,,,,,,,,,,,,,,,,54,,,,,,,,,,,,,,759.2080000476853,,response,,,100,,,,,,Space,keypress(Space),,,,,-- --- ---- --- ------ ----- ------- ---- -- --- ------- --<br>------- ---------- ------ -- ----- -- ----- -- ---- ------<br>--- ----- --- --- ------ -------- ----- --- ------ ----- --<br>----- ----- ---------- --- --- ------ ------ ---- -- ------<br>------- --- ------ ----- was ---- ------- -- ---- --- --<br>------- ------,110547.5,110546.70000004768,109770.822,109779.79999995232,109787.492,110554.302,,47,was
screen,html.Screen,0_2_1_1_48,2021-11-19T13:21:05.714Z,,,,,,,,,,,,,,,,54,,,,,,,,,,,,,,408.3980000476877,,response,,,100,,,,,,Space,keypress(Space),,,,,-- --- ---- --- ------ ----- ------- ---- -- --- ------- --<br>------- ---------- ------ -- ----- -- ----- -- ---- ------<br>--- ----- --- --- ------ -------- ----- --- ------ ----- --<br>----- ----- ---------- --- --- ------ ------ ---- -- ------<br>------- --- ------ ----- --- left ------- -- ---- --- --<br>------- ------,110963.5,110962.70000004768,110537.632,110547.79999995232,110554.302,110971.226,,48,left
screen,html.Screen,0_2_1_1_49,2021-11-19T13:21:06.306Z,,,,,,,,,,,,,,,,54,,,,,,,,,,,,,,583.4740000476886,,response,,,100,,,,,,Space,keypress(Space),,,,,-- --- ---- --- ------ ----- ------- ---- -- --- ------- --<br>------- ---------- ------ -- ----- -- ----- -- ---- ------<br>--- ----- --- --- ------ -------- ----- --- ------ ----- --<br>----- ----- ---------- --- --- ------ ------ ---- -- ------<br>------- --- ------ ----- --- ---- without -- ---- --- --<br>------- ------,111555.5,111554.70000004768,110954.555,110963.70000004768,110971.226,111571.349,,49,without
screen,html.Screen,0_2_1_1_50,2021-11-19T13:21:06.802Z,,,,,,,,,,,,,,,,54,,,,,,,,,,,,,,479.25100014304917,,response,,,100,,,,,,Space,keypress(Space),,,,,-- --- ---- --- ------ ----- ------- ---- -- --- ------- --<br>------- ---------- ------ -- ----- -- ----- -- ---- ------<br>--- ----- --- --- ------ -------- ----- --- ------ ----- --<br>----- ----- ---------- --- --- ------ ------ ---- -- ------<br>------- --- ------ ----- --- ---- ------- an ---- --- --<br>------- ------,112051.5,112050.60000014305,111554.678,111555.70000004768,111571.349,112054.75,,50,an
screen,html.Screen,0_2_1_1_51,2021-11-19T13:21:07.354Z,,,,,,,,,,,,,,,,54,,,,,,,,,,,,,,547.8500001430511,,response,,,100,,,,,,Space,keypress(Space),,,,,-- --- ---- --- ------ ----- ------- ---- -- --- ------- --<br>------- ---------- ------ -- ----- -- ----- -- ---- ------<br>--- ----- --- --- ------ -------- ----- --- ------ ----- --<br>----- ----- ---------- --- --- ------ ------ ---- -- ------<br>------- --- ------ ----- --- ---- ------- -- easy --- --<br>------- ------,112603.40000009537,112602.60000014305,112038.08,112051.70000004768,112054.75,112604.97,,51,easy
screen,html.Screen,0_2_1_1_52,2021-11-19T13:21:07.842Z,,,,,,,,,,,,,,,,54,,,,,,,,,,,,,,485.63000014305,,response,,,100,,,,,,Space,keypress(Space),,,,,-- --- ---- --- ------ ----- ------- ---- -- --- ------- --<br>------- ---------- ------ -- ----- -- ----- -- ---- ------<br>--- ----- --- --- ------ -------- ----- --- ------ ----- --<br>----- ----- ---------- --- --- ------ ------ ---- -- ------<br>------- --- ------ ----- --- ---- ------- -- ---- way --<br>------- ------,113091.40000009537,113090.60000014305,112588.299,112603.60000014305,112604.97,113105.1,,52,way
screen,html.Screen,0_2_1_1_53,2021-11-19T13:21:08.410Z,,,,,,,,,,,,,,,,54,,,,,,,,,,,,,,553.5000001430453,,response,,,100,,,,,,Space,keypress(Space),,,,,-- --- ---- --- ------ ----- ------- ---- -- --- ------- --<br>------- ---------- ------ -- ----- -- ----- -- ---- ------<br>--- ----- --- --- ------ -------- ----- --- ------ ----- --<br>----- ----- ---------- --- --- ------ ------ ---- -- ------<br>------- --- ------ ----- --- ---- ------- -- ---- --- of<br>------- ------,113659.29999995232,113658.60000014305,113088.429,113091.60000014305,113105.1,113671.847,,53,of
screen,html.Screen,0_2_1_1_54,2021-11-19T13:21:08.986Z,,,,,,,,,,,,,,,,54,,,,,,,,,,,,,,562.7530001430569,,response,,,100,,,,,,Space,keypress(Space),,,,,-- --- ---- --- ------ ----- ------- ---- -- --- ------- --<br>------- ---------- ------ -- ----- -- ----- -- ---- ------<br>--- ----- --- --- ------ -------- ----- --- ------ ----- --<br>----- ----- ---------- --- --- ------ ------ ---- -- ------<br>------- --- ------ ----- --- ---- ------- -- ---- --- --<br>raising ------,114235.40000009537,114234.60000014305,113655.177,113659.60000014305,113671.847,114238.753,,54,raising
screen,html.Screen,0_2_1_1_55,2021-11-19T13:21:09.578Z,,,,,,,,,,,,,,,,54,,,,,,,,,,,,,,587.747000000003,,response,,,100,,,,,,Space,keypress(Space),,,,,-- --- ---- --- ------ ----- ------- ---- -- --- ------- --<br>------- ---------- ------ -- ----- -- ----- -- ---- ------<br>--- ----- --- --- ------ -------- ----- --- ------ ----- --<br>----- ----- ---------- --- --- ------ ------ ---- -- ------<br>------- --- ------ ----- --- ---- ------- -- ---- --- --<br>------- money.,114827.40000009537,114826.5,114222.082,114235.5,114238.753,114838.895,,55,money.
Item 100,flow.Loop,0_2_1_1,2021-11-19T13:21:09.578Z,,,,,,,,,,,,,,,,,,,,,,,,,,,,,,31329.432,,completion,,,,A,,,,,,,,,,silence,,114827.79999995232,114826.5,83480.397,83481.70000004768,83497.068,114838.895,,,
Question 1,html.Screen,0_2_1_2,2021-11-19T13:21:11.522Z,,,,,,,,,,,,,,,,,,,,,,,,,,,true,TRUE,,1931.4049999523122,,response,,,100,A,,,,,TRUE,click #choice-1,,,,silence,,116771.40000009537,116770.29999995232,114822.224,114828,114838.895,116772.746,,,
Question 2,html.Screen,0_2_1_3,2021-11-19T13:21:13.890Z,,,,,,,,,,,,,,,,,,,,,,,,,,,true,FALSE,,2365.4540000476845,,response,,,100,A,,,,,FALSE,click #choice-2,,,,silence,,119139.29999995232,119138.20000004768,116756.075,116771.60000014305,116772.746,119154.866,,,
Item 100,flow.Sequence,0_2_1,2021-11-19T13:21:13.890Z,,,,,,,,,,,,,,,,,,,,,,,,,,,,,,45643.75500004768,,completion,,,,,,,,,,,,,,,,119139.70000004768,119138.20000004768,73477.774,73485.90000009537,73494.445,119154.866,,,
End of Practice,html.Page,0_2_2,2021-11-19T13:21:17.701Z,,,,,,,,,,,,,,,,,,,,,,,,,,,,,,3792.6340000000055,,form submission,,,,,,,,,,,,,,,,122948.10000014305,122947.5,119138.224,119139.79999995232,119154.866,122957.72,,,
Practice,flow.Sequence,0_2,2021-11-19T13:21:17.702Z,,,,,,,,,,,,,,,,,,,,,,,,,,,,,,102817.404,,completion,,,,,,,,,,,,,,,,122948.60000014305,122947.5,20113.425,20128.5,20130.096,122957.72,,,
Trap_instruction,html.Page,0_3_0,2021-11-19T13:21:20.557Z,,,,,,,,,,,,,,,,,,,,,,,,,,,,,,2845.4800000476826,,form submission,,,,,,,,,,,,,,,,125803.70000004768,125803.20000004768,122941.049,122948.90000009537,122957.72,125824.925,,,
trap_trial,html.Screen,0_3_1,2021-11-19T13:21:23.860Z,,,,,,,,,,,,,,,,,,,,,,,,,,,true,1,,3280.775000047681,,response,,,,,,,,,1,click #choice-1,,,,,,129106.79999995232,129105.70000004768,125791.585,125804,125824.925,129109.118,,,
end of trap trial,html.Page,0_3_2,2021-11-19T13:21:25.845Z,,,,,,,,,,,,,,,,,,,,,,,,,,,,,,1981.982000143049,,form submission,,,,,,,,,,,,,,,,131091.5,131091.10000014305,129092.448,129107.10000014305,129109.118,131093.184,,,
Trap 1,flow.Sequence,0_3,2021-11-19T13:21:25.845Z,,,,,,,,,,,,,,,,,,,,,,,,,,,,,,8133.38000014305,,completion,,,,,,,,,,,,,,,,131091.90000009537,131091.10000014305,122941.049,122948.79999995232,122957.72,131093.184,,,
Standby,html.Page,0_4_0,2021-11-19T13:21:33.834Z,,,,,,,,,,,,,,,,,,,,,,,,,,,,,,8002.133000000002,,timeout,,,,,,,,,,,,,,,,139080.60000014305,139078.646,131076.513,131092.10000014305,131093.184,139095.317,,,
Holding screen,html.Screen,0_4_1_0_0,2021-11-19T13:21:40.836Z,,,,,,,,,,,,,,,,,,,,,,,,,,,,,,7001.968999999983,,timeout,,,,,,,,,,,,,,,,146082.5,146080.615,139078.646,139081,139095.317,146097.286,,,
screen,html.Screen,0_4_1_0_1_0,2021-11-19T13:21:42.076Z,,,,,,,,,,,,,,,,15,,,,,,,,,,,,,,1224.414000047691,,response,,,7,A,,,,,Space,keypress(Space),,,,silence,Greg --------- ---------- - --- ------- -- --- ------------<br>----- -- -------- ------- ---- ------ - -------- ---- -----<br>--- ------- ---- -- --- -------- --- - ----- ------ ---- --<br>-------- --- -------- -------- --- -------- ---- -- ----- -<br>-------- ---- --- ---------- --------- -- ------- ------ -<br>--------- ----- -----,147322.79999995232,147321.70000004768,146080.615,146082.90000009537,146097.286,147330.807,,0,Greg
screen,html.Screen,0_4_1_0_1_1,2021-11-19T13:21:42.771Z,,,,,,,,,,,,,,,,15,,,,,,,,,,,,,,686.2930001430504,,response,,,7,A,,,,,Space,keypress(Space),,,,silence,"---- Anderson, ---------- - --- ------- -- --- ------------<br>----- -- -------- ------- ---- ------ - -------- ---- -----<br>--- ------- ---- -- --- -------- --- - ----- ------ ---- --<br>-------- --- -------- -------- --- -------- ---- -- ----- -<br>-------- ---- --- ---------- --------- -- ------- ------ -<br>--------- ----- -----",148017.90000009537,148017.10000014305,147314.137,147323.10000014305,147330.807,148031.151,,1,"Anderson,"
screen,html.Screen,0_4_1_0_1_2,2021-11-19T13:21:43.403Z,,,,,,,,,,,,,,,,15,,,,,,,,,,,,,,617.8489999999874,,response,,,7,A,,,,,Space,keypress(Space),,,,silence,---- --------- considered - --- ------- -- --- ------------<br>----- -- -------- ------- ---- ------ - -------- ---- -----<br>--- ------- ---- -- --- -------- --- - ----- ------ ---- --<br>-------- --- -------- -------- --- -------- ---- -- ----- -<br>-------- ---- --- ---------- --------- -- ------- ------ -<br>--------- ----- -----,148649.90000009537,148649,148014.48,148018.20000004768,148031.151,148664.649,,2,considered
screen,html.Screen,0_4_1_0_1_3,2021-11-19T13:21:44.083Z,,,,,,,,,,,,,,,,15,,,,,,,,,,,,,,664.3509999999951,,response,,,7,A,,,,,Space,keypress(Space),,,,silence,---- --------- ---------- a --- ------- -- --- ------------<br>----- -- -------- ------- ---- ------ - -------- ---- -----<br>--- ------- ---- -- --- -------- --- - ----- ------ ---- --<br>-------- --- -------- -------- --- -------- ---- -- ----- -<br>-------- ---- --- ---------- --------- -- ------- ------ -<br>--------- ----- -----,149329.90000009537,149329,148647.978,148650.20000004768,148664.649,149331.435,,3,a
screen,html.Screen,0_4_1_0_1_4,2021-11-19T13:21:44.707Z,,,,,,,,,,,,,,,,15,,,,,,,,,,,,,,621.5650000000023,,response,,,7,A,,,,,Space,keypress(Space),,,,silence,---- --------- ---------- - key ------- -- --- ------------<br>----- -- -------- ------- ---- ------ - -------- ---- -----<br>--- ------- ---- -- --- -------- --- - ----- ------ ---- --<br>-------- --- -------- -------- --- -------- ---- -- ----- -<br>-------- ---- --- ---------- --------- -- ------- ------ -<br>--------- ----- -----,149953.79999995232,149953,149314.765,149330.20000004768,149331.435,149964.991,,4,key
screen,html.Screen,0_4_1_0_1_5,2021-11-19T13:21:45.299Z,,,,,,,,,,,,,,,,15,,,,,,,,,,,,,,579.9090000953584,,response,,,7,A,,,,,Space,keypress(Space),,,,silence,---- --------- ---------- - --- witness -- --- ------------<br>----- -- -------- ------- ---- ------ - -------- ---- -----<br>--- ------- ---- -- --- -------- --- - ----- ------ ---- --<br>-------- --- -------- -------- --- -------- ---- -- ----- -<br>-------- ---- --- ---------- --------- -- ------- ------ -<br>--------- ----- -----,150545.79999995232,150544.90000009537,149948.32,149954.10000014305,149964.991,150548.429,,5,witness
screen,html.Screen,0_4_1_0_1_6,2021-11-19T13:21:45.915Z,,,,,,,,,,,,,,,,15,,,,,,,,,,,,,,612.4710000953637,,response,,,7,A,,,,,Space,keypress(Space),,,,silence,---- --------- ---------- - --- ------- by --- ------------<br>----- -- -------- ------- ---- ------ - -------- ---- -----<br>--- ------- ---- -- --- -------- --- - ----- ------ ---- --<br>-------- --- -------- -------- --- -------- ---- -- ----- -<br>-------- ---- --- ---------- --------- -- ------- ------ -<br>--------- ----- -----,151161.70000004768,151160.90000009537,150531.759,150546,150548.429,151165.325,,6,by
screen,html.Screen,0_4_1_0_1_7,2021-11-19T13:21:46.611Z,,,,,,,,,,,,,,,,15,,,,,,,,,,,,,,691.6749999999884,,response,,,7,A,,,,,Space,keypress(Space),,,,silence,---- --------- ---------- - --- ------- -- the ------------<br>----- -- -------- ------- ---- ------ - -------- ---- -----<br>--- ------- ---- -- --- -------- --- - ----- ------ ---- --<br>-------- --- -------- -------- --- -------- ---- -- ----- -<br>-------- ---- --- ---------- --------- -- ------- ------ -<br>--------- ----- -----,151857.70000004768,151857,151148.654,151162,151165.325,151865.444,,7,the
screen,html.Screen,0_4_1_0_1_8,2021-11-19T13:21:47.267Z,,,,,,,,,,,,,,,,15,,,,,,,,,,,,,,647.4560000953788,,response,,,7,A,,,,,Space,keypress(Space),,,,silence,"---- --------- ---------- - --- ------- -- --- prosecution,<br>----- -- -------- ------- ---- ------ - -------- ---- -----<br>--- ------- ---- -- --- -------- --- - ----- ------ ---- --<br>-------- --- -------- -------- --- -------- ---- -- ----- -<br>-------- ---- --- ---------- --------- -- ------- ------ -<br>--------- ----- -----",152513.70000004768,152512.90000009537,151848.774,151857.90000009537,151865.444,152515.712,,8,"prosecution,"
screen,html.Screen,0_4_1_0_1_9,2021-11-19T13:21:47.899Z,,,,,,,,,,,,,,,,15,,,,,,,,,,,,,,629.1880000953679,,response,,,7,A,,,,,Space,keypress(Space),,,,silence,---- --------- ---------- - --- ------- -- --- ------------<br>vowed -- -------- ------- ---- ------ - -------- ---- -----<br>--- ------- ---- -- --- -------- --- - ----- ------ ---- --<br>-------- --- -------- -------- --- -------- ---- -- ----- -<br>-------- ---- --- ---------- --------- -- ------- ------ -<br>--------- ----- -----,153145.70000004768,153144.90000009537,152499.041,152513.90000009537,152515.712,153149.13,,9,vowed
screen,html.Screen,0_4_1_0_1_10,2021-11-19T13:21:48.475Z,,,,,,,,,,,,,,,,15,,,,,,,,,,,,,,571.6699999523116,,response,,,7,A,,,,,Space,keypress(Space),,,,silence,---- --------- ---------- - --- ------- -- --- ------------<br>----- he -------- ------- ---- ------ - -------- ---- -----<br>--- ------- ---- -- --- -------- --- - ----- ------ ---- --<br>-------- --- -------- -------- --- -------- ---- -- ----- -<br>-------- ---- --- ---------- --------- -- ------- ------ -<br>--------- ----- -----,153721.60000014305,153720.79999995232,153132.46,153146,153149.13,153732.688,,10,he
screen,html.Screen,0_4_1_0_1_11,2021-11-19T13:21:49.115Z,,,,,,,,,,,,,,,,15,,,,,,,,,,,,,,628.1119999523216,,response,,,7,A,,,,,Space,keypress(Space),,,,silence,---- --------- ---------- - --- ------- -- --- ------------<br>----- -- wouldn't ------- ---- ------ - -------- ---- -----<br>--- ------- ---- -- --- -------- --- - ----- ------ ---- --<br>-------- --- -------- -------- --- -------- ---- -- ----- -<br>-------- ---- --- ---------- --------- -- ------- ------ -<br>--------- ----- -----,154361.60000014305,154360.79999995232,153716.017,153721.79999995232,153732.688,154366.177,,11,wouldn't
screen,html.Screen,0_4_1_0_1_12,2021-11-19T13:21:49.667Z,,,,,,,,,,,,,,,,15,,,,,,,,,,,,,,546.6229999523202,,response,,,7,A,,,,,Space,keypress(Space),,,,silence,---- --------- ---------- - --- ------- -- --- ------------<br>----- -- -------- testify ---- ------ - -------- ---- -----<br>--- ------- ---- -- --- -------- --- - ----- ------ ---- --<br>-------- --- -------- -------- --- -------- ---- -- ----- -<br>-------- ---- --- ---------- --------- -- ------- ------ -<br>--------- ----- -----,154913.60000014305,154912.79999995232,154349.506,154361.90000009537,154366.177,154916.328,,12,testify
screen,html.Screen,0_4_1_0_1_13,2021-11-19T13:21:50.275Z,,,,,,,,,,,,,,,,15,,,,,,,,,,,,,,604.4719999523077,,response,,,7,A,,,,,Space,keypress(Space),,,,silence,---- --------- ---------- - --- ------- -- --- ------------<br>----- -- -------- ------- when ------ - -------- ---- -----<br>--- ------- ---- -- --- -------- --- - ----- ------ ---- --<br>-------- --- -------- -------- --- -------- ---- -- ----- -<br>-------- ---- --- ---------- --------- -- ------- ------ -<br>--------- ----- -----,155521.5,155520.79999995232,154899.657,154913.70000004768,154916.328,155533.165,,13,when
screen,html.Screen,0_4_1_0_1_14,2021-11-19T13:21:50.931Z,,,,,,,,,,,,,,,,15,,,,,,,,,,,,,,643.5350000476756,,response,,,7,A,,,,,Space,keypress(Space),,,,silence,---- --------- ---------- - --- ------- -- --- ------------<br>----- -- -------- ------- ---- served - -------- ---- -----<br>--- ------- ---- -- --- -------- --- - ----- ------ ---- --<br>-------- --- -------- -------- --- -------- ---- -- ----- -<br>-------- ---- --- ---------- --------- -- ------- ------ -<br>--------- ----- -----,156177.70000004768,156176.70000004768,155516.494,155521.79999995232,155533.165,156183.359,,14,served
screen,html.Screen,0_4_1_0_1_15,2021-11-19T13:21:51.427Z,,,,,,,,,,,,,,,,15,,,,,,,,,,,,,,489.341000047687,,response,,,7,A,,,,,Space,keypress(Space),,,,silence,---- --------- ---------- - --- ------- -- --- ------------<br>----- -- -------- ------- ---- ------ a -------- ---- -----<br>--- ------- ---- -- --- -------- --- - ----- ------ ---- --<br>-------- --- -------- -------- --- -------- ---- -- ----- -<br>-------- ---- --- ---------- --------- -- ------- ------ -<br>--------- ----- -----,156673.40000009537,156672.70000004768,156166.688,156177.90000009537,156183.359,156683.315,,15,a
screen,html.Screen,0_4_1_0_1_16,2021-11-19T13:21:52.163Z,,,,,,,,,,,,,,,,15,,,,,,,,,,,,,,725.7850001430488,,response,,,7,A,,,,,Space,keypress(Space),,,,silence,---- --------- ---------- - --- ------- -- --- ------------<br>----- -- -------- ------- ---- ------ - subpoena ---- -----<br>--- ------- ---- -- --- -------- --- - ----- ------ ---- --<br>-------- --- -------- -------- --- -------- ---- -- ----- -<br>-------- ---- --- ---------- --------- -- ------- ------ -<br>--------- ----- -----,157409.90000009537,157409.10000014305,156666.646,156673.79999995232,156683.315,157417.087,,16,subpoena
screen,html.Screen,0_4_1_0_1_17,2021-11-19T13:21:52.603Z,,,,,,,,,,,,,,,,15,,,,,,,,,,,,,,431.6130000476842,,response,,,7,A,,,,,Space,keypress(Space),,,,silence,---- --------- ---------- - --- ------- -- --- ------------<br>----- -- -------- ------- ---- ------ - -------- last -----<br>--- ------- ---- -- --- -------- --- - ----- ------ ---- --<br>-------- --- -------- -------- --- -------- ---- -- ----- -<br>-------- ---- --- ---------- --------- -- ------- ------ -<br>--------- ----- -----,157849.40000009537,157848.70000004768,157400.415,157410.20000004768,157417.087,157850.419,,17,last
screen,html.Screen,0_4_1_0_1_18,2021-11-19T13:21:53.523Z,,,,,,,,,,,,,,,,15,,,,,,,,,,,,,,918.1810001430567,,response,,,7,A,,,,,Space,keypress(Space),,,,silence,---- --------- ---------- - --- ------- -- --- ------------<br>----- -- -------- ------- ---- ------ - -------- ---- week.<br>--- ------- ---- -- --- -------- --- - ----- ------ ---- --<br>-------- --- -------- -------- --- -------- ---- -- ----- -<br>-------- ---- --- ---------- --------- -- ------- ------ -<br>--------- ----- -----,158769.29999995232,158768.60000014305,157833.749,157849.60000014305,157850.419,158784.038,,18,week.
screen,html.Screen,0_4_1_0_1_19,2021-11-19T13:21:53.923Z,,,,,,,,,,,,,,,,15,,,,,,,,,,,,,,384.5620001430507,,response,,,7,A,,,,,Space,keypress(Space),,,,silence,---- --------- ---------- - --- ------- -- --- ------------<br>----- -- -------- ------- ---- ------ - -------- ---- -----<br>His ------- ---- -- --- -------- --- - ----- ------ ---- --<br>-------- --- -------- -------- --- -------- ---- -- ----- -<br>-------- ---- --- ---------- --------- -- ------- ------ -<br>--------- ----- -----,159169.40000009537,159168.60000014305,158767.367,158769.60000014305,158784.038,159184.05,,19,His
screen,html.Screen,0_4_1_0_1_20,2021-11-19T13:21:54.370Z,,,,,,,,,,,,,,,,15,,,,,,,,,,,,,,432.5500001430628,,response,,,7,A,,,,,Space,keypress(Space),,,,silence,---- --------- ---------- - --- ------- -- --- ------------<br>----- -- -------- ------- ---- ------ - -------- ---- -----<br>--- lawyers ---- -- --- -------- --- - ----- ------ ---- --<br>-------- --- -------- -------- --- -------- ---- -- ----- -<br>-------- ---- --- ---------- --------- -- ------- ------ -<br>--------- ----- -----,159617.29999995232,159616.60000014305,159167.38,159169.60000014305,159184.05,159634.296,,20,lawyers
screen,html.Screen,0_4_1_0_1_21,2021-11-19T13:21:55.186Z,,,,,,,,,,,,,,,,15,,,,,,,,,,,,,,798.2039999999979,,response,,,7,A,,,,,Space,keypress(Space),,,,silence,---- --------- ---------- - --- ------- -- --- ------------<br>----- -- -------- ------- ---- ------ - -------- ---- -----<br>--- ------- said -- --- -------- --- - ----- ------ ---- --<br>-------- --- -------- -------- --- -------- ---- -- ----- -<br>-------- ---- --- ---------- --------- -- ------- ------ -<br>--------- ----- -----,160433.29999995232,160432.5,159617.625,159617.60000014305,159634.296,160450.9,,21,said
screen,html.Screen,0_4_1_0_1_22,2021-11-19T13:21:55.802Z,,,,,,,,,,,,,,,,15,,,,,,,,,,,,,,597.5000000953733,,response,,,7,A,,,,,Space,keypress(Space),,,,silence,---- --------- ---------- - --- ------- -- --- ------------<br>----- -- -------- ------- ---- ------ - -------- ---- -----<br>--- ------- ---- he --- -------- --- - ----- ------ ---- --<br>-------- --- -------- -------- --- -------- ---- -- ----- -<br>-------- ---- --- ---------- --------- -- ------- ------ -<br>--------- ----- -----,161049.20000004768,161048.40000009537,160434.232,160433.5,160450.9,161051.392,,22,he
screen,html.Screen,0_4_1_0_1_23,2021-11-19T13:21:56.266Z,,,,,,,,,,,,,,,,15,,,,,,,,,,,,,,461.0080000953749,,response,,,7,A,,,,,Space,keypress(Space),,,,silence,---- --------- ---------- - --- ------- -- --- ------------<br>----- -- -------- ------- ---- ------ - -------- ---- -----<br>--- ------- ---- -- was -------- --- - ----- ------ ---- --<br>-------- --- -------- -------- --- -------- ---- -- ----- -<br>-------- ---- --- ---------- --------- -- ------- ------ -<br>--------- ----- -----,161513.29999995232,161512.40000009537,161034.72,161049.40000009537,161051.392,161518.052,,23,was
screen,html.Screen,0_4_1_0_1_24,2021-11-19T13:21:56.906Z,,,,,,,,,,,,,,,,15,,,,,,,,,,,,,,634.2479999523202,,response,,,7,A,,,,,Space,keypress(Space),,,,silence,---- --------- ---------- - --- ------- -- --- ------------<br>----- -- -------- ------- ---- ------ - -------- ---- -----<br>--- ------- ---- -- --- prepared --- - ----- ------ ---- --<br>-------- --- -------- -------- --- -------- ---- -- ----- -<br>-------- ---- --- ---------- --------- -- ------- ------ -<br>--------- ----- -----,162153.10000014305,162152.29999995232,161501.382,161513.5,161518.052,162168.279,,24,prepared
screen,html.Screen,0_4_1_0_1_25,2021-11-19T13:21:57.402Z,,,,,,,,,,,,,,,,15,,,,,,,,,,,,,,480.1210000953579,,response,,,7,A,,,,,Space,keypress(Space),,,,silence,---- --------- ---------- - --- ------- -- --- ------------<br>----- -- -------- ------- ---- ------ - -------- ---- -----<br>--- ------- ---- -- --- -------- for - ----- ------ ---- --<br>-------- --- -------- -------- --- -------- ---- -- ----- -<br>-------- ---- --- ---------- --------- -- ------- ------ -<br>--------- ----- -----,162649.20000004768,162648.40000009537,162151.608,162153.40000009537,162168.279,162651.753,,25,for
screen,html.Screen,0_4_1_0_1_26,2021-11-19T13:21:57.778Z,,,,,,,,,,,,,,,,15,,,,,,,,,,,,,,372.747000000003,,response,,,7,A,,,,,Space,keypress(Space),,,,silence,---- --------- ---------- - --- ------- -- --- ------------<br>----- -- -------- ------- ---- ------ - -------- ---- -----<br>--- ------- ---- -- --- -------- --- a ----- ------ ---- --<br>-------- --- -------- -------- --- -------- ---- -- ----- -<br>-------- ---- --- ---------- --------- -- ------- ------ -<br>--------- ----- -----,163025.20000004768,163024.5,162635.082,162649.40000009537,162651.753,163035.122,,26,a
screen,html.Screen,0_4_1_0_1_27,2021-11-19T13:21:58.442Z,,,,,,,,,,,,,,,,15,,,,,,,,,,,,,,653.1779999523133,,response,,,7,A,,,,,Space,keypress(Space),,,,silence,---- --------- ---------- - --- ------- -- --- ------------<br>----- -- -------- ------- ---- ------ - -------- ---- -----<br>--- ------- ---- -- --- -------- --- - third ------ ---- --<br>-------- --- -------- -------- --- -------- ---- -- ----- -<br>-------- ---- --- ---------- --------- -- ------- ------ -<br>--------- ----- -----,163689.10000014305,163688.29999995232,163018.452,163025.40000009537,163035.122,163702.039,,27,third
screen,html.Screen,0_4_1_0_1_28,2021-11-19T13:21:58.850Z,,,,,,,,,,,,,,,,15,,,,,,,,,,,,,,394.3610000953777,,response,,,7,A,,,,,Space,keypress(Space),,,,silence,---- --------- ---------- - --- ------- -- --- ------------<br>----- -- -------- ------- ---- ------ - -------- ---- -----<br>--- ------- ---- -- --- -------- --- - ----- prison ---- --<br>-------- --- -------- -------- --- -------- ---- -- ----- -<br>-------- ---- --- ---------- --------- -- ------- ------ -<br>--------- ----- -----,164097.20000004768,164096.40000009537,163685.368,163689.40000009537,163702.039,164102.013,,28,prison
screen,html.Screen,0_4_1_0_1_29,2021-11-19T13:21:59.242Z,,,,,,,,,,,,,,,,15,,,,,,,,,,,,,,386.38700009536115,,response,,,7,A,,,,,Space,keypress(Space),,,,silence,---- --------- ---------- - --- ------- -- --- ------------<br>----- -- -------- ------- ---- ------ - -------- ---- -----<br>--- ------- ---- -- --- -------- --- - ----- ------ stay --<br>-------- --- -------- -------- --- -------- ---- -- ----- -<br>-------- ---- --- ---------- --------- -- ------- ------ -<br>--------- ----- -----,164489.10000014305,164488.40000009537,164085.344,164097.5,164102.013,164502.259,,29,stay
screen,html.Screen,0_4_1_0_1_30,2021-11-19T13:21:59.634Z,,,,,,,,,,,,,,,,15,,,,,,,,,,,,,,378.1410000953765,,response,,,7,A,,,,,Space,keypress(Space),,,,silence,---- --------- ---------- - --- ------- -- --- ------------<br>----- -- -------- ------- ---- ------ - -------- ---- -----<br>--- ------- ---- -- --- -------- --- - ----- ------ ---- to<br>-------- --- -------- -------- --- -------- ---- -- ----- -<br>-------- ---- --- ---------- --------- -- ------- ------ -<br>--------- ----- -----,164881.20000004768,164880.40000009537,164485.588,164489.29999995232,164502.259,164885.643,,30,to
screen,html.Screen,0_4_1_0_1_31,2021-11-19T13:22:00.042Z,,,,,,,,,,,,,,,,15,,,,,,,,,,,,,,402.65699995230534,,response,,,7,A,,,,,Space,keypress(Space),,,,silence,---- --------- ---------- - --- ------- -- --- ------------<br>----- -- -------- ------- ---- ------ - -------- ---- -----<br>--- ------- ---- -- --- -------- --- - ----- ------ ---- --<br>maintain --- -------- -------- --- -------- ---- -- ----- -<br>-------- ---- --- ---------- --------- -- ------- ------ -<br>--------- ----- -----,165289.20000004768,165288.29999995232,164868.973,164881.5,164885.643,165302.352,,31,maintain
screen,html.Screen,0_4_1_0_1_32,2021-11-19T13:22:00.482Z,,,,,,,,,,,,,,,,15,,,,,,,,,,,,,,425.9479999523028,,response,,,7,A,,,,,Space,keypress(Space),,,,silence,---- --------- ---------- - --- ------- -- --- ------------<br>----- -- -------- ------- ---- ------ - -------- ---- -----<br>--- ------- ---- -- --- -------- --- - ----- ------ ---- --<br>-------- his -------- -------- --- -------- ---- -- ----- -<br>-------- ---- --- ---------- --------- -- ------- ------ -<br>--------- ----- -----,165729.20000004768,165728.29999995232,165285.683,165289.40000009537,165302.352,165735.915,,32,his
screen,html.Screen,0_4_1_0_1_33,2021-11-19T13:22:01.043Z,,,,,,,,,,,,,,,,15,,,,,,,,,,,,,,552.8849999523081,,response,,,7,A,,,,,Space,keypress(Space),,,,silence,---- --------- ---------- - --- ------- -- --- ------------<br>----- -- -------- ------- ---- ------ - -------- ---- -----<br>--- ------- ---- -- --- -------- --- - ----- ------ ---- --<br>-------- --- silence. -------- --- -------- ---- -- ----- -<br>-------- ---- --- ---------- --------- -- ------- ------ -<br>--------- ----- -----,166289.5,166288.79999995232,165719.244,165729.29999995232,165735.915,166302.717,,33,silence.
screen,html.Screen,0_4_1_0_1_34,2021-11-19T13:22:01.714Z,,,,,,,,,,,,,,,,15,,,,,,,,,,,,,,657.4830000476795,,response,,,7,A,,,,,Space,keypress(Space),,,,silence,---- --------- ---------- - --- ------- -- --- ------------<br>----- -- -------- ------- ---- ------ - -------- ---- -----<br>--- ------- ---- -- --- -------- --- - ----- ------ ---- --<br>-------- --- -------- Anderson --- -------- ---- -- ----- -<br>-------- ---- --- ---------- --------- -- ------- ------ -<br>--------- ----- -----,166961.10000014305,166960.20000004768,166286.046,166289.79999995232,166302.717,166969.579,,34,Anderson
screen,html.Screen,0_4_1_0_1_35,2021-11-19T13:22:02.098Z,,,,,,,,,,,,,,,,15,,,,,,,,,,,,,,374.6210000476858,,response,,,7,A,,,,,Space,keypress(Space),,,,silence,---- --------- ---------- - --- ------- -- --- ------------<br>----- -- -------- ------- ---- ------ - -------- ---- -----<br>--- ------- ---- -- --- -------- --- - ----- ------ ---- --<br>-------- --- -------- -------- was -------- ---- -- ----- -<br>-------- ---- --- ---------- --------- -- ------- ------ -<br>--------- ----- -----,167344.90000009537,167344.20000004768,166952.908,166961.29999995232,166969.579,167353.009,,35,was
screen,html.Screen,0_4_1_0_1_36,2021-11-19T13:22:02.555Z,,,,,,,,,,,,,,,,15,,,,,,,,,,,,,,447.6910000476928,,response,,,7,A,,,,,Space,keypress(Space),,,,silence,---- --------- ---------- - --- ------- -- --- ------------<br>----- -- -------- ------- ---- ------ - -------- ---- -----<br>--- ------- ---- -- --- -------- --- - ----- ------ ---- --<br>-------- --- -------- -------- --- released ---- -- ----- -<br>-------- ---- --- ---------- --------- -- ------- ------ -<br>--------- ----- -----,167801.5,167800.70000004768,167336.338,167345.20000004768,167353.009,167803.089,,36,released
screen,html.Screen,0_4_1_0_1_37,2021-11-19T13:22:03.034Z,,,,,,,,,,,,,,,,15,,,,,,,,,,,,,,477.1110000476765,,response,,,7,A,,,,,Space,keypress(Space),,,,silence,---- --------- ---------- - --- ------- -- --- ------------<br>----- -- -------- ------- ---- ------ - -------- ---- -----<br>--- ------- ---- -- --- -------- --- - ----- ------ ---- --<br>-------- --- -------- -------- --- -------- July -- ----- -<br>-------- ---- --- ---------- --------- -- ------- ------ -<br>--------- ----- -----,168280.90000009537,168280.20000004768,167786.419,167801.79999995232,167803.089,168286.599,,37,July
screen,html.Screen,0_4_1_0_1_38,2021-11-19T13:22:03.434Z,,,,,,,,,,,,,,,,15,,,,,,,,,,,,,,393.5010001430637,,response,,,7,A,,,,,Space,keypress(Space),,,,silence,---- --------- ---------- - --- ------- -- --- ------------<br>----- -- -------- ------- ---- ------ - -------- ---- -----<br>--- ------- ---- -- --- -------- --- - ----- ------ ---- --<br>-------- --- -------- -------- --- -------- ---- 20 ----- -<br>-------- ---- --- ---------- --------- -- ------- ------ -<br>--------- ----- -----,168680.90000009537,168680.10000014305,168269.928,168281.20000004768,168286.599,168686.704,,38,20
screen,html.Screen,0_4_1_0_1_39,2021-11-19T13:22:03.890Z,,,,,,,,,,,,,,,,15,,,,,,,,,,,,,,449.4960000476858,,response,,,7,A,,,,,Space,keypress(Space),,,,silence,---- --------- ---------- - --- ------- -- --- ------------<br>----- -- -------- ------- ---- ------ - -------- ---- -----<br>--- ------- ---- -- --- -------- --- - ----- ------ ---- --<br>-------- --- -------- -------- --- -------- ---- -- after -<br>-------- ---- --- ---------- --------- -- ------- ------ -<br>--------- ----- -----,169137,169136.20000004768,168670.033,168681.20000004768,168686.704,169153.381,,39,after
screen,html.Screen,0_4_1_0_1_40,2021-11-19T13:22:04.770Z,,,,,,,,,,,,,,,,15,,,,,,,,,,,,,,862.8190000476898,,response,,,7,A,,,,,Space,keypress(Space),,,,silence,---- --------- ---------- - --- ------- -- --- ------------<br>----- -- -------- ------- ---- ------ - -------- ---- -----<br>--- ------- ---- -- --- -------- --- - ----- ------ ---- --<br>-------- --- -------- -------- --- -------- ---- -- ----- a<br>-------- ---- --- ---------- --------- -- ------- ------ -<br>--------- ----- -----,170016.90000009537,170016.20000004768,169136.712,169137.29999995232,169153.381,170020.39,,40,a
screen,html.Screen,0_4_1_0_1_41,2021-11-19T13:22:05.290Z,,,,,,,,,,,,,,,,15,,,,,,,,,,,,,,515.8100000476697,,response,,,7,A,,,,,Space,keypress(Space),,,,silence,---- --------- ---------- - --- ------- -- --- ------------<br>----- -- -------- ------- ---- ------ - -------- ---- -----<br>--- ------- ---- -- --- -------- --- - ----- ------ ---- --<br>-------- --- -------- -------- --- -------- ---- -- ----- -<br>two-week ---- --- ---------- --------- -- ------- ------ -<br>--------- ----- -----,170536.90000009537,170536.20000004768,170003.719,170017.20000004768,170020.39,170553.898,,41,two-week
screen,html.Screen,0_4_1_0_1_42,2021-11-19T13:22:05.730Z,,,,,,,,,,,,,,,,15,,,,,,,,,,,,,,422.20200014306465,,response,,,7,A,,,,,Space,keypress(Space),,,,silence,---- --------- ---------- - --- ------- -- --- ------------<br>----- -- -------- ------- ---- ------ - -------- ---- -----<br>--- ------- ---- -- --- -------- --- - ----- ------ ---- --<br>-------- --- -------- -------- --- -------- ---- -- ----- -<br>-------- stay --- ---------- --------- -- ------- ------ -<br>--------- ----- -----,170976.90000009537,170976.10000014305,170537.227,170537.20000004768,170553.898,170987.322,,42,stay
screen,html.Screen,0_4_1_0_1_43,2021-11-19T13:22:06.234Z,,,,,,,,,,,,,,,,15,,,,,,,,,,,,,,492.7780001430656,,response,,,7,A,,,,,Space,keypress(Space),,,,silence,---- --------- ---------- - --- ------- -- --- ------------<br>----- -- -------- ------- ---- ------ - -------- ---- -----<br>--- ------- ---- -- --- -------- --- - ----- ------ ---- --<br>-------- --- -------- -------- --- -------- ---- -- ----- -<br>-------- ---- for ---------- --------- -- ------- ------ -<br>--------- ----- -----,171481,171480.10000014305,170970.651,170977.10000014305,170987.322,171487.457,,43,for
screen,html.Screen,0_4_1_0_1_44,2021-11-19T13:22:06.714Z,,,,,,,,,,,,,,,,15,,,,,,,,,,,,,,472.5430000000051,,response,,,7,A,,,,,Space,keypress(Space),,,,silence,---- --------- ---------- - --- ------- -- --- ------------<br>----- -- -------- ------- ---- ------ - -------- ---- -----<br>--- ------- ---- -- --- -------- --- - ----- ------ ---- --<br>-------- --- -------- -------- --- -------- ---- -- ----- -<br>-------- ---- --- previously --------- -- ------- ------ -<br>--------- ----- -----,171960.79999995232,171960,171470.786,171481.20000004768,171487.457,171970.841,,44,previously
screen,html.Screen,0_4_1_0_1_45,2021-11-19T13:22:07.250Z,,,,,,,,,,,,,,,,15,,,,,,,,,,,,,,525.1590000000142,,response,,,7,A,,,,,Space,keypress(Space),,,,silence,---- --------- ---------- - --- ------- -- --- ------------<br>----- -- -------- ------- ---- ------ - -------- ---- -----<br>--- ------- ---- -- --- -------- --- - ----- ------ ---- --<br>-------- --- -------- -------- --- -------- ---- -- ----- -<br>-------- ---- --- ---------- declining -- ------- ------ -<br>--------- ----- -----,172496.79999995232,172496,171954.171,171961,171970.841,172504.421,,45,declining
screen,html.Screen,0_4_1_0_1_46,2021-11-19T13:22:07.650Z,,,,,,,,,,,,,,,,15,,,,,,,,,,,,,,391.5789999999979,,response,,,7,A,,,,,Space,keypress(Space),,,,silence,---- --------- ---------- - --- ------- -- --- ------------<br>----- -- -------- ------- ---- ------ - -------- ---- -----<br>--- ------- ---- -- --- -------- --- - ----- ------ ---- --<br>-------- --- -------- -------- --- -------- ---- -- ----- -<br>-------- ---- --- ---------- --------- to ------- ------ -<br>--------- ----- -----,172896.79999995232,172896,172487.75,172497,172504.421,172904.448,,46,to
screen,html.Screen,0_4_1_0_1_47,2021-11-19T13:22:08.082Z,,,,,,,,,,,,,,,,15,,,,,,,,,,,,,,423.55199999999604,,response,,,7,A,,,,,Space,keypress(Space),,,,silence,---- --------- ---------- - --- ------- -- --- ------------<br>----- -- -------- ------- ---- ------ - -------- ---- -----<br>--- ------- ---- -- --- -------- --- - ----- ------ ---- --<br>-------- --- -------- -------- --- -------- ---- -- ----- -<br>-------- ---- --- ---------- --------- -- testify ------ -<br>--------- ----- -----,173328.70000004768,173328,172887.778,172897,172904.448,173337.943,,47,testify
screen,html.Screen,0_4_1_0_1_48,2021-11-19T13:22:08.770Z,,,,,,,,,,,,,,,,15,,,,,,,,,,,,,,678.0570000000007,,response,,,7,A,,,,,Space,keypress(Space),,,,silence,---- --------- ---------- - --- ------- -- --- ------------<br>----- -- -------- ------- ---- ------ - -------- ---- -----<br>--- ------- ---- -- --- -------- --- - ----- ------ ---- --<br>-------- --- -------- -------- --- -------- ---- -- ----- -<br>-------- ---- --- ---------- --------- -- ------- before -<br>--------- ----- -----,174016.79999995232,174016,173321.272,173329,173337.943,174021.475,,48,before
screen,html.Screen,0_4_1_0_1_49,2021-11-19T13:22:09.314Z,,,,,,,,,,,,,,,,15,,,,,,,,,,,,,,538.4250000953616,,response,,,7,A,,,,,Space,keypress(Space),,,,silence,---- --------- ---------- - --- ------- -- --- ------------<br>----- -- -------- ------- ---- ------ - -------- ---- -----<br>--- ------- ---- -- --- -------- --- - ----- ------ ---- --<br>-------- --- -------- -------- --- -------- ---- -- ----- -<br>-------- ---- --- ---------- --------- -- ------- ------ a<br>--------- ----- -----,174560.70000004768,174559.90000009537,174004.804,174017,174021.475,174571.547,,49,a
screen,html.Screen,0_4_1_0_1_50,2021-11-19T13:22:09.810Z,,,,,,,,,,,,,,,,15,,,,,,,,,,,,,,484.2529999523249,,response,,,7,A,,,,,Space,keypress(Space),,,,silence,---- --------- ---------- - --- ------- -- --- ------------<br>----- -- -------- ------- ---- ------ - -------- ---- -----<br>--- ------- ---- -- --- -------- --- - ----- ------ ---- --<br>-------- --- -------- -------- --- -------- ---- -- ----- -<br>-------- ---- --- ---------- --------- -- ------- ------ -<br>different ----- -----,175056.60000014305,175055.79999995232,174554.877,174560.90000009537,174571.547,175071.761,,50,different
screen,html.Screen,0_4_1_0_1_51,2021-11-19T13:22:10.674Z,,,,,,,,,,,,,,,,15,,,,,,,,,,,,,,848.1390000953688,,response,,,7,A,,,,,Space,keypress(Space),,,,silence,---- --------- ---------- - --- ------- -- --- ------------<br>----- -- -------- ------- ---- ------ - -------- ---- -----<br>--- ------- ---- -- --- -------- --- - ----- ------ ---- --<br>-------- --- -------- -------- --- -------- ---- -- ----- -<br>-------- ---- --- ---------- --------- -- ------- ------ -<br>--------- grand -----,175920.60000014305,175919.90000009537,175055.09,175056.79999995232,175071.761,175921.895,,51,grand
screen,html.Screen,0_4_1_0_1_52,2021-11-19T13:22:11.018Z,,,,,,,,,,,,,,,,15,,,,,,,,,,,,,,341.90499995232676,,response,,,7,A,,,,,Space,keypress(Space),,,,silence,---- --------- ---------- - --- ------- -- --- ------------<br>----- -- -------- ------- ---- ------ - -------- ---- -----<br>--- ------- ---- -- --- -------- --- - ----- ------ ---- --<br>-------- --- -------- -------- --- -------- ---- -- ----- -<br>-------- ---- --- ---------- --------- -- ------- ------ -<br>--------- ----- jury.,176264.70000004768,176263.79999995232,175905.225,175920.90000009537,175921.895,176272.062,,52,jury.
Item 7,flow.Loop,0_4_1_0_1,2021-11-19T13:22:11.018Z,,,,,,,,,,,,,,,,,,,,,,,,,,,,,,30166.513999952324,,completion,,,,,,,,,,,,,,,,176265,176263.79999995232,146080.615,146082.79999995232,146097.286,176272.062,,,
