sender,sender_type,sender_id,timestamp,meta,,Blues,Classical,Country,Dance,Electronic,Folk,Gospel,Hip-Hop,Jazz,Latin,Musical/Film,New-age,Pop,Provo_ID,R&B,Rap,Reggae,Religious,Rock,Soul,Swing,Traditional,age,artist_name,correct,correctResponse,distraction,duration,education,ended_on,familiarity,gender,item,list,music_frequency,offensiveness,pleasantness,preference,response,response_action,snippet_file,song_name,song_rating,sound,text,time_commit,time_end,time_render,time_run,time_show,time_switch,url,word,word_ID
Instructions,html.Page,0_0,2021-12-10T10:05:02.756Z,"{""labjs_version"":""20.2.3"",""labjs_build"":{""flavor"":""production"",""commit"":""7ea907d66ca8aeef8054924ca5d82ffbe11e34e5""},""location"":""https://run.pavlovia.org/mvasilev/lab_music_a/"",""userAgent"":""Mozilla/5.0 (Windows NT 6.1; Win64; x64) AppleWebKit/537.36 (KHTML, like Gecko) Chrome/96.0.4664.93 Safari/537.36"",""platform"":""Win32"",""language"":""en-US"",""locale"":""en-US"",""timeZone"":""Europe/London"",""timezoneOffset"":0,""screen_width"":1920,""screen_height"":1080,""scroll_width"":1920,""scroll_height"":959,""window_innerWidth"":1920,""window_innerHeight"":1007,""devicePixelRatio"":1}",,,,,,,,,,,,,,,,,,,,,,,,,,,,,30584.312999999813,,form submission,,,,,,,,,,,,,,,,51953.69999999972,51952.799999999814,21351.823,21351,21368.487,51961.185,{},,
Headphones,html.Page,0_1,2021-12-10T10:05:08.035Z,,,,,,,,,,,,,,,,,,,,,,,,,,,,,,5271.315000000002,,form submission,,,,,,,,,,,,,,,,57233,57232.5,51944.503,51954.10000000009,51961.185,57234.085,,,
Holding screen,html.Screen,0_2_0_0,2021-12-10T10:05:18.027Z,,,,,,,,,,,,,,,,,,,,,,,,,,,,,,10015.879000000008,,timeout,,,,,,,,,,,,,,,,67220.1000000001,67216.634,57217.419,57233.299999999814,57234.085,67249.964,,,
screen,html.Screen,0_2_0_1_0,2021-12-10T10:05:19.040Z,,,,,,,,,,,,,,,,53,,,,,,,,,,,,,,982.8359999998065,,response,,,99,,,,,,Space,keypress(Space),,,,,When -- ----- -- ------ - ------- --- ----------<br>------------- ------ ------ ---- ---- ------- ----- -- ----<br>-------- ------- -- ---------- --- - --- ----- ----- ----<br>---- --- --- ----- --- ---- ---- ------- ----- ---- -------<br>--- --- -- ----- -- --- ---- -- --- ---- -- ------ ------<br>--- ----- -- ----,68233.79999999981,68232.79999999981,67216.634,67220.5,67249.964,68249.89,,0,When
screen,html.Screen,0_2_0_1_1,2021-12-10T10:05:19.624Z,,,,,,,,,,,,,,,,53,,,,,,,,,,,,,,566.6100000000006,,response,,,99,,,,,,Space,keypress(Space),,,,,---- it ----- -- ------ - ------- --- ----------<br>------------- ------ ------ ---- ---- ------- ----- -- ----<br>-------- ------- -- ---------- --- - --- ----- ----- ----<br>---- --- --- ----- --- ---- ---- ------- ----- ---- -------<br>--- --- -- ----- -- --- ---- -- --- ---- -- ------ ------<br>--- ----- -- ----,68817.19999999972,68816.5,68233.225,68234.1000000001,68249.89,68833.114,,1,it
screen,html.Screen,0_2_0_1_2,2021-12-10T10:05:20.159Z,,,,,,,,,,,,,,,,53,,,,,,,,,,,,,,519.3859999999986,,response,,,99,,,,,,Space,keypress(Space),,,,,---- -- comes -- ------ - ------- --- ----------<br>------------- ------ ------ ---- ---- ------- ----- -- ----<br>-------- ------- -- ---------- --- - --- ----- ----- ----<br>---- --- --- ----- --- ---- ---- ------- ----- ---- -------<br>--- --- -- ----- -- --- ---- -- --- ---- -- ------ ------<br>--- ----- -- ----,69353.1000000001,69352.5,68816.45,68817.5,68833.114,69366.492,,2,comes
screen,html.Screen,0_2_0_1_3,2021-12-10T10:05:20.583Z,,,,,,,,,,,,,,,,53,,,,,,,,,,,,,,409.9079999999085,,response,,,99,,,,,,Space,keypress(Space),,,,,---- -- ----- to ------ - ------- --- ----------<br>------------- ------ ------ ---- ---- ------- ----- -- ----<br>-------- ------- -- ---------- --- - --- ----- ----- ----<br>---- --- --- ----- --- ---- ---- ------- ----- ---- -------<br>--- --- -- ----- -- --- ---- -- --- ---- -- ------ ------<br>--- ----- -- ----,69777.1000000001,69776.3999999999,69349.827,69353.29999999981,69366.492,69783.123,,3,to
screen,html.Screen,0_2_0_1_4,2021-12-10T10:05:21.191Z,,,,,,,,,,,,,,,,53,,,,,,,,,,,,,,601.1769999998069,,response,,,99,,,,,,Space,keypress(Space),,,,,---- -- ----- -- having - ------- --- ----------<br>------------- ------ ------ ---- ---- ------- ----- -- ----<br>-------- ------- -- ---------- --- - --- ----- ----- ----<br>---- --- --- ----- --- ---- ---- ------- ----- ---- -------<br>--- --- -- ----- -- --- ---- -- --- ---- -- ------ ------<br>--- ----- -- ----,70385.1000000001,70384.29999999981,69766.458,69777.3999999999,69783.123,70399.822,,4,having
screen,html.Screen,0_2_0_1_5,2021-12-10T10:05:21.639Z,,,,,,,,,,,,,,,,53,,,,,,,,,,,,,,432.4779999998136,,response,,,99,,,,,,Space,keypress(Space),,,,,---- -- ----- -- ------ a ------- --- ----------<br>------------- ------ ------ ---- ---- ------- ----- -- ----<br>-------- ------- -- ---------- --- - --- ----- ----- ----<br>---- --- --- ----- --- ---- ---- ------- ----- ---- -------<br>--- --- -- ----- -- --- ---- -- --- ---- -- ------ ------<br>--- ----- -- ----,70833,70832.29999999981,70383.156,70385.3999999999,70399.822,70849.732,,5,a
screen,html.Screen,0_2_0_1_6,2021-12-10T10:05:22.135Z,,,,,,,,,,,,,,,,53,,,,,,,,,,,,,,478.467999999717,,response,,,99,,,,,,Space,keypress(Space),,,,,---- -- ----- -- ------ - lasting --- ----------<br>------------- ------ ------ ---- ---- ------- ----- -- ----<br>-------- ------- -- ---------- --- - --- ----- ----- ----<br>---- --- --- ----- --- ---- ---- ------- ----- ---- -------<br>--- --- -- ----- -- --- ---- -- --- ---- -- ------ ------<br>--- ----- -- ----,71329,71328.19999999972,70833.067,70833.29999999981,70849.732,71332.959,,6,lasting
screen,html.Screen,0_2_0_1_7,2021-12-10T10:05:22.631Z,,,,,,,,,,,,,,,,53,,,,,,,,,,,,,,491.24099999971804,,response,,,99,,,,,,Space,keypress(Space),,,,,---- -- ----- -- ------ - ------- and ----------<br>------------- ------ ------ ---- ---- ------- ----- -- ----<br>-------- ------- -- ---------- --- - --- ----- ----- ----<br>---- --- --- ----- --- ---- ---- ------- ----- ---- -------<br>--- --- -- ----- -- --- ---- -- --- ---- -- ------ ------<br>--- ----- -- ----,71824.8999999999,71824.19999999972,71316.295,71329.19999999972,71332.959,71832.995,,7,and
screen,html.Screen,0_2_0_1_8,2021-12-10T10:05:23.095Z,,,,,,,,,,,,,,,,53,,,,,,,,,,,,,,455.20499999972526,,response,,,99,,,,,,Space,keypress(Space),,,,,---- -- ----- -- ------ - ------- --- fulfilling<br>------------- ------ ------ ---- ---- ------- ----- -- ----<br>-------- ------- -- ---------- --- - --- ----- ----- ----<br>---- --- --- ----- --- ---- ---- ------- ----- ---- -------<br>--- --- -- ----- -- --- ---- -- --- ---- -- ------ ------<br>--- ----- -- ----,72289,72288.19999999972,71816.33,71825.1000000001,71832.995,72299.609,,8,fulfilling
screen,html.Screen,0_2_0_1_9,2021-12-10T10:05:23.607Z,,,,,,,,,,,,,,,,53,,,,,,,,,,,,,,500.59099999972386,,response,,,99,,,,,,Space,keypress(Space),,,,,"---- -- ----- -- ------ - ------- --- ----------<br>relationship, ------ ------ ---- ---- ------- ----- -- ----<br>-------- ------- -- ---------- --- - --- ----- ----- ----<br>---- --- --- ----- --- ---- ---- ------- ----- ---- -------<br>--- --- -- ----- -- --- ---- -- --- ---- -- ------ ------<br>--- ----- -- ----",72800.8999999999,72800.19999999972,72282.944,72289.19999999972,72299.609,72816.316,,9,"relationship,"
screen,html.Screen,0_2_0_1_10,2021-12-10T10:05:24.175Z,,,,,,,,,,,,,,,,53,,,,,,,,,,,,,,551.8839999997144,,response,,,99,,,,,,Space,keypress(Space),,,,,---- -- ----- -- ------ - ------- --- ----------<br>------------- common ------ ---- ---- ------- ----- -- ----<br>-------- ------- -- ---------- --- - --- ----- ----- ----<br>---- --- --- ----- --- ---- ---- ------- ----- ---- -------<br>--- --- -- ----- -- --- ---- -- --- ---- -- ------ ------<br>--- ----- -- ----,73368.8999999999,73368.19999999972,72799.65,72801.1000000001,72816.316,73382.8,,10,common
screen,html.Screen,0_2_0_1_11,2021-12-10T10:05:24.679Z,,,,,,,,,,,,,,,,53,,,,,,,,,,,,,,489.3000000000902,,response,,,99,,,,,,Space,keypress(Space),,,,,---- -- ----- -- ------ - ------- --- ----------<br>------------- ------ wisdom ---- ---- ------- ----- -- ----<br>-------- ------- -- ---------- --- - --- ----- ----- ----<br>---- --- --- ----- --- ---- ---- ------- ----- ---- -------<br>--- --- -- ----- -- --- ---- -- --- ---- -- ------ ------<br>--- ----- -- ----,73872.8999999999,73872.1000000001,73366.136,73369.1000000001,73382.8,73882.899,,11,wisdom
screen,html.Screen,0_2_0_1_12,2021-12-10T10:05:25.135Z,,,,,,,,,,,,,,,,53,,,,,,,,,,,,,,445.1009999999951,,response,,,99,,,,,,Space,keypress(Space),,,,,---- -- ----- -- ------ - ------- --- ----------<br>------------- ------ ------ says ---- ------- ----- -- ----<br>-------- ------- -- ---------- --- - --- ----- ----- ----<br>---- --- --- ----- --- ---- ---- ------- ----- ---- -------<br>--- --- -- ----- -- --- ---- -- --- ---- -- ------ ------<br>--- ----- -- ----,74328.6000000001,74328,73866.233,73873,73882.899,74332.824,,12,says
screen,html.Screen,0_2_0_1_13,2021-12-10T10:05:25.623Z,,,,,,,,,,,,,,,,53,,,,,,,,,,,,,,483.17600000000675,,response,,,99,,,,,,Space,keypress(Space),,,,,---- -- ----- -- ------ - ------- --- ----------<br>------------- ------ ------ ---- that ------- ----- -- ----<br>-------- ------- -- ---------- --- - --- ----- ----- ----<br>---- --- --- ----- --- ---- ---- ------- ----- ---- -------<br>--- --- -- ----- -- --- ---- -- --- ---- -- ------ ------<br>--- ----- -- ----,74816.69999999972,74816,74316.159,74328.79999999981,74332.824,74832.788,,13,that
screen,html.Screen,0_2_0_1_14,2021-12-10T10:05:26.127Z,,,,,,,,,,,,,,,,53,,,,,,,,,,,,,,487.21199999999953,,response,,,99,,,,,,Space,keypress(Space),,,,,---- -- ----- -- ------ - ------- --- ----------<br>------------- ------ ------ ---- ---- feeling ----- -- ----<br>-------- ------- -- ---------- --- - --- ----- ----- ----<br>---- --- --- ----- --- ---- ---- ------- ----- ---- -------<br>--- --- -- ----- -- --- ---- -- --- ---- -- ------ ------<br>--- ----- -- ----,75320.6000000001,75320,74816.123,74816.79999999981,74832.788,75332.752,,14,feeling
screen,html.Screen,0_2_0_1_15,2021-12-10T10:05:26.655Z,,,,,,,,,,,,,,,,53,,,,,,,,,,,,,,515.2480000000069,,response,,,99,,,,,,Space,keypress(Space),,,,,---- -- ----- -- ------ - ------- --- ----------<br>------------- ------ ------ ---- ---- ------- close -- ----<br>-------- ------- -- ---------- --- - --- ----- ----- ----<br>---- --- --- ----- --- ---- ---- ------- ----- ---- -------<br>--- --- -- ----- -- --- ---- -- --- ---- -- ------ ------<br>--- ----- -- ----,75848.6000000001,75848,75316.087,75320.69999999972,75332.752,75866.045,,15,close
screen,html.Screen,0_2_0_1_16,2021-12-10T10:05:27.079Z,,,,,,,,,,,,,,,,53,,,,,,,,,,,,,,405.8549999999086,,response,,,99,,,,,,Space,keypress(Space),,,,,---- -- ----- -- ------ - ------- --- ----------<br>------------- ------ ------ ---- ---- ------- ----- to ----<br>-------- ------- -- ---------- --- - --- ----- ----- ----<br>---- --- --- ----- --- ---- ---- ------- ----- ---- -------<br>--- --- -- ----- -- --- ---- -- --- ---- -- ------ ------<br>--- ----- -- ----,76272.5,76271.8999999999,75849.38,75848.79999999981,75866.045,76282.605,,16,to
screen,html.Screen,0_2_0_1_17,2021-12-10T10:05:27.551Z,,,,,,,,,,,,,,,,53,,,,,,,,,,,,,,461.29499999991094,,response,,,99,,,,,,Space,keypress(Space),,,,,---- -- ----- -- ------ - ------- --- ----------<br>------------- ------ ------ ---- ---- ------- ----- -- your<br>-------- ------- -- ---------- --- - --- ----- ----- ----<br>---- --- --- ----- --- ---- ---- ------- ----- ---- -------<br>--- --- -- ----- -- --- ---- -- --- ---- -- ------ ------<br>--- ----- -- ----,76744.5,76743.8999999999,76265.941,76272.69999999972,76282.605,76749.386,,17,your
screen,html.Screen,0_2_0_1_18,2021-12-10T10:05:28.039Z,,,,,,,,,,,,,,,,53,,,,,,,,,,,,,,482.41399999981513,,response,,,99,,,,,,Space,keypress(Space),,,,,---- -- ----- -- ------ - ------- --- ----------<br>------------- ------ ------ ---- ---- ------- ----- -- ----<br>romantic ------- -- ---------- --- - --- ----- ----- ----<br>---- --- --- ----- --- ---- ---- ------- ----- ---- -------<br>--- --- -- ----- -- --- ---- -- --- ---- -- ------ ------<br>--- ----- -- ----,77232.5,77231.79999999981,76732.72,76744.6000000001,76749.386,77249.171,,18,romantic
screen,html.Screen,0_2_0_1_19,2021-12-10T10:05:28.519Z,,,,,,,,,,,,,,,,53,,,,,,,,,,,,,,462.62899999981164,,response,,,99,,,,,,Space,keypress(Space),,,,,---- -- ----- -- ------ - ------- --- ----------<br>------------- ------ ------ ---- ---- ------- ----- -- ----<br>-------- partner -- ---------- --- - --- ----- ----- ----<br>---- --- --- ----- --- ---- ---- ------- ----- ---- -------<br>--- --- -- ----- -- --- ---- -- --- ---- -- ------ ------<br>--- ----- -- ----,77712.3999999999,77711.79999999981,77232.508,77232.69999999972,77249.171,77715.897,,19,partner
screen,html.Screen,0_2_0_1_20,2021-12-10T10:05:29.015Z,,,,,,,,,,,,,,,,53,,,,,,,,,,,,,,491.90299999981653,,response,,,99,,,,,,Space,keypress(Space),,,,,---- -- ----- -- ------ - ------- --- ----------<br>------------- ------ ------ ---- ---- ------- ----- -- ----<br>-------- ------- is ---------- --- - --- ----- ----- ----<br>---- --- --- ----- --- ---- ---- ------- ----- ---- -------<br>--- --- -- ----- -- --- ---- -- --- ---- -- ------ ------<br>--- ----- -- ----,78208.5,78207.79999999981,77699.232,77712.6000000001,77715.897,78215.775,,20,is
screen,html.Screen,0_2_0_1_21,2021-12-10T10:05:29.511Z,,,,,,,,,,,,,,,,53,,,,,,,,,,,,,,488.2250000000058,,response,,,99,,,,,,Space,keypress(Space),,,,,---- -- ----- -- ------ - ------- --- ----------<br>------------- ------ ------ ---- ---- ------- ----- -- ----<br>-------- ------- -- paramount. --- - --- ----- ----- ----<br>---- --- --- ----- --- ---- ---- ------- ----- ---- -------<br>--- --- -- ----- -- --- ---- -- --- ---- -- ------ ------<br>--- ----- -- ----,78704.5,78704,78199.111,78208.6000000001,78215.775,78715.946,,21,paramount.
screen,html.Screen,0_2_0_1_22,2021-12-10T10:05:30.191Z,,,,,,,,,,,,,,,,53,,,,,,,,,,,,,,667.8539999998175,,response,,,99,,,,,,Space,keypress(Space),,,,,---- -- ----- -- ------ - ------- --- ----------<br>------------- ------ ------ ---- ---- ------- ----- -- ----<br>-------- ------- -- ---------- But - --- ----- ----- ----<br>---- --- --- ----- --- ---- ---- ------- ----- ---- -------<br>--- --- -- ----- -- --- ---- -- --- ---- -- ------ ------<br>--- ----- -- ----,79384.3999999999,79383.79999999981,78699.279,78704.8999999999,78715.946,79399.122,,22,But
screen,html.Screen,0_2_0_1_23,2021-12-10T10:05:30.623Z,,,,,,,,,,,,,,,,53,,,,,,,,,,,,,,416.5779999997176,,response,,,99,,,,,,Space,keypress(Space),,,,,---- -- ----- -- ------ - ------- --- ----------<br>------------- ------ ------ ---- ---- ------- ----- -- ----<br>-------- ------- -- ---------- --- a --- ----- ----- ----<br>---- --- --- ----- --- ---- ---- ------- ----- ---- -------<br>--- --- -- ----- -- --- ---- -- --- ---- -- ------ ------<br>--- ----- -- ----,79816.29999999981,79815.69999999972,79382.457,79384.6000000001,79399.122,79832.429,,23,a
screen,html.Screen,0_2_0_1_24,2021-12-10T10:05:31.103Z,,,,,,,,,,,,,,,,53,,,,,,,,,,,,,,463.1710000000894,,response,,,99,,,,,,Space,keypress(Space),,,,,---- -- ----- -- ------ - ------- --- ----------<br>------------- ------ ------ ---- ---- ------- ----- -- ----<br>-------- ------- -- ---------- --- - new ----- ----- ----<br>---- --- --- ----- --- ---- ---- ------- ----- ---- -------<br>--- --- -- ----- -- --- ---- -- --- ---- -- ------ ------<br>--- ----- -- ----,80296.29999999981,80295.6000000001,79815.764,79816.3999999999,79832.429,80299.015,,24,new
screen,html.Screen,0_2_0_1_25,2021-12-10T10:05:31.631Z,,,,,,,,,,,,,,,,53,,,,,,,,,,,,,,524.5850000000937,,response,,,99,,,,,,Space,keypress(Space),,,,,---- -- ----- -- ------ - ------- --- ----------<br>------------- ------ ------ ---- ---- ------- ----- -- ----<br>-------- ------- -- ---------- --- - --- study ----- ----<br>---- --- --- ----- --- ---- ---- ------- ----- ---- -------<br>--- --- -- ----- -- --- ---- -- --- ---- -- ------ ------<br>--- ----- -- ----,80824.19999999972,80823.6000000001,80282.351,80296.3999999999,80299.015,80832.422,,25,study
screen,html.Screen,0_2_0_1_26,2021-12-10T10:05:32.151Z,,,,,,,,,,,,,,,,53,,,,,,,,,,,,,,511.07799999999406,,response,,,99,,,,,,Space,keypress(Space),,,,,---- -- ----- -- ------ - ------- --- ----------<br>------------- ------ ------ ---- ---- ------- ----- -- ----<br>-------- ------- -- ---------- --- - --- ----- finds ----<br>---- --- --- ----- --- ---- ---- ------- ----- ---- -------<br>--- --- -- ----- -- --- ---- -- --- ---- -- ------ ------<br>--- ----- -- ----,81344.1000000001,81343.5,80815.756,80824.3999999999,80832.422,81348.924,,26,finds
screen,html.Screen,0_2_0_1_27,2021-12-10T10:05:32.679Z,,,,,,,,,,,,,,,,53,,,,,,,,,,,,,,522.5760000000009,,response,,,99,,,,,,Space,keypress(Space),,,,,---- -- ----- -- ------ - ------- --- ----------<br>------------- ------ ------ ---- ---- ------- ----- -- ----<br>-------- ------- -- ---------- --- - --- ----- ----- that<br>---- --- --- ----- --- ---- ---- ------- ----- ---- -------<br>--- --- -- ----- -- --- ---- -- --- ---- -- ------ ------<br>--- ----- -- ----,81872.1000000001,81871.5,81332.26,81344.29999999981,81348.924,81882.303,,27,that
screen,html.Screen,0_2_0_1_28,2021-12-10T10:05:33.271Z,,,,,,,,,,,,,,,,53,,,,,,,,,,,,,,581.1970000000001,,response,,,99,,,,,,Space,keypress(Space),,,,,---- -- ----- -- ------ - ------- --- ----------<br>------------- ------ ------ ---- ---- ------- ----- -- ----<br>-------- ------- -- ---------- --- - --- ----- ----- ----<br>it's --- --- ----- --- ---- ---- ------- ----- ---- -------<br>--- --- -- ----- -- --- ---- -- --- ---- -- ------ ------<br>--- ----- -- ----,82464.19999999972,82463.5,81865.638,81872.29999999981,81882.303,82465.484,,28,it's
screen,html.Screen,0_2_0_1_29,2021-12-10T10:05:33.847Z,,,,,,,,,,,,,,,,53,,,,,,,,,,,,,,574.0160000000033,,response,,,99,,,,,,Space,keypress(Space),,,,,---- -- ----- -- ------ - ------- --- ----------<br>------------- ------ ------ ---- ---- ------- ----- -- ----<br>-------- ------- -- ---------- --- - --- ----- ----- ----<br>---- not --- ----- --- ---- ---- ------- ----- ---- -------<br>--- --- -- ----- -- --- ---- -- --- ---- -- ------ ------<br>--- ----- -- ----,83040.19999999972,83039.5,82448.82,82464.29999999981,82465.484,83048.933,,29,not
screen,html.Screen,0_2_0_1_30,2021-12-10T10:05:34.318Z,,,,,,,,,,,,,,,,53,,,,,,,,,,,,,,462.4669999999023,,response,,,99,,,,,,Space,keypress(Space),,,,,---- -- ----- -- ------ - ------- --- ----------<br>------------- ------ ------ ---- ---- ------- ----- -- ----<br>-------- ------- -- ---------- --- - --- ----- ----- ----<br>---- --- how ----- --- ---- ---- ------- ----- ---- -------<br>--- --- -- ----- -- --- ---- -- --- ---- -- ------ ------<br>--- ----- -- ----,83512,83511.3999999999,83032.267,83040.29999999981,83048.933,83515.435,,30,how
screen,html.Screen,0_2_0_1_31,2021-12-10T10:05:34.790Z,,,,,,,,,,,,,,,,53,,,,,,,,,,,,,,467.86499999981606,,response,,,99,,,,,,Space,keypress(Space),,,,,---- -- ----- -- ------ - ------- --- ----------<br>------------- ------ ------ ---- ---- ------- ----- -- ----<br>-------- ------- -- ---------- --- - --- ----- ----- ----<br>---- --- --- close --- ---- ---- ------- ----- ---- -------<br>--- --- -- ----- -- --- ---- -- --- ---- -- ------ ------<br>--- ----- -- ----,83984,83983.29999999981,83498.771,83512.19999999972,83515.435,83998.797,,31,close
screen,html.Screen,0_2_0_1_32,2021-12-10T10:05:35.294Z,,,,,,,,,,,,,,,,53,,,,,,,,,,,,,,488.5029999998078,,response,,,99,,,,,,Space,keypress(Space),,,,,---- -- ----- -- ------ - ------- --- ----------<br>------------- ------ ------ ---- ---- ------- ----- -- ----<br>-------- ------- -- ---------- --- - --- ----- ----- ----<br>---- --- --- ----- you ---- ---- ------- ----- ---- -------<br>--- --- -- ----- -- --- ---- -- --- ---- -- ------ ------<br>--- ----- -- ----,84487.8999999999,84487.29999999981,83982.132,83984.1000000001,83998.797,84498.667,,32,you
screen,html.Screen,0_2_0_1_33,2021-12-10T10:05:35.926Z,,,,,,,,,,,,,,,,53,,,,,,,,,,,,,,620.7329999999056,,response,,,99,,,,,,Space,keypress(Space),,,,,---- -- ----- -- ------ - ------- --- ----------<br>------------- ------ ------ ---- ---- ------- ----- -- ----<br>-------- ------- -- ---------- --- - --- ----- ----- ----<br>---- --- --- ----- --- feel ---- ------- ----- ---- -------<br>--- --- -- ----- -- --- ---- -- --- ---- -- ------ ------<br>--- ----- -- ----,85119.8999999999,85119.3999999999,84482.003,84488.1000000001,84498.667,85132.186,,33,feel
screen,html.Screen,0_2_0_1_34,2021-12-10T10:05:36.462Z,,,,,,,,,,,,,,,,53,,,,,,,,,,,,,,523.1139999998122,,response,,,99,,,,,,Space,keypress(Space),,,,,---- -- ----- -- ------ - ------- --- ----------<br>------------- ------ ------ ---- ---- ------- ----- -- ----<br>-------- ------- -- ---------- --- - --- ----- ----- ----<br>---- --- --- ----- --- ---- that ------- ----- ---- -------<br>--- --- -- ----- -- --- ---- -- --- ---- -- ------ ------<br>--- ----- -- ----,85655.79999999981,85655.29999999981,85115.519,85120.1000000001,85132.186,85665.279,,34,that
screen,html.Screen,0_2_0_1_35,2021-12-10T10:05:37.014Z,,,,,,,,,,,,,,,,53,,,,,,,,,,,,,,541.9209999997256,,response,,,99,,,,,,Space,keypress(Space),,,,,---- -- ----- -- ------ - ------- --- ----------<br>------------- ------ ------ ---- ---- ------- ----- -- ----<br>-------- ------- -- ---------- --- - --- ----- ----- ----<br>---- --- --- ----- --- ---- ---- matters ----- ---- -------<br>--- --- -- ----- -- --- ---- -- --- ---- -- ------ ------<br>--- ----- -- ----,86207.79999999981,86207.19999999972,85648.615,85656,85665.279,86215.296,,35,matters
screen,html.Screen,0_2_0_1_36,2021-12-10T10:05:37.526Z,,,,,,,,,,,,,,,,53,,,,,,,,,,,,,,503.9039999997185,,response,,,99,,,,,,Space,keypress(Space),,,,,"---- -- ----- -- ------ - ------- --- ----------<br>------------- ------ ------ ---- ---- ------- ----- -- ----<br>-------- ------- -- ---------- --- - --- ----- ----- ----<br>---- --- --- ----- --- ---- ---- ------- most, ---- -------<br>--- --- -- ----- -- --- ---- -- --- ---- -- ------ ------<br>--- ----- -- ----",86719.79999999981,86719.19999999972,86198.631,86208,86215.296,86732.009,,36,"most,"
screen,html.Screen,0_2_0_1_37,2021-12-10T10:05:38.030Z,,,,,,,,,,,,,,,,53,,,,,,,,,,,,,,491.19099999971513,,response,,,99,,,,,,Space,keypress(Space),,,,,---- -- ----- -- ------ - ------- --- ----------<br>------------- ------ ------ ---- ---- ------- ----- -- ----<br>-------- ------- -- ---------- --- - --- ----- ----- ----<br>---- --- --- ----- --- ---- ---- ------- ----- it's -------<br>--- --- -- ----- -- --- ---- -- --- ---- -- ------ ------<br>--- ----- -- ----,87223.79999999981,87223.19999999972,86715.343,86719.8999999999,86732.009,87231.927,,37,it's
screen,html.Screen,0_2_0_1_38,2021-12-10T10:05:38.839Z,,,,,,,,,,,,,,,,53,,,,,,,,,,,,,,799.8729999998177,,response,,,99,,,,,,Space,keypress(Space),,,,,---- -- ----- -- ------ - ------- --- ----------<br>------------- ------ ------ ---- ---- ------- ----- -- ----<br>-------- ------- -- ---------- --- - --- ----- ----- ----<br>---- --- --- ----- --- ---- ---- ------- ----- ---- whether<br>--- --- -- ----- -- --- ---- -- --- ---- -- ------ ------<br>--- ----- -- ----,88032.29999999981,88031.79999999981,87215.262,87224,87231.927,88048.34,,38,whether
screen,html.Screen,0_2_0_1_39,2021-12-10T10:05:39.374Z,,,,,,,,,,,,,,,,53,,,,,,,,,,,,,,518.7600000000966,,response,,,99,,,,,,Space,keypress(Space),,,,,---- -- ----- -- ------ - ------- --- ----------<br>------------- ------ ------ ---- ---- ------- ----- -- ----<br>-------- ------- -- ---------- --- - --- ----- ----- ----<br>---- --- --- ----- --- ---- ---- ------- ----- ---- -------<br>you --- -- ----- -- --- ---- -- --- ---- -- ------ ------<br>--- ----- -- ----,88567.6000000001,88567.1000000001,88031.677,88032.5,88048.34,88581.893,,39,you
screen,html.Screen,0_2_0_1_40,2021-12-10T10:05:39.782Z,,,,,,,,,,,,,,,,53,,,,,,,,,,,,,,393.5069999999105,,response,,,99,,,,,,Space,keypress(Space),,,,,---- -- ----- -- ------ - ------- --- ----------<br>------------- ------ ------ ---- ---- ------- ----- -- ----<br>-------- ------- -- ---------- --- - --- ----- ----- ----<br>---- --- --- ----- --- ---- ---- ------- ----- ---- -------<br>--- are -- ----- -- --- ---- -- --- ---- -- ------ ------<br>--- ----- -- ----,88975.8999999999,88975.3999999999,88565.227,88567.79999999981,88581.893,88981.737,,40,are
screen,html.Screen,0_2_0_1_41,2021-12-10T10:05:40.254Z,,,,,,,,,,,,,,,,53,,,,,,,,,,,,,,465.2630000000063,,response,,,99,,,,,,Space,keypress(Space),,,,,---- -- ----- -- ------ - ------- --- ----------<br>------------- ------ ------ ---- ---- ------- ----- -- ----<br>-------- ------- -- ---------- --- - --- ----- ----- ----<br>---- --- --- ----- --- ---- ---- ------- ----- ---- -------<br>--- --- as ----- -- --- ---- -- --- ---- -- ------ ------<br>--- ----- -- ----,89447.6000000001,89447,88965.073,88976.1000000001,88981.737,89465.104,,41,as
screen,html.Screen,0_2_0_1_42,2021-12-10T10:05:40.726Z,,,,,,,,,,,,,,,,53,,,,,,,,,,,,,,453.89599999999336,,response,,,99,,,,,,Space,keypress(Space),,,,,---- -- ----- -- ------ - ------- --- ----------<br>------------- ------ ------ ---- ---- ------- ----- -- ----<br>-------- ------- -- ---------- --- - --- ----- ----- ----<br>---- --- --- ----- --- ---- ---- ------- ----- ---- -------<br>--- --- -- close -- --- ---- -- --- ---- -- ------ ------<br>--- ----- -- ----,89919.6000000001,89919,89448.439,89447.79999999981,89465.104,89931.664,,42,close
screen,html.Screen,0_2_0_1_43,2021-12-10T10:05:41.190Z,,,,,,,,,,,,,,,,53,,,,,,,,,,,,,,451.23599999990256,,response,,,99,,,,,,Space,keypress(Space),,,,,---- -- ----- -- ------ - ------- --- ----------<br>------------- ------ ------ ---- ---- ------- ----- -- ----<br>-------- ------- -- ---------- --- - --- ----- ----- ----<br>---- --- --- ----- --- ---- ---- ------- ----- ---- -------<br>--- --- -- ----- as --- ---- -- --- ---- -- ------ ------<br>--- ----- -- ----,90383.5,90382.8999999999,89915,89919.69999999972,89931.664,90398.416,,43,as
screen,html.Screen,0_2_0_1_44,2021-12-10T10:05:41.686Z,,,,,,,,,,,,,,,,53,,,,,,,,,,,,,,480.48399999990943,,response,,,99,,,,,,Space,keypress(Space),,,,,---- -- ----- -- ------ - ------- --- ----------<br>------------- ------ ------ ---- ---- ------- ----- -- ----<br>-------- ------- -- ---------- --- - --- ----- ----- ----<br>---- --- --- ----- --- ---- ---- ------- ----- ---- -------<br>--- --- -- ----- -- you ---- -- --- ---- -- ------ ------<br>--- ----- -- ----,90879.5,90878.8999999999,90381.75,90383.69999999972,90398.416,90881.656,,44,you
screen,html.Screen,0_2_0_1_45,2021-12-10T10:05:42.182Z,,,,,,,,,,,,,,,,53,,,,,,,,,,,,,,493.2439999999042,,response,,,99,,,,,,Space,keypress(Space),,,,,---- -- ----- -- ------ - ------- --- ----------<br>------------- ------ ------ ---- ---- ------- ----- -- ----<br>-------- ------- -- ---------- --- - --- ----- ----- ----<br>---- --- --- ----- --- ---- ---- ------- ----- ---- -------<br>--- --- -- ----- -- --- want -- --- ---- -- ------ ------<br>--- ----- -- ----,91375.5,91374.8999999999,90864.991,90879.6000000001,90881.656,91381.629,,45,want
screen,html.Screen,0_2_0_1_46,2021-12-10T10:05:42.614Z,,,,,,,,,,,,,,,,53,,,,,,,,,,,,,,425.1709999998129,,response,,,99,,,,,,Space,keypress(Space),,,,,---- -- ----- -- ------ - ------- --- ----------<br>------------- ------ ------ ---- ---- ------- ----- -- ----<br>-------- ------- -- ---------- --- - --- ----- ----- ----<br>---- --- --- ----- --- ---- ---- ------- ----- ---- -------<br>--- --- -- ----- -- --- ---- to --- ---- -- ------ ------<br>--- ----- -- ----,91807.3999999999,91806.79999999981,91364.964,91375.69999999972,91381.629,91814.925,,46,to
screen,html.Screen,0_2_0_1_47,2021-12-10T10:05:43.446Z,,,,,,,,,,,,,,,,53,,,,,,,,,,,,,,823.7749999997177,,response,,,99,,,,,,Space,keypress(Space),,,,,"---- -- ----- -- ------ - ------- --- ----------<br>------------- ------ ------ ---- ---- ------- ----- -- ----<br>-------- ------- -- ---------- --- - --- ----- ----- ----<br>---- --- --- ----- --- ---- ---- ------- ----- ---- -------<br>--- --- -- ----- -- --- ---- -- be, ---- -- ------ ------<br>--- ----- -- ----",92639.3999999999,92638.69999999972,91798.26,91807.6000000001,91814.925,92648.2,,47,"be,"
screen,html.Screen,0_2_0_1_48,2021-12-10T10:05:43.998Z,,,,,,,,,,,,,,,,53,,,,,,,,,,,,,,542.4999999997235,,response,,,99,,,,,,Space,keypress(Space),,,,,---- -- ----- -- ------ - ------- --- ----------<br>------------- ------ ------ ---- ---- ------- ----- -- ----<br>-------- ------- -- ---------- --- - --- ----- ----- ----<br>---- --- --- ----- --- ---- ---- ------- ----- ---- -------<br>--- --- -- ----- -- --- ---- -- --- even -- ------ ------<br>--- ----- -- ----,93191.29999999981,93190.69999999972,92631.535,92639.6000000001,92648.2,93198.11,,48,even
screen,html.Screen,0_2_0_1_49,2021-12-10T10:05:44.486Z,,,,,,,,,,,,,,,,53,,,,,,,,,,,,,,480.58999999972,,response,,,99,,,,,,Space,keypress(Space),,,,,---- -- ----- -- ------ - ------- --- ----------<br>------------- ------ ------ ---- ---- ------- ----- -- ----<br>-------- ------- -- ---------- --- - --- ----- ----- ----<br>---- --- --- ----- --- ---- ---- ------- ----- ---- -------<br>--- --- -- ----- -- --- ---- -- --- ---- if ------ ------<br>--- ----- -- ----,93679.29999999981,93678.69999999972,93181.446,93191.5,93198.11,93681.479,,49,if
screen,html.Screen,0_2_0_1_50,2021-12-10T10:05:44.998Z,,,,,,,,,,,,,,,,53,,,,,,,,,,,,,,509.22099999971397,,response,,,99,,,,,,Space,keypress(Space),,,,,---- -- ----- -- ------ - ------- --- ----------<br>------------- ------ ------ ---- ---- ------- ----- -- ----<br>-------- ------- -- ---------- --- - --- ----- ----- ----<br>---- --- --- ----- --- ---- ---- ------- ----- ---- -------<br>--- --- -- ----- -- --- ---- -- --- ---- -- that's ------<br>--- ----- -- ----,94191.3999999999,94190.69999999972,93664.814,93679.3999999999,93681.479,94198.022,,50,that's
screen,html.Screen,0_2_0_1_51,2021-12-10T10:05:45.582Z,,,,,,,,,,,,,,,,53,,,,,,,,,,,,,,576.5780000000959,,response,,,99,,,,,,Space,keypress(Space),,,,,---- -- ----- -- ------ - ------- --- ----------<br>------------- ------ ------ ---- ---- ------- ----- -- ----<br>-------- ------- -- ---------- --- - --- ----- ----- ----<br>---- --- --- ----- --- ---- ---- ------- ----- ---- -------<br>--- --- -- ----- -- --- ---- -- --- ---- -- ------ really<br>--- ----- -- ----,94775.19999999972,94774.6000000001,94181.358,94191.6000000001,94198.022,94781.358,,51,really
screen,html.Screen,0_2_0_1_52,2021-12-10T10:05:46.102Z,,,,,,,,,,,,,,,,53,,,,,,,,,,,,,,513.2420000001002,,response,,,99,,,,,,Space,keypress(Space),,,,,---- -- ----- -- ------ - ------- --- ----------<br>------------- ------ ------ ---- ---- ------- ----- -- ----<br>-------- ------- -- ---------- --- - --- ----- ----- ----<br>---- --- --- ----- --- ---- ---- ------- ----- ---- -------<br>--- --- -- ----- -- --- ---- -- --- ---- -- ------ ------<br>not ----- -- ----,95295.19999999972,95294.6000000001,94764.693,94775.5,94781.358,95298.001,,52,not
screen,html.Screen,0_2_0_1_53,2021-12-10T10:05:46.597Z,,,,,,,,,,,,,,,,53,,,,,,,,,,,,,,492.5990000000893,,response,,,99,,,,,,Space,keypress(Space),,,,,---- -- ----- -- ------ - ------- --- ----------<br>------------- ------ ------ ---- ---- ------- ----- -- ----<br>-------- ------- -- ---------- --- - --- ----- ----- ----<br>---- --- --- ----- --- ---- ---- ------- ----- ---- -------<br>--- --- -- ----- -- --- ---- -- --- ---- -- ------ ------<br>--- close -- ----,95791.1000000001,95790.6000000001,95281.336,95295.29999999981,95298.001,95797.994,,53,close
screen,html.Screen,0_2_0_1_54,2021-12-10T10:05:47.029Z,,,,,,,,,,,,,,,,53,,,,,,,,,,,,,,424.50599999999395,,response,,,99,,,,,,Space,keypress(Space),,,,,---- -- ----- -- ------ - ------- --- ----------<br>------------- ------ ------ ---- ---- ------- ----- -- ----<br>-------- ------- -- ---------- --- - --- ----- ----- ----<br>---- --- --- ----- --- ---- ---- ------- ----- ---- -------<br>--- --- -- ----- -- --- ---- -- --- ---- -- ------ ------<br>--- ----- at ----,96223.1000000001,96222.5,95781.329,95791.19999999972,95797.994,96231.218,,54,at
screen,html.Screen,0_2_0_1_55,2021-12-10T10:05:47.541Z,,,,,,,,,,,,,,,,53,,,,,,,,,,,,,,503.1819999999134,,response,,,99,,,,,,Space,keypress(Space),,,,,---- -- ----- -- ------ - ------- --- ----------<br>------------- ------ ------ ---- ---- ------- ----- -- ----<br>-------- ------- -- ---------- --- - --- ----- ----- ----<br>---- --- --- ----- --- ---- ---- ------- ----- ---- -------<br>--- --- -- ----- -- --- ---- -- --- ---- -- ------ ------<br>--- ----- -- all.,96735,96734.3999999999,96214.554,96223.29999999981,96231.218,96747.891,,55,all.
Item 99,flow.Loop,0_2_0_1,2021-12-10T10:05:47.544Z,,,,,,,,,,,,,,,,,,,,,,,,,,,,,,29484.4359999999,,completion,,,,A,,,,,,,,,,silence,,96737.8999999999,96734.3999999999,67216.634,67220.3999999999,67249.964,96747.891,,,
Question 1,html.Screen,0_2_0_2,2021-12-10T10:06:08.360Z,,,,,,,,,,,,,,,,,,,,,,,,,,,true,FALSE,,20804.608999999997,,response,,,99,A,,,,,FALSE,click #choice-2,,,,silence,,117553.3999999999,117552.5,96731.226,96738.1000000001,96747.891,117563.099,,,
Question 2,html.Screen,0_2_0_3,2021-12-10T10:06:18.320Z,,,,,,,,,,,,,,,,,,,,,,,,,,,true,TRUE,,9946.700999999812,,response,,,99,A,,,,,TRUE,click #choice-1,,,,silence,,127510.6000000001,127509.79999999981,117546.434,117553.8999999999,117563.099,127512.409,,,
Item 99,flow.Sequence,0_2_0,2021-12-10T10:06:18.321Z,,,,,,,,,,,,,,,,,,,,,,,,,,,,,,70275.71499999982,,completion,,,,,,,,,,,,,,,,127510.79999999981,127509.79999999981,57217.419,57233.19999999972,57234.085,127512.409,,,
Holding screen,html.Screen,0_2_1_0,2021-12-10T10:06:28.306Z,,,,,,,,,,,,,,,,,,,,,,,,,,,,,,9999.281000000003,,timeout,,,,,,,,,,,,,,,,137496.19999999972,137495.025,127495.744,127511.19999999972,127512.409,137511.69,,,
screen,html.Screen,0_2_1_1_0,2021-12-10T10:06:29.334Z,,,,,,,,,,,,,,,,54,,,,,,,,,,,,,,1011.9100000000908,,response,,,100,,,,,,Space,keypress(Space),,,,,At --- ---- --- ------ ----- ------- ---- -- --- ------- --<br>------- ---------- ------ -- ----- -- ----- -- ---- ------<br>--- ----- --- --- ------ -------- ----- --- ------ ----- --<br>----- ----- ---------- --- --- ------ ------ ---- -- ------<br>------- --- ------ ----- --- ---- ------- -- ---- --- --<br>------- ------,138524.3999999999,138523.6000000001,137495.025,137496.3999999999,137511.69,138528.284,,0,At
screen,html.Screen,0_2_1_1_1,2021-12-10T10:06:29.942Z,,,,,,,,,,,,,,,,54,,,,,,,,,,,,,,603.3160000000789,,response,,,100,,,,,,Space,keypress(Space),,,,,-- the ---- --- ------ ----- ------- ---- -- --- ------- --<br>------- ---------- ------ -- ----- -- ----- -- ---- ------<br>--- ----- --- --- ------ -------- ----- --- ------ ----- --<br>----- ----- ---------- --- --- ------ ------ ---- -- ------<br>------- --- ------ ----- --- ---- ------- -- ---- --- --<br>------- ------,139132.19999999972,139131.6000000001,138511.619,138524.6000000001,138528.284,139144.92,,1,the
screen,html.Screen,0_2_1_1_2,2021-12-10T10:06:30.582Z,,,,,,,,,,,,,,,,54,,,,,,,,,,,,,,626.6800000000803,,response,,,100,,,,,,Space,keypress(Space),,,,,-- --- time --- ------ ----- ------- ---- -- --- ------- --<br>------- ---------- ------ -- ----- -- ----- -- ---- ------<br>--- ----- --- --- ------ -------- ----- --- ------ ----- --<br>----- ----- ---------- --- --- ------ ------ ---- -- ------<br>------- --- ------ ----- --- ---- ------- -- ---- --- --<br>------- ------,139772.2999999998,139771.6000000001,139128.255,139132.3999999999,139144.92,139778.14,,2,time
screen,html.Screen,0_2_1_1_3,2021-12-10T10:06:31.110Z,,,,,,,,,,,,,,,,54,,,,,,,,,,,,,,521.2599999998929,,response,,,100,,,,,,Space,keypress(Space),,,,,-- --- ---- the ------ ----- ------- ---- -- --- ------- --<br>------- ---------- ------ -- ----- -- ----- -- ---- ------<br>--- ----- --- --- ------ -------- ----- --- ------ ----- --<br>----- ----- ---------- --- --- ------ ------ ---- -- ------<br>------- --- ------ ----- --- ---- ------- -- ---- --- --<br>------- ------,140300,140299.3999999999,139761.476,139772.3999999999,139778.14,140311.486,,3,the
screen,html.Screen,0_2_1_1_4,2021-12-10T10:06:31.662Z,,,,,,,,,,,,,,,,54,,,,,,,,,,,,,,539.9139999999024,,response,,,100,,,,,,Space,keypress(Space),,,,,-- --- ---- --- French ----- ------- ---- -- --- ------- --<br>------- ---------- ------ -- ----- -- ----- -- ---- ------<br>--- ----- --- --- ------ -------- ----- --- ------ ----- --<br>----- ----- ---------- --- --- ------ ------ ---- -- ------<br>------- --- ------ ----- --- ---- ------- -- ---- --- --<br>------- ------,140852,140851.3999999999,140294.821,140300.19999999972,140311.486,140861.447,,4,French
screen,html.Screen,0_2_1_1_5,2021-12-10T10:06:32.406Z,,,,,,,,,,,,,,,,54,,,,,,,,,,,,,,733.9529999999213,,response,,,100,,,,,,Space,keypress(Space),,,,,-- --- ---- --- ------ crown ------- ---- -- --- ------- --<br>------- ---------- ------ -- ----- -- ----- -- ---- ------<br>--- ----- --- --- ------ -------- ----- --- ------ ----- --<br>----- ----- ---------- --- --- ------ ------ ---- -- ------<br>------- --- ------ ----- --- ---- ------- -- ---- --- --<br>------- ------,141595.8999999999,141595.3999999999,140844.782,140852.19999999972,140861.447,141611.426,,5,crown
screen,html.Screen,0_2_1_1_6,2021-12-10T10:06:32.878Z,,,,,,,,,,,,,,,,54,,,,,,,,,,,,,,455.873999999807,,response,,,100,,,,,,Space,keypress(Space),,,,,-- --- ---- --- ------ ----- secured ---- -- --- ------- --<br>------- ---------- ------ -- ----- -- ----- -- ---- ------<br>--- ----- --- --- ------ -------- ----- --- ------ ----- --<br>----- ----- ---------- --- --- ------ ------ ---- -- ------<br>------- --- ------ ----- --- ---- ------- -- ---- --- --<br>------- ------,142067.8999999999,142067.2999999998,141594.761,141596.1000000001,141611.426,142078.045,,6,secured
screen,html.Screen,0_2_1_1_7,2021-12-10T10:06:33.422Z,,,,,,,,,,,,,,,,54,,,,,,,,,,,,,,533.1549999997078,,response,,,100,,,,,,Space,keypress(Space),,,,,-- --- ---- --- ------ ----- ------- much -- --- ------- --<br>------- ---------- ------ -- ----- -- ----- -- ---- ------<br>--- ----- --- --- ------ -------- ----- --- ------ ----- --<br>----- ----- ---------- --- --- ------ ------ ---- -- ------<br>------- --- ------ ----- --- ---- ------- -- ---- --- --<br>------- ------,142611.7999999998,142611.19999999972,142061.38,142068.1000000001,142078.045,142628.009,,7,much
screen,html.Screen,0_2_1_1_8,2021-12-10T10:06:33.902Z,,,,,,,,,,,,,,,,54,,,,,,,,,,,,,,463.0910000001022,,response,,,100,,,,,,Space,keypress(Space),,,,,-- --- ---- --- ------ ----- ------- ---- of --- ------- --<br>------- ---------- ------ -- ----- -- ----- -- ---- ------<br>--- ----- --- --- ------ -------- ----- --- ------ ----- --<br>----- ----- ---------- --- --- ------ ------ ---- -- ------<br>------- --- ------ ----- --- ---- ------- -- ---- --- --<br>------- ------,143091.7999999998,143091.1000000001,142611.344,142612,142628.009,143094.679,,8,of
screen,html.Screen,0_2_1_1_9,2021-12-10T10:06:34.414Z,,,,,,,,,,,,,,,,54,,,,,,,,,,,,,,508.5209999997169,,response,,,100,,,,,,Space,keypress(Space),,,,,-- --- ---- --- ------ ----- ------- ---- -- its ------- --<br>------- ---------- ------ -- ----- -- ----- -- ---- ------<br>--- ----- --- --- ------ -------- ----- --- ------ ----- --<br>----- ----- ---------- --- --- ------ ------ ---- -- ------<br>------- --- ------ ----- --- ---- ------- -- ---- --- --<br>------- ------,143603.8999999999,143603.19999999972,143078.014,143091.8999999999,143094.679,143611.286,,9,its
screen,html.Screen,0_2_1_1_10,2021-12-10T10:06:35.430Z,,,,,,,,,,,,,,,,54,,,,,,,,,,,,,,1007.8140000001004,,response,,,100,,,,,,Space,keypress(Space),,,,,-- --- ---- --- ------ ----- ------- ---- -- --- revenue --<br>------- ---------- ------ -- ----- -- ----- -- ---- ------<br>--- ----- --- --- ------ -------- ----- --- ------ ----- --<br>----- ----- ---------- --- --- ------ ------ ---- -- ------<br>------- --- ------ ----- --- ---- ------- -- ---- --- --<br>------- ------,144619.7999999998,144619.1000000001,143594.621,143604,143611.286,144627.748,,10,revenue
screen,html.Screen,0_2_1_1_11,2021-12-10T10:06:35.917Z,,,,,,,,,,,,,,,,54,,,,,,,,,,,,,,479.3520000001008,,response,,,100,,,,,,Space,keypress(Space),,,,,-- --- ---- --- ------ ----- ------- ---- -- --- ------- by<br>------- ---------- ------ -- ----- -- ----- -- ---- ------<br>--- ----- --- --- ------ -------- ----- --- ------ ----- --<br>----- ----- ---------- --- --- ------ ------ ---- -- ------<br>------- --- ------ ----- --- ---- ------- -- ---- --- --<br>------- ------,145107.6000000001,145107.1000000001,144611.084,144620,144627.748,145111.194,,11,by
screen,html.Screen,0_2_1_1_12,2021-12-10T10:06:36.702Z,,,,,,,,,,,,,,,,54,,,,,,,,,,,,,,779.9060000001045,,response,,,100,,,,,,Space,keypress(Space),,,,,-- --- ---- --- ------ ----- ------- ---- -- --- ------- --<br>issuing ---------- ------ -- ----- -- ----- -- ---- ------<br>--- ----- --- --- ------ -------- ----- --- ------ ----- --<br>----- ----- ---------- --- --- ------ ------ ---- -- ------<br>------- --- ------ ----- --- ---- ------- -- ---- --- --<br>------- ------,145891.7999999998,145891.1000000001,145094.529,145107.7999999998,145111.194,145894.44,,12,issuing
screen,html.Screen,0_2_1_1_13,2021-12-10T10:06:37.381Z,,,,,,,,,,,,,,,,54,,,,,,,,,,,,,,676.5599999999977,,response,,,100,,,,,,Space,keypress(Space),,,,,-- --- ---- --- ------ ----- ------- ---- -- --- ------- --<br>------- government ------ -- ----- -- ----- -- ---- ------<br>--- ----- --- --- ------ -------- ----- --- ------ ----- --<br>----- ----- ---------- --- --- ------ ------ ---- -- ------<br>------- --- ------ ----- --- ---- ------- -- ---- --- --<br>------- ------,146571.6000000001,146571,145877.775,145891.8999999999,145894.44,146577.633,,13,government
screen,html.Screen,0_2_1_1_14,2021-12-10T10:06:38.069Z,,,,,,,,,,,,,,,,54,,,,,,,,,,,,,,681.2669999999052,,response,,,100,,,,,,Space,keypress(Space),,,,,-- --- ---- --- ------ ----- ------- ---- -- --- ------- --<br>------- ---------- bonds. -- ----- -- ----- -- ---- ------<br>--- ----- --- --- ------ -------- ----- --- ------ ----- --<br>----- ----- ---------- --- --- ------ ------ ---- -- ------<br>------- --- ------ ----- --- ---- ------- -- ---- --- --<br>------- ------,147259.69999999972,147258.8999999999,146560.969,146571.69999999972,146577.633,147261.005,,14,bonds.
screen,html.Screen,0_2_1_1_15,2021-12-10T10:06:38.701Z,,,,,,,,,,,,,,,,54,,,,,,,,,,,,,,629.8949999999022,,response,,,100,,,,,,Space,keypress(Space),,,,,-- --- ---- --- ------ ----- ------- ---- -- --- ------- --<br>------- ---------- ------ In ----- -- ----- -- ---- ------<br>--- ----- --- --- ------ -------- ----- --- ------ ----- --<br>----- ----- ---------- --- --- ------ ------ ---- -- ------<br>------- --- ------ ----- --- ---- ------- -- ---- --- --<br>------- ------,147891.5,147890.8999999999,147244.34,147259.7999999998,147261.005,147894.379,,15,In
screen,html.Screen,0_2_1_1_16,2021-12-10T10:06:40.461Z,,,,,,,,,,,,,,,,54,,,,,,,,,,,,,,1756.5209999999206,,response,,,100,,,,,,Space,keypress(Space),,,,,"-- --- ---- --- ------ ----- ------- ---- -- --- ------- --<br>------- ---------- ------ -- 1727, -- ----- -- ---- ------<br>--- ----- --- --- ------ -------- ----- --- ------ ----- --<br>----- ----- ---------- --- --- ------ ------ ---- -- ------<br>------- --- ------ ----- --- ---- ------- -- ---- --- --<br>------- ------",149651.5,149650.8999999999,147877.713,147891.69999999972,147894.379,149660.817,,16,"1727,"
screen,html.Screen,0_2_1_1_17,2021-12-10T10:06:40.997Z,,,,,,,,,,,,,,,,54,,,,,,,,,,,,,,526.18299999999,,response,,,100,,,,,,Space,keypress(Space),,,,,-- --- ---- --- ------ ----- ------- ---- -- --- ------- --<br>------- ---------- ------ -- ----- in ----- -- ---- ------<br>--- ----- --- --- ------ -------- ----- --- ------ ----- --<br>----- ----- ---------- --- --- ------ ------ ---- -- ------<br>------- --- ------ ----- --- ---- ------- -- ---- --- --<br>------- ------,150187.5,150187,149644.152,149651.6000000001,149660.817,150194.011,,17,in
screen,html.Screen,0_2_1_1_18,2021-12-10T10:06:41.485Z,,,,,,,,,,,,,,,,54,,,,,,,,,,,,,,480.688999999722,,response,,,100,,,,,,Space,keypress(Space),,,,,-- --- ---- --- ------ ----- ------- ---- -- --- ------- --<br>------- ---------- ------ -- ----- -- order -- ---- ------<br>--- ----- --- --- ------ -------- ----- --- ------ ----- --<br>----- ----- ---------- --- --- ------ ------ ---- -- ------<br>------- --- ------ ----- --- ---- ------- -- ---- --- --<br>------- ------,150675.19999999972,150674.69999999972,150177.347,150187.6000000001,150194.011,150677.458,,18,order
screen,html.Screen,0_2_1_1_19,2021-12-10T10:06:41.949Z,,,,,,,,,,,,,,,,54,,,,,,,,,,,,,,461.14200000007986,,response,,,100,,,,,,Space,keypress(Space),,,,,-- --- ---- --- ------ ----- ------- ---- -- --- ------- --<br>------- ---------- ------ -- ----- -- ----- to ---- ------<br>--- ----- --- --- ------ -------- ----- --- ------ ----- --<br>----- ----- ---------- --- --- ------ ------ ---- -- ------<br>------- --- ------ ----- --- ---- ------- -- ---- --- --<br>------- ------,151139.3999999999,151138.6000000001,150660.793,150675.3999999999,150677.458,151144.015,,19,to
screen,html.Screen,0_2_1_1_20,2021-12-10T10:06:42.469Z,,,,,,,,,,,,,,,,54,,,,,,,,,,,,,,514.5850000000792,,response,,,100,,,,,,Space,keypress(Space),,,,,-- --- ---- --- ------ ----- ------- ---- -- --- ------- --<br>------- ---------- ------ -- ----- -- ----- -- save ------<br>--- ----- --- --- ------ -------- ----- --- ------ ----- --<br>----- ----- ---------- --- --- ------ ------ ---- -- ------<br>------- --- ------ ----- --- ---- ------- -- ---- --- --<br>------- ------,151659.19999999972,151658.6000000001,151127.351,151139.5,151144.015,151660.765,,20,save
screen,html.Screen,0_2_1_1_21,2021-12-10T10:06:42.917Z,,,,,,,,,,,,,,,,54,,,,,,,,,,,,,,445.73499999998603,,response,,,100,,,,,,Space,keypress(Space),,,,,"-- --- ---- --- ------ ----- ------- ---- -- --- ------- --<br>------- ---------- ------ -- ----- -- ----- -- ---- money,<br>--- ----- --- --- ------ -------- ----- --- ------ ----- --<br>----- ----- ---------- --- --- ------ ------ ---- -- ------<br>------- --- ------ ----- --- ---- ------- -- ---- --- --<br>------- ------",152107.1000000001,152106.5,151644.099,151659.3999999999,151660.765,152110.594,,21,"money,"
screen,html.Screen,0_2_1_1_22,2021-12-10T10:06:43.445Z,,,,,,,,,,,,,,,,54,,,,,,,,,,,,,,523.9059999999881,,response,,,100,,,,,,Space,keypress(Space),,,,,-- --- ---- --- ------ ----- ------- ---- -- --- ------- --<br>------- ---------- ------ -- ----- -- ----- -- ---- ------<br>the ----- --- --- ------ -------- ----- --- ------ ----- --<br>----- ----- ---------- --- --- ------ ------ ---- -- ------<br>------- --- ------ ----- --- ---- ------- -- ---- --- --<br>------- ------,152635.1000000001,152634.5,152093.93,152107.3999999999,152110.594,152643.978,,22,the
screen,html.Screen,0_2_1_1_23,2021-12-10T10:06:43.901Z,,,,,,,,,,,,,,,,54,,,,,,,,,,,,,,446.5219999999972,,response,,,100,,,,,,Space,keypress(Space),,,,,-- --- ---- --- ------ ----- ------- ---- -- --- ------- --<br>------- ---------- ------ -- ----- -- ----- -- ---- ------<br>--- state --- --- ------ -------- ----- --- ------ ----- --<br>----- ----- ---------- --- --- ------ ------ ---- -- ------<br>------- --- ------ ----- --- ---- ------- -- ---- --- --<br>------- ------,153091.1000000001,153090.5,152627.313,152635.2999999998,152643.978,153094.004,,23,state
screen,html.Screen,0_2_1_1_24,2021-12-10T10:06:44.381Z,,,,,,,,,,,,,,,,54,,,,,,,,,,,,,,476.49600000001374,,response,,,100,,,,,,Space,keypress(Space),,,,,-- --- ---- --- ------ ----- ------- ---- -- --- ------- --<br>------- ---------- ------ -- ----- -- ----- -- ---- ------<br>--- ----- cut --- ------ -------- ----- --- ------ ----- --<br>----- ----- ---------- --- --- ------ ------ ---- -- ------<br>------- --- ------ ----- --- ---- ------- -- ---- --- --<br>------- ------,153571.1000000001,153570.5,153077.338,153091.2999999998,153094.004,153577.268,,24,cut
screen,html.Screen,0_2_1_1_25,2021-12-10T10:06:44.829Z,,,,,,,,,,,,,,,,54,,,,,,,,,,,,,,441.23199999998906,,response,,,100,,,,,,Space,keypress(Space),,,,,-- --- ---- --- ------ ----- ------- ---- -- --- ------- --<br>------- ---------- ------ -- ----- -- ----- -- ---- ------<br>--- ----- --- the ------ -------- ----- --- ------ ----- --<br>----- ----- ---------- --- --- ------ ------ ---- -- ------<br>------- --- ------ ----- --- ---- ------- -- ---- --- --<br>------- ------,154019.1000000001,154018.5,153560.603,153571.19999999972,153577.268,154027.225,,25,the
screen,html.Screen,0_2_1_1_26,2021-12-10T10:06:45.301Z,,,,,,,,,,,,,,,,54,,,,,,,,,,,,,,463.17499999990105,,response,,,100,,,,,,Space,keypress(Space),,,,,-- --- ---- --- ------ ----- ------- ---- -- --- ------- --<br>------- ---------- ------ -- ----- -- ----- -- ---- ------<br>--- ----- --- --- bonds' -------- ----- --- ------ ----- --<br>----- ----- ---------- --- --- ------ ------ ---- -- ------<br>------- --- ------ ----- --- ---- ------- -- ---- --- --<br>------- ------,154491,154490.3999999999,154010.56,154019.19999999972,154027.225,154493.852,,26,bonds'
screen,html.Screen,0_2_1_1_27,2021-12-10T10:06:45.789Z,,,,,,,,,,,,,,,,54,,,,,,,,,,,,,,484.54799999989336,,response,,,100,,,,,,Space,keypress(Space),,,,,-- --- ---- --- ------ ----- ------- ---- -- --- ------- --<br>------- ---------- ------ -- ----- -- ----- -- ---- ------<br>--- ----- --- --- ------ interest ----- --- ------ ----- --<br>----- ----- ---------- --- --- ------ ------ ---- -- ------<br>------- --- ------ ----- --- ---- ------- -- ---- --- --<br>------- ------,154979.1000000001,154978.3999999999,154477.187,154491.19999999972,154493.852,154993.736,,27,interest
screen,html.Screen,0_2_1_1_28,2021-12-10T10:06:46.309Z,,,,,,,,,,,,,,,,54,,,,,,,,,,,,,,504.5639999998093,,response,,,100,,,,,,Space,keypress(Space),,,,,-- --- ---- --- ------ ----- ------- ---- -- --- ------- --<br>------- ---------- ------ -- ----- -- ----- -- ---- ------<br>--- ----- --- --- ------ -------- rate. --- ------ ----- --<br>----- ----- ---------- --- --- ------ ------ ---- -- ------<br>------- --- ------ ----- --- ---- ------- -- ---- --- --<br>------- ------,155498.8999999999,155498.2999999998,154977.072,154979.2999999998,154993.736,155510.419,,28,rate.
screen,html.Screen,0_2_1_1_29,2021-12-10T10:06:46.933Z,,,,,,,,,,,,,,,,54,,,,,,,,,,,,,,611.8809999998193,,response,,,100,,,,,,Space,keypress(Space),,,,,-- --- ---- --- ------ ----- ------- ---- -- --- ------- --<br>------- ---------- ------ -- ----- -- ----- -- ---- ------<br>--- ----- --- --- ------ -------- ----- The ------ ----- --<br>----- ----- ---------- --- --- ------ ------ ---- -- ------<br>------- --- ------ ----- --- ---- ------- -- ---- --- --<br>------- ------,156122.8999999999,156122.2999999998,155493.754,155499.1000000001,155510.419,156127.117,,29,The
screen,html.Screen,0_2_1_1_30,2021-12-10T10:06:47.397Z,,,,,,,,,,,,,,,,54,,,,,,,,,,,,,,459.08299999972223,,response,,,100,,,,,,Space,keypress(Space),,,,,-- --- ---- --- ------ ----- ------- ---- -- --- ------- --<br>------- ---------- ------ -- ----- -- ----- -- ---- ------<br>--- ----- --- --- ------ -------- ----- --- market ----- --<br>----- ----- ---------- --- --- ------ ------ ---- -- ------<br>------- --- ------ ----- --- ---- ------- -- ---- --- --<br>------- ------,156586.7999999998,156586.19999999972,156110.451,156123.1000000001,156127.117,156593.655,,30,market
screen,html.Screen,0_2_1_1_31,2021-12-10T10:06:47.885Z,,,,,,,,,,,,,,,,54,,,,,,,,,,,,,,480.54499999972177,,response,,,100,,,,,,Space,keypress(Space),,,,,-- --- ---- --- ------ ----- ------- ---- -- --- ------- --<br>------- ---------- ------ -- ----- -- ----- -- ---- ------<br>--- ----- --- --- ------ -------- ----- --- ------ value --<br>----- ----- ---------- --- --- ------ ------ ---- -- ------<br>------- --- ------ ----- --- ---- ------- -- ---- --- --<br>------- ------,157074.7999999998,157074.19999999972,156576.991,156587,156593.655,157076.94,,31,value
screen,html.Screen,0_2_1_1_32,2021-12-10T10:06:48.349Z,,,,,,,,,,,,,,,,54,,,,,,,,,,,,,,461.2599999997183,,response,,,100,,,,,,Space,keypress(Space),,,,,-- --- ---- --- ------ ----- ------- ---- -- --- ------- --<br>------- ---------- ------ -- ----- -- ----- -- ---- ------<br>--- ----- --- --- ------ -------- ----- --- ------ ----- of<br>----- ----- ---------- --- --- ------ ------ ---- -- ------<br>------- --- ------ ----- --- ---- ------- -- ---- --- --<br>------- ------,157538.7999999998,157538.19999999972,157060.276,157075,157076.94,157543.611,,32,of
screen,html.Screen,0_2_1_1_33,2021-12-10T10:06:48.853Z,,,,,,,,,,,,,,,,54,,,,,,,,,,,,,,498.5889999997162,,response,,,100,,,,,,Space,keypress(Space),,,,,-- --- ---- --- ------ ----- ------- ---- -- --- ------- --<br>------- ---------- ------ -- ----- -- ----- -- ---- ------<br>--- ----- --- --- ------ -------- ----- --- ------ ----- --<br>these ----- ---------- --- --- ------ ------ ---- -- ------<br>------- --- ------ ----- --- ---- ------- -- ---- --- --<br>------- ------,158042.7999999998,158042.19999999972,157526.946,157539,157543.611,158043.649,,33,these
screen,html.Screen,0_2_1_1_34,2021-12-10T10:06:49.325Z,,,,,,,,,,,,,,,,54,,,,,,,,,,,,,,470.3509999999951,,response,,,100,,,,,,Space,keypress(Space),,,,,-- --- ---- --- ------ ----- ------- ---- -- --- ------- --<br>------- ---------- ------ -- ----- -- ----- -- ---- ------<br>--- ----- --- --- ------ -------- ----- --- ------ ----- --<br>----- bonds ---------- --- --- ------ ------ ---- -- ------<br>------- --- ------ ----- --- ---- ------- -- ---- --- --<br>------- ------,158515.5,158514,158026.983,158043,158043.649,158526.829,,34,bonds
screen,html.Screen,0_2_1_1_35,2021-12-10T10:06:50.213Z,,,,,,,,,,,,,,,,54,,,,,,,,,,,,,,875.2710000000952,,response,,,100,,,,,,Space,keypress(Space),,,,,"-- --- ---- --- ------ ----- ------- ---- -- --- ------- --<br>------- ---------- ------ -- ----- -- ----- -- ---- ------<br>--- ----- --- --- ------ -------- ----- --- ------ ----- --<br>----- ----- plummeted, --- --- ------ ------ ---- -- ------<br>------- --- ------ ----- --- ---- ------- -- ---- --- --<br>------- ------",159402.69999999972,159402.1000000001,158510.165,158515.69999999972,158526.829,159410.133,,35,"plummeted,"
screen,html.Screen,0_2_1_1_36,2021-12-10T10:06:50.692Z,,,,,,,,,,,,,,,,54,,,,,,,,,,,,,,471.9670000000915,,response,,,100,,,,,,Space,keypress(Space),,,,,-- --- ---- --- ------ ----- ------- ---- -- --- ------- --<br>------- ---------- ------ -- ----- -- ----- -- ---- ------<br>--- ----- --- --- ------ -------- ----- --- ------ ----- --<br>----- ----- ---------- and --- ------ ------ ---- -- ------<br>------- --- ------ ----- --- ---- ------- -- ---- --- --<br>------- ------,159882.6000000001,159882.1000000001,159393.468,159402.8999999999,159410.133,159893.435,,36,and
screen,html.Screen,0_2_1_1_37,2021-12-10T10:06:51.045Z,,,,,,,,,,,,,,,,54,,,,,,,,,,,,,,340.86499999981606,,response,,,100,,,,,,Space,keypress(Space),,,,,-- --- ---- --- ------ ----- ------- ---- -- --- ------- --<br>------- ---------- ------ -- ----- -- ----- -- ---- ------<br>--- ----- --- --- ------ -------- ----- --- ------ ----- --<br>----- ----- ---------- --- the ------ ------ ---- -- ------<br>------- --- ------ ----- --- ---- ------- -- ---- --- --<br>------- ------,160234.7999999998,160234.2999999998,159876.77,159882.7999999998,159893.435,160243.434,,37,the
screen,html.Screen,0_2_1_1_38,2021-12-10T10:06:51.628Z,,,,,,,,,,,,,,,,54,,,,,,,,,,,,,,574.5659999999916,,response,,,100,,,,,,Space,keypress(Space),,,,,-- --- ---- --- ------ ----- ------- ---- -- --- ------- --<br>------- ---------- ------ -- ----- -- ----- -- ---- ------<br>--- ----- --- --- ------ -------- ----- --- ------ ----- --<br>----- ----- ---------- --- --- market ------ ---- -- ------<br>------- --- ------ ----- --- ---- ------- -- ---- --- --<br>------- ------,160818.5,160818,160226.769,160235,160243.434,160826.712,,38,market
screen,html.Screen,0_2_1_1_39,2021-12-10T10:06:52.084Z,,,,,,,,,,,,,,,,54,,,,,,,,,,,,,,447.18799999990733,,response,,,100,,,,,,Space,keypress(Space),,,,,-- --- ---- --- ------ ----- ------- ---- -- --- ------- --<br>------- ---------- ------ -- ----- -- ----- -- ---- ------<br>--- ----- --- --- ------ -------- ----- --- ------ ----- --<br>----- ----- ---------- --- --- ------ became ---- -- ------<br>------- --- ------ ----- --- ---- ------- -- ---- --- --<br>------- ------,161274.5,161273.8999999999,160810.047,160818.69999999972,160826.712,161276.68,,39,became
screen,html.Screen,0_2_1_1_40,2021-12-10T10:06:52.556Z,,,,,,,,,,,,,,,,54,,,,,,,,,,,,,,469.1199999998207,,response,,,100,,,,,,Space,keypress(Space),,,,,-- --- ---- --- ------ ----- ------- ---- -- --- ------- --<br>------- ---------- ------ -- ----- -- ----- -- ---- ------<br>--- ----- --- --- ------ -------- ----- --- ------ ----- --<br>----- ----- ---------- --- --- ------ ------ wary -- ------<br>------- --- ------ ----- --- ---- ------- -- ---- --- --<br>------- ------,161746.5,161745.7999999998,161260.015,161274.69999999972,161276.68,161760.003,,40,wary
screen,html.Screen,0_2_1_1_41,2021-12-10T10:06:52.988Z,,,,,,,,,,,,,,,,54,,,,,,,,,,,,,,417.79699999981676,,response,,,100,,,,,,Space,keypress(Space),,,,,-- --- ---- --- ------ ----- ------- ---- -- --- ------- --<br>------- ---------- ------ -- ----- -- ----- -- ---- ------<br>--- ----- --- --- ------ -------- ----- --- ------ ----- --<br>----- ----- ---------- --- --- ------ ------ ---- of ------<br>------- --- ------ ----- --- ---- ------- -- ---- --- --<br>------- ------,162178.5,162177.7999999998,161743.338,161746.6000000001,161760.003,162193.23,,41,of
screen,html.Screen,0_2_1_1_42,2021-12-10T10:06:53.492Z,,,,,,,,,,,,,,,,54,,,,,,,,,,,,,,488.56999999980326,,response,,,100,,,,,,Space,keypress(Space),,,,,-- --- ---- --- ------ ----- ------- ---- -- --- ------- --<br>------- ---------- ------ -- ----- -- ----- -- ---- ------<br>--- ----- --- --- ------ -------- ----- --- ------ ----- --<br>----- ----- ---------- --- --- ------ ------ ---- -- French<br>------- --- ------ ----- --- ---- ------- -- ---- --- --<br>------- ------,162682.5,162681.7999999998,162176.566,162178.69999999972,162193.23,162693.258,,42,French
screen,html.Screen,0_2_1_1_43,2021-12-10T10:06:54.044Z,,,,,,,,,,,,,,,,54,,,,,,,,,,,,,,540.5419999998121,,response,,,100,,,,,,Space,keypress(Space),,,,,-- --- ---- --- ------ ----- ------- ---- -- --- ------- --<br>------- ---------- ------ -- ----- -- ----- -- ---- ------<br>--- ----- --- --- ------ -------- ----- --- ------ ----- --<br>----- ----- ---------- --- --- ------ ------ ---- -- ------<br>credit. --- ------ ----- --- ---- ------- -- ---- --- --<br>------- ------,163234.3999999999,163233.7999999998,162676.593,162682.6000000001,162693.258,163243.207,,43,credit.
screen,html.Screen,0_2_1_1_44,2021-12-10T10:06:54.700Z,,,,,,,,,,,,,,,,54,,,,,,,,,,,,,,646.4929999997257,,response,,,100,,,,,,Space,keypress(Space),,,,,-- --- ---- --- ------ ----- ------- ---- -- --- ------- --<br>------- ---------- ------ -- ----- -- ----- -- ---- ------<br>--- ----- --- --- ------ -------- ----- --- ------ ----- --<br>----- ----- ---------- --- --- ------ ------ ---- -- ------<br>------- The ------ ----- --- ---- ------- -- ---- --- --<br>------- ------,163890.2999999998,163889.69999999972,163226.542,163234.5,163243.207,163893.157,,44,The
screen,html.Screen,0_2_1_1_45,2021-12-10T10:06:55.188Z,,,,,,,,,,,,,,,,54,,,,,,,,,,,,,,484.5429999997141,,response,,,100,,,,,,Space,keypress(Space),,,,,-- --- ---- --- ------ ----- ------- ---- -- --- ------- --<br>------- ---------- ------ -- ----- -- ----- -- ---- ------<br>--- ----- --- --- ------ -------- ----- --- ------ ----- --<br>----- ----- ---------- --- --- ------ ------ ---- -- ------<br>------- --- French ----- --- ---- ------- -- ---- --- --<br>------- ------,164378.2999999998,164377.69999999972,163876.492,163890.5,163893.157,164393.124,,45,French
screen,html.Screen,0_2_1_1_46,2021-12-10T10:06:55.700Z,,,,,,,,,,,,,,,,54,,,,,,,,,,,,,,496.5759999997099,,response,,,100,,,,,,Space,keypress(Space),,,,,-- --- ---- --- ------ ----- ------- ---- -- --- ------- --<br>------- ---------- ------ -- ----- -- ----- -- ---- ------<br>--- ----- --- --- ------ -------- ----- --- ------ ----- --<br>----- ----- ---------- --- --- ------ ------ ---- -- ------<br>------- --- ------ state --- ---- ------- -- ---- --- --<br>------- ------,164890.2999999998,164889.69999999972,164376.459,164378.3999999999,164393.124,164893.177,,46,state
screen,html.Screen,0_2_1_1_47,2021-12-10T10:06:56.260Z,,,,,,,,,,,,,,,,54,,,,,,,,,,,,,,556.5229999997246,,response,,,100,,,,,,Space,keypress(Space),,,,,-- --- ---- --- ------ ----- ------- ---- -- --- ------- --<br>------- ---------- ------ -- ----- -- ----- -- ---- ------<br>--- ----- --- --- ------ -------- ----- --- ------ ----- --<br>----- ----- ---------- --- --- ------ ------ ---- -- ------<br>------- --- ------ ----- was ---- ------- -- ---- --- --<br>------- ------,165450.19999999972,165449.69999999972,164876.511,164890.3999999999,164893.177,165459.695,,47,was
screen,html.Screen,0_2_1_1_48,2021-12-10T10:06:56.724Z,,,,,,,,,,,,,,,,54,,,,,,,,,,,,,,453.90500000008615,,response,,,100,,,,,,Space,keypress(Space),,,,,-- --- ---- --- ------ ----- ------- ---- -- --- ------- --<br>------- ---------- ------ -- ----- -- ----- -- ---- ------<br>--- ----- --- --- ------ -------- ----- --- ------ ----- --<br>----- ----- ---------- --- --- ------ ------ ---- -- ------<br>------- --- ------ ----- --- left ------- -- ---- --- --<br>------- ------,165914.2999999998,165913.6000000001,165443.031,165450.3999999999,165459.695,165926.366,,48,left
screen,html.Screen,0_2_1_1_49,2021-12-10T10:06:57.220Z,,,,,,,,,,,,,,,,54,,,,,,,,,,,,,,483.3339999997115,,response,,,100,,,,,,Space,keypress(Space),,,,,-- --- ---- --- ------ ----- ------- ---- -- --- ------- --<br>------- ---------- ------ -- ----- -- ----- -- ---- ------<br>--- ----- --- --- ------ -------- ----- --- ------ ----- --<br>----- ----- ---------- --- --- ------ ------ ---- -- ------<br>------- --- ------ ----- --- ---- without -- ---- --- --<br>------- ------,166410.2999999998,166409.69999999972,165909.701,165914.3999999999,165926.366,166426.351,,49,without
screen,html.Screen,0_2_1_1_50,2021-12-10T10:06:57.684Z,,,,,,,,,,,,,,,,54,,,,,,,,,,,,,,447.1490000000049,,response,,,100,,,,,,Space,keypress(Space),,,,,-- --- ---- --- ------ ----- ------- ---- -- --- ------- --<br>------- ---------- ------ -- ----- -- ----- -- ---- ------<br>--- ----- --- --- ------ -------- ----- --- ------ ----- --<br>----- ----- ---------- --- --- ------ ------ ---- -- ------<br>------- --- ------ ----- --- ---- ------- an ---- --- --<br>------- ------,166874.1000000001,166873.5,166409.686,166410.5,166426.351,166876.308,,50,an
screen,html.Screen,0_2_1_1_51,2021-12-10T10:06:58.148Z,,,,,,,,,,,,,,,,54,,,,,,,,,,,,,,461.19200000001,,response,,,100,,,,,,Space,keypress(Space),,,,,-- --- ---- --- ------ ----- ------- ---- -- --- ------- --<br>------- ---------- ------ -- ----- -- ----- -- ---- ------<br>--- ----- --- --- ------ -------- ----- --- ------ ----- --<br>----- ----- ---------- --- --- ------ ------ ---- -- ------<br>------- --- ------ ----- --- ---- ------- -- easy --- --<br>------- ------,167338.1000000001,167337.5,166859.643,166874.2999999998,166876.308,167342.942,,51,easy
screen,html.Screen,0_2_1_1_52,2021-12-10T10:06:58.620Z,,,,,,,,,,,,,,,,54,,,,,,,,,,,,,,466.55799999999,,response,,,100,,,,,,Space,keypress(Space),,,,,-- --- ---- --- ------ ----- ------- ---- -- --- ------- --<br>------- ---------- ------ -- ----- -- ----- -- ---- ------<br>--- ----- --- --- ------ -------- ----- --- ------ ----- --<br>----- ----- ---------- --- --- ------ ------ ---- -- ------<br>------- --- ------ ----- --- ---- ------- -- ---- way --<br>------- ------,167810,167809.5,167326.277,167338.19999999972,167342.942,167826.24,,52,way
screen,html.Screen,0_2_1_1_53,2021-12-10T10:06:59.068Z,,,,,,,,,,,,,,,,54,,,,,,,,,,,,,,431.1599999999162,,response,,,100,,,,,,Space,keypress(Space),,,,,-- --- ---- --- ------ ----- ------- ---- -- --- ------- --<br>------- ---------- ------ -- ----- -- ----- -- ---- ------<br>--- ----- --- --- ------ -------- ----- --- ------ ----- --<br>----- ----- ---------- --- --- ------ ------ ---- -- ------<br>------- --- ------ ----- --- ---- ------- -- ---- --- of<br>------- ------,168258,168257.3999999999,167809.575,167810.19999999972,167826.24,168259.571,,53,of
screen,html.Screen,0_2_1_1_54,2021-12-10T10:06:59.572Z,,,,,,,,,,,,,,,,54,,,,,,,,,,,,,,501.8289999999106,,response,,,100,,,,,,Space,keypress(Space),,,,,-- --- ---- --- ------ ----- ------- ---- -- --- ------- --<br>------- ---------- ------ -- ----- -- ----- -- ---- ------<br>--- ----- --- --- ------ -------- ----- --- ------ ----- --<br>----- ----- ---------- --- --- ------ ------ ---- -- ------<br>------- --- ------ ----- --- ---- ------- -- ---- --- --<br>raising ------,168762,168761.3999999999,168242.906,168258.19999999972,168259.571,168776.135,,54,raising
screen,html.Screen,0_2_1_1_55,2021-12-10T10:07:00.044Z,,,,,,,,,,,,,,,,54,,,,,,,,,,,,,,457.26499999989755,,response,,,100,,,,,,Space,keypress(Space),,,,,-- --- ---- --- ------ ----- ------- ---- -- --- ------- --<br>------- ---------- ------ -- ----- -- ----- -- ---- ------<br>--- ----- --- --- ------ -------- ----- --- ------ ----- --<br>----- ----- ---------- --- --- ------ ------ ---- -- ------<br>------- --- ------ ----- --- ---- ------- -- ---- --- --<br>------- money.,169234.1000000001,169233.3999999999,168759.471,168762.19999999972,168776.135,169242.818,,55,money.
Item 100,flow.Loop,0_2_1_1,2021-12-10T10:07:00.044Z,,,,,,,,,,,,,,,,,,,,,,,,,,,,,,31721.709999999905,,completion,,,,A,,,,,,,,,,silence,,169234.3999999999,169233.3999999999,137495.025,137496.3999999999,137511.69,169242.818,,,
Question 1,html.Screen,0_2_1_2,2021-12-10T10:07:07.771Z,,,,,,,,,,,,,,,,,,,,,,,,,,,true,TRUE,,7717.381999999721,,response,,,100,A,,,,,TRUE,click #choice-1,,,,silence,,176961,176960.19999999972,169226.153,169234.5,169242.818,176975.383,,,
Question 2,html.Screen,0_2_1_3,2021-12-10T10:07:12.867Z,,,,,,,,,,,,,,,,,,,,,,,,,,,true,FALSE,,5077.616999999998,,response,,,100,A,,,,,FALSE,click #choice-2,,,,silence,,182053.7999999998,182053,176958.72,176961.1000000001,176975.383,182058.519,,,
Item 100,flow.Sequence,0_2_1,2021-12-10T10:07:12.867Z,,,,,,,,,,,,,,,,,,,,,,,,,,,,,,54540.591,,completion,,,,,,,,,,,,,,,,182054.1000000001,182053,127495.744,127511.1000000001,127512.409,182058.519,,,
End of Practice,html.Page,0_2_2,2021-12-10T10:07:18.461Z,,,,,,,,,,,,,,,,,,,,,,,,,,,,,,5588.880999999907,,form submission,,,,,,,,,,,,,,,,187647.8999999999,187647.3999999999,182041.855,182054.19999999972,182058.519,187658.099,,,
Practice,flow.Sequence,0_2,2021-12-10T10:07:18.461Z,,,,,,,,,,,,,,,,,,,,,,,,,,,,,,130413.31499999992,,completion,,,,,,,,,,,,,,,,187648.1000000001,187647.3999999999,57217.419,57233.19999999972,57234.085,187658.099,,,
Trap_instruction,html.Page,0_3_0,2021-12-10T10:07:24.157Z,,,,,,,,,,,,,,,,,,,,,,,,,,,,,,5685.001000000106,,form submission,,,,,,,,,,,,,,,,193343.5,193343.1000000001,187641.434,187648.2999999998,187658.099,193357.065,,,
trap_trial,html.Screen,0_3_1,2021-12-10T10:07:26.714Z,,,,,,,,,,,,,,,,,,,,,,,,,,,true,1,,2543.035000000091,,response,,,,,,,,,1,click #choice-1,,,,,,195901.1000000001,195900.1000000001,193340.402,193343.69999999972,193357.065,195907.512,,,
end of trap trial,html.Page,0_3_2,2021-12-10T10:07:29.338Z,,,,,,,,,,,,,,,,,,,,,,,,,,,,,,2617.387999999919,,form submission,,,,,,,,,,,,,,,,198525.1000000001,198524.8999999999,195890.847,195901.2999999998,195907.512,198540.737,,,
Trap 1,flow.Sequence,0_3,2021-12-10T10:07:29.339Z,,,,,,,,,,,,,,,,,,,,,,,,,,,,,,10866.80099999992,,completion,,,,,,,,,,,,,,,,198525.5,198524.8999999999,187641.434,187648.2999999998,187658.099,198540.737,,,
Standby,html.Page,0_4_0,2021-12-10T10:07:37.338Z,,,,,,,,,,,,,,,,,,,,,,,,,,,,,,7999.203999999998,,timeout,,,,,,,,,,,,,,,,206524.69999999972,206523.276,198524.072,198525.6000000001,198540.737,206539.941,,,
Holding screen,html.Screen,0_4_1_0_0,2021-12-10T10:07:44.337Z,,,,,,,,,,,,,,,,,,,,,,,,,,,,,,6999.741999999998,,timeout,,,,,,,,,,,,,,,,213523.69999999972,213523.018,206523.276,206524.8999999999,206539.941,213539.683,,,
screen,html.Screen,0_4_1_0_1_0,2021-12-10T10:07:45.412Z,,,,,,,,,,,,,,,,51,,,,,,,,,,,,,,1058.81700000001,,response,,,13,A,,,,,Space,keypress(Space),,,,silence,American -------- --- --- ---- --- --- ------ -- --------<br>---- --------- --- ------- ------------ ---------- ---------<br>--- ---------- ------- ---------- ------- -- -------- ----<br>---- --- ------ ----- ------ -- ---- --- ----- -- - -------<br>-------- -- --- --- -- ----- ----------- ----- -----------<br>---- --- ---------- --- ---- --- -- ----------,214599.19999999972,214598.5,213523.018,213524,213539.683,214606.256,,0,American
screen,html.Screen,0_4_1_0_1_1,2021-12-10T10:07:45.996Z,,,,,,,,,,,,,,,,51,,,,,,,,,,,,,,575.9439999997267,,response,,,13,A,,,,,Space,keypress(Space),,,,silence,-------- industry --- --- ---- --- --- ------ -- --------<br>---- --------- --- ------- ------------ ---------- ---------<br>--- ---------- ------- ---------- ------- -- -------- ----<br>---- --- ------ ----- ------ -- ---- --- ----- -- - -------<br>-------- -- --- --- -- ----- ----------- ----- -----------<br>---- --- ---------- --- ---- --- -- ----------,215182.7999999998,215182.19999999972,214589.591,214599.3999999999,214606.256,215189.485,,1,industry
screen,html.Screen,0_4_1_0_1_2,2021-12-10T10:07:46.564Z,,,,,,,,,,,,,,,,51,,,,,,,,,,,,,,560.6150000001071,,response,,,13,A,,,,,Space,keypress(Space),,,,silence,-------- -------- may --- ---- --- --- ------ -- --------<br>---- --------- --- ------- ------------ ---------- ---------<br>--- ---------- ------- ---------- ------- -- -------- ----<br>---- --- ------ ----- ------ -- ---- --- ----- -- - -------<br>-------- -- --- --- -- ----- ----------- ----- -----------<br>---- --- ---------- --- ---- --- -- ----------,215750.69999999972,215750.1000000001,215172.821,215182.8999999999,215189.485,215756.223,,2,may
screen,html.Screen,0_4_1_0_1_3,2021-12-10T10:07:46.980Z,,,,,,,,,,,,,,,,51,,,,,,,,,,,,,,409.877000000095,,response,,,13,A,,,,,Space,keypress(Space),,,,silence,-------- -------- --- not ---- --- --- ------ -- --------<br>---- --------- --- ------- ------------ ---------- ---------<br>--- ---------- ------- ---------- ------- -- -------- ----<br>---- --- ------ ----- ------ -- ---- --- ----- -- - -------<br>-------- -- --- --- -- ----- ----------- ----- -----------<br>---- --- ---------- --- ---- --- -- ----------,216166.7999999998,216166.1000000001,215739.558,215750.8999999999,215756.223,216172.859,,3,not
screen,html.Screen,0_4_1_0_1_4,2021-12-10T10:07:47.412Z,,,,,,,,,,,,,,,,51,,,,,,,,,,,,,,425.2410000000964,,response,,,13,A,,,,,Space,keypress(Space),,,,silence,-------- -------- --- --- know --- --- ------ -- --------<br>---- --------- --- ------- ------------ ---------- ---------<br>--- ---------- ------- ---------- ------- -- -------- ----<br>---- --- ------ ----- ------ -- ---- --- ----- -- - -------<br>-------- -- --- --- -- ----- ----------- ----- -----------<br>---- --- ---------- --- ---- --- -- ----------,216598.6000000001,216598.1000000001,216156.194,216166.8999999999,216172.859,216606.084,,4,know
screen,html.Screen,0_4_1_0_1_5,2021-12-10T10:07:47.852Z,,,,,,,,,,,,,,,,51,,,,,,,,,,,,,,432.01600000009057,,response,,,13,A,,,,,Space,keypress(Space),,,,silence,"-------- -------- --- --- ---- it, --- ------ -- --------<br>---- --------- --- ------- ------------ ---------- ---------<br>--- ---------- ------- ---------- ------- -- -------- ----<br>---- --- ------ ----- ------ -- ---- --- ----- -- - -------<br>-------- -- --- --- -- ----- ----------- ----- -----------<br>---- --- ---------- --- ---- --- -- ----------",217038.6000000001,217038.1000000001,216589.42,216598.69999999972,216606.084,217039.424,,5,"it,"
screen,html.Screen,0_4_1_0_1_6,2021-12-10T10:07:48.340Z,,,,,,,,,,,,,,,,51,,,,,,,,,,,,,,486.4759999999078,,response,,,13,A,,,,,Space,keypress(Space),,,,silence,-------- -------- --- --- ---- --- but ------ -- --------<br>---- --------- --- ------- ------------ ---------- ---------<br>--- ---------- ------- ---------- ------- -- -------- ----<br>---- --- ------ ----- ------ -- ---- --- ----- -- - -------<br>-------- -- --- --- -- ----- ----------- ----- -----------<br>---- --- ---------- --- ---- --- -- ----------,217526.5,217525.8999999999,217022.759,217038.7999999998,217039.424,217539.464,,6,but
screen,html.Screen,0_4_1_0_1_7,2021-12-10T10:07:48.876Z,,,,,,,,,,,,,,,,51,,,,,,,,,,,,,,522.4359999998996,,response,,,13,A,,,,,Space,keypress(Space),,,,silence,-------- -------- --- --- ---- --- --- debate -- --------<br>---- --------- --- ------- ------------ ---------- ---------<br>--- ---------- ------- ---------- ------- -- -------- ----<br>---- --- ------ ----- ------ -- ---- --- ----- -- - -------<br>-------- -- --- --- -- ----- ----------- ----- -----------<br>---- --- ---------- --- ---- --- -- ----------,218062.5,218061.8999999999,217522.798,217526.69999999972,217539.464,218072.558,,7,debate
screen,html.Screen,0_4_1_0_1_8,2021-12-10T10:07:49.356Z,,,,,,,,,,,,,,,,51,,,,,,,,,,,,,,469.3419999999169,,response,,,13,A,,,,,Space,keypress(Space),,,,silence,-------- -------- --- --- ---- --- --- ------ in --------<br>---- --------- --- ------- ------------ ---------- ---------<br>--- ---------- ------- ---------- ------- -- -------- ----<br>---- --- ------ ----- ------ -- ---- --- ----- -- - -------<br>-------- -- --- --- -- ----- ----------- ----- -----------<br>---- --- ---------- --- ---- --- -- ----------,218542.5,218541.8999999999,218055.895,218062.6000000001,218072.558,218556,,8,in
screen,html.Screen,0_4_1_0_1_9,2021-12-10T10:07:50.004Z,,,,,,,,,,,,,,,,51,,,,,,,,,,,,,,633.8999999999069,,response,,,13,A,,,,,Space,keypress(Space),,,,silence,-------- -------- --- --- ---- --- --- ------ -- Congress<br>---- --------- --- ------- ------------ ---------- ---------<br>--- ---------- ------- ---------- ------- -- -------- ----<br>---- --- ------ ----- ------ -- ---- --- ----- -- - -------<br>-------- -- --- --- -- ----- ----------- ----- -----------<br>---- --- ---------- --- ---- --- -- ----------,219190.5,219189.8999999999,218539.335,218542.69999999972,218556,219205.926,,9,Congress
screen,html.Screen,0_4_1_0_1_10,2021-12-10T10:07:50.484Z,,,,,,,,,,,,,,,,51,,,,,,,,,,,,,,463.873999999807,,response,,,13,A,,,,,Space,keypress(Space),,,,silence,-------- -------- --- --- ---- --- --- ------ -- --------<br>over --------- --- ------- ------------ ---------- ---------<br>--- ---------- ------- ---------- ------- -- -------- ----<br>---- --- ------ ----- ------ -- ---- --- ----- -- - -------<br>-------- -- --- --- -- ----- ----------- ----- -----------<br>---- --- ---------- --- ---- --- -- ----------,219670.3999999999,219669.7999999998,219189.261,219190.6000000001,219205.926,219672.63,,10,over
screen,html.Screen,0_4_1_0_1_11,2021-12-10T10:07:50.916Z,,,,,,,,,,,,,,,,51,,,,,,,,,,,,,,429.1699999998091,,response,,,13,A,,,,,Space,keypress(Space),,,,silence,-------- -------- --- --- ---- --- --- ------ -- --------<br>---- reforming --- ------- ------------ ---------- ---------<br>--- ---------- ------- ---------- ------- -- -------- ----<br>---- --- ------ ----- ------ -- ---- --- ----- -- - -------<br>-------- -- --- --- -- ----- ----------- ----- -----------<br>---- --- ---------- --- ---- --- -- ----------,220102.2999999998,220101.7999999998,219655.964,219670.5,219672.63,220105.903,,11,reforming
screen,html.Screen,0_4_1_0_1_12,2021-12-10T10:07:51.452Z,,,,,,,,,,,,,,,,51,,,,,,,,,,,,,,531.7969999997295,,response,,,13,A,,,,,Space,keypress(Space),,,,silence,-------- -------- --- --- ---- --- --- ------ -- --------<br>---- --------- the ------- ------------ ---------- ---------<br>--- ---------- ------- ---------- ------- -- -------- ----<br>---- --- ------ ----- ------ -- ---- --- ----- -- - -------<br>-------- -- --- --- -- ----- ----------- ----- -----------<br>---- --- ---------- --- ---- --- -- ----------,220638.5,220637.69999999972,220089.238,220102.6000000001,220105.903,220655.851,,12,the
screen,html.Screen,0_4_1_0_1_13,2021-12-10T10:07:51.948Z,,,,,,,,,,,,,,,,51,,,,,,,,,,,,,,477.9489999998186,,response,,,13,A,,,,,Space,keypress(Space),,,,silence,-------- -------- --- --- ---- --- --- ------ -- --------<br>---- --------- --- federal ------------ ---------- ---------<br>--- ---------- ------- ---------- ------- -- -------- ----<br>---- --- ------ ----- ------ -- ---- --- ----- -- - -------<br>-------- -- --- --- -- ----- ----------- ----- -----------<br>---- --- ---------- --- ---- --- -- ----------,221134.2999999998,221133.7999999998,220639.186,220638.6000000001,220655.851,221139.148,,13,federal
screen,html.Screen,0_4_1_0_1_14,2021-12-10T10:07:52.443Z,,,,,,,,,,,,,,,,51,,,,,,,,,,,,,,490.45200000010664,,response,,,13,A,,,,,Space,keypress(Space),,,,silence,-------- -------- --- --- ---- --- --- ------ -- --------<br>---- --------- --- ------- government's ---------- ---------<br>--- ---------- ------- ---------- ------- -- -------- ----<br>---- --- ------ ----- ------ -- ---- --- ----- -- - -------<br>-------- -- --- --- -- ----- ----------- ----- -----------<br>---- --- ---------- --- ---- --- -- ----------,221630.19999999972,221629.6000000001,221122.483,221134.5,221139.148,221639.059,,14,government's
screen,html.Screen,0_4_1_0_1_15,2021-12-10T10:07:53.035Z,,,,,,,,,,,,,,,,51,,,,,,,,,,,,,,582.6409999997122,,response,,,13,A,,,,,Space,keypress(Space),,,,silence,-------- -------- --- --- ---- --- --- ------ -- --------<br>---- --------- --- ------- ------------ regulatory ---------<br>--- ---------- ------- ---------- ------- -- -------- ----<br>---- --- ------ ----- ------ -- ---- --- ----- -- - -------<br>-------- -- --- --- -- ----- ----------- ----- -----------<br>---- --- ---------- --- ---- --- -- ----------,222222.19999999972,222221.69999999972,221622.395,221630.3999999999,221639.059,222239.053,,15,regulatory
screen,html.Screen,0_4_1_0_1_16,2021-12-10T10:07:53.635Z,,,,,,,,,,,,,,,,51,,,,,,,,,,,,,,582.6469999997062,,response,,,13,A,,,,,Space,keypress(Space),,,,silence,-------- -------- --- --- ---- --- --- ------ -- --------<br>---- --------- --- ------- ------------ ---------- apparatus<br>--- ---------- ------- ---------- ------- -- -------- ----<br>---- --- ------ ----- ------ -- ---- --- ----- -- - -------<br>-------- -- --- --- -- ----- ----------- ----- -----------<br>---- --- ---------- --- ---- --- -- ----------,222822.19999999972,222821.69999999972,222222.388,222222.5,222239.053,222839.008,,16,apparatus
screen,html.Screen,0_4_1_0_1_17,2021-12-10T10:07:54.299Z,,,,,,,,,,,,,,,,51,,,,,,,,,,,,,,646.4919999999984,,response,,,13,A,,,,,Space,keypress(Space),,,,silence,-------- -------- --- --- ---- --- --- ------ -- --------<br>---- --------- --- ------- ------------ ---------- ---------<br>may ---------- ------- ---------- ------- -- -------- ----<br>---- --- ------ ----- ------ -- ---- --- ----- -- - -------<br>-------- -- --- --- -- ----- ----------- ----- -----------<br>---- --- ---------- --- ---- --- -- ----------,223486.19999999972,223485.5,222822.343,222822.3999999999,222839.008,223489.002,,17,may
screen,html.Screen,0_4_1_0_1_18,2021-12-10T10:07:54.835Z,,,,,,,,,,,,,,,,51,,,,,,,,,,,,,,532.5980000000854,,response,,,13,A,,,,,Space,keypress(Space),,,,silence,-------- -------- --- --- ---- --- --- ------ -- --------<br>---- --------- --- ------- ------------ ---------- ---------<br>--- profoundly ------- ---------- ------- -- -------- ----<br>---- --- ------ ----- ------ -- ---- --- ----- -- - -------<br>-------- -- --- --- -- ----- ----------- ----- -----------<br>---- --- ---------- --- ---- --- -- ----------,224022.19999999972,224021.6000000001,223472.337,223486.2999999998,223489.002,224038.945,,18,profoundly
screen,html.Screen,0_4_1_0_1_19,2021-12-10T10:07:55.427Z,,,,,,,,,,,,,,,,51,,,,,,,,,,,,,,574.6550000000861,,response,,,13,A,,,,,Space,keypress(Space),,,,silence,-------- -------- --- --- ---- --- --- ------ -- --------<br>---- --------- --- ------- ------------ ---------- ---------<br>--- ---------- improve ---------- ------- -- -------- ----<br>---- --- ------ ----- ------ -- ---- --- ----- -- - -------<br>-------- -- --- --- -- ----- ----------- ----- -----------<br>---- --- ---------- --- ---- --- -- ----------,224614.19999999972,224613.6000000001,224022.28,224022.3999999999,224038.945,224622.172,,19,improve
screen,html.Screen,0_4_1_0_1_20,2021-12-10T10:07:56.003Z,,,,,,,,,,,,,,,,51,,,,,,,,,,,,,,567.2279999999155,,response,,,13,A,,,,,Space,keypress(Space),,,,silence,-------- -------- --- --- ---- --- --- ------ -- --------<br>---- --------- --- ------- ------------ ---------- ---------<br>--- ---------- ------- companies' ------- -- -------- ----<br>---- --- ------ ----- ------ -- ---- --- ----- -- - -------<br>-------- -- --- --- -- ----- ----------- ----- -----------<br>---- --- ---------- --- ---- --- -- ----------,225190,225189.3999999999,224605.508,224614.3999999999,224622.172,225205.549,,20,companies'
screen,html.Screen,0_4_1_0_1_21,2021-12-10T10:07:56.539Z,,,,,,,,,,,,,,,,51,,,,,,,,,,,,,,519.8509999999078,,response,,,13,A,,,,,Space,keypress(Space),,,,silence,-------- -------- --- --- ---- --- --- ------ -- --------<br>---- --------- --- ------- ------------ ---------- ---------<br>--- ---------- ------- ---------- ability -- -------- ----<br>---- --- ------ ----- ------ -- ---- --- ----- -- - -------<br>-------- -- --- --- -- ----- ----------- ----- -----------<br>---- --- ---------- --- ---- --- -- ----------,225726,225725.3999999999,225188.884,225190.19999999972,225205.549,225738.824,,21,ability
screen,html.Screen,0_4_1_0_1_22,2021-12-10T10:07:57.043Z,,,,,,,,,,,,,,,,51,,,,,,,,,,,,,,490.4759999998205,,response,,,13,A,,,,,Space,keypress(Space),,,,silence,-------- -------- --- --- ---- --- --- ------ -- --------<br>---- --------- --- ------- ------------ ---------- ---------<br>--- ---------- ------- ---------- ------- to -------- ----<br>---- --- ------ ----- ------ -- ---- --- ----- -- - -------<br>-------- -- --- --- -- ----- ----------- ----- -----------<br>---- --- ---------- --- ---- --- -- ----------,226229.8999999999,226229.2999999998,225722.159,225726.19999999972,225738.824,226238.74,,22,to
screen,html.Screen,0_4_1_0_1_23,2021-12-10T10:07:57.515Z,,,,,,,,,,,,,,,,51,,,,,,,,,,,,,,462.55999999982305,,response,,,13,A,,,,,Space,keypress(Space),,,,silence,-------- -------- --- --- ---- --- --- ------ -- --------<br>---- --------- --- ------- ------------ ---------- ---------<br>--- ---------- ------- ---------- ------- -- survive. ----<br>---- --- ------ ----- ------ -- ---- --- ----- -- - -------<br>-------- -- --- --- -- ----- ----------- ----- -----------<br>---- --- ---------- --- ---- --- -- ----------,226702,226701.2999999998,226222.076,226230.1000000001,226238.74,226705.409,,23,survive.
screen,html.Screen,0_4_1_0_1_24,2021-12-10T10:07:58.179Z,,,,,,,,,,,,,,,,51,,,,,,,,,,,,,,659.8909999997995,,response,,,13,A,,,,,Space,keypress(Space),,,,silence,-------- -------- --- --- ---- --- --- ------ -- --------<br>---- --------- --- ------- ------------ ---------- ---------<br>--- ---------- ------- ---------- ------- -- -------- This<br>---- --- ------ ----- ------ -- ---- --- ----- -- - -------<br>-------- -- --- --- -- ----- ----------- ----- -----------<br>---- --- ---------- --- ---- --- -- ----------,227365.8999999999,227365.2999999998,226688.744,226702.1000000001,226705.409,227372.058,,24,This
screen,html.Screen,0_4_1_0_1_25,2021-12-10T10:07:58.603Z,,,,,,,,,,,,,,,,51,,,,,,,,,,,,,,417.1419999997306,,response,,,13,A,,,,,Space,keypress(Space),,,,silence,-------- -------- --- --- ---- --- --- ------ -- --------<br>---- --------- --- ------- ------------ ---------- ---------<br>--- ---------- ------- ---------- ------- -- -------- ----<br>week --- ------ ----- ------ -- ---- --- ----- -- - -------<br>-------- -- --- --- -- ----- ----------- ----- -----------<br>---- --- ---------- --- ---- --- -- ----------,227789.8999999999,227789.19999999972,227355.393,227366,227372.058,227805.366,,25,week
screen,html.Screen,0_4_1_0_1_26,2021-12-10T10:07:59.059Z,,,,,,,,,,,,,,,,51,,,,,,,,,,,,,,439.8339999997115,,response,,,13,A,,,,,Space,keypress(Space),,,,silence,-------- -------- --- --- ---- --- --- ------ -- --------<br>---- --------- --- ------- ------------ ---------- ---------<br>--- ---------- ------- ---------- ------- -- -------- ----<br>---- the ------ ----- ------ -- ---- --- ----- -- - -------<br>-------- -- --- --- -- ----- ----------- ----- -----------<br>---- --- ---------- --- ---- --- -- ----------,228245.7999999998,228245.19999999972,227788.701,227790.1000000001,227805.366,228255.322,,26,the
screen,html.Screen,0_4_1_0_1_27,2021-12-10T10:07:59.771Z,,,,,,,,,,,,,,,,51,,,,,,,,,,,,,,701.877999999735,,response,,,13,A,,,,,Space,keypress(Space),,,,silence,-------- -------- --- --- ---- --- --- ------ -- --------<br>---- --------- --- ------- ------------ ---------- ---------<br>--- ---------- ------- ---------- ------- -- -------- ----<br>---- --- Senate ----- ------ -- ---- --- ----- -- - -------<br>-------- -- --- --- -- ----- ----------- ----- -----------<br>---- --- ---------- --- ---- --- -- ----------,228957.7999999998,228957.19999999972,228238.657,228246,228255.322,228971.942,,27,Senate
screen,html.Screen,0_4_1_0_1_28,2021-12-10T10:08:00.203Z,,,,,,,,,,,,,,,,51,,,,,,,,,,,,,,417.2579999997106,,response,,,13,A,,,,,Space,keypress(Space),,,,silence,-------- -------- --- --- ---- --- --- ------ -- --------<br>---- --------- --- ------- ------------ ---------- ---------<br>--- ---------- ------- ---------- ------- -- -------- ----<br>---- --- ------ seems ------ -- ---- --- ----- -- - -------<br>-------- -- --- --- -- ----- ----------- ----- -----------<br>---- --- ---------- --- ---- --- -- ----------,229389.69999999972,229389.19999999972,228955.277,228958.1000000001,228971.942,229405.238,,28,seems
screen,html.Screen,0_4_1_0_1_29,2021-12-10T10:08:00.611Z,,,,,,,,,,,,,,,,51,,,,,,,,,,,,,,391.862000000081,,response,,,13,A,,,,,Space,keypress(Space),,,,silence,-------- -------- --- --- ---- --- --- ------ -- --------<br>---- --------- --- ------- ------------ ---------- ---------<br>--- ---------- ------- ---------- ------- -- -------- ----<br>---- --- ------ ----- poised -- ---- --- ----- -- - -------<br>-------- -- --- --- -- ----- ----------- ----- -----------<br>---- --- ---------- --- ---- --- -- ----------,229797.7999999998,229797.1000000001,229388.573,229390,229405.238,229805.215,,29,poised
screen,html.Screen,0_4_1_0_1_30,2021-12-10T10:08:01.819Z,,,,,,,,,,,,,,,,51,,,,,,,,,,,,,,1199.8850000000966,,response,,,13,A,,,,,Space,keypress(Space),,,,silence,-------- -------- --- --- ---- --- --- ------ -- --------<br>---- --------- --- ------- ------------ ---------- ---------<br>--- ---------- ------- ---------- ------- -- -------- ----<br>---- --- ------ ----- ------ to ---- --- ----- -- - -------<br>-------- -- --- --- -- ----- ----------- ----- -----------<br>---- --- ---------- --- ---- --- -- ----------,231005.7999999998,231005.1000000001,229788.55,229798,229805.215,231021.783,,30,to
screen,html.Screen,0_4_1_0_1_31,2021-12-10T10:08:02.283Z,,,,,,,,,,,,,,,,51,,,,,,,,,,,,,,447.2170000000042,,response,,,13,A,,,,,Space,keypress(Space),,,,silence,-------- -------- --- --- ---- --- --- ------ -- --------<br>---- --------- --- ------- ------------ ---------- ---------<br>--- ---------- ------- ---------- ------- -- -------- ----<br>---- --- ------ ----- ------ -- join --- ----- -- - -------<br>-------- -- --- --- -- ----- ----------- ----- -----------<br>---- --- ---------- --- ---- --- -- ----------,231469.5,231469,231005.118,231005.8999999999,231021.783,231471.778,,31,join
screen,html.Screen,0_4_1_0_1_32,2021-12-10T10:08:02.699Z,,,,,,,,,,,,,,,,51,,,,,,,,,,,,,,413.1219999999157,,response,,,13,A,,,,,Space,keypress(Space),,,,silence,-------- -------- --- --- ---- --- --- ------ -- --------<br>---- --------- --- ------- ------------ ---------- ---------<br>--- ---------- ------- ---------- ------- -- -------- ----<br>---- --- ------ ----- ------ -- ---- the ----- -- - -------<br>-------- -- --- --- -- ----- ----------- ----- -----------<br>---- --- ---------- --- ---- --- -- ----------,231885.6000000001,231884.8999999999,231455.113,231469.69999999972,231471.778,231888.4,,32,the
screen,html.Screen,0_4_1_0_1_33,2021-12-10T10:08:03.147Z,,,,,,,,,,,,,,,,51,,,,,,,,,,,,,,444.6000000000058,,response,,,13,A,,,,,Space,keypress(Space),,,,silence,-------- -------- --- --- ---- --- --- ------ -- --------<br>---- --------- --- ------- ------------ ---------- ---------<br>--- ---------- ------- ---------- ------- -- -------- ----<br>---- --- ------ ----- ------ -- ---- --- House -- - -------<br>-------- -- --- --- -- ----- ----------- ----- -----------<br>---- --- ---------- --- ---- --- -- ----------,232333.5,232333,231871.735,231885.69999999972,231888.4,232338.306,,33,House
screen,html.Screen,0_4_1_0_1_34,2021-12-10T10:08:03.603Z,,,,,,,,,,,,,,,,51,,,,,,,,,,,,,,450.59399999989546,,response,,,13,A,,,,,Space,keypress(Space),,,,silence,-------- -------- --- --- ---- --- --- ------ -- --------<br>---- --------- --- ------- ------------ ---------- ---------<br>--- ---------- ------- ---------- ------- -- -------- ----<br>---- --- ------ ----- ------ -- ---- --- ----- in - -------<br>-------- -- --- --- -- ----- ----------- ----- -----------<br>---- --- ---------- --- ---- --- -- ----------,232789.3999999999,232788.8999999999,232321.642,232333.69999999972,232338.306,232805.063,,34,in
screen,html.Screen,0_4_1_0_1_35,2021-12-10T10:08:04.091Z,,,,,,,,,,,,,,,,51,,,,,,,,,,,,,,471.8369999999122,,response,,,13,A,,,,,Space,keypress(Space),,,,silence,-------- -------- --- --- ---- --- --- ------ -- --------<br>---- --------- --- ------- ------------ ---------- ---------<br>--- ---------- ------- ---------- ------- -- -------- ----<br>---- --- ------ ----- ------ -- ---- --- ----- -- a -------<br>-------- -- --- --- -- ----- ----------- ----- -----------<br>---- --- ---------- --- ---- --- -- ----------,233277.6000000001,233276.8999999999,232788.397,232789.6000000001,232805.063,233288.165,,35,a
screen,html.Screen,0_4_1_0_1_36,2021-12-10T10:08:04.899Z,,,,,,,,,,,,,,,,51,,,,,,,,,,,,,,796.6349999998056,,response,,,13,A,,,,,Space,keypress(Space),,,,silence,-------- -------- --- --- ---- --- --- ------ -- --------<br>---- --------- --- ------- ------------ ---------- ---------<br>--- ---------- ------- ---------- ------- -- -------- ----<br>---- --- ------ ----- ------ -- ---- --- ----- -- - massive<br>-------- -- --- --- -- ----- ----------- ----- -----------<br>---- --- ---------- --- ---- --- -- ----------,234085.5,234084.7999999998,233271.502,233277.69999999972,233288.165,234088.288,,36,massive
screen,html.Screen,0_4_1_0_1_37,2021-12-10T10:08:05.467Z,,,,,,,,,,,,,,,,51,,,,,,,,,,,,,,564.7119999999995,,response,,,13,A,,,,,Space,keypress(Space),,,,silence,-------- -------- --- --- ---- --- --- ------ -- --------<br>---- --------- --- ------- ------------ ---------- ---------<br>--- ---------- ------- ---------- ------- -- -------- ----<br>---- --- ------ ----- ------ -- ---- --- ----- -- - -------<br>overhaul -- --- --- -- ----- ----------- ----- -----------<br>---- --- ---------- --- ---- --- -- ----------,234653.6000000001,234653,234071.622,234085.69999999972,234088.288,234654.78,,37,overhaul
screen,html.Screen,0_4_1_0_1_38,2021-12-10T10:08:06.027Z,,,,,,,,,,,,,,,,51,,,,,,,,,,,,,,558.0199999998149,,response,,,13,A,,,,,Space,keypress(Space),,,,silence,-------- -------- --- --- ---- --- --- ------ -- --------<br>---- --------- --- ------- ------------ ---------- ---------<br>--- ---------- ------- ---------- ------- -- -------- ----<br>---- --- ------ ----- ------ -- ---- --- ----- -- - -------<br>-------- of --- --- -- ----- ----------- ----- -----------<br>---- --- ---------- --- ---- --- -- ----------,235213.3999999999,235212.7999999998,234638.116,234653.69999999972,234654.78,235221.472,,38,of
screen,html.Screen,0_4_1_0_1_39,2021-12-10T10:08:06.459Z,,,,,,,,,,,,,,,,51,,,,,,,,,,,,,,423.22799999971176,,response,,,13,A,,,,,Space,keypress(Space),,,,silence,-------- -------- --- --- ---- --- --- ------ -- --------<br>---- --------- --- ------- ------------ ---------- ---------<br>--- ---------- ------- ---------- ------- -- -------- ----<br>---- --- ------ ----- ------ -- ---- --- ----- -- - -------<br>-------- -- the --- -- ----- ----------- ----- -----------<br>---- --- ---------- --- ---- --- -- ----------,235645.2999999998,235644.69999999972,235204.807,235213.5,235221.472,235654.818,,39,the
screen,html.Screen,0_4_1_0_1_40,2021-12-10T10:08:06.955Z,,,,,,,,,,,,,,,,51,,,,,,,,,,,,,,485.8819999997213,,response,,,13,A,,,,,Space,keypress(Space),,,,silence,-------- -------- --- --- ---- --- --- ------ -- --------<br>---- --------- --- ------- ------------ ---------- ---------<br>--- ---------- ------- ---------- ------- -- -------- ----<br>---- --- ------ ----- ------ -- ---- --- ----- -- - -------<br>-------- -- --- way -- ----- ----------- ----- -----------<br>---- --- ---------- --- ---- --- -- ----------,236141.2999999998,236140.69999999972,235638.153,235645.5,235654.818,236154.791,,40,way
screen,html.Screen,0_4_1_0_1_41,2021-12-10T10:08:07.418Z,,,,,,,,,,,,,,,,51,,,,,,,,,,,,,,449.8090000000957,,response,,,13,A,,,,,Space,keypress(Space),,,,silence,-------- -------- --- --- ---- --- --- ------ -- --------<br>---- --------- --- ------- ------------ ---------- ---------<br>--- ---------- ------- ---------- ------- -- -------- ----<br>---- --- ------ ----- ------ -- ---- --- ----- -- - -------<br>-------- -- --- --- in ----- ----------- ----- -----------<br>---- --- ---------- --- ---- --- -- ----------,236605.2999999998,236604.6000000001,236138.126,236141.3999999999,236154.791,236621.36,,41,in
screen,html.Screen,0_4_1_0_1_42,2021-12-10T10:08:07.930Z,,,,,,,,,,,,,,,,51,,,,,,,,,,,,,,495.2400000001071,,response,,,13,A,,,,,Space,keypress(Space),,,,silence,-------- -------- --- --- ---- --- --- ------ -- --------<br>---- --------- --- ------- ------------ ---------- ---------<br>--- ---------- ------- ---------- ------- -- -------- ----<br>---- --- ------ ----- ------ -- ---- --- ----- -- - -------<br>-------- -- --- --- -- which ----------- ----- -----------<br>---- --- ---------- --- ---- --- -- ----------,237117.19999999972,237116.6000000001,236604.696,236605.3999999999,236621.36,237121.359,,42,which
screen,html.Screen,0_4_1_0_1_43,2021-12-10T10:08:08.786Z,,,,,,,,,,,,,,,,51,,,,,,,,,,,,,,851.2410000000964,,response,,,13,A,,,,,Space,keypress(Space),,,,silence,-------- -------- --- --- ---- --- --- ------ -- --------<br>---- --------- --- ------- ------------ ---------- ---------<br>--- ---------- ------- ---------- ------- -- -------- ----<br>---- --- ------ ----- ------ -- ---- --- ----- -- - -------<br>-------- -- --- --- -- ----- bureaucrats ----- -----------<br>---- --- ---------- --- ---- --- -- ----------,237973.19999999972,237972.6000000001,237104.694,237117.2999999998,237121.359,237987.968,,43,bureaucrats
screen,html.Screen,0_4_1_0_1_44,2021-12-10T10:08:09.386Z,,,,,,,,,,,,,,,,51,,,,,,,,,,,,,,584.5320000000065,,response,,,13,A,,,,,Space,keypress(Space),,,,silence,-------- -------- --- --- ---- --- --- ------ -- --------<br>---- --------- --- ------- ------------ ---------- ---------<br>--- ---------- ------- ---------- ------- -- -------- ----<br>---- --- ------ ----- ------ -- ---- --- ----- -- - -------<br>-------- -- --- --- -- ----- ----------- enact -----------<br>---- --- ---------- --- ---- --- -- ----------,238573.1000000001,238572.5,237971.303,237973.2999999998,237987.968,238587.828,,44,enact
screen,html.Screen,0_4_1_0_1_45,2021-12-10T10:08:09.906Z,,,,,,,,,,,,,,,,51,,,,,,,,,,,,,,504.6719999999914,,response,,,13,A,,,,,Space,keypress(Space),,,,silence,-------- -------- --- --- ---- --- --- ------ -- --------<br>---- --------- --- ------- ------------ ---------- ---------<br>--- ---------- ------- ---------- ------- -- -------- ----<br>---- --- ------ ----- ------ -- ---- --- ----- -- - -------<br>-------- -- --- --- -- ----- ----------- ----- regulations<br>---- --- ---------- --- ---- --- -- ----------,239093.19999999972,239092.5,238571.164,238573.2999999998,238587.828,239104.532,,45,regulations
screen,html.Screen,0_4_1_0_1_46,2021-12-10T10:08:10.466Z,,,,,,,,,,,,,,,,51,,,,,,,,,,,,,,547.8679999999003,,response,,,13,A,,,,,Space,keypress(Space),,,,silence,-------- -------- --- --- ---- --- --- ------ -- --------<br>---- --------- --- ------- ------------ ---------- ---------<br>--- ---------- ------- ---------- ------- -- -------- ----<br>---- --- ------ ----- ------ -- ---- --- ----- -- - -------<br>-------- -- --- --- -- ----- ----------- ----- -----------<br>that --- ---------- --- ---- --- -- ----------,239653,239652.3999999999,239087.867,239093.3999999999,239104.532,239654.494,,46,that
screen,html.Screen,0_4_1_0_1_47,2021-12-10T10:08:10.914Z,,,,,,,,,,,,,,,,51,,,,,,,,,,,,,,445.9059999999008,,response,,,13,A,,,,,Space,keypress(Space),,,,silence,-------- -------- --- --- ---- --- --- ------ -- --------<br>---- --------- --- ------- ------------ ---------- ---------<br>--- ---------- ------- ---------- ------- -- -------- ----<br>---- --- ------ ----- ------ -- ---- --- ----- -- - -------<br>-------- -- --- --- -- ----- ----------- ----- -----------<br>---- are ---------- --- ---- --- -- ----------,240100.8999999999,240100.3999999999,239637.829,239653.1000000001,239654.494,240104.396,,47,are
screen,html.Screen,0_4_1_0_1_48,2021-12-10T10:08:12.479Z,,,,,,,,,,,,,,,,51,,,,,,,,,,,,,,1555.9039999998058,,response,,,13,A,,,,,Space,keypress(Space),,,,silence,-------- -------- --- --- ---- --- --- ------ -- --------<br>---- --------- --- ------- ------------ ---------- ---------<br>--- ---------- ------- ---------- ------- -- -------- ----<br>---- --- ------ ----- ------ -- ---- --- ----- -- - -------<br>-------- -- --- --- -- ----- ----------- ----- -----------<br>---- --- strangling --- ---- --- -- ----------,241660.8999999999,241660.2999999998,240087.732,240101.1000000001,240104.396,241671.109,,48,strangling
screen,html.Screen,0_4_1_0_1_49,2021-12-10T10:08:12.959Z,,,,,,,,,,,,,,,,51,,,,,,,,,,,,,,469.190999999817,,response,,,13,A,,,,,Space,keypress(Space),,,,silence,-------- -------- --- --- ---- --- --- ------ -- --------<br>---- --------- --- ------- ------------ ---------- ---------<br>--- ---------- ------- ---------- ------- -- -------- ----<br>---- --- ------ ----- ------ -- ---- --- ----- -- - -------<br>-------- -- --- --- -- ----- ----------- ----- -----------<br>---- --- ---------- the ---- --- -- ----------,242140.7999999998,242140.2999999998,241654.443,241661.1000000001,241671.109,242154.411,,49,the
screen,html.Screen,0_4_1_0_1_50,2021-12-10T10:08:13.399Z,,,,,,,,,,,,,,,,51,,,,,,,,,,,,,,425.7889999997278,,response,,,13,A,,,,,Space,keypress(Space),,,,silence,-------- -------- --- --- ---- --- --- ------ -- --------<br>---- --------- --- ------- ------------ ---------- ---------<br>--- ---------- ------- ---------- ------- -- -------- ----<br>---- --- ------ ----- ------ -- ---- --- ----- -- - -------<br>-------- -- --- --- -- ----- ----------- ----- -----------<br>---- --- ---------- --- life --- -- ----------,242580.7999999998,242580.19999999972,242137.745,242140.8999999999,242154.411,242587.653,,50,life
