sender,sender_type,sender_id,timestamp,meta,,Blues,Classical,Country,Dance,Electronic,Folk,Gospel,Hip-Hop,Jazz,Latin,Musical/Film,New-age,Pop,Provo_ID,R&B,Rap,Reggae,Religious,Rock,Soul,Swing,Traditional,age,artist_name,correct,correctResponse,distraction,duration,education,ended_on,familiarity,gender,item,list,music_frequency,offensiveness,pleasantness,preference,response,response_action,snippet_file,song_name,song_rating,sound,text,time_commit,time_end,time_render,time_run,time_show,time_switch,url,word,word_ID
Instructions,html.Page,0_0,2021-11-25T15:00:53.144Z,"{""labjs_version"":""20.2.3"",""labjs_build"":{""flavor"":""production"",""commit"":""7ea907d66ca8aeef8054924ca5d82ffbe11e34e5""},""location"":""https://run.pavlovia.org/mvasilev/lab_music_c/"",""userAgent"":""Mozilla/5.0 (Windows NT 6.1; Win64; x64) AppleWebKit/537.36 (KHTML, like Gecko) Chrome/96.0.4664.45 Safari/537.36"",""platform"":""Win32"",""language"":""en-GB"",""locale"":""en-GB"",""timeZone"":""Europe/London"",""timezoneOffset"":0,""screen_width"":1920,""screen_height"":1080,""scroll_width"":1920,""scroll_height"":921,""window_innerWidth"":1920,""window_innerHeight"":969,""devicePixelRatio"":1}",,,,,,,,,,,,,,,,,,,,,,,,,,,,,25123.02100001192,,form submission,,,,,,,,,,,,,,,,36891.19999998808,36890.80000001192,11701.115,11733,11767.779,36900.107,{},,
Headphones,html.Page,0_1,2021-11-25T15:00:56.607Z,,,,,,,,,,,,,,,,,,,,,,,,,,,,,,3453.8929999999964,,form submission,,,,,,,,,,,,,,,,40354.39999997616,40354,36883.441,36891.19999998808,36900.107,40366.635,,,
Holding screen,html.Screen,0_2_0_0,2021-11-25T15:01:06.637Z,,,,,,,,,,,,,,,,,,,,,,,,,,,,,,10182.926,,timeout,,,,,,,,,,,,,,,,50384.39999997616,50349.569,40349.969,40354.89999997616,40366.635,50549.561,,,
screen,html.Screen,0_2_0_1_0,2021-11-25T15:01:07.603Z,,,,,,,,,,,,,,,,53,,,,,,,,,,,,,,800.6389999880776,,response,,,99,,,,,,Space,keypress(Space),,,,,When -- ----- -- ------ - ------- --- ----------<br>------------- ------ ------ ---- ---- ------- ----- -- ----<br>-------- ------- -- ---------- --- - --- ----- ----- ----<br>---- --- --- ----- --- ---- ---- ------- ----- ---- -------<br>--- --- -- ----- -- --- ---- -- --- ---- -- ------ ------<br>--- ----- -- ----,51350.80000001192,51350.19999998808,50349.569,50384.69999998808,50549.561,51366.195,,0,When
screen,html.Screen,0_2_0_1_1,2021-11-25T15:01:08.139Z,,,,,,,,,,,,,,,,53,,,,,,,,,,,,,,519.8050000000003,,response,,,99,,,,,,Space,keypress(Space),,,,,---- it ----- -- ------ - ------- --- ----------<br>------------- ------ ------ ---- ---- ------- ----- -- ----<br>-------- ------- -- ---------- --- - --- ----- ----- ----<br>---- --- --- ----- --- ---- ---- ------- ----- ---- -------<br>--- --- -- ----- -- --- ---- -- --- ---- -- ------ ------<br>--- ----- -- ----,51886.39999997616,51886,51349.529,51350.89999997616,51366.195,51899.507,,1,it
screen,html.Screen,0_2_0_1_2,2021-11-25T15:01:08.739Z,,,,,,,,,,,,,,,,53,,,,,,,,,,,,,,586.4930000000022,,response,,,99,,,,,,Space,keypress(Space),,,,,---- -- comes -- ------ - ------- --- ----------<br>------------- ------ ------ ---- ---- ------- ----- -- ----<br>-------- ------- -- ---------- --- - --- ----- ----- ----<br>---- --- --- ----- --- ---- ---- ------- ----- ---- -------<br>--- --- -- ----- -- --- ---- -- --- ---- -- ------ ------<br>--- ----- -- ----,52486.39999997616,52486,51882.841,51886.39999997616,51899.507,52499.483,,2,comes
screen,html.Screen,0_2_0_1_3,2021-11-25T15:01:09.203Z,,,,,,,,,,,,,,,,53,,,,,,,,,,,,,,450.41699997615797,,response,,,99,,,,,,Space,keypress(Space),,,,,---- -- ----- to ------ - ------- --- ----------<br>------------- ------ ------ ---- ---- ------- ----- -- ----<br>-------- ------- -- ---------- --- - --- ----- ----- ----<br>---- --- --- ----- --- ---- ---- ------- ----- ---- -------<br>--- --- -- ----- -- --- ---- -- --- ---- -- ------ ------<br>--- ----- -- ----,52950.30000001192,52949.89999997616,52482.817,52486.39999997616,52499.483,52966.131,,3,to
screen,html.Screen,0_2_0_1_4,2021-11-25T15:01:09.867Z,,,,,,,,,,,,,,,,53,,,,,,,,,,,,,,647.6690000119197,,response,,,99,,,,,,Space,keypress(Space),,,,,---- -- ----- -- having - ------- --- ----------<br>------------- ------ ------ ---- ---- ------- ----- -- ----<br>-------- ------- -- ---------- --- - --- ----- ----- ----<br>---- --- --- ----- --- ---- ---- ------- ----- ---- -------<br>--- --- -- ----- -- --- ---- -- --- ---- -- ------ ------<br>--- ----- -- ----,53614.39999997616,53613.80000001192,52949.465,52950.5,52966.131,53616.105,,4,having
screen,html.Screen,0_2_0_1_5,2021-11-25T15:01:10.395Z,,,,,,,,,,,,,,,,53,,,,,,,,,,,,,,525.6950000119177,,response,,,99,,,,,,Space,keypress(Space),,,,,---- -- ----- -- ------ a ------- --- ----------<br>------------- ------ ------ ---- ---- ------- ----- -- ----<br>-------- ------- -- ---------- --- - --- ----- ----- ----<br>---- --- --- ----- --- ---- ---- ------- ----- ---- -------<br>--- --- -- ----- -- --- ---- -- --- ---- -- ------ ------<br>--- ----- -- ----,54142.19999998808,54141.80000001192,53599.439,53614.5,53616.105,54149.417,,5,a
screen,html.Screen,0_2_0_1_6,2021-11-25T15:01:10.931Z,,,,,,,,,,,,,,,,53,,,,,,,,,,,,,,528.3830000119196,,response,,,99,,,,,,Space,keypress(Space),,,,,---- -- ----- -- ------ - lasting --- ----------<br>------------- ------ ------ ---- ---- ------- ----- -- ----<br>-------- ------- -- ---------- --- - --- ----- ----- ----<br>---- --- --- ----- --- ---- ---- ------- ----- ---- -------<br>--- --- -- ----- -- --- ---- -- --- ---- -- ------ ------<br>--- ----- -- ----,54678.19999998808,54677.80000001192,54132.751,54142.39999997616,54149.417,54682.729,,6,lasting
screen,html.Screen,0_2_0_1_7,2021-11-25T15:01:11.483Z,,,,,,,,,,,,,,,,53,,,,,,,,,,,,,,547.0710000119216,,response,,,99,,,,,,Space,keypress(Space),,,,,---- -- ----- -- ------ - ------- and ----------<br>------------- ------ ------ ---- ---- ------- ----- -- ----<br>-------- ------- -- ---------- --- - --- ----- ----- ----<br>---- --- --- ----- --- ---- ---- ------- ----- ---- -------<br>--- --- -- ----- -- --- ---- -- --- ---- -- ------ ------<br>--- ----- -- ----,55230.10000002384,55229.80000001192,54666.063,54678.39999997616,54682.729,55232.707,,7,and
screen,html.Screen,0_2_0_1_8,2021-11-25T15:01:12.323Z,,,,,,,,,,,,,,,,53,,,,,,,,,,,,,,837.0930000119188,,response,,,99,,,,,,Space,keypress(Space),,,,,---- -- ----- -- ------ - ------- --- fulfilling<br>------------- ------ ------ ---- ---- ------- ----- -- ----<br>-------- ------- -- ---------- --- - --- ----- ----- ----<br>---- --- --- ----- --- ---- ---- ------- ----- ---- -------<br>--- --- -- ----- -- --- ---- -- --- ---- -- ------ ------<br>--- ----- -- ----,56070.69999998808,56069.80000001192,55216.041,55230.19999998808,55232.707,56082.673,,8,fulfilling
screen,html.Screen,0_2_0_1_9,2021-11-25T15:01:13.531Z,,,,,,,,,,,,,,,,53,,,,,,,,,,,,,,1195.0269999880766,,response,,,99,,,,,,Space,keypress(Space),,,,,"---- -- ----- -- ------ - ------- --- ----------<br>relationship, ------ ------ ---- ---- ------- ----- -- ----<br>-------- ------- -- ---------- --- - --- ----- ----- ----<br>---- --- --- ----- --- ---- ---- ------- ----- ---- -------<br>--- --- -- ----- -- --- ---- -- --- ---- -- ------ ------<br>--- ----- -- ----",57278.30000001192,57277.69999998808,56066.007,56070.89999997616,56082.673,57282.625,,9,"relationship,"
screen,html.Screen,0_2_0_1_10,2021-11-25T15:01:14.043Z,,,,,,,,,,,,,,,,53,,,,,,,,,,,,,,506.97500002384186,,response,,,99,,,,,,Space,keypress(Space),,,,,---- -- ----- -- ------ - ------- --- ----------<br>------------- common ------ ---- ---- ------- ----- -- ----<br>-------- ------- -- ---------- --- - --- ----- ----- ----<br>---- --- --- ----- --- ---- ---- ------- ----- ---- -------<br>--- --- -- ----- -- --- ---- -- --- ---- -- ------ ------<br>--- ----- -- ----,57789.89999997616,57789.60000002384,57265.959,57278.30000001192,57282.625,57799.271,,10,common
screen,html.Screen,0_2_0_1_11,2021-11-25T15:01:14.563Z,,,,,,,,,,,,,,,,53,,,,,,,,,,,,,,510.3290000238412,,response,,,99,,,,,,Space,keypress(Space),,,,,---- -- ----- -- ------ - ------- --- ----------<br>------------- ------ wisdom ---- ---- ------- ----- -- ----<br>-------- ------- -- ---------- --- - --- ----- ----- ----<br>---- --- --- ----- --- ---- ---- ------- ----- ---- -------<br>--- --- -- ----- -- --- ---- -- --- ---- -- ------ ------<br>--- ----- -- ----,58310,58309.60000002384,57782.605,57790,57799.271,58315.917,,11,wisdom
screen,html.Screen,0_2_0_1_12,2021-11-25T15:01:15.010Z,,,,,,,,,,,,,,,,53,,,,,,,,,,,,,,441.6830000238406,,response,,,99,,,,,,Space,keypress(Space),,,,,---- -- ----- -- ------ - ------- --- ----------<br>------------- ------ ------ says ---- ------- ----- -- ----<br>-------- ------- -- ---------- --- - --- ----- ----- ----<br>---- --- --- ----- --- ---- ---- ------- ----- ---- -------<br>--- --- -- ----- -- --- ---- -- --- ---- -- ------ ------<br>--- ----- -- ----,58757.89999997616,58757.60000002384,58299.251,58310.10000002384,58315.917,58765.899,,12,says
screen,html.Screen,0_2_0_1_13,2021-11-25T15:01:15.835Z,,,,,,,,,,,,,,,,53,,,,,,,,,,,,,,815.7010000238442,,response,,,99,,,,,,Space,keypress(Space),,,,,---- -- ----- -- ------ - ------- --- ----------<br>------------- ------ ------ ---- that ------- ----- -- ----<br>-------- ------- -- ---------- --- - --- ----- ----- ----<br>---- --- --- ----- --- ---- ---- ------- ----- ---- -------<br>--- --- -- ----- -- --- ---- -- --- ---- -- ------ ------<br>--- ----- -- ----,59582,59581.60000002384,58749.233,58758,58765.899,59582.533,,13,that
screen,html.Screen,0_2_0_1_14,2021-11-25T15:01:16.526Z,,,,,,,,,,,,,,,,53,,,,,,,,,,,,,,686.8669999761551,,response,,,99,,,,,,Space,keypress(Space),,,,,---- -- ----- -- ------ - ------- --- ----------<br>------------- ------ ------ ---- ---- feeling ----- -- ----<br>-------- ------- -- ---------- --- - --- ----- ----- ----<br>---- --- --- ----- --- ---- ---- ------- ----- ---- -------<br>--- --- -- ----- -- --- ---- -- --- ---- -- ------ ------<br>--- ----- -- ----,60269.80000001192,60269.39999997616,59565.867,59582.10000002384,59582.533,60282.505,,14,feeling
screen,html.Screen,0_2_0_1_15,2021-11-25T15:01:17.046Z,,,,,,,,,,,,,,,,53,,,,,,,,,,,,,,506.89499997616076,,response,,,99,,,,,,Space,keypress(Space),,,,,---- -- ----- -- ------ - ------- --- ----------<br>------------- ------ ------ ---- ---- ------- close -- ----<br>-------- ------- -- ---------- --- - --- ----- ----- ----<br>---- --- --- ----- --- ---- ---- ------- ----- ---- -------<br>--- --- -- ----- -- --- ---- -- --- ---- -- ------ ------<br>--- ----- -- ----,60789.80000001192,60789.39999997616,60265.839,60269.89999997616,60282.505,60799.151,,15,close
screen,html.Screen,0_2_0_1_16,2021-11-25T15:01:17.630Z,,,,,,,,,,,,,,,,53,,,,,,,,,,,,,,574.4490000238438,,response,,,99,,,,,,Space,keypress(Space),,,,,---- -- ----- -- ------ - ------- --- ----------<br>------------- ------ ------ ---- ---- ------- ----- to ----<br>-------- ------- -- ---------- --- - --- ----- ----- ----<br>---- --- --- ----- --- ---- ---- ------- ----- ---- -------<br>--- --- -- ----- -- --- ---- -- --- ---- -- ------ ------<br>--- ----- -- ----,61373.89999997616,61373.60000002384,60782.485,60789.80000001192,60799.151,61382.461,,16,to
screen,html.Screen,0_2_0_1_17,2021-11-25T15:01:18.134Z,,,,,,,,,,,,,,,,53,,,,,,,,,,,,,,494.9389999761552,,response,,,99,,,,,,Space,keypress(Space),,,,,---- -- ----- -- ------ - ------- --- ----------<br>------------- ------ ------ ---- ---- ------- ----- -- your<br>-------- ------- -- ---------- --- - --- ----- ----- ----<br>---- --- --- ----- --- ---- ---- ------- ----- ---- -------<br>--- --- -- ----- -- --- ---- -- --- ---- -- ------ ------<br>--- ----- -- ----,61877.80000001192,61877.39999997616,61365.795,61374,61382.461,61882.441,,17,your
screen,html.Screen,0_2_0_1_18,2021-11-25T15:01:18.582Z,,,,,,,,,,,,,,,,53,,,,,,,,,,,,,,443.0590000000011,,response,,,99,,,,,,Space,keypress(Space),,,,,---- -- ----- -- ------ - ------- --- ----------<br>------------- ------ ------ ---- ---- ------- ----- -- ----<br>romantic ------- -- ---------- --- - --- ----- ----- ----<br>---- --- --- ----- --- ---- ---- ------- ----- ---- -------<br>--- --- -- ----- -- --- ---- -- --- ---- -- ------ ------<br>--- ----- -- ----,62326,62325.5,61865.775,61877.89999997616,61882.441,62332.423,,18,romantic
screen,html.Screen,0_2_0_1_19,2021-11-25T15:01:19.078Z,,,,,,,,,,,,,,,,53,,,,,,,,,,,,,,488.8770000119184,,response,,,99,,,,,,Space,keypress(Space),,,,,---- -- ----- -- ------ - ------- --- ----------<br>------------- ------ ------ ---- ---- ------- ----- -- ----<br>-------- partner -- ---------- --- - --- ----- ----- ----<br>---- --- --- ----- --- ---- ---- ------- ----- ---- -------<br>--- --- -- ----- -- --- ---- -- --- ---- -- ------ ------<br>--- ----- -- ----,62821.80000001192,62821.30000001192,62315.757,62326,62332.423,62832.403,,19,partner
screen,html.Screen,0_2_0_1_20,2021-11-25T15:01:19.558Z,,,,,,,,,,,,,,,,53,,,,,,,,,,,,,,468.8970000119225,,response,,,99,,,,,,Space,keypress(Space),,,,,---- -- ----- -- ------ - ------- --- ----------<br>------------- ------ ------ ---- ---- ------- ----- -- ----<br>-------- ------- is ---------- --- - --- ----- ----- ----<br>---- --- --- ----- --- ---- ---- ------- ----- ---- -------<br>--- --- -- ----- -- --- ---- -- --- ---- -- ------ ------<br>--- ----- -- ----,63301.69999998808,63301.30000001192,62815.737,62821.89999997616,62832.403,63315.717,,20,is
screen,html.Screen,0_2_0_1_21,2021-11-25T15:01:20.094Z,,,,,,,,,,,,,,,,53,,,,,,,,,,,,,,521.6829999761612,,response,,,99,,,,,,Space,keypress(Space),,,,,---- -- ----- -- ------ - ------- --- ----------<br>------------- ------ ------ ---- ---- ------- ----- -- ----<br>-------- ------- -- paramount. --- - --- ----- ----- ----<br>---- --- --- ----- --- ---- ---- ------- ----- ---- -------<br>--- --- -- ----- -- --- ---- -- --- ---- -- ------ ------<br>--- ----- -- ----,63837.69999998808,63837.39999997616,63299.051,63301.69999998808,63315.717,63849.029,,21,paramount.
screen,html.Screen,0_2_0_1_22,2021-11-25T15:01:20.526Z,,,,,,,,,,,,,,,,53,,,,,,,,,,,,,,420.27100001191866,,response,,,99,,,,,,Space,keypress(Space),,,,,---- -- ----- -- ------ - ------- --- ----------<br>------------- ------ ------ ---- ---- ------- ----- -- ----<br>-------- ------- -- ---------- But - --- ----- ----- ----<br>---- --- --- ----- --- ---- ---- ------- ----- ---- -------<br>--- --- -- ----- -- --- ---- -- --- ---- -- ------ ------<br>--- ----- -- ----,64269.60000002384,64269.30000001192,63832.363,63837.80000001192,63849.029,64282.345,,22,But
screen,html.Screen,0_2_0_1_23,2021-11-25T15:01:21.006Z,,,,,,,,,,,,,,,,53,,,,,,,,,,,,,,466.95500001191976,,response,,,99,,,,,,Space,keypress(Space),,,,,---- -- ----- -- ------ - ------- --- ----------<br>------------- ------ ------ ---- ---- ------- ----- -- ----<br>-------- ------- -- ---------- --- a --- ----- ----- ----<br>---- --- --- ----- --- ---- ---- ------- ----- ---- -------<br>--- --- -- ----- -- --- ---- -- --- ---- -- ------ ------<br>--- ----- -- ----,64749.69999998808,64749.30000001192,64265.679,64269.69999998808,64282.345,64765.659,,23,a
screen,html.Screen,0_2_0_1_24,2021-11-25T15:01:21.406Z,,,,,,,,,,,,,,,,53,,,,,,,,,,,,,,383.84100000000035,,response,,,99,,,,,,Space,keypress(Space),,,,,---- -- ----- -- ------ - ------- --- ----------<br>------------- ------ ------ ---- ---- ------- ----- -- ----<br>-------- ------- -- ---------- --- - new ----- ----- ----<br>---- --- --- ----- --- ---- ---- ------- ----- ---- -------<br>--- --- -- ----- -- --- ---- -- --- ---- -- ------ ------<br>--- ----- -- ----,65150.19999998808,65149.5,64748.993,64749.80000001192,64765.659,65165.643,,24,new
screen,html.Screen,0_2_0_1_25,2021-11-25T15:01:21.846Z,,,,,,,,,,,,,,,,53,,,,,,,,,,,,,,423.65700001192454,,response,,,99,,,,,,Space,keypress(Space),,,,,---- -- ----- -- ------ - ------- --- ----------<br>------------- ------ ------ ---- ---- ------- ----- -- ----<br>-------- ------- -- ---------- --- - --- study ----- ----<br>---- --- --- ----- --- ---- ---- ------- ----- ---- -------<br>--- --- -- ----- -- --- ---- -- --- ---- -- ------ ------<br>--- ----- -- ----,65589.80000001192,65589.30000001192,65148.977,65150.30000001192,65165.643,65598.959,,25,study
screen,html.Screen,0_2_0_1_26,2021-11-25T15:01:22.238Z,,,,,,,,,,,,,,,,53,,,,,,,,,,,,,,382.2409999880765,,response,,,99,,,,,,Space,keypress(Space),,,,,---- -- ----- -- ------ - ------- --- ----------<br>------------- ------ ------ ---- ---- ------- ----- -- ----<br>-------- ------- -- ---------- --- - --- ----- finds ----<br>---- --- --- ----- --- ---- ---- ------- ----- ---- -------<br>--- --- -- ----- -- --- ---- -- --- ---- -- ------ ------<br>--- ----- -- ----,65981.5,65981.19999998808,65582.293,65590,65598.959,65982.277,,26,finds
screen,html.Screen,0_2_0_1_27,2021-11-25T15:01:22.702Z,,,,,,,,,,,,,,,,53,,,,,,,,,,,,,,462.82300002384,,response,,,99,,,,,,Space,keypress(Space),,,,,---- -- ----- -- ------ - ------- --- ----------<br>------------- ------ ------ ---- ---- ------- ----- -- ----<br>-------- ------- -- ---------- --- - --- ----- ----- that<br>---- --- --- ----- --- ---- ---- ------- ----- ---- -------<br>--- --- -- ----- -- --- ---- -- --- ---- -- ------ ------<br>--- ----- -- ----,66445.5,66445.10000002384,65965.611,65981.60000002384,65982.277,66448.925,,27,that
screen,html.Screen,0_2_0_1_28,2021-11-25T15:01:23.142Z,,,,,,,,,,,,,,,,53,,,,,,,,,,,,,,436.27499998807616,,response,,,99,,,,,,Space,keypress(Space),,,,,---- -- ----- -- ------ - ------- --- ----------<br>------------- ------ ------ ---- ---- ------- ----- -- ----<br>-------- ------- -- ---------- --- - --- ----- ----- ----<br>it's --- --- ----- --- ---- ---- ------- ----- ---- -------<br>--- --- -- ----- -- --- ---- -- --- ---- -- ------ ------<br>--- ----- -- ----,66885.5,66885.19999998808,66432.259,66445.5,66448.925,66898.907,,28,it's
screen,html.Screen,0_2_0_1_29,2021-11-25T15:01:23.526Z,,,,,,,,,,,,,,,,53,,,,,,,,,,,,,,370.29299998807255,,response,,,99,,,,,,Space,keypress(Space),,,,,---- -- ----- -- ------ - ------- --- ----------<br>------------- ------ ------ ---- ---- ------- ----- -- ----<br>-------- ------- -- ---------- --- - --- ----- ----- ----<br>---- not --- ----- --- ---- ---- ------- ----- ---- -------<br>--- --- -- ----- -- --- ---- -- --- ---- -- ------ ------<br>--- ----- -- ----,67269.5,67269.19999998808,66882.241,66885.60000002384,66898.907,67282.225,,29,not
screen,html.Screen,0_2_0_1_30,2021-11-25T15:01:23.958Z,,,,,,,,,,,,,,,,53,,,,,,,,,,,,,,418.97499998807325,,response,,,99,,,,,,Space,keypress(Space),,,,,---- -- ----- -- ------ - ------- --- ----------<br>------------- ------ ------ ---- ---- ------- ----- -- ----<br>-------- ------- -- ---------- --- - --- ----- ----- ----<br>---- --- how ----- --- ---- ---- ------- ----- ---- -------<br>--- --- -- ----- -- --- ---- -- --- ---- -- ------ ------<br>--- ----- -- ----,67701.5,67701.19999998808,67265.559,67269.60000002384,67282.225,67715.541,,30,how
screen,html.Screen,0_2_0_1_31,2021-11-25T15:01:24.318Z,,,,,,,,,,,,,,,,53,,,,,,,,,,,,,,345.65899998808163,,response,,,99,,,,,,Space,keypress(Space),,,,,---- -- ----- -- ------ - ------- --- ----------<br>------------- ------ ------ ---- ---- ------- ----- -- ----<br>-------- ------- -- ---------- --- - --- ----- ----- ----<br>---- --- --- close --- ---- ---- ------- ----- ---- -------<br>--- --- -- ----- -- --- ---- -- --- ---- -- ------ ------<br>--- ----- -- ----,68061.60000002384,68061.19999998808,67698.875,67701.69999998808,67715.541,68065.527,,31,close
screen,html.Screen,0_2_0_1_32,2021-11-25T15:01:24.822Z,,,,,,,,,,,,,,,,53,,,,,,,,,,,,,,499.47299999999814,,response,,,99,,,,,,Space,keypress(Space),,,,,---- -- ----- -- ------ - ------- --- ----------<br>------------- ------ ------ ---- ---- ------- ----- -- ----<br>-------- ------- -- ---------- --- - --- ----- ----- ----<br>---- --- --- ----- you ---- ---- ------- ----- ---- -------<br>--- --- -- ----- -- --- ---- -- --- ---- -- ------ ------<br>--- ----- -- ----,68565.5,68565,68048.861,68061.69999998808,68065.527,68582.173,,32,you
screen,html.Screen,0_2_0_1_33,2021-11-25T15:01:25.246Z,,,,,,,,,,,,,,,,53,,,,,,,,,,,,,,406.92700002384663,,response,,,99,,,,,,Space,keypress(Space),,,,,---- -- ----- -- ------ - ------- --- ----------<br>------------- ------ ------ ---- ---- ------- ----- -- ----<br>-------- ------- -- ---------- --- - --- ----- ----- ----<br>---- --- --- ----- --- feel ---- ------- ----- ---- -------<br>--- --- -- ----- -- --- ---- -- --- ---- -- ------ ------<br>--- ----- -- ----,68989.5,68989.10000002384,68565.507,68565.60000002384,68582.173,68998.823,,33,feel
screen,html.Screen,0_2_0_1_34,2021-11-25T15:01:25.638Z,,,,,,,,,,,,,,,,53,,,,,,,,,,,,,,382.17699999999604,,response,,,99,,,,,,Space,keypress(Space),,,,,---- -- ----- -- ------ - ------- --- ----------<br>------------- ------ ------ ---- ---- ------- ----- -- ----<br>-------- ------- -- ---------- --- - --- ----- ----- ----<br>---- --- --- ----- --- ---- that ------- ----- ---- -------<br>--- --- -- ----- -- --- ---- -- --- ---- -- ------ ------<br>--- ----- -- ----,69381.39999997616,69381,68982.157,68989.60000002384,68998.823,69382.141,,34,that
screen,html.Screen,0_2_0_1_35,2021-11-25T15:01:26.037Z,,,,,,,,,,,,,,,,53,,,,,,,,,,,,,,398.85899999999674,,response,,,99,,,,,,Space,keypress(Space),,,,,---- -- ----- -- ------ - ------- --- ----------<br>------------- ------ ------ ---- ---- ------- ----- -- ----<br>-------- ------- -- ---------- --- - --- ----- ----- ----<br>---- --- --- ----- --- ---- ---- matters ----- ---- -------<br>--- --- -- ----- -- --- ---- -- --- ---- -- ------ ------<br>--- ----- -- ----,69781.19999998808,69781,69365.475,69381.5,69382.141,69782.125,,35,matters
screen,html.Screen,0_2_0_1_36,2021-11-25T15:01:26.493Z,,,,,,,,,,,,,,,,53,,,,,,,,,,,,,,454.875,,response,,,99,,,,,,Space,keypress(Space),,,,,"---- -- ----- -- ------ - ------- --- ----------<br>------------- ------ ------ ---- ---- ------- ----- -- ----<br>-------- ------- -- ---------- --- - --- ----- ----- ----<br>---- --- --- ----- --- ---- ---- ------- most, ---- -------<br>--- --- -- ----- -- --- ---- -- --- ---- -- ------ ------<br>--- ----- -- ----",70237.30000001192,70237,69765.459,69781.30000001192,69782.125,70248.773,,36,"most,"
screen,html.Screen,0_2_0_1_37,2021-11-25T15:01:26.909Z,,,,,,,,,,,,,,,,53,,,,,,,,,,,,,,404.22699999999895,,response,,,99,,,,,,Space,keypress(Space),,,,,---- -- ----- -- ------ - ------- --- ----------<br>------------- ------ ------ ---- ---- ------- ----- -- ----<br>-------- ------- -- ---------- --- - --- ----- ----- ----<br>---- --- --- ----- --- ---- ---- ------- ----- it's -------<br>--- --- -- ----- -- --- ---- -- --- ---- -- ------ ------<br>--- ----- -- ----,70653.39999997616,70653,70232.107,70237.39999997616,70248.773,70665.423,,37,it's
screen,html.Screen,0_2_0_1_38,2021-11-25T15:01:27.382Z,,,,,,,,,,,,,,,,53,,,,,,,,,,,,,,459.4769999761629,,response,,,99,,,,,,Space,keypress(Space),,,,,---- -- ----- -- ------ - ------- --- ----------<br>------------- ------ ------ ---- ---- ------- ----- -- ----<br>-------- ------- -- ---------- --- - --- ----- ----- ----<br>---- --- --- ----- --- ---- ---- ------- ----- ---- whether<br>--- --- -- ----- -- --- ---- -- --- ---- -- ------ ------<br>--- ----- -- ----,71125.39999997616,71124.89999997616,70648.757,70653.5,70665.423,71132.071,,38,whether
screen,html.Screen,0_2_0_1_39,2021-11-25T15:01:27.806Z,,,,,,,,,,,,,,,,53,,,,,,,,,,,,,,417.0290000238456,,response,,,99,,,,,,Space,keypress(Space),,,,,---- -- ----- -- ------ - ------- --- ----------<br>------------- ------ ------ ---- ---- ------- ----- -- ----<br>-------- ------- -- ---------- --- - --- ----- ----- ----<br>---- --- --- ----- --- ---- ---- ------- ----- ---- -------<br>you --- -- ----- -- --- ---- -- --- ---- -- ------ ------<br>--- ----- -- ----,71549.5,71549.10000002384,71115.405,71125.5,71132.071,71565.387,,39,you
screen,html.Screen,0_2_0_1_40,2021-11-25T15:01:28.221Z,,,,,,,,,,,,,,,,53,,,,,,,,,,,,,,399.4130000119185,,response,,,99,,,,,,Space,keypress(Space),,,,,---- -- ----- -- ------ - ------- --- ----------<br>------------- ------ ------ ---- ---- ------- ----- -- ----<br>-------- ------- -- ---------- --- - --- ----- ----- ----<br>---- --- --- ----- --- ---- ---- ------- ----- ---- -------<br>--- are -- ----- -- --- ---- -- --- ---- -- ------ ------<br>--- ----- -- ----,71965.19999998808,71964.80000001192,71548.721,71549.60000002384,71565.387,71982.037,,40,are
screen,html.Screen,0_2_0_1_41,2021-11-25T15:01:28.629Z,,,,,,,,,,,,,,,,53,,,,,,,,,,,,,,390.7630000119243,,response,,,99,,,,,,Space,keypress(Space),,,,,---- -- ----- -- ------ - ------- --- ----------<br>------------- ------ ------ ---- ---- ------- ----- -- ----<br>-------- ------- -- ---------- --- - --- ----- ----- ----<br>---- --- --- ----- --- ---- ---- ------- ----- ---- -------<br>--- --- as ----- -- --- ---- -- --- ---- -- ------ ------<br>--- ----- -- ----,72373.10000002384,72372.80000001192,71965.371,71965.19999998808,71982.037,72382.021,,41,as
screen,html.Screen,0_2_0_1_42,2021-11-25T15:01:29.053Z,,,,,,,,,,,,,,,,53,,,,,,,,,,,,,,414.77900001192756,,response,,,99,,,,,,Space,keypress(Space),,,,,---- -- ----- -- ------ - ------- --- ----------<br>------------- ------ ------ ---- ---- ------- ----- -- ----<br>-------- ------- -- ---------- --- - --- ----- ----- ----<br>---- --- --- ----- --- ---- ---- ------- ----- ---- -------<br>--- --- -- close -- --- ---- -- --- ---- -- ------ ------<br>--- ----- -- ----,72797.10000002384,72796.80000001192,72365.355,72373.19999998808,72382.021,72798.671,,42,close
screen,html.Screen,0_2_0_1_43,2021-11-25T15:01:29.453Z,,,,,,,,,,,,,,,,53,,,,,,,,,,,,,,398.12900001191883,,response,,,99,,,,,,Space,keypress(Space),,,,,---- -- ----- -- ------ - ------- --- ----------<br>------------- ------ ------ ---- ---- ------- ----- -- ----<br>-------- ------- -- ---------- --- - --- ----- ----- ----<br>---- --- --- ----- --- ---- ---- ------- ----- ---- -------<br>--- --- -- ----- as --- ---- -- --- ---- -- ------ ------<br>--- ----- -- ----,73197.19999998808,73196.80000001192,72782.005,72797.30000001192,72798.671,73198.655,,43,as
screen,html.Screen,0_2_0_1_44,2021-11-25T15:01:29.989Z,,,,,,,,,,,,,,,,53,,,,,,,,,,,,,,534.1450000119221,,response,,,99,,,,,,Space,keypress(Space),,,,,---- -- ----- -- ------ - ------- --- ----------<br>------------- ------ ------ ---- ---- ------- ----- -- ----<br>-------- ------- -- ---------- --- - --- ----- ----- ----<br>---- --- --- ----- --- ---- ---- ------- ----- ---- -------<br>--- --- -- ----- -- you ---- -- --- ---- -- ------ ------<br>--- ----- -- ----,73733.19999998808,73732.80000001192,73181.989,73197.30000001192,73198.655,73748.633,,44,you
screen,html.Screen,0_2_0_1_45,2021-11-25T15:01:30.429Z,,,,,,,,,,,,,,,,53,,,,,,,,,,,,,,424.06699998807744,,response,,,99,,,,,,Space,keypress(Space),,,,,---- -- ----- -- ------ - ------- --- ----------<br>------------- ------ ------ ---- ---- ------- ----- -- ----<br>-------- ------- -- ---------- --- - --- ----- ----- ----<br>---- --- --- ----- --- ---- ---- ------- ----- ---- -------<br>--- --- -- ----- -- --- want -- --- ---- -- ------ ------<br>--- ----- -- ----,74173.30000001192,74172.69999998808,73731.967,73733.30000001192,73748.633,74181.949,,45,want
screen,html.Screen,0_2_0_1_46,2021-11-25T15:01:30.837Z,,,,,,,,,,,,,,,,53,,,,,,,,,,,,,,398.7509999880858,,response,,,99,,,,,,Space,keypress(Space),,,,,---- -- ----- -- ------ - ------- --- ----------<br>------------- ------ ------ ---- ---- ------- ----- -- ----<br>-------- ------- -- ---------- --- - --- ----- ----- ----<br>---- --- --- ----- --- ---- ---- ------- ----- ---- -------<br>--- --- -- ----- -- --- ---- to --- ---- -- ------ ------<br>--- ----- -- ----,74581.19999998808,74580.69999998808,74165.283,74173.30000001192,74181.949,74581.933,,46,to
screen,html.Screen,0_2_0_1_47,2021-11-25T15:01:31.237Z,,,,,,,,,,,,,,,,53,,,,,,,,,,,,,,398.76699998807453,,response,,,99,,,,,,Space,keypress(Space),,,,,"---- -- ----- -- ------ - ------- --- ----------<br>------------- ------ ------ ---- ---- ------- ----- -- ----<br>-------- ------- -- ---------- --- - --- ----- ----- ----<br>---- --- --- ----- --- ---- ---- ------- ----- ---- -------<br>--- --- -- ----- -- --- ---- -- be, ---- -- ------ ------<br>--- ----- -- ----",74981,74980.69999998808,74565.267,74581.30000001192,74581.933,74981.917,,47,"be,"
screen,html.Screen,0_2_0_1_48,2021-11-25T15:01:31.685Z,,,,,,,,,,,,,,,,53,,,,,,,,,,,,,,446.6830000238406,,response,,,99,,,,,,Space,keypress(Space),,,,,---- -- ----- -- ------ - ------- --- ----------<br>------------- ------ ------ ---- ---- ------- ----- -- ----<br>-------- ------- -- ---------- --- - --- ----- ----- ----<br>---- --- --- ----- --- ---- ---- ------- ----- ---- -------<br>--- --- -- ----- -- --- ---- -- --- even -- ------ ------<br>--- ----- -- ----,75429,75428.60000002384,74965.251,74981.10000002384,74981.917,75431.899,,48,even
screen,html.Screen,0_2_0_1_49,2021-11-25T15:01:32.085Z,,,,,,,,,,,,,,,,53,,,,,,,,,,,,,,396.70100002383697,,response,,,99,,,,,,Space,keypress(Space),,,,,---- -- ----- -- ------ - ------- --- ----------<br>------------- ------ ------ ---- ---- ------- ----- -- ----<br>-------- ------- -- ---------- --- - --- ----- ----- ----<br>---- --- --- ----- --- ---- ---- ------- ----- ---- -------<br>--- --- -- ----- -- --- ---- -- --- ---- if ------ ------<br>--- ----- -- ----,75828.89999997616,75828.60000002384,75415.233,75429,75431.899,75831.883,,49,if
screen,html.Screen,0_2_0_1_50,2021-11-25T15:01:32.533Z,,,,,,,,,,,,,,,,53,,,,,,,,,,,,,,444.9170000119193,,response,,,99,,,,,,Space,keypress(Space),,,,,---- -- ----- -- ------ - ------- --- ----------<br>------------- ------ ------ ---- ---- ------- ----- -- ----<br>-------- ------- -- ---------- --- - --- ----- ----- ----<br>---- --- --- ----- --- ---- ---- ------- ----- ---- -------<br>--- --- -- ----- -- --- ---- -- --- ---- -- that's ------<br>--- ----- -- ----,76277.19999998808,76276.80000001192,75815.217,75829,75831.883,76281.865,,50,that's
screen,html.Screen,0_2_0_1_51,2021-11-25T15:01:33.166Z,,,,,,,,,,,,,,,,53,,,,,,,,,,,,,,627.1349999999948,,response,,,99,,,,,,Space,keypress(Space),,,,,---- -- ----- -- ------ - ------- --- ----------<br>------------- ------ ------ ---- ---- ------- ----- -- ----<br>-------- ------- -- ---------- --- - --- ----- ----- ----<br>---- --- --- ----- --- ---- ---- ------- ----- ---- -------<br>--- --- -- ----- -- --- ---- -- --- ---- -- ------ really<br>--- ----- -- ----,76909.89999997616,76909,76265.199,76277.39999997616,76281.865,76915.173,,51,really
screen,html.Screen,0_2_0_1_52,2021-11-25T15:01:33.654Z,,,,,,,,,,,,,,,,53,,,,,,,,,,,,,,481.8270000000048,,response,,,99,,,,,,Space,keypress(Space),,,,,---- -- ----- -- ------ - ------- --- ----------<br>------------- ------ ------ ---- ---- ------- ----- -- ----<br>-------- ------- -- ---------- --- - --- ----- ----- ----<br>---- --- --- ----- --- ---- ---- ------- ----- ---- -------<br>--- --- -- ----- -- --- ---- -- --- ---- -- ------ ------<br>not ----- -- ----,77397.89999997616,77397,76898.507,76910.10000002384,76915.173,77415.153,,52,not
screen,html.Screen,0_2_0_1_53,2021-11-25T15:01:34.174Z,,,,,,,,,,,,,,,,53,,,,,,,,,,,,,,501.94700002383615,,response,,,99,,,,,,Space,keypress(Space),,,,,---- -- ----- -- ------ - ------- --- ----------<br>------------- ------ ------ ---- ---- ------- ----- -- ----<br>-------- ------- -- ---------- --- - --- ----- ----- ----<br>---- --- --- ----- --- ---- ---- ------- ----- ---- -------<br>--- --- -- ----- -- --- ---- -- --- ---- -- ------ ------<br>--- close -- ----,77917.80000001192,77917.10000002384,77398.487,77398.19999998808,77415.153,77931.799,,53,close
screen,html.Screen,0_2_0_1_54,2021-11-25T15:01:34.694Z,,,,,,,,,,,,,,,,53,,,,,,,,,,,,,,505.20100000000093,,response,,,99,,,,,,Space,keypress(Space),,,,,---- -- ----- -- ------ - ------- --- ----------<br>------------- ------ ------ ---- ---- ------- ----- -- ----<br>-------- ------- -- ---------- --- - --- ----- ----- ----<br>---- --- --- ----- --- ---- ---- ------- ----- ---- -------<br>--- --- -- ----- -- --- ---- -- --- ---- -- ------ ------<br>--- ----- at ----,78437.80000001192,78437,77915.133,77918.10000002384,77931.799,78448.445,,54,at
screen,html.Screen,0_2_0_1_55,2021-11-25T15:01:35.334Z,,,,,,,,,,,,,,,,53,,,,,,,,,,,,,,628.4549999761512,,response,,,99,,,,,,Space,keypress(Space),,,,,---- -- ----- -- ------ - ------- --- ----------<br>------------- ------ ------ ---- ---- ------- ----- -- ----<br>-------- ------- -- ---------- --- - --- ----- ----- ----<br>---- --- --- ----- --- ---- ---- ------- ----- ---- -------<br>--- --- -- ----- -- --- ---- -- --- ---- -- ------ ------<br>--- ----- -- all.,79077.69999998808,79076.89999997616,78431.779,78438,78448.445,79098.419,,55,all.
Item 99,flow.Loop,0_2_0_1,2021-11-25T15:01:35.339Z,,,,,,,,,,,,,,,,,,,,,,,,,,,,,,28527.338999976157,,completion,,,,C,,,,,,,,,,silence,,79082.89999997616,79076.89999997616,50349.569,50384.60000002384,50549.561,79098.419,,,
Question 1,html.Screen,0_2_0_2,2021-11-25T15:01:39.440Z,,,,,,,,,,,,,,,,,,,,,,,,,,,true,FALSE,,4084.0810000000056,,response,,,99,C,,,,,FALSE,click #choice-2,,,,silence,,83183.89999997616,83182.5,79081.753,79083.19999998808,79098.419,83198.255,,,
Question 2,html.Screen,0_2_0_3,2021-11-25T15:01:44.088Z,,,,,,,,,,,,,,,,,,,,,,,,,,,true,TRUE,,4631.944999988074,,response,,,99,C,,,,,TRUE,click #choice-1,,,,silence,,87831.5,87830.19999998808,83181.589,83184.19999998808,83198.255,87831.403,,,
Item 99,flow.Sequence,0_2_0,2021-11-25T15:01:44.088Z,,,,,,,,,,,,,,,,,,,,,,,,,,,,,,47463.56499998808,,completion,,,,,,,,,,,,,,,,87832,87830.19999998808,40349.969,40354.80000001192,40366.635,87831.403,,,
Holding screen,html.Screen,0_2_1_0,2021-11-25T15:01:54.071Z,,,,,,,,,,,,,,,,,,,,,,,,,,,,,,9999.599999999991,,timeout,,,,,,,,,,,,,,,,97814.80000001192,97814.337,87814.737,87832.39999997616,87831.403,97831.003,,,
screen,html.Screen,0_2_1_1_0,2021-11-25T15:01:55.165Z,,,,,,,,,,,,,,,,54,,,,,,,,,,,,,,1077.297000011924,,response,,,100,,,,,,Space,keypress(Space),,,,,At --- ---- --- ------ ----- ------- ---- -- --- ------- --<br>------- ---------- ------ -- ----- -- ----- -- ---- ------<br>--- ----- --- --- ------ -------- ----- --- ------ ----- --<br>----- ----- ---------- --- --- ------ ------ ---- -- ------<br>------- --- ------ ----- --- ---- ------- -- ---- --- --<br>------- ------,98909.19999998808,98908.30000001192,97814.337,97814.89999997616,97831.003,98914.293,,0,At
screen,html.Screen,0_2_1_1_1,2021-11-25T15:01:55.685Z,,,,,,,,,,,,,,,,54,,,,,,,,,,,,,,513.5070000119158,,response,,,100,,,,,,Space,keypress(Space),,,,,-- the ---- --- ------ ----- ------- ---- -- --- ------- --<br>------- ---------- ------ -- ----- -- ----- -- ---- ------<br>--- ----- --- --- ------ -------- ----- --- ------ ----- --<br>----- ----- ---------- --- --- ------ ------ ---- -- ------<br>------- --- ------ ----- --- ---- ------- -- ---- --- --<br>------- ------,99428.69999998808,99427.80000001192,98897.627,98909.5,98914.293,99430.939,,1,the
screen,html.Screen,0_2_1_1_2,2021-11-25T15:01:56.220Z,,,,,,,,,,,,,,,,54,,,,,,,,,,,,,,532.3610000119224,,response,,,100,,,,,,Space,keypress(Space),,,,,-- --- time --- ------ ----- ------- ---- -- --- ------- --<br>------- ---------- ------ -- ----- -- ----- -- ---- ------<br>--- ----- --- --- ------ -------- ----- --- ------ ----- --<br>----- ----- ---------- --- --- ------ ------ ---- -- ------<br>------- --- ------ ----- --- ---- ------- -- ---- --- --<br>------- ------,99963.80000001192,99963.30000001192,99414.273,99428.89999997616,99430.939,99964.251,,2,time
screen,html.Screen,0_2_1_1_3,2021-11-25T15:01:56.701Z,,,,,,,,,,,,,,,,54,,,,,,,,,,,,,,479.44899998807523,,response,,,100,,,,,,Space,keypress(Space),,,,,-- --- ---- the ------ ----- ------- ---- -- --- ------- --<br>------- ---------- ------ -- ----- -- ----- -- ---- ------<br>--- ----- --- --- ------ -------- ----- --- ------ ----- --<br>----- ----- ---------- --- --- ------ ------ ---- -- ------<br>------- --- ------ ----- --- ---- ------- -- ---- --- --<br>------- ------,100444.5,100443.69999998808,99947.585,99963.80000001192,99964.251,100447.565,,3,the
screen,html.Screen,0_2_1_1_4,2021-11-25T15:01:57.180Z,,,,,,,,,,,,,,,,54,,,,,,,,,,,,,,475.8349999761558,,response,,,100,,,,,,Space,keypress(Space),,,,,-- --- ---- --- French ----- ------- ---- -- --- ------- --<br>------- ---------- ------ -- ----- -- ----- -- ---- ------<br>--- ----- --- --- ------ -------- ----- --- ------ ----- --<br>----- ----- ---------- --- --- ------ ------ ---- -- ------<br>------- --- ------ ----- --- ---- ------- -- ---- --- --<br>------- ------,100923.60000002384,100923.39999997616,100430.899,100444.80000001192,100447.565,100930.879,,4,French
screen,html.Screen,0_2_1_1_5,2021-11-25T15:01:57.668Z,,,,,,,,,,,,,,,,54,,,,,,,,,,,,,,480.4210000119201,,response,,,100,,,,,,Space,keypress(Space),,,,,-- --- ---- --- ------ crown ------- ---- -- --- ------- --<br>------- ---------- ------ -- ----- -- ----- -- ---- ------<br>--- ----- --- --- ------ -------- ----- --- ------ ----- --<br>----- ----- ---------- --- --- ------ ------ ---- -- ------<br>------- --- ------ ----- --- ---- ------- -- ---- --- --<br>------- ------,101411.69999998808,101411.30000001192,100914.213,100923.69999998808,100930.879,101414.193,,5,crown
screen,html.Screen,0_2_1_1_6,2021-11-25T15:01:58.164Z,,,,,,,,,,,,,,,,54,,,,,,,,,,,,,,493.00699998807977,,response,,,100,,,,,,Space,keypress(Space),,,,,-- --- ---- --- ------ ----- secured ---- -- --- ------- --<br>------- ---------- ------ -- ----- -- ----- -- ---- ------<br>--- ----- --- --- ------ -------- ----- --- ------ ----- --<br>----- ----- ---------- --- --- ------ ------ ---- -- ------<br>------- --- ------ ----- --- ---- ------- -- ---- --- --<br>------- ------,101907.60000002384,101907.19999998808,101397.527,101411.80000001192,101414.193,101914.173,,6,secured
screen,html.Screen,0_2_1_1_7,2021-11-25T15:01:58.556Z,,,,,,,,,,,,,,,,54,,,,,,,,,,,,,,384.92700002384663,,response,,,100,,,,,,Space,keypress(Space),,,,,-- --- ---- --- ------ ----- ------- much -- --- ------- --<br>------- ---------- ------ -- ----- -- ----- -- ---- ------<br>--- ----- --- --- ------ -------- ----- --- ------ ----- --<br>----- ----- ---------- --- --- ------ ------ ---- -- ------<br>------- --- ------ ----- --- ---- ------- -- ---- --- --<br>------- ------,102299.60000002384,102299.10000002384,101897.507,101907.69999998808,101914.173,102314.157,,7,much
screen,html.Screen,0_2_1_1_8,2021-11-25T15:01:59.716Z,,,,,,,,,,,,,,,,54,,,,,,,,,,,,,,1144.9430000238353,,response,,,100,,,,,,Space,keypress(Space),,,,,-- --- ---- --- ------ ----- ------- ---- of --- ------- --<br>------- ---------- ------ -- ----- -- ----- -- ---- ------<br>--- ----- --- --- ------ -------- ----- --- ------ ----- --<br>----- ----- ---------- --- --- ------ ------ ---- -- ------<br>------- --- ------ ----- --- ---- ------- -- ---- --- --<br>------- ------,103459.5,103459.10000002384,102297.491,102299.60000002384,102314.157,103464.111,,8,of
screen,html.Screen,0_2_1_1_9,2021-11-25T15:02:00.220Z,,,,,,,,,,,,,,,,54,,,,,,,,,,,,,,499.3889999999956,,response,,,100,,,,,,Space,keypress(Space),,,,,-- --- ---- --- ------ ----- ------- ---- -- its ------- --<br>------- ---------- ------ -- ----- -- ----- -- ---- ------<br>--- ----- --- --- ------ -------- ----- --- ------ ----- --<br>----- ----- ---------- --- --- ------ ------ ---- -- ------<br>------- --- ------ ----- --- ---- ------- -- ---- --- --<br>------- ------,103964.39999997616,103963.5,103447.445,103459.5,103464.111,103980.757,,9,its
screen,html.Screen,0_2_1_1_10,2021-11-25T15:02:00.996Z,,,,,,,,,,,,,,,,54,,,,,,,,,,,,,,758.6429999761604,,response,,,100,,,,,,Space,keypress(Space),,,,,-- --- ---- --- ------ ----- ------- ---- -- --- revenue --<br>------- ---------- ------ -- ----- -- ----- -- ---- ------<br>--- ----- --- --- ------ -------- ----- --- ------ ----- --<br>----- ----- ---------- --- --- ------ ------ ---- -- ------<br>------- --- ------ ----- --- ---- ------- -- ---- --- --<br>------- ------,104740.39999997616,104739.39999997616,103964.091,103964.60000002384,103980.757,104747.393,,10,revenue
screen,html.Screen,0_2_1_1_11,2021-11-25T15:02:01.524Z,,,,,,,,,,,,,,,,54,,,,,,,,,,,,,,520.1070000000036,,response,,,100,,,,,,Space,keypress(Space),,,,,-- --- ---- --- ------ ----- ------- ---- -- --- ------- by<br>------- ---------- ------ -- ----- -- ----- -- ---- ------<br>--- ----- --- --- ------ -------- ----- --- ------ ----- --<br>----- ----- ---------- --- --- ------ ------ ---- -- ------<br>------- --- ------ ----- --- ---- ------- -- ---- --- --<br>------- ------,105268.30000001192,105267.5,104730.727,104740.69999998808,104747.393,105280.705,,11,by
screen,html.Screen,0_2_1_1_12,2021-11-25T15:02:02.188Z,,,,,,,,,,,,,,,,54,,,,,,,,,,,,,,650.3950000238401,,response,,,100,,,,,,Space,keypress(Space),,,,,-- --- ---- --- ------ ----- ------- ---- -- --- ------- --<br>issuing ---------- ------ -- ----- -- ----- -- ---- ------<br>--- ----- --- --- ------ -------- ----- --- ------ ----- --<br>----- ----- ---------- --- --- ------ ------ ---- -- ------<br>------- --- ------ ----- --- ---- ------- -- ---- --- --<br>------- ------,105931.69999998808,105931.10000002384,105264.039,105268.60000002384,105280.705,105947.345,,12,issuing
screen,html.Screen,0_2_1_1_13,2021-11-25T15:02:02.779Z,,,,,,,,,,,,,,,,54,,,,,,,,,,,,,,575.6549999999988,,response,,,100,,,,,,Space,keypress(Space),,,,,-- --- ---- --- ------ ----- ------- ---- -- --- ------- --<br>------- government ------ -- ----- -- ----- -- ---- ------<br>--- ----- --- --- ------ -------- ----- --- ------ ----- --<br>----- ----- ---------- --- --- ------ ------ ---- -- ------<br>------- --- ------ ----- --- ---- ------- -- ---- --- --<br>------- ------,106523.30000001192,106523,105930.679,105931.80000001192,105947.345,106530.655,,13,government
screen,html.Screen,0_2_1_1_14,2021-11-25T15:02:03.836Z,,,,,,,,,,,,,,,,54,,,,,,,,,,,,,,1048.645000011922,,response,,,100,,,,,,Space,keypress(Space),,,,,-- --- ---- --- ------ ----- ------- ---- -- --- ------- --<br>------- ---------- bonds. -- ----- -- ----- -- ---- ------<br>--- ----- --- --- ------ -------- ----- --- ------ ----- --<br>----- ----- ---------- --- --- ------ ------ ---- -- ------<br>------- --- ------ ----- --- ---- ------- -- ---- --- --<br>------- ------,107580.39999997616,107579.30000001192,106513.989,106523.39999997616,106530.655,107597.279,,14,bonds.
screen,html.Screen,0_2_1_1_15,2021-11-25T15:02:04.588Z,,,,,,,,,,,,,,,,54,,,,,,,,,,,,,,734.0210000119259,,response,,,100,,,,,,Space,keypress(Space),,,,,-- --- ---- --- ------ ----- ------- ---- -- --- ------- --<br>------- ---------- ------ In ----- -- ----- -- ---- ------<br>--- ----- --- --- ------ -------- ----- --- ------ ----- --<br>----- ----- ---------- --- --- ------ ------ ---- -- ------<br>------- --- ------ ----- --- ---- ------- -- ---- --- --<br>------- ------,108332.10000002384,108331.30000001192,107580.613,107580.69999998808,107597.279,108347.249,,15,In
screen,html.Screen,0_2_1_1_16,2021-11-25T15:02:05.205Z,,,,,,,,,,,,,,,,54,,,,,,,,,,,,,,600.5510000119248,,response,,,100,,,,,,Space,keypress(Space),,,,,"-- --- ---- --- ------ ----- ------- ---- -- --- ------- --<br>------- ---------- ------ -- 1727, -- ----- -- ---- ------<br>--- ----- --- --- ------ -------- ----- --- ------ ----- --<br>----- ----- ---------- --- --- ------ ------ ---- -- ------<br>------- --- ------ ----- --- ---- ------- -- ---- --- --<br>------- ------",108948.60000002384,108947.80000001192,108330.583,108332.39999997616,108347.249,108963.891,,16,"1727,"
screen,html.Screen,0_2_1_1_17,2021-11-25T15:02:05.988Z,,,,,,,,,,,,,,,,54,,,,,,,,,,,,,,767.2090000238386,,response,,,100,,,,,,Space,keypress(Space),,,,,-- --- ---- --- ------ ----- ------- ---- -- --- ------- --<br>------- ---------- ------ -- ----- in ----- -- ---- ------<br>--- ----- --- --- ------ -------- ----- --- ------ ----- --<br>----- ----- ---------- --- --- ------ ------ ---- -- ------<br>------- --- ------ ----- --- ---- ------- -- ---- --- --<br>------- ------,109732,109731.10000002384,108947.225,108948.89999997616,108963.891,109747.193,,17,in
screen,html.Screen,0_2_1_1_18,2021-11-25T15:02:06.931Z,,,,,,,,,,,,,,,,54,,,,,,,,,,,,,,927.5069999880798,,response,,,100,,,,,,Space,keypress(Space),,,,,-- --- ---- --- ------ ----- ------- ---- -- --- ------- --<br>------- ---------- ------ -- ----- -- order -- ---- ------<br>--- ----- --- --- ------ -------- ----- --- ------ ----- --<br>----- ----- ---------- --- --- ------ ------ ---- -- ------<br>------- --- ------ ----- --- ---- ------- -- ---- --- --<br>------- ------,110675.19999998808,110674.69999998808,109730.527,109732.30000001192,109747.193,110680.489,,18,order
screen,html.Screen,0_2_1_1_19,2021-11-25T15:02:07.700Z,,,,,,,,,,,,,,,,54,,,,,,,,,,,,,,762.5109999999986,,response,,,100,,,,,,Space,keypress(Space),,,,,-- --- ---- --- ------ ----- ------- ---- -- --- ------- --<br>------- ---------- ------ -- ----- -- ----- to ---- ------<br>--- ----- --- --- ------ -------- ----- --- ------ ----- --<br>----- ----- ---------- --- --- ------ ------ ---- -- ------<br>------- --- ------ ----- --- ---- ------- -- ---- --- --<br>------- ------,111443.89999997616,111443,110663.823,110675.30000001192,110680.489,111447.125,,19,to
screen,html.Screen,0_2_1_1_20,2021-11-25T15:02:08.228Z,,,,,,,,,,,,,,,,54,,,,,,,,,,,,,,523.875,,response,,,100,,,,,,Space,keypress(Space),,,,,-- --- ---- --- ------ ----- ------- ---- -- --- ------- --<br>------- ---------- ------ -- ----- -- ----- -- save ------<br>--- ----- --- --- ------ -------- ----- --- ------ ----- --<br>----- ----- ---------- --- --- ------ ------ ---- -- ------<br>------- --- ------ ----- --- ---- ------- -- ---- --- --<br>------- ------,111971.69999998808,111971,111430.459,111444.19999998808,111447.125,111980.437,,20,save
screen,html.Screen,0_2_1_1_21,2021-11-25T15:02:08.812Z,,,,,,,,,,,,,,,,54,,,,,,,,,,,,,,574.4629999761528,,response,,,100,,,,,,Space,keypress(Space),,,,,"-- --- ---- --- ------ ----- ------- ---- -- --- ------- --<br>------- ---------- ------ -- ----- -- ----- -- ---- money,<br>--- ----- --- --- ------ -------- ----- --- ------ ----- --<br>----- ----- ---------- --- --- ------ ------ ---- -- ------<br>------- --- ------ ----- --- ---- ------- -- ---- --- --<br>------- ------",112555.89999997616,112554.89999997616,111963.771,111971.89999997616,111980.437,112563.747,,21,"money,"
screen,html.Screen,0_2_1_1_22,2021-11-25T15:02:09.659Z,,,,,,,,,,,,,,,,54,,,,,,,,,,,,,,839.0530000119179,,response,,,100,,,,,,Space,keypress(Space),,,,,-- --- ---- --- ------ ----- ------- ---- -- --- ------- --<br>------- ---------- ------ -- ----- -- ----- -- ---- ------<br>the ----- --- --- ------ -------- ----- --- ------ ----- --<br>----- ----- ---------- --- --- ------ ------ ---- -- ------<br>------- --- ------ ----- --- ---- ------- -- ---- --- --<br>------- ------,113403.19999998808,113402.80000001192,112547.081,112556.10000002384,112563.747,113413.713,,22,the
screen,html.Screen,0_2_1_1_23,2021-11-25T15:02:10.131Z,,,,,,,,,,,,,,,,54,,,,,,,,,,,,,,460.8870000238385,,response,,,100,,,,,,Space,keypress(Space),,,,,-- --- ---- --- ------ ----- ------- ---- -- --- ------- --<br>------- ---------- ------ -- ----- -- ----- -- ---- ------<br>--- state --- --- ------ -------- ----- --- ------ ----- --<br>----- ----- ---------- --- --- ------ ------ ---- -- ------<br>------- --- ------ ----- --- ---- ------- -- ---- --- --<br>------- ------,113875.10000002384,113874.60000002384,113397.047,113403.30000001192,113413.713,113880.361,,23,state
screen,html.Screen,0_2_1_1_24,2021-11-25T15:02:10.595Z,,,,,,,,,,,,,,,,54,,,,,,,,,,,,,,458.23900002383743,,response,,,100,,,,,,Space,keypress(Space),,,,,-- --- ---- --- ------ ----- ------- ---- -- --- ------- --<br>------- ---------- ------ -- ----- -- ----- -- ---- ------<br>--- ----- cut --- ------ -------- ----- --- ------ ----- --<br>----- ----- ---------- --- --- ------ ------ ---- -- ------<br>------- --- ------ ----- --- ---- ------- -- ---- --- --<br>------- ------,114339,114338.60000002384,113863.695,113875.30000001192,113880.361,114347.009,,24,cut
screen,html.Screen,0_2_1_1_25,2021-11-25T15:02:11.052Z,,,,,,,,,,,,,,,,54,,,,,,,,,,,,,,447.89099997615267,,response,,,100,,,,,,Space,keypress(Space),,,,,-- --- ---- --- ------ ----- ------- ---- -- --- ------- --<br>------- ---------- ------ -- ----- -- ----- -- ---- ------<br>--- ----- --- the ------ -------- ----- --- ------ ----- --<br>----- ----- ---------- --- --- ------ ------ ---- -- ------<br>------- --- ------ ----- --- ---- ------- -- ---- --- --<br>------- ------,114795.80000001192,114794.89999997616,114330.343,114339.19999998808,114347.009,114796.991,,25,the
screen,html.Screen,0_2_1_1_26,2021-11-25T15:02:11.523Z,,,,,,,,,,,,,,,,54,,,,,,,,,,,,,,469.60900002384733,,response,,,100,,,,,,Space,keypress(Space),,,,,-- --- ---- --- ------ ----- ------- ---- -- --- ------- --<br>------- ---------- ------ -- ----- -- ----- -- ---- ------<br>--- ----- --- --- bonds' -------- ----- --- ------ ----- --<br>----- ----- ---------- --- --- ------ ------ ---- -- ------<br>------- --- ------ ----- --- ---- ------- -- ---- --- --<br>------- ------,115267,115266.60000002384,114780.325,114796,114796.991,115280.305,,26,bonds'
screen,html.Screen,0_2_1_1_27,2021-11-25T15:02:12.220Z,,,,,,,,,,,,,,,,54,,,,,,,,,,,,,,682.4950000119279,,response,,,100,,,,,,Space,keypress(Space),,,,,-- --- ---- --- ------ ----- ------- ---- -- --- ------- --<br>------- ---------- ------ -- ----- -- ----- -- ---- ------<br>--- ----- --- --- ------ interest ----- --- ------ ----- --<br>----- ----- ---------- --- --- ------ ------ ---- -- ------<br>------- --- ------ ----- --- ---- ------- -- ---- --- --<br>------- ------,115963.69999998808,115962.80000001192,115263.639,115267.10000002384,115280.305,115980.277,,27,interest
screen,html.Screen,0_2_1_1_28,2021-11-25T15:02:12.628Z,,,,,,,,,,,,,,,,54,,,,,,,,,,,,,,390.52300001191907,,response,,,100,,,,,,Space,keypress(Space),,,,,-- --- ---- --- ------ ----- ------- ---- -- --- ------- --<br>------- ---------- ------ -- ----- -- ----- -- ---- ------<br>--- ----- --- --- ------ -------- rate. --- ------ ----- --<br>----- ----- ---------- --- --- ------ ------ ---- -- ------<br>------- --- ------ ----- --- ---- ------- -- ---- --- --<br>------- ------,116371.69999998808,116370.80000001192,115963.611,115963.89999997616,115980.277,116380.261,,28,rate.
screen,html.Screen,0_2_1_1_29,2021-11-25T15:02:13.052Z,,,,,,,,,,,,,,,,54,,,,,,,,,,,,,,414.5390000119223,,response,,,100,,,,,,Space,keypress(Space),,,,,-- --- ---- --- ------ ----- ------- ---- -- --- ------- --<br>------- ---------- ------ -- ----- -- ----- -- ---- ------<br>--- ----- --- --- ------ -------- ----- The ------ ----- --<br>----- ----- ---------- --- --- ------ ------ ---- -- ------<br>------- --- ------ ----- --- ---- ------- -- ---- --- --<br>------- ------,116795.69999998808,116794.80000001192,116363.595,116371.80000001192,116380.261,116796.911,,29,The
screen,html.Screen,0_2_1_1_30,2021-11-25T15:02:13.476Z,,,,,,,,,,,,,,,,54,,,,,,,,,,,,,,421.88900001192815,,response,,,100,,,,,,Space,keypress(Space),,,,,-- --- ---- --- ------ ----- ------- ---- -- --- ------- --<br>------- ---------- ------ -- ----- -- ----- -- ---- ------<br>--- ----- --- --- ------ -------- ----- --- market ----- --<br>----- ----- ---------- --- --- ------ ------ ---- -- ------<br>------- --- ------ ----- --- ---- ------- -- ---- --- --<br>------- ------,117219.5,117218.80000001192,116780.245,116795.89999997616,116796.911,117230.227,,30,market
screen,html.Screen,0_2_1_1_31,2021-11-25T15:02:13.844Z,,,,,,,,,,,,,,,,54,,,,,,,,,,,,,,356.573000011922,,response,,,100,,,,,,Space,keypress(Space),,,,,-- --- ---- --- ------ ----- ------- ---- -- --- ------- --<br>------- ---------- ------ -- ----- -- ----- -- ---- ------<br>--- ----- --- --- ------ -------- ----- --- ------ value --<br>----- ----- ---------- --- --- ------ ------ ---- -- ------<br>------- --- ------ ----- --- ---- ------- -- ---- --- --<br>------- ------,117587.69999998808,117586.80000001192,117213.561,117219.89999997616,117230.227,117596.879,,31,value
screen,html.Screen,0_2_1_1_32,2021-11-25T15:02:14.275Z,,,,,,,,,,,,,,,,54,,,,,,,,,,,,,,421.5209999761573,,response,,,100,,,,,,Space,keypress(Space),,,,,-- --- ---- --- ------ ----- ------- ---- -- --- ------- --<br>------- ---------- ------ -- ----- -- ----- -- ---- ------<br>--- ----- --- --- ------ -------- ----- --- ------ ----- of<br>----- ----- ---------- --- --- ------ ------ ---- -- ------<br>------- --- ------ ----- --- ---- ------- -- ---- --- --<br>------- ------,118018.80000001192,118018.39999997616,117580.213,117588,117596.879,118030.195,,32,of
screen,html.Screen,0_2_1_1_33,2021-11-25T15:02:14.708Z,,,,,,,,,,,,,,,,54,,,,,,,,,,,,,,420.5049999880721,,response,,,100,,,,,,Space,keypress(Space),,,,,-- --- ---- --- ------ ----- ------- ---- -- --- ------- --<br>------- ---------- ------ -- ----- -- ----- -- ---- ------<br>--- ----- --- --- ------ -------- ----- --- ------ ----- --<br>these ----- ---------- --- --- ------ ------ ---- -- ------<br>------- --- ------ ----- --- ---- ------- -- ---- --- --<br>------- ------,118451.5,118450.69999998808,118013.529,118018.80000001192,118030.195,118463.511,,33,these
screen,html.Screen,0_2_1_1_34,2021-11-25T15:02:15.108Z,,,,,,,,,,,,,,,,54,,,,,,,,,,,,,,387.08900002384325,,response,,,100,,,,,,Space,keypress(Space),,,,,-- --- ---- --- ------ ----- ------- ---- -- --- ------- --<br>------- ---------- ------ -- ----- -- ----- -- ---- ------<br>--- ----- --- --- ------ -------- ----- --- ------ ----- --<br>----- bonds ---------- --- --- ------ ------ ---- -- ------<br>------- --- ------ ----- --- ---- ------- -- ---- --- --<br>------- ------,118851.5,118850.60000002384,118446.845,118451.80000001192,118463.511,118863.495,,34,bonds
screen,html.Screen,0_2_1_1_35,2021-11-25T15:02:15.556Z,,,,,,,,,,,,,,,,54,,,,,,,,,,,,,,435.6050000238465,,response,,,100,,,,,,Space,keypress(Space),,,,,"-- --- ---- --- ------ ----- ------- ---- -- --- ------- --<br>------- ---------- ------ -- ----- -- ----- -- ---- ------<br>--- ----- --- --- ------ -------- ----- --- ------ ----- --<br>----- ----- plummeted, --- --- ------ ------ ---- -- ------<br>------- --- ------ ----- --- ---- ------- -- ---- --- --<br>------- ------",119300.10000002384,119299.10000002384,118846.829,118851.69999998808,118863.495,119313.477,,35,"plummeted,"
screen,html.Screen,0_2_1_1_36,2021-11-25T15:02:16.028Z,,,,,,,,,,,,,,,,54,,,,,,,,,,,,,,457.2229999880801,,response,,,100,,,,,,Space,keypress(Space),,,,,-- --- ---- --- ------ ----- ------- ---- -- --- ------- --<br>------- ---------- ------ -- ----- -- ----- -- ---- ------<br>--- ----- --- --- ------ -------- ----- --- ------ ----- --<br>----- ----- ---------- and --- ------ ------ ---- -- ------<br>------- --- ------ ----- --- ---- ------- -- ---- --- --<br>------- ------,119771.39999997616,119770.69999998808,119296.811,119300.30000001192,119313.477,119780.125,,36,and
screen,html.Screen,0_2_1_1_37,2021-11-25T15:02:16.476Z,,,,,,,,,,,,,,,,54,,,,,,,,,,,,,,438.47500002384186,,response,,,100,,,,,,Space,keypress(Space),,,,,-- --- ---- --- ------ ----- ------- ---- -- --- ------- --<br>------- ---------- ------ -- ----- -- ----- -- ---- ------<br>--- ----- --- --- ------ -------- ----- --- ------ ----- --<br>----- ----- ---------- --- the ------ ------ ---- -- ------<br>------- --- ------ ----- --- ---- ------- -- ---- --- --<br>------- ------,120219.5,120218.60000002384,119763.459,119771.80000001192,119780.125,120230.107,,37,the
screen,html.Screen,0_2_1_1_38,2021-11-25T15:02:16.919Z,,,,,,,,,,,,,,,,54,,,,,,,,,,,,,,428.49300002383825,,response,,,100,,,,,,Space,keypress(Space),,,,,-- --- ---- --- ------ ----- ------- ---- -- --- ------- --<br>------- ---------- ------ -- ----- -- ----- -- ---- ------<br>--- ----- --- --- ------ -------- ----- --- ------ ----- --<br>----- ----- ---------- --- --- market ------ ---- -- ------<br>------- --- ------ ----- --- ---- ------- -- ---- --- --<br>------- ------,120659.39999997616,120658.60000002384,120213.441,120219.69999998808,120230.107,120663.423,,38,market
screen,html.Screen,0_2_1_1_39,2021-11-25T15:02:17.334Z,,,,,,,,,,,,,,,,54,,,,,,,,,,,,,,411.0770000000048,,response,,,100,,,,,,Space,keypress(Space),,,,,-- --- ---- --- ------ ----- ------- ---- -- --- ------- --<br>------- ---------- ------ -- ----- -- ----- -- ---- ------<br>--- ----- --- --- ------ -------- ----- --- ------ ----- --<br>----- ----- ---------- --- --- ------ became ---- -- ------<br>------- --- ------ ----- --- ---- ------- -- ---- --- --<br>------- ------,121075.39999997616,121074.5,120646.757,120659.69999998808,120663.423,121080.073,,39,became
screen,html.Screen,0_2_1_1_40,2021-11-25T15:02:17.758Z,,,,,,,,,,,,,,,,54,,,,,,,,,,,,,,418.42699999999604,,response,,,100,,,,,,Space,keypress(Space),,,,,-- --- ---- --- ------ ----- ------- ---- -- --- ------- --<br>------- ---------- ------ -- ----- -- ----- -- ---- ------<br>--- ----- --- --- ------ -------- ----- --- ------ ----- --<br>----- ----- ---------- --- --- ------ ------ wary -- ------<br>------- --- ------ ----- --- ---- ------- -- ---- --- --<br>------- ------,121499.39999997616,121498.5,121063.407,121075.69999998808,121080.073,121513.389,,40,wary
screen,html.Screen,0_2_1_1_41,2021-11-25T15:02:18.246Z,,,,,,,,,,,,,,,,54,,,,,,,,,,,,,,473.1110000000044,,response,,,100,,,,,,Space,keypress(Space),,,,,-- --- ---- --- ------ ----- ------- ---- -- --- ------- --<br>------- ---------- ------ -- ----- -- ----- -- ---- ------<br>--- ----- --- --- ------ -------- ----- --- ------ ----- --<br>----- ----- ---------- --- --- ------ ------ ---- of ------<br>------- --- ------ ----- --- ---- ------- -- ---- --- --<br>------- ------,121987.39999997616,121986.5,121496.723,121499.69999998808,121513.389,121996.703,,41,of
screen,html.Screen,0_2_1_1_42,2021-11-25T15:02:18.718Z,,,,,,,,,,,,,,,,54,,,,,,,,,,,,,,461.79700000000594,,response,,,100,,,,,,Space,keypress(Space),,,,,-- --- ---- --- ------ ----- ------- ---- -- --- ------- --<br>------- ---------- ------ -- ----- -- ----- -- ---- ------<br>--- ----- --- --- ------ -------- ----- --- ------ ----- --<br>----- ----- ---------- --- --- ------ ------ ---- -- French<br>------- --- ------ ----- --- ---- ------- -- ---- --- --<br>------- ------,122459.30000001192,122458.5,121980.037,121987.60000002384,121996.703,122463.351,,42,French
screen,html.Screen,0_2_1_1_43,2021-11-25T15:02:19.150Z,,,,,,,,,,,,,,,,54,,,,,,,,,,,,,,427.04899997616303,,response,,,100,,,,,,Space,keypress(Space),,,,,-- --- ---- --- ------ ----- ------- ---- -- --- ------- --<br>------- ---------- ------ -- ----- -- ----- -- ---- ------<br>--- ----- --- --- ------ -------- ----- --- ------ ----- --<br>----- ----- ---------- --- --- ------ ------ ---- -- ------<br>credit. --- ------ ----- --- ---- ------- -- ---- --- --<br>------- ------,122891.19999998808,122890.39999997616,122446.685,122459.60000002384,122463.351,122896.667,,43,credit.
screen,html.Screen,0_2_1_1_44,2021-11-25T15:02:19.590Z,,,,,,,,,,,,,,,,54,,,,,,,,,,,,,,433.8329999999987,,response,,,100,,,,,,Space,keypress(Space),,,,,-- --- ---- --- ------ ----- ------- ---- -- --- ------- --<br>------- ---------- ------ -- ----- -- ----- -- ---- ------<br>--- ----- --- --- ------ -------- ----- --- ------ ----- --<br>----- ----- ---------- --- --- ------ ------ ---- -- ------<br>------- The ------ ----- --- ---- ------- -- ---- --- --<br>------- ------,123331.30000001192,123330.5,122880.001,122891.60000002384,122896.667,123346.649,,44,The
screen,html.Screen,0_2_1_1_45,2021-11-25T15:02:19.990Z,,,,,,,,,,,,,,,,54,,,,,,,,,,,,,,383.75099997615325,,response,,,100,,,,,,Space,keypress(Space),,,,,-- --- ---- --- ------ ----- ------- ---- -- --- ------- --<br>------- ---------- ------ -- ----- -- ----- -- ---- ------<br>--- ----- --- --- ------ -------- ----- --- ------ ----- --<br>----- ----- ---------- --- --- ------ ------ ---- -- ------<br>------- --- French ----- --- ---- ------- -- ---- --- --<br>------- ------,123731.19999998808,123730.39999997616,123329.983,123331.60000002384,123346.649,123746.633,,45,French
screen,html.Screen,0_2_1_1_46,2021-11-25T15:02:20.462Z,,,,,,,,,,,,,,,,54,,,,,,,,,,,,,,455.6670000119193,,response,,,100,,,,,,Space,keypress(Space),,,,,-- --- ---- --- ------ ----- ------- ---- -- --- ------- --<br>------- ---------- ------ -- ----- -- ----- -- ---- ------<br>--- ----- --- --- ------ -------- ----- --- ------ ----- --<br>----- ----- ---------- --- --- ------ ------ ---- -- ------<br>------- --- ------ state --- ---- ------- -- ---- --- --<br>------- ------,124203,124202.30000001192,123729.967,123731.5,123746.633,124213.281,,46,state
screen,html.Screen,0_2_1_1_47,2021-11-25T15:02:20.845Z,,,,,,,,,,,,,,,,54,,,,,,,,,,,,,,372.61899997615546,,response,,,100,,,,,,Space,keypress(Space),,,,,-- --- ---- --- ------ ----- ------- ---- -- --- ------- --<br>------- ---------- ------ -- ----- -- ----- -- ---- ------<br>--- ----- --- --- ------ -------- ----- --- ------ ----- --<br>----- ----- ---------- --- --- ------ ------ ---- -- ------<br>------- --- ------ ----- was ---- ------- -- ---- --- --<br>------- ------,124586.30000001192,124585.89999997616,124196.615,124203.30000001192,124213.281,124596.599,,47,was
screen,html.Screen,0_2_1_1_48,2021-11-25T15:02:21.285Z,,,,,,,,,,,,,,,,54,,,,,,,,,,,,,,429.5010000238399,,response,,,100,,,,,,Space,keypress(Space),,,,,-- --- ---- --- ------ ----- ------- ---- -- --- ------- --<br>------- ---------- ------ -- ----- -- ----- -- ---- ------<br>--- ----- --- --- ------ -------- ----- --- ------ ----- --<br>----- ----- ---------- --- --- ------ ------ ---- -- ------<br>------- --- ------ ----- --- left ------- -- ---- --- --<br>------- ------,125026.30000001192,125026.10000002384,124579.933,124586.30000001192,124596.599,125029.915,,48,left
screen,html.Screen,0_2_1_1_49,2021-11-25T15:02:21.741Z,,,,,,,,,,,,,,,,54,,,,,,,,,,,,,,451.98499997616454,,response,,,100,,,,,,Space,keypress(Space),,,,,-- --- ---- --- ------ ----- ------- ---- -- --- ------- --<br>------- ---------- ------ -- ----- -- ----- -- ---- ------<br>--- ----- --- --- ------ -------- ----- --- ------ ----- --<br>----- ----- ---------- --- --- ------ ------ ---- -- ------<br>------- --- ------ ----- --- ---- without -- ---- --- --<br>------- ------,125482.30000001192,125481.89999997616,125013.249,125026.39999997616,125029.915,125496.563,,49,without
screen,html.Screen,0_2_1_1_50,2021-11-25T15:02:22.733Z,,,,,,,,,,,,,,,,54,,,,,,,,,,,,,,977.3369999761635,,response,,,100,,,,,,Space,keypress(Space),,,,,-- --- ---- --- ------ ----- ------- ---- -- --- ------- --<br>------- ---------- ------ -- ----- -- ----- -- ---- ------<br>--- ----- --- --- ------ -------- ----- --- ------ ----- --<br>----- ----- ---------- --- --- ------ ------ ---- -- ------<br>------- --- ------ ----- --- ---- ------- an ---- --- --<br>------- ------,126474.19999998808,126473.89999997616,125479.897,125482.39999997616,125496.563,126479.857,,50,an
screen,html.Screen,0_2_1_1_51,2021-11-25T15:02:23.182Z,,,,,,,,,,,,,,,,54,,,,,,,,,,,,,,442.4430000119173,,response,,,100,,,,,,Space,keypress(Space),,,,,-- --- ---- --- ------ ----- ------- ---- -- --- ------- --<br>------- ---------- ------ -- ----- -- ----- -- ---- ------<br>--- ----- --- --- ------ -------- ----- --- ------ ----- --<br>----- ----- ---------- --- --- ------ ------ ---- -- ------<br>------- --- ------ ----- --- ---- ------- -- easy --- --<br>------- ------,126923.10000002384,126922.30000001192,126463.191,126474.30000001192,126479.857,126929.839,,51,easy
screen,html.Screen,0_2_1_1_52,2021-11-25T15:02:23.598Z,,,,,,,,,,,,,,,,54,,,,,,,,,,,,,,408.36099998807185,,response,,,100,,,,,,Space,keypress(Space),,,,,-- --- ---- --- ------ ----- ------- ---- -- --- ------- --<br>------- ---------- ------ -- ----- -- ----- -- ---- ------<br>--- ----- --- --- ------ -------- ----- --- ------ ----- --<br>----- ----- ---------- --- --- ------ ------ ---- -- ------<br>------- --- ------ ----- --- ---- ------- -- ---- way --<br>------- ------,127339.10000002384,127338.19999998808,126913.173,126923.30000001192,126929.839,127346.489,,52,way
screen,html.Screen,0_2_1_1_53,2021-11-25T15:02:24.038Z,,,,,,,,,,,,,,,,54,,,,,,,,,,,,,,431.61100002384046,,response,,,100,,,,,,Space,keypress(Space),,,,,-- --- ---- --- ------ ----- ------- ---- -- --- ------- --<br>------- ---------- ------ -- ----- -- ----- -- ---- ------<br>--- ----- --- --- ------ -------- ----- --- ------ ----- --<br>----- ----- ---------- --- --- ------ ------ ---- -- ------<br>------- --- ------ ----- --- ---- ------- -- ---- --- of<br>------- ------,127778.89999997616,127778.10000002384,127329.823,127339.30000001192,127346.489,127796.471,,53,of
screen,html.Screen,0_2_1_1_54,2021-11-25T15:02:24.478Z,,,,,,,,,,,,,,,,54,,,,,,,,,,,,,,421.8290000119159,,response,,,100,,,,,,Space,keypress(Space),,,,,-- --- ---- --- ------ ----- ------- ---- -- --- ------- --<br>------- ---------- ------ -- ----- -- ----- -- ---- ------<br>--- ----- --- --- ------ -------- ----- --- ------ ----- --<br>----- ----- ---------- --- --- ------ ------ ---- -- ------<br>------- --- ------ ----- --- ---- ------- -- ---- --- --<br>raising ------,128219.10000002384,128218.30000001192,127779.805,127779.19999998808,127796.471,128229.787,,54,raising
screen,html.Screen,0_2_1_1_55,2021-11-25T15:02:24.878Z,,,,,,,,,,,,,,,,54,,,,,,,,,,,,,,388.31300002384523,,response,,,100,,,,,,Space,keypress(Space),,,,,-- --- ---- --- ------ ----- ------- ---- -- --- ------- --<br>------- ---------- ------ -- ----- -- ----- -- ---- ------<br>--- ----- --- --- ------ -------- ----- --- ------ ----- --<br>----- ----- ---------- --- --- ------ ------ ---- -- ------<br>------- --- ------ ----- --- ---- ------- -- ---- --- --<br>------- money.,128618.89999997616,128618.10000002384,128213.121,128219.5,128229.787,128629.771,,55,money.
Item 100,flow.Loop,0_2_1_1,2021-11-25T15:02:24.878Z,,,,,,,,,,,,,,,,,,,,,,,,,,,,,,30787.097000023845,,completion,,,,C,,,,,,,,,,silence,,128619.39999997616,128618.10000002384,97814.337,97814.89999997616,97831.003,128629.771,,,
Question 1,html.Screen,0_2_1_2,2021-11-25T15:02:30.159Z,,,,,,,,,,,,,,,,,,,,,,,,,,,true,TRUE,,5269.529000011928,,response,,,100,C,,,,,TRUE,click #choice-1,,,,silence,,133900,133899.30000001192,128613.105,128619.60000002384,128629.771,133912.893,,,
Question 2,html.Screen,0_2_1_3,2021-11-25T15:02:33.919Z,,,,,,,,,,,,,,,,,,,,,,,,,,,true,FALSE,,3746.207000023831,,response,,,100,C,,,,,FALSE,click #choice-2,,,,silence,,137659.69999998808,137659.10000002384,133896.227,133900,133912.893,137662.743,,,
Item 100,flow.Sequence,0_2_1,2021-11-25T15:02:33.919Z,,,,,,,,,,,,,,,,,,,,,,,,,,,,,,49827.697000023836,,completion,,,,,,,,,,,,,,,,137659.89999997616,137659.10000002384,87814.737,87832.19999998808,87831.403,137662.743,,,
End of Practice,html.Page,0_2_2,2021-11-25T15:02:36.767Z,,,,,,,,,,,,,,,,,,,,,,,,,,,,,,2844.9569999880914,,form submission,,,,,,,,,,,,,,,,140507.89999997616,140507.69999998808,137646.077,137660,137662.743,140512.629,,,
Practice,flow.Sequence,0_2,2021-11-25T15:02:36.767Z,,,,,,,,,,,,,,,,,,,,,,,,,,,,,,100141.06499998807,,completion,,,,,,,,,,,,,,,,140508.10000002384,140507.69999998808,40349.969,40354.69999998808,40366.635,140512.629,,,
Trap_instruction,html.Page,0_3_0,2021-11-25T15:02:41.719Z,,,,,,,,,,,,,,,,,,,,,,,,,,,,,,4946.770999976172,,form submission,,,,,,,,,,,,,,,,145459.69999998808,145459.39999997616,140495.963,140508.10000002384,140512.629,145645.757,,,
trap_trial,html.Screen,0_3_1,2021-11-25T15:02:45.278Z,,,,,,,,,,,,,,,,,,,,,,,,,,,true,1,,3372.8430000238295,,response,,,,,,,,,1,click #choice-1,,,,,,149019.19999998808,149018.60000002384,145445.765,145459.80000001192,145645.757,149028.955,,,
end of trap trial,html.Page,0_3_2,2021-11-25T15:02:46.984Z,,,,,,,,,,,,,,,,,,,,,,,,,,,,,,1695.444999976171,,form submission,,,,,,,,,,,,,,,,150724.80000001192,150724.39999997616,149012.289,149019.30000001192,149028.955,150745.553,,,
Trap 1,flow.Sequence,0_3,2021-11-25T15:02:46.984Z,,,,,,,,,,,,,,,,,,,,,,,,,,,,,,10211.770999976172,,completion,,,,,,,,,,,,,,,,150725.30000001192,150724.39999997616,140495.963,140508.10000002384,140512.629,150745.553,,,
Standby,html.Page,0_4_0,2021-11-25T15:02:54.989Z,,,,,,,,,,,,,,,,,,,,,,,,,,,,,,7999.679999999993,,timeout,,,,,,,,,,,,,,,,158730.19999998808,158728.567,150712.221,150725.60000002384,150745.553,158745.233,,,
Holding screen,html.Screen,0_4_1_0_0,2021-11-25T15:03:01.989Z,,,,,,,,,,,,,,,,,,,,,,,,,,,,,,6999.720000000001,,timeout,,,,,,,,,,,,,,,,165729.69999998808,165728.287,158728.567,158730.60000002384,158745.233,165744.953,,,
screen,html.Screen,0_4_1_0_1_0,2021-11-25T15:03:03.061Z,,,,,,,,,,,,,,,,51,,,,,,,,,,,,,,1055.6470000238332,,response,,,13,C,,,,,Space,keypress(Space),,,,instrumental,American -------- --- --- ---- --- --- ------ -- --------<br>---- --------- --- ------- ------------ ---------- ---------<br>--- ---------- ------- ---------- ------- -- -------- ----<br>---- --- ------ ----- ------ -- ---- --- ----- -- - -------<br>-------- -- --- --- -- ----- ----------- ----- -----------<br>---- --- ---------- --- ---- --- -- ----------,166801.60000002384,166800.60000002384,165728.287,165730.10000002384,165744.953,166811.577,,0,American
screen,html.Screen,0_4_1_0_1_1,2021-11-25T15:03:03.668Z,,,,,,,,,,,,,,,,51,,,,,,,,,,,,,,596.4230000000098,,response,,,13,C,,,,,Space,keypress(Space),,,,instrumental,-------- industry --- --- ---- --- --- ------ -- --------<br>---- --------- --- ------- ------------ ---------- ---------<br>--- ---------- ------- ---------- ------- -- -------- ----<br>---- --- ------ ----- ------ -- ---- --- ----- -- - -------<br>-------- -- --- --- -- ----- ----------- ----- -----------<br>---- --- ---------- --- ---- --- -- ----------,167409.19999998808,167408,166794.911,166802,166811.577,167411.553,,1,industry
screen,html.Screen,0_4_1_0_1_2,2021-11-25T15:03:04.188Z,,,,,,,,,,,,,,,,51,,,,,,,,,,,,,,516.4469999999856,,response,,,13,C,,,,,Space,keypress(Space),,,,instrumental,-------- -------- may --- ---- --- --- ------ -- --------<br>---- --------- --- ------- ------------ ---------- ---------<br>--- ---------- ------- ---------- ------- -- -------- ----<br>---- --- ------ ----- ------ -- ---- --- ----- -- - -------<br>-------- -- --- --- -- ----- ----------- ----- -----------<br>---- --- ---------- --- ---- --- -- ----------,167928.89999997616,167928,167394.887,167409.5,167411.553,167944.865,,2,may
screen,html.Screen,0_4_1_0_1_3,2021-11-25T15:03:04.556Z,,,,,,,,,,,,,,,,51,,,,,,,,,,,,,,351.1350000000093,,response,,,13,C,,,,,Space,keypress(Space),,,,instrumental,-------- -------- --- not ---- --- --- ------ -- --------<br>---- --------- --- ------- ------------ ---------- ---------<br>--- ---------- ------- ---------- ------- -- -------- ----<br>---- --- ------ ----- ------ -- ---- --- ----- -- - -------<br>-------- -- --- --- -- ----- ----------- ----- -----------<br>---- --- ---------- --- ---- --- -- ----------,168296.80000001192,168296,167928.199,167929.19999998808,167944.865,168311.517,,3,not
screen,html.Screen,0_4_1_0_1_4,2021-11-25T15:03:04.948Z,,,,,,,,,,,,,,,,51,,,,,,,,,,,,,,376.48300000000745,,response,,,13,C,,,,,Space,keypress(Space),,,,instrumental,-------- -------- --- --- know --- --- ------ -- --------<br>---- --------- --- ------- ------------ ---------- ---------<br>--- ---------- ------- ---------- ------- -- -------- ----<br>---- --- ------ ----- ------ -- ---- --- ----- -- - -------<br>-------- -- --- --- -- ----- ----------- ----- -----------<br>---- --- ---------- --- ---- --- -- ----------,168688.80000001192,168688,168294.851,168297.19999998808,168311.517,168694.835,,4,know
screen,html.Screen,0_4_1_0_1_5,2021-11-25T15:03:05.436Z,,,,,,,,,,,,,,,,51,,,,,,,,,,,,,,481.0649999761663,,response,,,13,C,,,,,Space,keypress(Space),,,,instrumental,"-------- -------- --- --- ---- it, --- ------ -- --------<br>---- --------- --- ------- ------------ ---------- ---------<br>--- ---------- ------- ---------- ------- -- -------- ----<br>---- --- ------ ----- ------ -- ---- --- ----- -- - -------<br>-------- -- --- --- -- ----- ----------- ----- -----------<br>---- --- ---------- --- ---- --- -- ----------",169176.80000001192,169175.89999997616,168678.169,168689.19999998808,168694.835,169178.149,,5,"it,"
screen,html.Screen,0_4_1_0_1_6,2021-11-25T15:03:05.900Z,,,,,,,,,,,,,,,,51,,,,,,,,,,,,,,461.75099997615325,,response,,,13,C,,,,,Space,keypress(Space),,,,instrumental,-------- -------- --- --- ---- --- but ------ -- --------<br>---- --------- --- ------- ------------ ---------- ---------<br>--- ---------- ------- ---------- ------- -- -------- ----<br>---- --- ------ ----- ------ -- ---- --- ----- -- - -------<br>-------- -- --- --- -- ----- ----------- ----- -----------<br>---- --- ---------- --- ---- --- -- ----------,169640.80000001192,169639.89999997616,169161.483,169177.19999998808,169178.149,169644.797,,6,but
screen,html.Screen,0_4_1_0_1_7,2021-11-25T15:03:06.436Z,,,,,,,,,,,,,,,,51,,,,,,,,,,,,,,531.1029999761668,,response,,,13,C,,,,,Space,keypress(Space),,,,instrumental,-------- -------- --- --- ---- --- --- debate -- --------<br>---- --------- --- ------- ------------ ---------- ---------<br>--- ---------- ------- ---------- ------- -- -------- ----<br>---- --- ------ ----- ------ -- ---- --- ----- -- - -------<br>-------- -- --- --- -- ----- ----------- ----- -----------<br>---- --- ---------- --- ---- --- -- ----------,170176.69999998808,170175.89999997616,169628.131,169641.10000002384,169644.797,170178.109,,7,debate
screen,html.Screen,0_4_1_0_1_8,2021-11-25T15:03:06.852Z,,,,,,,,,,,,,,,,51,,,,,,,,,,,,,,413.7909999761614,,response,,,13,C,,,,,Space,keypress(Space),,,,instrumental,-------- -------- --- --- ---- --- --- ------ in --------<br>---- --------- --- ------- ------------ ---------- ---------<br>--- ---------- ------- ---------- ------- -- -------- ----<br>---- --- ------ ----- ------ -- ---- --- ----- -- - -------<br>-------- -- --- --- -- ----- ----------- ----- -----------<br>---- --- ---------- --- ---- --- -- ----------,170592.69999998808,170591.89999997616,170161.443,170177,170178.109,170594.759,,8,in
screen,html.Screen,0_4_1_0_1_9,2021-11-25T15:03:07.284Z,,,,,,,,,,,,,,,,51,,,,,,,,,,,,,,428.94099998808815,,response,,,13,C,,,,,Space,keypress(Space),,,,instrumental,-------- -------- --- --- ---- --- --- ------ -- Congress<br>---- --------- --- ------- ------------ ---------- ---------<br>--- ---------- ------- ---------- ------- -- -------- ----<br>---- --- ------ ----- ------ -- ---- --- ----- -- - -------<br>-------- -- --- --- -- ----- ----------- ----- -----------<br>---- --- ---------- --- ---- --- -- ----------,171024.60000002384,171023.69999998808,170578.093,170593,170594.759,171028.075,,9,Congress
screen,html.Screen,0_4_1_0_1_10,2021-11-25T15:03:07.828Z,,,,,,,,,,,,,,,,51,,,,,,,,,,,,,,539.7250000119093,,response,,,13,C,,,,,Space,keypress(Space),,,,instrumental,-------- -------- --- --- ---- --- --- ------ -- --------<br>over --------- --- ------- ------------ ---------- ---------<br>--- ---------- ------- ---------- ------- -- -------- ----<br>---- --- ------ ----- ------ -- ---- --- ----- -- - -------<br>-------- -- --- --- -- ----- ----------- ----- -----------<br>---- --- ---------- --- ---- --- -- ----------,171568.60000002384,171567.80000001192,171011.409,171024.80000001192,171028.075,171578.053,,10,over
screen,html.Screen,0_4_1_0_1_11,2021-11-25T15:03:08.364Z,,,,,,,,,,,,,,,,51,,,,,,,,,,,,,,525.7470000119065,,response,,,13,C,,,,,Space,keypress(Space),,,,instrumental,-------- -------- --- --- ---- --- --- ------ -- --------<br>---- reforming --- ------- ------------ ---------- ---------<br>--- ---------- ------- ---------- ------- -- -------- ----<br>---- --- ------ ----- ------ -- ---- --- ----- -- - -------<br>-------- -- --- --- -- ----- ----------- ----- -----------<br>---- --- ---------- --- ---- --- -- ----------,172104.69999998808,172103.80000001192,171561.387,171568.89999997616,171578.053,172111.365,,11,reforming
screen,html.Screen,0_4_1_0_1_12,2021-11-25T15:03:08.860Z,,,,,,,,,,,,,,,,51,,,,,,,,,,,,,,488.3349999880884,,response,,,13,C,,,,,Space,keypress(Space),,,,instrumental,-------- -------- --- --- ---- --- --- ------ -- --------<br>---- --------- the ------- ------------ ---------- ---------<br>--- ---------- ------- ---------- ------- -- -------- ----<br>---- --- ------ ----- ------ -- ---- --- ----- -- - -------<br>-------- -- --- --- -- ----- ----------- ----- -----------<br>---- --- ---------- --- ---- --- -- ----------,172600.60000002384,172599.69999998808,172094.699,172105,172111.365,172611.345,,12,the
screen,html.Screen,0_4_1_0_1_13,2021-11-25T15:03:09.420Z,,,,,,,,,,,,,,,,51,,,,,,,,,,,,,,548.3549999880779,,response,,,13,C,,,,,Space,keypress(Space),,,,instrumental,-------- -------- --- --- ---- --- --- ------ -- --------<br>---- --------- --- federal ------------ ---------- ---------<br>--- ---------- ------- ---------- ------- -- -------- ----<br>---- --- ------ ----- ------ -- ---- --- ----- -- - -------<br>-------- -- --- --- -- ----- ----------- ----- -----------<br>---- --- ---------- --- ---- --- -- ----------,173160.60000002384,173159.69999998808,172594.679,172601,172611.345,173177.989,,13,federal
screen,html.Screen,0_4_1_0_1_14,2021-11-25T15:03:09.964Z,,,,,,,,,,,,,,,,51,,,,,,,,,,,,,,525.6110000238405,,response,,,13,C,,,,,Space,keypress(Space),,,,instrumental,-------- -------- --- --- ---- --- --- ------ -- --------<br>---- --------- --- ------- government's ---------- ---------<br>--- ---------- ------- ---------- ------- -- -------- ----<br>---- --- ------ ----- ------ -- ---- --- ----- -- - -------<br>-------- -- --- --- -- ----- ----------- ----- -----------<br>---- --- ---------- --- ---- --- -- ----------,173704.60000002384,173703.60000002384,173161.323,173160.89999997616,173177.989,173711.301,,14,government's
screen,html.Screen,0_4_1_0_1_15,2021-11-25T15:03:10.596Z,,,,,,,,,,,,,,,,51,,,,,,,,,,,,,,624.2990000238351,,response,,,13,C,,,,,Space,keypress(Space),,,,instrumental,-------- -------- --- --- ---- --- --- ------ -- --------<br>---- --------- --- ------- ------------ regulatory ---------<br>--- ---------- ------- ---------- ------- -- -------- ----<br>---- --- ------ ----- ------ -- ---- --- ----- -- - -------<br>-------- -- --- --- -- ----- ----------- ----- -----------<br>---- --- ---------- --- ---- --- -- ----------,174336.39999997616,174335.60000002384,173694.635,173704.80000001192,173711.301,174344.609,,15,regulatory
screen,html.Screen,0_4_1_0_1_16,2021-11-25T15:03:11.564Z,,,,,,,,,,,,,,,,51,,,,,,,,,,,,,,958.9910000238451,,response,,,13,C,,,,,Space,keypress(Space),,,,instrumental,-------- -------- --- --- ---- --- --- ------ -- --------<br>---- --------- --- ------- ------------ ---------- apparatus<br>--- ---------- ------- ---------- ------- -- -------- ----<br>---- --- ------ ----- ------ -- ---- --- ----- -- - -------<br>-------- -- --- --- -- ----- ----------- ----- -----------<br>---- --- ---------- --- ---- --- -- ----------,175304.5,175303.60000002384,174327.943,174336.69999998808,174344.609,175311.237,,16,apparatus
screen,html.Screen,0_4_1_0_1_17,2021-11-25T15:03:12.140Z,,,,,,,,,,,,,,,,51,,,,,,,,,,,,,,568.2630000000063,,response,,,13,C,,,,,Space,keypress(Space),,,,instrumental,-------- -------- --- --- ---- --- --- ------ -- --------<br>---- --------- --- ------- ------------ ---------- ---------<br>may ---------- ------- ---------- ------- -- -------- ----<br>---- --- ------ ----- ------ -- ---- --- ----- -- - -------<br>-------- -- --- --- -- ----- ----------- ----- -----------<br>---- --- ---------- --- ---- --- -- ----------,175880.5,175879.5,175294.571,175304.89999997616,175311.237,175894.547,,17,may
screen,html.Screen,0_4_1_0_1_18,2021-11-25T15:03:12.756Z,,,,,,,,,,,,,,,,51,,,,,,,,,,,,,,601.0530000238505,,response,,,13,C,,,,,Space,keypress(Space),,,,instrumental,-------- -------- --- --- ---- --- --- ------ -- --------<br>---- --------- --- ------- ------------ ---------- ---------<br>--- profoundly ------- ---------- ------- -- -------- ----<br>---- --- ------ ----- ------ -- ---- --- ----- -- - -------<br>-------- -- --- --- -- ----- ----------- ----- -----------<br>---- --- ---------- --- ---- --- -- ----------,176496.5,176495.60000002384,175877.881,175880.80000001192,175894.547,176511.189,,18,profoundly
screen,html.Screen,0_4_1_0_1_19,2021-11-25T15:03:13.396Z,,,,,,,,,,,,,,,,51,,,,,,,,,,,,,,624.810999999987,,response,,,13,C,,,,,Space,keypress(Space),,,,instrumental,-------- -------- --- --- ---- --- --- ------ -- --------<br>---- --------- --- ------- ------------ ---------- ---------<br>--- ---------- improve ---------- ------- -- -------- ----<br>---- --- ------ ----- ------ -- ---- --- ----- -- - -------<br>-------- -- --- --- -- ----- ----------- ----- -----------<br>---- --- ---------- --- ---- --- -- ----------,177136.80000001192,177136,176494.523,176496.80000001192,176511.189,177144.497,,19,improve
screen,html.Screen,0_4_1_0_1_20,2021-11-25T15:03:14.715Z,,,,,,,,,,,,,,,,51,,,,,,,,,,,,,,1310.9029999761551,,response,,,13,C,,,,,Space,keypress(Space),,,,instrumental,-------- -------- --- --- ---- --- --- ------ -- --------<br>---- --------- --- ------- ------------ ---------- ---------<br>--- ---------- ------- companies' ------- -- -------- ----<br>---- --- ------ ----- ------ -- ---- --- ----- -- - -------<br>-------- -- --- --- -- ----- ----------- ----- -----------<br>---- --- ---------- --- ---- --- -- ----------,178456.30000001192,178455.39999997616,177127.831,177137.10000002384,177144.497,178461.111,,20,companies'
screen,html.Screen,0_4_1_0_1_21,2021-11-25T15:03:15.227Z,,,,,,,,,,,,,,,,51,,,,,,,,,,,,,,506.2889999761537,,response,,,13,C,,,,,Space,keypress(Space),,,,instrumental,-------- -------- --- --- ---- --- --- ------ -- --------<br>---- --------- --- ------- ------------ ---------- ---------<br>--- ---------- ------- ---------- ability -- -------- ----<br>---- --- ------ ----- ------ -- ---- --- ----- -- - -------<br>-------- -- --- --- -- ----- ----------- ----- -----------<br>---- --- ---------- --- ---- --- -- ----------,178968.19999998808,178967.39999997616,178444.445,178456.5,178461.111,178977.757,,21,ability
screen,html.Screen,0_4_1_0_1_22,2021-11-25T15:03:15.715Z,,,,,,,,,,,,,,,,51,,,,,,,,,,,,,,477.6429999761458,,response,,,13,C,,,,,Space,keypress(Space),,,,instrumental,-------- -------- --- --- ---- --- --- ------ -- --------<br>---- --------- --- ------- ------------ ---------- ---------<br>--- ---------- ------- ---------- ------- to -------- ----<br>---- --- ------ ----- ------ -- ---- --- ----- -- - -------<br>-------- -- --- --- -- ----- ----------- ----- -----------<br>---- --- ---------- --- ---- --- -- ----------,179456.19999998808,179455.39999997616,178961.091,178968.5,178977.757,179461.071,,22,to
screen,html.Screen,0_4_1_0_1_23,2021-11-25T15:03:16.148Z,,,,,,,,,,,,,,,,51,,,,,,,,,,,,,,426.22900001192465,,response,,,13,C,,,,,Space,keypress(Space),,,,instrumental,-------- -------- --- --- ---- --- --- ------ -- --------<br>---- --------- --- ------- ------------ ---------- ---------<br>--- ---------- ------- ---------- ------- -- survive. ----<br>---- --- ------ ----- ------ -- ---- --- ----- -- - -------<br>-------- -- --- --- -- ----- ----------- ----- -----------<br>---- --- ---------- --- ---- --- -- ----------,179888.39999997616,179887.30000001192,179444.405,179456.5,179461.071,179894.387,,23,survive.
screen,html.Screen,0_4_1_0_1_24,2021-11-25T15:03:16.571Z,,,,,,,,,,,,,,,,51,,,,,,,,,,,,,,416.8129999880912,,response,,,13,C,,,,,Space,keypress(Space),,,,instrumental,-------- -------- --- --- ---- --- --- ------ -- --------<br>---- --------- --- ------- ------------ ---------- ---------<br>--- ---------- ------- ---------- ------- -- -------- This<br>---- --- ------ ----- ------ -- ---- --- ----- -- - -------<br>-------- -- --- --- -- ----- ----------- ----- -----------<br>---- --- ---------- --- ---- --- -- ----------,180312.19999998808,180311.19999998808,179877.721,179888.69999998808,179894.387,180327.703,,24,This
screen,html.Screen,0_4_1_0_1_25,2021-11-25T15:03:17.023Z,,,,,,,,,,,,,,,,51,,,,,,,,,,,,,,439.5970000119123,,response,,,13,C,,,,,Space,keypress(Space),,,,instrumental,-------- -------- --- --- ---- --- --- ------ -- --------<br>---- --------- --- ------- ------------ ---------- ---------<br>--- ---------- ------- ---------- ------- -- -------- ----<br>week --- ------ ----- ------ -- ---- --- ----- -- - -------<br>-------- -- --- --- -- ----- ----------- ----- -----------<br>---- --- ---------- --- ---- --- -- ----------,180768.10000002384,180767.30000001192,180311.037,180312.39999997616,180327.703,180777.685,,25,week
screen,html.Screen,0_4_1_0_1_26,2021-11-25T15:03:17.511Z,,,,,,,,,,,,,,,,51,,,,,,,,,,,,,,477.61500001192326,,response,,,13,C,,,,,Space,keypress(Space),,,,instrumental,-------- -------- --- --- ---- --- --- ------ -- --------<br>---- --------- --- ------- ------------ ---------- ---------<br>--- ---------- ------- ---------- ------- -- -------- ----<br>---- the ------ ----- ------ -- ---- --- ----- -- - -------<br>-------- -- --- --- -- ----- ----------- ----- -----------<br>---- --- ---------- --- ---- --- -- ----------,181256.10000002384,181255.30000001192,180761.019,180768.30000001192,180777.685,181260.999,,26,the
screen,html.Screen,0_4_1_0_1_27,2021-11-25T15:03:17.975Z,,,,,,,,,,,,,,,,51,,,,,,,,,,,,,,458.3010000119102,,response,,,13,C,,,,,Space,keypress(Space),,,,instrumental,-------- -------- --- --- ---- --- --- ------ -- --------<br>---- --------- --- ------- ------------ ---------- ---------<br>--- ---------- ------- ---------- ------- -- -------- ----<br>---- --- Senate ----- ------ -- ---- --- ----- -- - -------<br>-------- -- --- --- -- ----- ----------- ----- -----------<br>---- --- ---------- --- ---- --- -- ----------,181720.10000002384,181719.30000001192,181244.333,181256.39999997616,181260.999,181727.647,,27,Senate
screen,html.Screen,0_4_1_0_1_28,2021-11-25T15:03:18.447Z,,,,,,,,,,,,,,,,51,,,,,,,,,,,,,,463.55299998808187,,response,,,13,C,,,,,Space,keypress(Space),,,,instrumental,-------- -------- --- --- ---- --- --- ------ -- --------<br>---- --------- --- ------- ------------ ---------- ---------<br>--- ---------- ------- ---------- ------- -- -------- ----<br>---- --- ------ seems ------ -- ---- --- ----- -- - -------<br>-------- -- --- --- -- ----- ----------- ----- -----------<br>---- --- ---------- --- ---- --- -- ----------,182192,182191.19999998808,181710.981,181720.39999997616,181727.647,182194.295,,28,seems
screen,html.Screen,0_4_1_0_1_29,2021-11-25T15:03:18.856Z,,,,,,,,,,,,,,,,51,,,,,,,,,,,,,,404.90499998806627,,response,,,13,C,,,,,Space,keypress(Space),,,,instrumental,-------- -------- --- --- ---- --- --- ------ -- --------<br>---- --------- --- ------- ------------ ---------- ---------<br>--- ---------- ------- ---------- ------- -- -------- ----<br>---- --- ------ ----- poised -- ---- --- ----- -- - -------<br>-------- -- --- --- -- ----- ----------- ----- -----------<br>---- --- ---------- --- ---- --- -- ----------,182600.19999998808,182599.19999998808,182177.629,182192.30000001192,182194.295,182610.945,,29,poised
screen,html.Screen,0_4_1_0_1_30,2021-11-25T15:03:19.431Z,,,,,,,,,,,,,,,,51,,,,,,,,,,,,,,564.1550000238349,,response,,,13,C,,,,,Space,keypress(Space),,,,instrumental,-------- -------- --- --- ---- --- --- ------ -- --------<br>---- --------- --- ------- ------------ ---------- ---------<br>--- ---------- ------- ---------- ------- -- -------- ----<br>---- --- ------ ----- ------ to ---- --- ----- -- - -------<br>-------- -- --- --- -- ----- ----------- ----- -----------<br>---- --- ---------- --- ---- --- -- ----------,183176,183175.10000002384,182594.279,182600.39999997616,182610.945,183177.589,,30,to
screen,html.Screen,0_4_1_0_1_31,2021-11-25T15:03:19.903Z,,,,,,,,,,,,,,,,51,,,,,,,,,,,,,,469.51100002383464,,response,,,13,C,,,,,Space,keypress(Space),,,,instrumental,-------- -------- --- --- ---- --- --- ------ -- --------<br>---- --------- --- ------- ------------ ---------- ---------<br>--- ---------- ------- ---------- ------- -- -------- ----<br>---- --- ------ ----- ------ -- join --- ----- -- - -------<br>-------- -- --- --- -- ----- ----------- ----- -----------<br>---- --- ---------- --- ---- --- -- ----------,183647.89999997616,183647.10000002384,183160.923,183176.19999998808,183177.589,183660.903,,31,join
screen,html.Screen,0_4_1_0_1_32,2021-11-25T15:03:20.359Z,,,,,,,,,,,,,,,,51,,,,,,,,,,,,,,442.1970000238507,,response,,,13,C,,,,,Space,keypress(Space),,,,instrumental,-------- -------- --- --- ---- --- --- ------ -- --------<br>---- --------- --- ------- ------------ ---------- ---------<br>--- ---------- ------- ---------- ------- -- -------- ----<br>---- --- ------ ----- ------ -- ---- the ----- -- - -------<br>-------- -- --- --- -- ----- ----------- ----- -----------<br>---- --- ---------- --- ---- --- -- ----------,184103.89999997616,184103.10000002384,183644.237,183648.10000002384,183660.903,184110.885,,32,the
screen,html.Screen,0_4_1_0_1_33,2021-11-25T15:03:20.895Z,,,,,,,,,,,,,,,,51,,,,,,,,,,,,,,528.1149999999907,,response,,,13,C,,,,,Space,keypress(Space),,,,instrumental,-------- -------- --- --- ---- --- --- ------ -- --------<br>---- --------- --- ------- ------------ ---------- ---------<br>--- ---------- ------- ---------- ------- -- -------- ----<br>---- --- ------ ----- ------ -- ---- --- House -- - -------<br>-------- -- --- --- -- ----- ----------- ----- -----------<br>---- --- ---------- --- ---- --- -- ----------,184639.89999997616,184639,184094.219,184104.19999998808,184110.885,184644.197,,33,House
screen,html.Screen,0_4_1_0_1_34,2021-11-25T15:03:21.383Z,,,,,,,,,,,,,,,,51,,,,,,,,,,,,,,482.80300000001444,,response,,,13,C,,,,,Space,keypress(Space),,,,instrumental,-------- -------- --- --- ---- --- --- ------ -- --------<br>---- --------- --- ------- ------------ ---------- ---------<br>--- ---------- ------- ---------- ------- -- -------- ----<br>---- --- ------ ----- ------ -- ---- --- ----- in - -------<br>-------- -- --- --- -- ----- ----------- ----- -----------<br>---- --- ---------- --- ---- --- -- ----------,185127.89999997616,185127,184627.531,184640.19999998808,184644.197,185144.177,,34,in
screen,html.Screen,0_4_1_0_1_35,2021-11-25T15:03:22.151Z,,,,,,,,,,,,,,,,51,,,,,,,,,,,,,,750.823000000004,,response,,,13,C,,,,,Space,keypress(Space),,,,instrumental,-------- -------- --- --- ---- --- --- ------ -- --------<br>---- --------- --- ------- ------------ ---------- ---------<br>--- ---------- ------- ---------- ------- -- -------- ----<br>---- --- ------ ----- ------ -- ---- --- ----- -- a -------<br>-------- -- --- --- -- ----- ----------- ----- -----------<br>---- --- ---------- --- ---- --- -- ----------,185895.80000001192,185895,185127.511,185128.19999998808,185144.177,185910.813,,35,a
screen,html.Screen,0_4_1_0_1_36,2021-11-25T15:03:22.815Z,,,,,,,,,,,,,,,,51,,,,,,,,,,,,,,648.0869999761635,,response,,,13,C,,,,,Space,keypress(Space),,,,instrumental,-------- -------- --- --- ---- --- --- ------ -- --------<br>---- --------- --- ------- ------------ ---------- ---------<br>--- ---------- ------- ---------- ------- -- -------- ----<br>---- --- ------ ----- ------ -- ---- --- ----- -- - massive<br>-------- -- --- --- -- ----- ----------- ----- -----------<br>---- --- ---------- --- ---- --- -- ----------,186559.80000001192,186558.89999997616,185894.147,185896.10000002384,185910.813,186577.453,,36,massive
screen,html.Screen,0_4_1_0_1_37,2021-11-25T15:03:23.319Z,,,,,,,,,,,,,,,,51,,,,,,,,,,,,,,485.5469999999914,,response,,,13,C,,,,,Space,keypress(Space),,,,instrumental,-------- -------- --- --- ---- --- --- ------ -- --------<br>---- --------- --- ------- ------------ ---------- ---------<br>--- ---------- ------- ---------- ------- -- -------- ----<br>---- --- ------ ----- ------ -- ---- --- ----- -- - -------<br>overhaul -- --- --- -- ----- ----------- ----- -----------<br>---- --- ---------- --- ---- --- -- ----------,187063.89999997616,187063,186560.787,186560.10000002384,186577.453,187077.433,,37,overhaul
screen,html.Screen,0_4_1_0_1_38,2021-11-25T15:03:23.800Z,,,,,,,,,,,,,,,,51,,,,,,,,,,,,,,465.86700001193094,,response,,,13,C,,,,,Space,keypress(Space),,,,instrumental,-------- -------- --- --- ---- --- --- ------ -- --------<br>---- --------- --- ------- ------------ ---------- ---------<br>--- ---------- ------- ---------- ------- -- -------- ----<br>---- --- ------ ----- ------ -- ---- --- ----- -- - -------<br>-------- of --- --- -- ----- ----------- ----- -----------<br>---- --- ---------- --- ---- --- -- ----------,187544.19999998808,187543.30000001192,187060.767,187064,187077.433,187560.747,,38,of
screen,html.Screen,0_4_1_0_1_39,2021-11-25T15:03:24.319Z,,,,,,,,,,,,,,,,51,,,,,,,,,,,,,,502.0530000119179,,response,,,13,C,,,,,Space,keypress(Space),,,,instrumental,-------- -------- --- --- ---- --- --- ------ -- --------<br>---- --------- --- ------- ------------ ---------- ---------<br>--- ---------- ------- ---------- ------- -- -------- ----<br>---- --- ------ ----- ------ -- ---- --- ----- -- - -------<br>-------- -- the --- -- ----- ----------- ----- -----------<br>---- --- ---------- --- ---- --- -- ----------,188063.69999998808,188062.80000001192,187544.081,187544.5,187560.747,188077.393,,39,the
screen,html.Screen,0_4_1_0_1_40,2021-11-25T15:03:24.767Z,,,,,,,,,,,,,,,,51,,,,,,,,,,,,,,433.40700001191,,response,,,13,C,,,,,Space,keypress(Space),,,,instrumental,-------- -------- --- --- ---- --- --- ------ -- --------<br>---- --------- --- ------- ------------ ---------- ---------<br>--- ---------- ------- ---------- ------- -- -------- ----<br>---- --- ------ ----- ------ -- ---- --- ----- -- - -------<br>-------- -- --- way -- ----- ----------- ----- -----------<br>---- --- ---------- --- ---- --- -- ----------,188511.69999998808,188510.80000001192,188060.727,188064,188077.393,188527.375,,40,way
screen,html.Screen,0_4_1_0_1_41,2021-11-25T15:03:25.183Z,,,,,,,,,,,,,,,,51,,,,,,,,,,,,,,399.42500001192093,,response,,,13,C,,,,,Space,keypress(Space),,,,instrumental,-------- -------- --- --- ---- --- --- ------ -- --------<br>---- --------- --- ------- ------------ ---------- ---------<br>--- ---------- ------- ---------- ------- -- -------- ----<br>---- --- ------ ----- ------ -- ---- --- ----- -- - -------<br>-------- -- --- --- in ----- ----------- ----- -----------<br>---- --- ---------- --- ---- --- -- ----------,188927.69999998808,188926.80000001192,188510.709,188511.89999997616,188527.375,188944.025,,41,in
screen,html.Screen,0_4_1_0_1_42,2021-11-25T15:03:25.623Z,,,,,,,,,,,,,,,,51,,,,,,,,,,,,,,422.77500001192675,,response,,,13,C,,,,,Space,keypress(Space),,,,instrumental,-------- -------- --- --- ---- --- --- ------ -- --------<br>---- --------- --- ------- ------------ ---------- ---------<br>--- ---------- ------- ---------- ------- -- -------- ----<br>---- --- ------ ----- ------ -- ---- --- ----- -- - -------<br>-------- -- --- --- -- which ----------- ----- -----------<br>---- --- ---------- --- ---- --- -- ----------,189367.60000002384,189366.80000001192,188927.359,188927.89999997616,188944.025,189377.341,,42,which
screen,html.Screen,0_4_1_0_1_43,2021-11-25T15:03:27.791Z,,,,,,,,,,,,,,,,51,,,,,,,,,,,,,,2157.3589999880933,,response,,,13,C,,,,,Space,keypress(Space),,,,instrumental,-------- -------- --- --- ---- --- --- ------ -- --------<br>---- --------- --- ------- ------------ ---------- ---------<br>--- ---------- ------- ---------- ------- -- -------- ----<br>---- --- ------ ----- ------ -- ---- --- ----- -- - -------<br>-------- -- --- --- -- ----- bureaucrats ----- -----------<br>---- --- ---------- --- ---- --- -- ----------,191535.5,191534.69999998808,189360.675,189367.89999997616,189377.341,191543.921,,43,bureaucrats
screen,html.Screen,0_4_1_0_1_44,2021-11-25T15:03:28.311Z,,,,,,,,,,,,,,,,51,,,,,,,,,,,,,,510.67900002383976,,response,,,13,C,,,,,Space,keypress(Space),,,,instrumental,-------- -------- --- --- ---- --- --- ------ -- --------<br>---- --------- --- ------- ------------ ---------- ---------<br>--- ---------- ------- ---------- ------- -- -------- ----<br>---- --- ------ ----- ------ -- ---- --- ----- -- - -------<br>-------- -- --- --- -- ----- ----------- enact -----------<br>---- --- ---------- --- ---- --- -- ----------,192055.5,192054.60000002384,191527.255,191535.80000001192,191543.921,192060.567,,44,enact
screen,html.Screen,0_4_1_0_1_45,2021-11-25T15:03:28.823Z,,,,,,,,,,,,,,,,51,,,,,,,,,,,,,,506.03300002383185,,response,,,13,C,,,,,Space,keypress(Space),,,,instrumental,-------- -------- --- --- ---- --- --- ------ -- --------<br>---- --------- --- ------- ------------ ---------- ---------<br>--- ---------- ------- ---------- ------- -- -------- ----<br>---- --- ------ ----- ------ -- ---- --- ----- -- - -------<br>-------- -- --- --- -- ----- ----------- ----- regulations<br>---- --- ---------- --- ---- --- -- ----------,192567.5,192566.60000002384,192043.901,192055.69999998808,192060.567,192577.213,,45,regulations
screen,html.Screen,0_4_1_0_1_46,2021-11-25T15:03:29.487Z,,,,,,,,,,,,,,,,51,,,,,,,,,,,,,,653.387000023853,,response,,,13,C,,,,,Space,keypress(Space),,,,instrumental,-------- -------- --- --- ---- --- --- ------ -- --------<br>---- --------- --- ------- ------------ ---------- ---------<br>--- ---------- ------- ---------- ------- -- -------- ----<br>---- --- ------ ----- ------ -- ---- --- ----- -- - -------<br>-------- -- --- --- -- ----- ----------- ----- -----------<br>that --- ---------- --- ---- --- -- ----------,193231.39999997616,193230.60000002384,192560.547,192567.69999998808,192577.213,193243.853,,46,that
screen,html.Screen,0_4_1_0_1_47,2021-11-25T15:03:29.983Z,,,,,,,,,,,,,,,,51,,,,,,,,,,,,,,482.6469999999972,,response,,,13,C,,,,,Space,keypress(Space),,,,instrumental,-------- -------- --- --- ---- --- --- ------ -- --------<br>---- --------- --- ------- ------------ ---------- ---------<br>--- ---------- ------- ---------- ------- -- -------- ----<br>---- --- ------ ----- ------ -- ---- --- ----- -- - -------<br>-------- -- --- --- -- ----- ----------- ----- -----------<br>---- are ---------- --- ---- --- -- ----------,193727.30000001192,193726.5,193227.187,193231.69999998808,193243.853,193743.833,,47,are
screen,html.Screen,0_4_1_0_1_48,2021-11-25T15:03:30.671Z,,,,,,,,,,,,,,,,51,,,,,,,,,,,,,,670.6669999999867,,response,,,13,C,,,,,Space,keypress(Space),,,,instrumental,-------- -------- --- --- ---- --- --- ------ -- --------<br>---- --------- --- ------- ------------ ---------- ---------<br>--- ---------- ------- ---------- ------- -- -------- ----<br>---- --- ------ ----- ------ -- ---- --- ----- -- - -------<br>-------- -- --- --- -- ----- ----------- ----- -----------<br>---- --- strangling --- ---- --- -- ----------,194415.39999997616,194414.5,193727.167,193727.60000002384,193743.833,194427.139,,48,strangling
screen,html.Screen,0_4_1_0_1_49,2021-11-25T15:03:31.711Z,,,,,,,,,,,,,,,,51,,,,,,,,,,,,,,1027.2609999761626,,response,,,13,C,,,,,Space,keypress(Space),,,,instrumental,-------- -------- --- --- ---- --- --- ------ -- --------<br>---- --------- --- ------- ------------ ---------- ---------<br>--- ---------- ------- ---------- ------- -- -------- ----<br>---- --- ------ ----- ------ -- ---- --- ----- -- - -------<br>-------- -- --- --- -- ----- ----------- ----- -----------<br>---- --- ---------- the ---- --- -- ----------,195455.30000001192,195454.39999997616,194410.473,194415.69999998808,194427.139,195460.431,,49,the
