sender,sender_type,sender_id,timestamp,meta,,Blues,Classical,Country,Dance,Electronic,Folk,Gospel,Hip-Hop,Jazz,Latin,Musical/Film,New-age,Pop,Provo_ID,R&B,Rap,Reggae,Religious,Rock,Soul,Swing,Traditional,age,artist_name,correct,correctResponse,distraction,duration,education,ended_on,familiarity,gender,item,list,music_frequency,offensiveness,pleasantness,preference,response,response_action,snippet_file,song_name,song_rating,sound,text,time_commit,time_end,time_render,time_run,time_show,time_switch,url,word,word_ID
Instructions,html.Page,0_0,2021-12-02T12:39:33.565Z,"{""labjs_version"":""20.2.3"",""labjs_build"":{""flavor"":""production"",""commit"":""7ea907d66ca8aeef8054924ca5d82ffbe11e34e5""},""location"":""https://run.pavlovia.org/mvasilev/lab_music_f/"",""userAgent"":""Mozilla/5.0 (Windows NT 6.1; Win64; x64) AppleWebKit/537.36 (KHTML, like Gecko) Chrome/96.0.4664.45 Safari/537.36"",""platform"":""Win32"",""language"":""en-US"",""locale"":""en-US"",""timeZone"":""Europe/London"",""timezoneOffset"":0,""screen_width"":1920,""screen_height"":1080,""scroll_width"":1920,""scroll_height"":959,""window_innerWidth"":1920,""window_innerHeight"":1007,""devicePixelRatio"":1}",,,,,,,,,,,,,,,,,,,,,,,,,,,,,12386.16,,form submission,,,,,,,,,,,,,,,,20913.900000000373,20913.5,8494,8509.900000000373,8527.34,20925.755,{},,
Headphones,html.Page,0_1,2021-12-02T12:39:36.125Z,,,,,,,,,,,,,,,,,,,,,,,,,,,,,,2547.244999999999,,form submission,,,,,,,,,,,,,,,,23473.5,23473,20909.037,20914.099999999627,20925.755,23481.403,,,
Holding screen,html.Screen,0_2_0_0,2021-12-02T12:39:46.125Z,,,,,,,,,,,,,,,,,,,,,,,,,,,,,,10002.919000000002,,timeout,,,,,,,,,,,,,,,,33474,33467.651,23464.733,23474,23481.403,33484.322,,,
screen,html.Screen,0_2_0_1_0,2021-12-02T12:39:47.996Z,,,,,,,,,,,,,,,,53,,,,,,,,,,,,,,1858.978000000745,,response,,,99,,,,,,Space,keypress(Space),,,,,When -- ----- -- ------ - ------- --- ----------<br>------------- ------ ------ ---- ---- ------- ----- -- ----<br>-------- ------- -- ---------- --- - --- ----- ----- ----<br>---- --- --- ----- --- ---- ---- ------- ----- ---- -------<br>--- --- -- ----- -- --- ---- -- --- ---- -- ------ ------<br>--- ----- -- ----,35344.59999999963,35343.300000000745,33467.651,33474.40000000037,33484.322,35351.341,,0,When
screen,html.Screen,0_2_0_1_1,2021-12-02T12:39:48.523Z,,,,,,,,,,,,,,,,53,,,,,,,,,,,,,,519.8589999992546,,response,,,99,,,,,,Space,keypress(Space),,,,,---- it ----- -- ------ - ------- --- ----------<br>------------- ------ ------ ---- ---- ------- ----- -- ----<br>-------- ------- -- ---------- --- - --- ----- ----- ----<br>---- --- --- ----- --- ---- ---- ------- ----- ---- -------<br>--- --- -- ----- -- --- ---- -- --- ---- -- ------ ------<br>--- ----- -- ----,35872.09999999963,35871.199999999255,35334.671,35344.90000000037,35351.341,35884.841,,1,it
screen,html.Screen,0_2_0_1_2,2021-12-02T12:39:49.259Z,,,,,,,,,,,,,,,,53,,,,,,,,,,,,,,722.3589999992546,,response,,,99,,,,,,Space,keypress(Space),,,,,---- -- comes -- ------ - ------- --- ----------<br>------------- ------ ------ ---- ---- ------- ----- -- ----<br>-------- ------- -- ---------- --- - --- ----- ----- ----<br>---- --- --- ----- --- ---- ---- ------- ----- ---- -------<br>--- --- -- ----- -- --- ---- -- --- ---- -- ------ ------<br>--- ----- -- ----,36608,36607.199999999255,35868.171,35872.300000000745,35884.841,36618.366,,2,comes
screen,html.Screen,0_2_0_1_3,2021-12-02T12:39:49.707Z,,,,,,,,,,,,,,,,53,,,,,,,,,,,,,,436.73399999962567,,response,,,99,,,,,,Space,keypress(Space),,,,,---- -- ----- to ------ - ------- --- ----------<br>------------- ------ ------ ---- ---- ------- ----- -- ----<br>-------- ------- -- ---------- --- - --- ----- ----- ----<br>---- --- --- ----- --- ---- ---- ------- ----- ---- -------<br>--- --- -- ----- -- --- ---- -- --- ---- -- ------ ------<br>--- ----- -- ----,37056.09999999963,37055.09999999963,36601.696,36608.300000000745,36618.366,37068.728,,3,to
screen,html.Screen,0_2_0_1_4,2021-12-02T12:39:50.172Z,,,,,,,,,,,,,,,,53,,,,,,,,,,,,,,450.47199999925215,,response,,,99,,,,,,Space,keypress(Space),,,,,---- -- ----- -- having - ------- --- ----------<br>------------- ------ ------ ---- ---- ------- ----- -- ----<br>-------- ------- -- ---------- --- - --- ----- ----- ----<br>---- --- --- ----- --- ---- ---- ------- ----- ---- -------<br>--- --- -- ----- -- --- ---- -- --- ---- -- ------ ------<br>--- ----- -- ----,37520.300000000745,37519.199999999255,37052.055,37056.5,37068.728,37535.344,,4,having
screen,html.Screen,0_2_0_1_5,2021-12-02T12:39:50.579Z,,,,,,,,,,,,,,,,53,,,,,,,,,,,,,,391.75599999963015,,response,,,99,,,,,,Space,keypress(Space),,,,,---- -- ----- -- ------ a ------- --- ----------<br>------------- ------ ------ ---- ---- ------- ----- -- ----<br>-------- ------- -- ---------- --- - --- ----- ----- ----<br>---- --- --- ----- --- ---- ---- ------- ----- ---- -------<br>--- --- -- ----- -- --- ---- -- --- ---- -- ------ ------<br>--- ----- -- ----,37928,37927.09999999963,37518.674,37520.59999999963,37535.344,37935.449,,5,a
screen,html.Screen,0_2_0_1_6,2021-12-02T12:39:51.019Z,,,,,,,,,,,,,,,,53,,,,,,,,,,,,,,431.65099999962695,,response,,,99,,,,,,Space,keypress(Space),,,,,---- -- ----- -- ------ - lasting --- ----------<br>------------- ------ ------ ---- ---- ------- ----- -- ----<br>-------- ------- -- ---------- --- - --- ----- ----- ----<br>---- --- --- ----- --- ---- ---- ------- ----- ---- -------<br>--- --- -- ----- -- --- ---- -- --- ---- -- ------ ------<br>--- ----- -- ----,38368,38367.09999999963,37918.779,37928.5,37935.449,38385.574,,6,lasting
screen,html.Screen,0_2_0_1_7,2021-12-02T12:39:51.531Z,,,,,,,,,,,,,,,,53,,,,,,,,,,,,,,493.52599999962695,,response,,,99,,,,,,Space,keypress(Space),,,,,---- -- ----- -- ------ - ------- and ----------<br>------------- ------ ------ ---- ---- ------- ----- -- ----<br>-------- ------- -- ---------- --- - --- ----- ----- ----<br>---- --- --- ----- --- ---- ---- ------- ----- ---- -------<br>--- --- -- ----- -- --- ---- -- --- ---- -- ------ ------<br>--- ----- -- ----,38880,38879.09999999963,38368.904,38368.40000000037,38385.574,38885.676,,7,and
screen,html.Screen,0_2_0_1_8,2021-12-02T12:39:52.203Z,,,,,,,,,,,,,,,,53,,,,,,,,,,,,,,665.423999999628,,response,,,99,,,,,,Space,keypress(Space),,,,,---- -- ----- -- ------ - ------- --- fulfilling<br>------------- ------ ------ ---- ---- ------- ----- -- ----<br>-------- ------- -- ---------- --- - --- ----- ----- ----<br>---- --- --- ----- --- ---- ---- ------- ----- ---- -------<br>--- --- -- ----- -- --- ---- -- --- ---- -- ------ ------<br>--- ----- -- ----,39552.09999999963,39551.09999999963,38869.006,38880.300000000745,38885.676,39569.266,,8,fulfilling
screen,html.Screen,0_2_0_1_9,2021-12-02T12:39:52.747Z,,,,,,,,,,,,,,,,53,,,,,,,,,,,,,,525.7339999999967,,response,,,99,,,,,,Space,keypress(Space),,,,,"---- -- ----- -- ------ - ------- --- ----------<br>relationship, ------ ------ ---- ---- ------- ----- -- ----<br>-------- ------- -- ---------- --- - --- ----- ----- ----<br>---- --- --- ----- --- ---- ---- ------- ----- ---- -------<br>--- --- -- ----- -- --- ---- -- --- ---- -- ------ ------<br>--- ----- -- ----",40095.90000000037,40095,39552.595,39552.40000000037,39569.266,40102.676,,9,"relationship,"
screen,html.Screen,0_2_0_1_10,2021-12-02T12:39:53.227Z,,,,,,,,,,,,,,,,53,,,,,,,,,,,,,,472.3240000000005,,response,,,99,,,,,,Space,keypress(Space),,,,,---- -- ----- -- ------ - ------- --- ----------<br>------------- common ------ ---- ---- ------- ----- -- ----<br>-------- ------- -- ---------- --- - --- ----- ----- ----<br>---- --- --- ----- --- ---- ---- ------- ----- ---- -------<br>--- --- -- ----- -- --- ---- -- --- ---- -- ------ ------<br>--- ----- -- ----,40576,40575,40086.006,40096.199999999255,40102.676,40586.047,,10,common
screen,html.Screen,0_2_0_1_11,2021-12-02T12:39:53.667Z,,,,,,,,,,,,,,,,53,,,,,,,,,,,,,,428.85300000037387,,response,,,99,,,,,,Space,keypress(Space),,,,,---- -- ----- -- ------ - ------- --- ----------<br>------------- ------ wisdom ---- ---- ------- ----- -- ----<br>-------- ------- -- ---------- --- - --- ----- ----- ----<br>---- --- --- ----- --- ---- ---- ------- ----- ---- -------<br>--- --- -- ----- -- --- ---- -- --- ---- -- ------ ------<br>--- ----- -- ----,41015.90000000037,41014.90000000037,40569.378,40576.199999999255,40586.047,41019.704,,11,wisdom
screen,html.Screen,0_2_0_1_12,2021-12-02T12:39:54.091Z,,,,,,,,,,,,,,,,53,,,,,,,,,,,,,,419.2960000000021,,response,,,99,,,,,,Space,keypress(Space),,,,,---- -- ----- -- ------ - ------- --- ----------<br>------------- ------ ------ says ---- ------- ----- -- ----<br>-------- ------- -- ---------- --- - --- ----- ----- ----<br>---- --- --- ----- --- ---- ---- ------- ----- ---- -------<br>--- --- -- ----- -- --- ---- -- --- ---- -- ------ ------<br>--- ----- -- ----,41439.800000000745,41439,41003.032,41016.09999999963,41019.704,41452.945,,12,says
screen,html.Screen,0_2_0_1_13,2021-12-02T12:39:54.491Z,,,,,,,,,,,,,,,,53,,,,,,,,,,,,,,386.35500000074535,,response,,,99,,,,,,Space,keypress(Space),,,,,---- -- ----- -- ------ - ------- --- ----------<br>------------- ------ ------ ---- that ------- ----- -- ----<br>-------- ------- -- ---------- --- - --- ----- ----- ----<br>---- --- --- ----- --- ---- ---- ------- ----- ---- -------<br>--- --- -- ----- -- --- ---- -- --- ---- -- ------ ------<br>--- ----- -- ----,41840.199999999255,41839.300000000745,41436.276,41440.09999999963,41452.945,41853.246,,13,that
screen,html.Screen,0_2_0_1_14,2021-12-02T12:39:54.867Z,,,,,,,,,,,,,,,,53,,,,,,,,,,,,,,361.65400000037334,,response,,,99,,,,,,Space,keypress(Space),,,,,---- -- ----- -- ------ - ------- --- ----------<br>------------- ------ ------ ---- ---- feeling ----- -- ----<br>-------- ------- -- ---------- --- - --- ----- ----- ----<br>---- --- --- ----- --- ---- ---- ------- ----- ---- -------<br>--- --- -- ----- -- --- ---- -- --- ---- -- ------ ------<br>--- ----- -- ----,42215.699999999255,42214.90000000037,41836.574,41840.40000000037,41853.246,42219.851,,14,feeling
screen,html.Screen,0_2_0_1_15,2021-12-02T12:39:55.291Z,,,,,,,,,,,,,,,,53,,,,,,,,,,,,,,419.04900000037014,,response,,,99,,,,,,Space,keypress(Space),,,,,---- -- ----- -- ------ - ------- --- ----------<br>------------- ------ ------ ---- ---- ------- close -- ----<br>-------- ------- -- ---------- --- - --- ----- ----- ----<br>---- --- --- ----- --- ---- ---- ------- ----- ---- -------<br>--- --- -- ----- -- --- ---- -- --- ---- -- ------ ------<br>--- ----- -- ----,42639.699999999255,42638.90000000037,42203.182,42216,42219.851,42653.414,,15,close
screen,html.Screen,0_2_0_1_16,2021-12-02T12:39:55.699Z,,,,,,,,,,,,,,,,53,,,,,,,,,,,,,,393.386000000748,,response,,,99,,,,,,Space,keypress(Space),,,,,---- -- ----- -- ------ - ------- --- ----------<br>------------- ------ ------ ---- ---- ------- ----- to ----<br>-------- ------- -- ---------- --- - --- ----- ----- ----<br>---- --- --- ----- --- ---- ---- ------- ----- ---- -------<br>--- --- -- ----- -- --- ---- -- --- ---- -- ------ ------<br>--- ----- -- ----,43047.699999999255,43046.800000000745,42636.743,42640,42653.414,43053.527,,16,to
screen,html.Screen,0_2_0_1_17,2021-12-02T12:39:56.123Z,,,,,,,,,,,,,,,,53,,,,,,,,,,,,,,417.37300000037067,,response,,,99,,,,,,Space,keypress(Space),,,,,---- -- ----- -- ------ - ------- --- ----------<br>------------- ------ ------ ---- ---- ------- ----- -- your<br>-------- ------- -- ---------- --- - --- ----- ----- ----<br>---- --- --- ----- --- ---- ---- ------- ----- ---- -------<br>--- --- -- ----- -- --- ---- -- --- ---- -- ------ ------<br>--- ----- -- ----,43471.699999999255,43470.90000000037,43036.856,43048,43053.527,43486.939,,17,your
screen,html.Screen,0_2_0_1_18,2021-12-02T12:39:56.547Z,,,,,,,,,,,,,,,,53,,,,,,,,,,,,,,407.86100000074657,,response,,,99,,,,,,Space,keypress(Space),,,,,---- -- ----- -- ------ - ------- --- ----------<br>------------- ------ ------ ---- ---- ------- ----- -- ----<br>romantic ------- -- ---------- --- - --- ----- ----- ----<br>---- --- --- ----- --- ---- ---- ------- ----- ---- -------<br>--- --- -- ----- -- --- ---- -- --- ---- -- ------ ------<br>--- ----- -- ----,43895.5,43894.800000000745,43470.269,43472,43486.939,43903.677,,18,romantic
screen,html.Screen,0_2_0_1_19,2021-12-02T12:39:56.947Z,,,,,,,,,,,,,,,,53,,,,,,,,,,,,,,391.0229999992516,,response,,,99,,,,,,Space,keypress(Space),,,,,---- -- ----- -- ------ - ------- --- ----------<br>------------- ------ ------ ---- ---- ------- ----- -- ----<br>-------- partner -- ---------- --- - --- ----- ----- ----<br>---- --- --- ----- --- ---- ---- ------- ----- ---- -------<br>--- --- -- ----- -- --- ---- -- --- ---- -- ------ ------<br>--- ----- -- ----,44295.5,44294.699999999255,43887.007,43895.800000000745,43903.677,44303.846,,19,partner
screen,html.Screen,0_2_0_1_20,2021-12-02T12:39:57.363Z,,,,,,,,,,,,,,,,53,,,,,,,,,,,,,,406.9540000007473,,response,,,99,,,,,,Space,keypress(Space),,,,,---- -- ----- -- ------ - ------- --- ----------<br>------------- ------ ------ ---- ---- ------- ----- -- ----<br>-------- ------- is ---------- --- - --- ----- ----- ----<br>---- --- --- ----- --- ---- ---- ------- ----- ---- -------<br>--- --- -- ----- -- --- ---- -- --- ---- -- ------ ------<br>--- ----- -- ----,44711.59999999963,44710.800000000745,44287.175,44295.800000000745,44303.846,44720.596,,20,is
screen,html.Screen,0_2_0_1_21,2021-12-02T12:39:57.739Z,,,,,,,,,,,,,,,,53,,,,,,,,,,,,,,366.2040000007473,,response,,,99,,,,,,Space,keypress(Space),,,,,---- -- ----- -- ------ - ------- --- ----------<br>------------- ------ ------ ---- ---- ------- ----- -- ----<br>-------- ------- -- paramount. --- - --- ----- ----- ----<br>---- --- --- ----- --- ---- ---- ------- ----- ---- -------<br>--- --- -- ----- -- --- ---- -- --- ---- -- ------ ------<br>--- ----- -- ----,45087.59999999963,45086.800000000745,44703.926,44711.800000000745,44720.596,45104.02,,21,paramount.
screen,html.Screen,0_2_0_1_22,2021-12-02T12:39:58.227Z,,,,,,,,,,,,,,,,53,,,,,,,,,,,,,,470.78000000074826,,response,,,99,,,,,,Space,keypress(Space),,,,,---- -- ----- -- ------ - ------- --- ----------<br>------------- ------ ------ ---- ---- ------- ----- -- ----<br>-------- ------- -- ---------- But - --- ----- ----- ----<br>---- --- --- ----- --- ---- ---- ------- ----- ---- -------<br>--- --- -- ----- -- --- ---- -- --- ---- -- ------ ------<br>--- ----- -- ----,45575.5,45574.800000000745,45087.35,45088.09999999963,45104.02,45587.485,,22,But
screen,html.Screen,0_2_0_1_23,2021-12-02T12:39:58.571Z,,,,,,,,,,,,,,,,53,,,,,,,,,,,,,,331.21499999925436,,response,,,99,,,,,,Space,keypress(Space),,,,,---- -- ----- -- ------ - ------- --- ----------<br>------------- ------ ------ ---- ---- ------- ----- -- ----<br>-------- ------- -- ---------- --- a --- ----- ----- ----<br>---- --- --- ----- --- ---- ---- ------- ----- ---- -------<br>--- --- -- ----- -- --- ---- -- --- ---- -- ------ ------<br>--- ----- -- ----,45919.59999999963,45918.699999999255,45570.815,45575.800000000745,45587.485,45920.949,,23,a
screen,html.Screen,0_2_0_1_24,2021-12-02T12:39:58.939Z,,,,,,,,,,,,,,,,53,,,,,,,,,,,,,,365.7509999992544,,response,,,99,,,,,,Space,keypress(Space),,,,,---- -- ----- -- ------ - ------- --- ----------<br>------------- ------ ------ ---- ---- ------- ----- -- ----<br>-------- ------- -- ---------- --- - new ----- ----- ----<br>---- --- --- ----- --- ---- ---- ------- ----- ---- -------<br>--- --- -- ----- -- --- ---- -- --- ---- -- ------ ------<br>--- ----- -- ----,46287.40000000037,46286.699999999255,45904.278,45919.800000000745,45920.949,46304.345,,24,new
screen,html.Screen,0_2_0_1_25,2021-12-02T12:39:59.323Z,,,,,,,,,,,,,,,,53,,,,,,,,,,,,,,366.3549999992538,,response,,,99,,,,,,Space,keypress(Space),,,,,---- -- ----- -- ------ - ------- --- ----------<br>------------- ------ ------ ---- ---- ------- ----- -- ----<br>-------- ------- -- ---------- --- - --- study ----- ----<br>---- --- --- ----- --- ---- ---- ------- ----- ---- -------<br>--- --- -- ----- -- --- ---- -- --- ---- -- ------ ------<br>--- ----- -- ----,46671.59999999963,46670.699999999255,46287.675,46287.699999999255,46304.345,46687.818,,25,study
screen,html.Screen,0_2_0_1_26,2021-12-02T12:39:59.691Z,,,,,,,,,,,,,,,,53,,,,,,,,,,,,,,350.78199999962817,,response,,,99,,,,,,Space,keypress(Space),,,,,---- -- ----- -- ------ - ------- --- ----------<br>------------- ------ ------ ---- ---- ------- ----- -- ----<br>-------- ------- -- ---------- --- - --- ----- finds ----<br>---- --- --- ----- --- ---- ---- ------- ----- ---- -------<br>--- --- -- ----- -- --- ---- -- --- ---- -- ------ ------<br>--- ----- -- ----,47039.40000000037,47038.59999999963,46671.147,46671.800000000745,46687.818,47054.543,,26,finds
screen,html.Screen,0_2_0_1_27,2021-12-02T12:40:00.035Z,,,,,,,,,,,,,,,,53,,,,,,,,,,,,,,328.0569999996296,,response,,,99,,,,,,Space,keypress(Space),,,,,---- -- ----- -- ------ - ------- --- ----------<br>------------- ------ ------ ---- ---- ------- ----- -- ----<br>-------- ------- -- ---------- --- - --- ----- ----- that<br>---- --- --- ----- --- ---- ---- ------- ----- ---- -------<br>--- --- -- ----- -- --- ---- -- --- ---- -- ------ ------<br>--- ----- -- ----,47383.40000000037,47382.59999999963,47037.873,47039.59999999963,47054.543,47388.004,,27,that
screen,html.Screen,0_2_0_1_28,2021-12-02T12:40:00.459Z,,,,,,,,,,,,,,,,53,,,,,,,,,,,,,,418.6959999992541,,response,,,99,,,,,,Space,keypress(Space),,,,,---- -- ----- -- ------ - ------- --- ----------<br>------------- ------ ------ ---- ---- ------- ----- -- ----<br>-------- ------- -- ---------- --- - --- ----- ----- ----<br>it's --- --- ----- --- ---- ---- ------- ----- ---- -------<br>--- --- -- ----- -- --- ---- -- --- ---- -- ------ ------<br>--- ----- -- ----,47807.40000000037,47806.699999999255,47371.333,47383.59999999963,47388.004,47821.408,,28,it's
screen,html.Screen,0_2_0_1_29,2021-12-02T12:40:00.875Z,,,,,,,,,,,,,,,,53,,,,,,,,,,,,,,401.1919999996244,,response,,,99,,,,,,Space,keypress(Space),,,,,---- -- ----- -- ------ - ------- --- ----------<br>------------- ------ ------ ---- ---- ------- ----- -- ----<br>-------- ------- -- ---------- --- - --- ----- ----- ----<br>---- not --- ----- --- ---- ---- ------- ----- ---- -------<br>--- --- -- ----- -- --- ---- -- --- ---- -- ------ ------<br>--- ----- -- ----,48223.40000000037,48222.59999999963,47804.738,47807.800000000745,47821.408,48238.232,,29,not
screen,html.Screen,0_2_0_1_30,2021-12-02T12:40:01.275Z,,,,,,,,,,,,,,,,53,,,,,,,,,,,,,,384.36799999962386,,response,,,99,,,,,,Space,keypress(Space),,,,,---- -- ----- -- ------ - ------- --- ----------<br>------------- ------ ------ ---- ---- ------- ----- -- ----<br>-------- ------- -- ---------- --- - --- ----- ----- ----<br>---- --- how ----- --- ---- ---- ------- ----- ---- -------<br>--- --- -- ----- -- --- ---- -- --- ---- -- ------ ------<br>--- ----- -- ----,48623.40000000037,48622.59999999963,48221.561,48223.699999999255,48238.232,48638.295,,30,how
screen,html.Screen,0_2_0_1_31,2021-12-02T12:40:01.643Z,,,,,,,,,,,,,,,,53,,,,,,,,,,,,,,352.3049999996292,,response,,,99,,,,,,Space,keypress(Space),,,,,---- -- ----- -- ------ - ------- --- ----------<br>------------- ------ ------ ---- ---- ------- ----- -- ----<br>-------- ------- -- ---------- --- - --- ----- ----- ----<br>---- --- --- close --- ---- ---- ------- ----- ---- -------<br>--- --- -- ----- -- --- ---- -- --- ---- -- ------ ------<br>--- ----- -- ----,48991.40000000037,48990.59999999963,48621.625,48623.59999999963,48638.295,49004.962,,31,close
screen,html.Screen,0_2_0_1_32,2021-12-02T12:40:02.003Z,,,,,,,,,,,,,,,,53,,,,,,,,,,,,,,345.53800000000047,,response,,,99,,,,,,Space,keypress(Space),,,,,---- -- ----- -- ------ - ------- --- ----------<br>------------- ------ ------ ---- ---- ------- ----- -- ----<br>-------- ------- -- ---------- --- - --- ----- ----- ----<br>---- --- --- ----- you ---- ---- ------- ----- ---- -------<br>--- --- -- ----- -- --- ---- -- --- ---- -- ------ ------<br>--- ----- -- ----,49351.300000000745,49350.5,48988.293,48991.59999999963,49004.962,49355.155,,32,you
screen,html.Screen,0_2_0_1_33,2021-12-02T12:40:02.371Z,,,,,,,,,,,,,,,,53,,,,,,,,,,,,,,363.34500000000116,,response,,,99,,,,,,Space,keypress(Space),,,,,---- -- ----- -- ------ - ------- --- ----------<br>------------- ------ ------ ---- ---- ------- ----- -- ----<br>-------- ------- -- ---------- --- - --- ----- ----- ----<br>---- --- --- ----- --- feel ---- ------- ----- ---- -------<br>--- --- -- ----- -- --- ---- -- --- ---- -- ------ ------<br>--- ----- -- ----,49719.199999999255,49718.5,49338.484,49351.59999999963,49355.155,49722.042,,33,feel
screen,html.Screen,0_2_0_1_34,2021-12-02T12:40:02.731Z,,,,,,,,,,,,,,,,53,,,,,,,,,,,,,,356.4579999999987,,response,,,99,,,,,,Space,keypress(Space),,,,,---- -- ----- -- ------ - ------- --- ----------<br>------------- ------ ------ ---- ---- ------- ----- -- ----<br>-------- ------- -- ---------- --- - --- ----- ----- ----<br>---- --- --- ----- --- ---- that ------- ----- ---- -------<br>--- --- -- ----- -- --- ---- -- --- ---- -- ------ ------<br>--- ----- -- ----,50079.199999999255,50078.5,49705.369,49719.5,49722.042,50088.677,,34,that
screen,html.Screen,0_2_0_1_35,2021-12-02T12:40:03.131Z,,,,,,,,,,,,,,,,53,,,,,,,,,,,,,,389.7230000003692,,response,,,99,,,,,,Space,keypress(Space),,,,,---- -- ----- -- ------ - ------- --- ----------<br>------------- ------ ------ ---- ---- ------- ----- -- ----<br>-------- ------- -- ---------- --- - --- ----- ----- ----<br>---- --- --- ----- --- ---- ---- matters ----- ---- -------<br>--- --- -- ----- -- --- ---- -- --- ---- -- ------ ------<br>--- ----- -- ----,50479.300000000745,50478.40000000037,50072.007,50079.5,50088.677,50488.83,,35,matters
screen,html.Screen,0_2_0_1_36,2021-12-02T12:40:03.539Z,,,,,,,,,,,,,,,,53,,,,,,,,,,,,,,397.5700000003708,,response,,,99,,,,,,Space,keypress(Space),,,,,"---- -- ----- -- ------ - ------- --- ----------<br>------------- ------ ------ ---- ---- ------- ----- -- ----<br>-------- ------- -- ---------- --- - --- ----- ----- ----<br>---- --- --- ----- --- ---- ---- ------- most, ---- -------<br>--- --- -- ----- -- --- ---- -- --- ---- -- ------ ------<br>--- ----- -- ----",50887.40000000037,50886.40000000037,50472.159,50479.5,50488.83,50888.91,,36,"most,"
screen,html.Screen,0_2_0_1_37,2021-12-02T12:40:03.923Z,,,,,,,,,,,,,,,,53,,,,,,,,,,,,,,381.49000000036904,,response,,,99,,,,,,Space,keypress(Space),,,,,---- -- ----- -- ------ - ------- --- ----------<br>------------- ------ ------ ---- ---- ------- ----- -- ----<br>-------- ------- -- ---------- --- - --- ----- ----- ----<br>---- --- --- ----- --- ---- ---- ------- ----- it's -------<br>--- --- -- ----- -- --- ---- -- --- ---- -- ------ ------<br>--- ----- -- ----,51271.199999999255,51270.40000000037,50872.24,50887.59999999963,50888.91,51272.179,,37,it's
screen,html.Screen,0_2_0_1_38,2021-12-02T12:40:04.291Z,,,,,,,,,,,,,,,,53,,,,,,,,,,,,,,366.2210000003761,,response,,,99,,,,,,Space,keypress(Space),,,,,---- -- ----- -- ------ - ------- --- ----------<br>------------- ------ ------ ---- ---- ------- ----- -- ----<br>-------- ------- -- ---------- --- - --- ----- ----- ----<br>---- --- --- ----- --- ---- ---- ------- ----- ---- whether<br>--- --- -- ----- -- --- ---- -- --- ---- -- ------ ------<br>--- ----- -- ----,51639.5,51638.40000000037,51255.511,51271.40000000037,51272.179,51655.869,,38,whether
screen,html.Screen,0_2_0_1_39,2021-12-02T12:40:04.667Z,,,,,,,,,,,,,,,,53,,,,,,,,,,,,,,358.9310000007463,,response,,,99,,,,,,Space,keypress(Space),,,,,---- -- ----- -- ------ - ------- --- ----------<br>------------- ------ ------ ---- ---- ------- ----- -- ----<br>-------- ------- -- ---------- --- - --- ----- ----- ----<br>---- --- --- ----- --- ---- ---- ------- ----- ---- -------<br>you --- -- ----- -- --- ---- -- --- ---- -- ------ ------<br>--- ----- -- ----,52015.5,52014.800000000745,51639.196,51639.59999999963,51655.869,52022.532,,39,you
screen,html.Screen,0_2_0_1_40,2021-12-02T12:40:05.002Z,,,,,,,,,,,,,,,,53,,,,,,,,,,,,,,327.8680000003733,,response,,,99,,,,,,Space,keypress(Space),,,,,---- -- ----- -- ------ - ------- --- ----------<br>------------- ------ ------ ---- ---- ------- ----- -- ----<br>-------- ------- -- ---------- --- - --- ----- ----- ----<br>---- --- --- ----- --- ---- ---- ------- ----- ---- -------<br>--- are -- ----- -- --- ---- -- --- ---- -- ------ ------<br>--- ----- -- ----,52351.199999999255,52350.40000000037,52005.862,52015.90000000037,52022.532,52355.961,,40,are
screen,html.Screen,0_2_0_1_41,2021-12-02T12:40:05.402Z,,,,,,,,,,,,,,,,53,,,,,,,,,,,,,,394.43900000036956,,response,,,99,,,,,,Space,keypress(Space),,,,,---- -- ----- -- ------ - ------- --- ----------<br>------------- ------ ------ ---- ---- ------- ----- -- ----<br>-------- ------- -- ---------- --- - --- ----- ----- ----<br>---- --- --- ----- --- ---- ---- ------- ----- ---- -------<br>--- --- as ----- -- --- ---- -- --- ---- -- ------ ------<br>--- ----- -- ----,52751.199999999255,52750.40000000037,52339.291,52351.40000000037,52355.961,52755.992,,41,as
screen,html.Screen,0_2_0_1_42,2021-12-02T12:40:05.771Z,,,,,,,,,,,,,,,,53,,,,,,,,,,,,,,362.40800000037416,,response,,,99,,,,,,Space,keypress(Space),,,,,---- -- ----- -- ------ - ------- --- ----------<br>------------- ------ ------ ---- ---- ------- ----- -- ----<br>-------- ------- -- ---------- --- - --- ----- ----- ----<br>---- --- --- ----- --- ---- ---- ------- ----- ---- -------<br>--- --- -- close -- --- ---- -- --- ---- -- ------ ------<br>--- ----- -- ----,53119.199999999255,53118.40000000037,52739.323,52751.40000000037,52755.992,53122.908,,42,close
screen,html.Screen,0_2_0_1_43,2021-12-02T12:40:06.154Z,,,,,,,,,,,,,,,,53,,,,,,,,,,,,,,379.49200000036944,,response,,,99,,,,,,Space,keypress(Space),,,,,---- -- ----- -- ------ - ------- --- ----------<br>------------- ------ ------ ---- ---- ------- ----- -- ----<br>-------- ------- -- ---------- --- - --- ----- ----- ----<br>---- --- --- ----- --- ---- ---- ------- ----- ---- -------<br>--- --- -- ----- as --- ---- -- --- ---- -- ------ ------<br>--- ----- -- ----,53503.199999999255,53502.40000000037,53106.236,53119.40000000037,53122.908,53506.255,,43,as
screen,html.Screen,0_2_0_1_44,2021-12-02T12:40:06.514Z,,,,,,,,,,,,,,,,53,,,,,,,,,,,,,,356.14500000037515,,response,,,99,,,,,,Space,keypress(Space),,,,,---- -- ----- -- ------ - ------- --- ----------<br>------------- ------ ------ ---- ---- ------- ----- -- ----<br>-------- ------- -- ---------- --- - --- ----- ----- ----<br>---- --- --- ----- --- ---- ---- ------- ----- ---- -------<br>--- --- -- ----- -- you ---- -- --- ---- -- ------ ------<br>--- ----- -- ----,53863.199999999255,53862.40000000037,53489.585,53503.40000000037,53506.255,53873.028,,44,you
screen,html.Screen,0_2_0_1_45,2021-12-02T12:40:06.915Z,,,,,,,,,,,,,,,,53,,,,,,,,,,,,,,389.3720000003741,,response,,,99,,,,,,Space,keypress(Space),,,,,---- -- ----- -- ------ - ------- --- ----------<br>------------- ------ ------ ---- ---- ------- ----- -- ----<br>-------- ------- -- ---------- --- - --- ----- ----- ----<br>---- --- --- ----- --- ---- ---- ------- ----- ---- -------<br>--- --- -- ----- -- --- want -- --- ---- -- ------ ------<br>--- ----- -- ----,54263.199999999255,54262.40000000037,53856.358,53863.300000000745,53873.028,54273.166,,45,want
screen,html.Screen,0_2_0_1_46,2021-12-02T12:40:07.282Z,,,,,,,,,,,,,,,,53,,,,,,,,,,,,,,357.2340000003751,,response,,,99,,,,,,Space,keypress(Space),,,,,---- -- ----- -- ------ - ------- --- ----------<br>------------- ------ ------ ---- ---- ------- ----- -- ----<br>-------- ------- -- ---------- --- - --- ----- ----- ----<br>---- --- --- ----- --- ---- ---- ------- ----- ---- -------<br>--- --- -- ----- -- --- ---- to --- ---- -- ------ ------<br>--- ----- -- ----,54631.09999999963,54630.40000000037,54256.495,54263.40000000037,54273.166,54639.892,,46,to
screen,html.Screen,0_2_0_1_47,2021-12-02T12:40:07.642Z,,,,,,,,,,,,,,,,53,,,,,,,,,,,,,,350.5080000003727,,response,,,99,,,,,,Space,keypress(Space),,,,,"---- -- ----- -- ------ - ------- --- ----------<br>------------- ------ ------ ---- ---- ------- ----- -- ----<br>-------- ------- -- ---------- --- - --- ----- ----- ----<br>---- --- --- ----- --- ---- ---- ------- ----- ---- -------<br>--- --- -- ----- -- --- ---- -- be, ---- -- ------ ------<br>--- ----- -- ----",54991.199999999255,54990.40000000037,54623.222,54631.300000000745,54639.892,55006.702,,47,"be,"
screen,html.Screen,0_2_0_1_48,2021-12-02T12:40:08.034Z,,,,,,,,,,,,,,,,53,,,,,,,,,,,,,,375.49799999925744,,response,,,99,,,,,,Space,keypress(Space),,,,,---- -- ----- -- ------ - ------- --- ----------<br>------------- ------ ------ ---- ---- ------- ----- -- ----<br>-------- ------- -- ---------- --- - --- ----- ----- ----<br>---- --- --- ----- --- ---- ---- ------- ----- ---- -------<br>--- --- -- ----- -- --- ---- -- --- even -- ------ ------<br>--- ----- -- ----,55382.699999999255,55382.199999999255,54990.031,54991.300000000745,55006.702,55390.096,,48,even
screen,html.Screen,0_2_0_1_49,2021-12-02T12:40:08.434Z,,,,,,,,,,,,,,,,53,,,,,,,,,,,,,,392.2040000007473,,response,,,99,,,,,,Space,keypress(Space),,,,,---- -- ----- -- ------ - ------- --- ----------<br>------------- ------ ------ ---- ---- ------- ----- -- ----<br>-------- ------- -- ---------- --- - --- ----- ----- ----<br>---- --- --- ----- --- ---- ---- ------- ----- ---- -------<br>--- --- -- ----- -- --- ---- -- --- ---- if ------ ------<br>--- ----- -- ----,55783,55782.300000000745,55373.426,55382.90000000037,55390.096,55790.193,,49,if
screen,html.Screen,0_2_0_1_50,2021-12-02T12:40:08.786Z,,,,,,,,,,,,,,,,53,,,,,,,,,,,,,,344.10700000074576,,response,,,99,,,,,,Space,keypress(Space),,,,,---- -- ----- -- ------ - ------- --- ----------<br>------------- ------ ------ ---- ---- ------- ----- -- ----<br>-------- ------- -- ---------- --- - --- ----- ----- ----<br>---- --- --- ----- --- ---- ---- ------- ----- ---- -------<br>--- --- -- ----- -- --- ---- -- --- ---- -- that's ------<br>--- ----- -- ----,56135,56134.300000000745,55773.523,55783.199999999255,55790.193,56140.356,,50,that's
screen,html.Screen,0_2_0_1_51,2021-12-02T12:40:09.178Z,,,,,,,,,,,,,,,,53,,,,,,,,,,,,,,385.8439999992552,,response,,,99,,,,,,Space,keypress(Space),,,,,---- -- ----- -- ------ - ------- --- ----------<br>------------- ------ ------ ---- ---- ------- ----- -- ----<br>-------- ------- -- ---------- --- - --- ----- ----- ----<br>---- --- --- ----- --- ---- ---- ------- ----- ---- -------<br>--- --- -- ----- -- --- ---- -- --- ---- -- ------ really<br>--- ----- -- ----,56527.09999999963,56526.199999999255,56123.685,56135.300000000745,56140.356,56540.409,,51,really
screen,html.Screen,0_2_0_1_52,2021-12-02T12:40:09.554Z,,,,,,,,,,,,,,,,53,,,,,,,,,,,,,,361.7909999992553,,response,,,99,,,,,,Space,keypress(Space),,,,,---- -- ----- -- ------ - ------- --- ----------<br>------------- ------ ------ ---- ---- ------- ----- -- ----<br>-------- ------- -- ---------- --- - --- ----- ----- ----<br>---- --- --- ----- --- ---- ---- ------- ----- ---- -------<br>--- --- -- ----- -- --- ---- -- --- ---- -- ------ ------<br>not ----- -- ----,56902.90000000037,56902.199999999255,56523.739,56527.199999999255,56540.409,56907.181,,52,not
screen,html.Screen,0_2_0_1_53,2021-12-02T12:40:09.994Z,,,,,,,,,,,,,,,,53,,,,,,,,,,,,,,435.0189999992581,,response,,,99,,,,,,Space,keypress(Space),,,,,---- -- ----- -- ------ - ------- --- ----------<br>------------- ------ ------ ---- ---- ------- ----- -- ----<br>-------- ------- -- ---------- --- - --- ----- ----- ----<br>---- --- --- ----- --- ---- ---- ------- ----- ---- -------<br>--- --- -- ----- -- --- ---- -- --- ---- -- ------ ------<br>--- close -- ----,57343,57342.199999999255,56890.511,56903.199999999255,56907.181,57357.268,,53,close
screen,html.Screen,0_2_0_1_54,2021-12-02T12:40:10.362Z,,,,,,,,,,,,,,,,53,,,,,,,,,,,,,,353.03200000074867,,response,,,99,,,,,,Space,keypress(Space),,,,,---- -- ----- -- ------ - ------- --- ----------<br>------------- ------ ------ ---- ---- ------- ----- -- ----<br>-------- ------- -- ---------- --- - --- ----- ----- ----<br>---- --- --- ----- --- ---- ---- ------- ----- ---- -------<br>--- --- -- ----- -- --- ---- -- --- ---- -- ------ ------<br>--- ----- at ----,57711,57710.300000000745,57340.598,57343.199999999255,57357.268,57724.089,,54,at
screen,html.Screen,0_2_0_1_55,2021-12-02T12:40:10.882Z,,,,,,,,,,,,,,,,53,,,,,,,,,,,,,,506.01099999962753,,response,,,99,,,,,,Space,keypress(Space),,,,,---- -- ----- -- ------ - ------- --- ----------<br>------------- ------ ------ ---- ---- ------- ----- -- ----<br>-------- ------- -- ---------- --- - --- ----- ----- ----<br>---- --- --- ----- --- ---- ---- ------- ----- ---- -------<br>--- --- -- ----- -- --- ---- -- --- ---- -- ------ ------<br>--- ----- -- all.,58231,58230.09999999963,57707.418,57711.199999999255,57724.089,58240.698,,55,all.
Item 99,flow.Loop,0_2_0_1,2021-12-02T12:40:10.887Z,,,,,,,,,,,,,,,,,,,,,,,,,,,,,,24745.777999999627,,completion,,,,F,,,,,,,,,,silence,,58235.40000000037,58230.09999999963,33467.651,33474.300000000745,33484.322,58240.698,,,
Question 1,html.Screen,0_2_0_2,2021-12-02T12:40:24.917Z,,,,,,,,,,,,,,,,,,,,,,,,,,,true,FALSE,,14020.602000000748,,response,,,99,F,,,,,FALSE,click #choice-2,,,,silence,,72262.80000000075,72261.30000000075,58224.03,58235.59999999963,58240.698,72294.281,,,
Question 2,html.Screen,0_2_0_3,2021-12-02T12:40:29.468Z,,,,,,,,,,,,,,,,,,,,,,,,,,,true,TRUE,,4518.718999999997,,response,,,99,F,,,,,TRUE,click #choice-1,,,,silence,,76814.30000000075,76813,72277.632,72263,72294.281,76829.135,,,
Item 99,flow.Sequence,0_2_0,2021-12-02T12:40:29.469Z,,,,,,,,,,,,,,,,,,,,,,,,,,,,,,53331.597,,completion,,,,,,,,,,,,,,,,76814.59999999963,76813,23464.733,23474,23481.403,76829.135,,,
Holding screen,html.Screen,0_2_1_0,2021-12-02T12:40:39.470Z,,,,,,,,,,,,,,,,,,,,,,,,,,,,,,10002.551000000007,,timeout,,,,,,,,,,,,,,,,86815.90000000037,86815.016,76812.465,76815,76829.135,86831.686,,,
screen,html.Screen,0_2_1_1_0,2021-12-02T12:40:40.484Z,,,,,,,,,,,,,,,,54,,,,,,,,,,,,,,997.6140000007435,,response,,,100,,,,,,Space,keypress(Space),,,,,At --- ---- --- ------ ----- ------- ---- -- --- ------- --<br>------- ---------- ------ -- ----- -- ----- -- ---- ------<br>--- ----- --- --- ------ -------- ----- --- ------ ----- --<br>----- ----- ---------- --- --- ------ ------ ---- -- ------<br>------- --- ------ ----- --- ---- ------- -- ---- --- --<br>------- ------,87830.09999999963,87829.30000000075,86815.016,86816.5,86831.686,87832.053,,0,At
screen,html.Screen,0_2_1_1_1,2021-12-02T12:40:41.291Z,,,,,,,,,,,,,,,,54,,,,,,,,,,,,,,804.6469999992551,,response,,,100,,,,,,Space,keypress(Space),,,,,-- the ---- --- ------ ----- ------- ---- -- --- ------- --<br>------- ---------- ------ -- ----- -- ----- -- ---- ------<br>--- ----- --- --- ------ -------- ----- --- ------ ----- --<br>----- ----- ---------- --- --- ------ ------ ---- -- ------<br>------- --- ------ ----- --- ---- ------- -- ---- --- --<br>------- ------,88637.59999999963,88636.69999999925,87815.382,87830.40000000037,87832.053,88648.993,,1,the
screen,html.Screen,0_2_1_1_2,2021-12-02T12:40:42.068Z,,,,,,,,,,,,,,,,54,,,,,,,,,,,,,,763.7069999992527,,response,,,100,,,,,,Space,keypress(Space),,,,,-- --- time --- ------ ----- ------- ---- -- --- ------- --<br>------- ---------- ------ -- ----- -- ----- -- ---- ------<br>--- ----- --- --- ------ -------- ----- --- ------ ----- --<br>----- ----- ---------- --- --- ------ ------ ---- -- ------<br>------- --- ------ ----- --- ---- ------- -- ---- --- --<br>------- ------,89413.59999999963,89412.69999999925,88632.322,88637.80000000075,88648.993,89415.78,,2,time
screen,html.Screen,0_2_1_1_3,2021-12-02T12:40:42.923Z,,,,,,,,,,,,,,,,54,,,,,,,,,,,,,,852.9199999992561,,response,,,100,,,,,,Space,keypress(Space),,,,,-- --- ---- the ------ ----- ------- ---- -- --- ------- --<br>------- ---------- ------ -- ----- -- ----- -- ---- ------<br>--- ----- --- --- ------ -------- ----- --- ------ ----- --<br>----- ----- ---------- --- --- ------ ------ ---- -- ------<br>------- --- ------ ----- --- ---- ------- -- ---- --- --<br>------- ------,90269.5,90268.69999999925,89399.11,89413.90000000037,89415.78,90282.746,,3,the
screen,html.Screen,0_2_1_1_4,2021-12-02T12:40:43.531Z,,,,,,,,,,,,,,,,54,,,,,,,,,,,,,,593.9539999992558,,response,,,100,,,,,,Space,keypress(Space),,,,,-- --- ---- --- French ----- ------- ---- -- --- ------- --<br>------- ---------- ------ -- ----- -- ----- -- ---- ------<br>--- ----- --- --- ------ -------- ----- --- ------ ----- --<br>----- ----- ---------- --- --- ------ ------ ---- -- ------<br>------- --- ------ ----- --- ---- ------- -- ---- --- --<br>------- ------,90877.5,90876.69999999925,90266.075,90270.90000000037,90282.746,90882.855,,4,French
screen,html.Screen,0_2_1_1_5,2021-12-02T12:40:44.131Z,,,,,,,,,,,,,,,,54,,,,,,,,,,,,,,593.7449999996315,,response,,,100,,,,,,Space,keypress(Space),,,,,-- --- ---- --- ------ crown ------- ---- -- --- ------- --<br>------- ---------- ------ -- ----- -- ----- -- ---- ------<br>--- ----- --- --- ------ -------- ----- --- ------ ----- --<br>----- ----- ---------- --- --- ------ ------ ---- -- ------<br>------- --- ------ ----- --- ---- ------- -- ---- --- --<br>------- ------,91477.40000000037,91476.59999999963,90866.185,90877.69999999925,90882.855,91482.994,,5,crown
screen,html.Screen,0_2_1_1_6,2021-12-02T12:40:44.851Z,,,,,,,,,,,,,,,,54,,,,,,,,,,,,,,713.6059999996214,,response,,,100,,,,,,Space,keypress(Space),,,,,-- --- ---- --- ------ ----- secured ---- -- --- ------- --<br>------- ---------- ------ -- ----- -- ----- -- ---- ------<br>--- ----- --- --- ------ -------- ----- --- ------ ----- --<br>----- ----- ---------- --- --- ------ ------ ---- -- ------<br>------- --- ------ ----- --- ---- ------- -- ---- --- --<br>------- ------,92197.40000000037,92196.59999999963,91466.324,91477.69999999925,91482.994,92199.814,,6,secured
screen,html.Screen,0_2_1_1_7,2021-12-02T12:40:45.523Z,,,,,,,,,,,,,,,,54,,,,,,,,,,,,,,668.785999999629,,response,,,100,,,,,,Space,keypress(Space),,,,,-- --- ---- --- ------ ----- ------- much -- --- ------- --<br>------- ---------- ------ -- ----- -- ----- -- ---- ------<br>--- ----- --- --- ------ -------- ----- --- ------ ----- --<br>----- ----- ---------- --- --- ------ ------ ---- -- ------<br>------- --- ------ ----- --- ---- ------- -- ---- --- --<br>------- ------,92869.30000000075,92868.59999999963,92183.144,92197.69999999925,92199.814,92883.437,,7,much
screen,html.Screen,0_2_1_1_8,2021-12-02T12:40:46.083Z,,,,,,,,,,,,,,,,54,,,,,,,,,,,,,,545.0629999999946,,response,,,100,,,,,,Space,keypress(Space),,,,,-- --- ---- --- ------ ----- ------- ---- of --- ------- --<br>------- ---------- ------ -- ----- -- ----- -- ---- ------<br>--- ----- --- --- ------ -------- ----- --- ------ ----- --<br>----- ----- ---------- --- --- ------ ------ ---- -- ------<br>------- --- ------ ----- --- ---- ------- -- ---- --- --<br>------- ------,93429.30000000075,93428.5,92866.766,92869.59999999963,92883.437,93433.477,,8,of
screen,html.Screen,0_2_1_1_9,2021-12-02T12:40:46.660Z,,,,,,,,,,,,,,,,54,,,,,,,,,,,,,,571.3230000007461,,response,,,100,,,,,,Space,keypress(Space),,,,,-- --- ---- --- ------ ----- ------- ---- -- its ------- --<br>------- ---------- ------ -- ----- -- ----- -- ---- ------<br>--- ----- --- --- ------ -------- ----- --- ------ ----- --<br>----- ----- ---------- --- --- ------ ------ ---- -- ------<br>------- --- ------ ----- --- ---- ------- -- ---- --- --<br>------- ------,94005.59999999963,94004.80000000075,93416.807,93429.59999999963,93433.477,94017.092,,9,its
screen,html.Screen,0_2_1_1_10,2021-12-02T12:40:47.379Z,,,,,,,,,,,,,,,,54,,,,,,,,,,,,,,707.4079999999958,,response,,,100,,,,,,Space,keypress(Space),,,,,-- --- ---- --- ------ ----- ------- ---- -- --- revenue --<br>------- ---------- ------ -- ----- -- ----- -- ---- ------<br>--- ----- --- --- ------ -------- ----- --- ------ ----- --<br>----- ----- ---------- --- --- ------ ------ ---- -- ------<br>------- --- ------ ----- --- ---- ------- -- ---- --- --<br>------- ------,94725.30000000075,94724.5,94000.421,94005.90000000037,94017.092,94733.862,,10,revenue
screen,html.Screen,0_2_1_1_11,2021-12-02T12:40:47.843Z,,,,,,,,,,,,,,,,54,,,,,,,,,,,,,,454.6380000000063,,response,,,100,,,,,,Space,keypress(Space),,,,,-- --- ---- --- ------ ----- ------- ---- -- --- ------- by<br>------- ---------- ------ -- ----- -- ----- -- ---- ------<br>--- ----- --- --- ------ -------- ----- --- ------ ----- --<br>----- ----- ---------- --- --- ------ ------ ---- -- ------<br>------- --- ------ ----- --- ---- ------- -- ---- --- --<br>------- ------,95189.30000000075,95188.5,94717.192,94725.5,94733.862,95200.679,,11,by
screen,html.Screen,0_2_1_1_12,2021-12-02T12:40:48.483Z,,,,,,,,,,,,,,,,54,,,,,,,,,,,,,,627.7210000003688,,response,,,100,,,,,,Space,keypress(Space),,,,,-- --- ---- --- ------ ----- ------- ---- -- --- ------- --<br>issuing ---------- ------ -- ----- -- ----- -- ---- ------<br>--- ----- --- --- ------ -------- ----- --- ------ ----- --<br>----- ----- ---------- --- --- ------ ------ ---- -- ------<br>------- --- ------ ----- --- ---- ------- -- ---- --- --<br>------- ------,95829.19999999925,95828.40000000037,95184.009,95189.5,95200.679,95834.171,,12,issuing
screen,html.Screen,0_2_1_1_13,2021-12-02T12:40:49.171Z,,,,,,,,,,,,,,,,54,,,,,,,,,,,,,,682.129000000743,,response,,,100,,,,,,Space,keypress(Space),,,,,-- --- ---- --- ------ ----- ------- ---- -- --- ------- --<br>------- government ------ -- ----- -- ----- -- ---- ------<br>--- ----- --- --- ------ -------- ----- --- ------ ----- --<br>----- ----- ---------- --- --- ------ ------ ---- -- ------<br>------- --- ------ ----- --- ---- ------- -- ---- --- --<br>------- ------,96517.09999999963,96516.30000000075,95817.501,95829.40000000037,95834.171,96534.196,,13,government
screen,html.Screen,0_2_1_1_14,2021-12-02T12:40:49.779Z,,,,,,,,,,,,,,,,54,,,,,,,,,,,,,,590.1040000007488,,response,,,100,,,,,,Space,keypress(Space),,,,,-- --- ---- --- ------ ----- ------- ---- -- --- ------- --<br>------- ---------- bonds. -- ----- -- ----- -- ---- ------<br>--- ----- --- --- ------ -------- ----- --- ------ ----- --<br>----- ----- ---------- --- --- ------ ------ ---- -- ------<br>------- --- ------ ----- --- ---- ------- -- ---- --- --<br>------- ------,97125,97124.30000000075,96517.527,96517.30000000075,96534.196,97134.578,,14,bonds.
screen,html.Screen,0_2_1_1_15,2021-12-02T12:40:50.395Z,,,,,,,,,,,,,,,,54,,,,,,,,,,,,,,605.722000000751,,response,,,100,,,,,,Space,keypress(Space),,,,,-- --- ---- --- ------ ----- ------- ---- -- --- ------- --<br>------- ---------- ------ In ----- -- ----- -- ---- ------<br>--- ----- --- --- ------ -------- ----- --- ------ ----- --<br>----- ----- ---------- --- --- ------ ------ ---- -- ------<br>------- --- ------ ----- --- ---- ------- -- ---- --- --<br>------- ------,97741.09999999963,97740.30000000075,97117.907,97125.40000000037,97134.578,97751.34,,15,In
screen,html.Screen,0_2_1_1_16,2021-12-02T12:40:51.387Z,,,,,,,,,,,,,,,,54,,,,,,,,,,,,,,981.4600000007486,,response,,,100,,,,,,Space,keypress(Space),,,,,"-- --- ---- --- ------ ----- ------- ---- -- --- ------- --<br>------- ---------- ------ -- 1727, -- ----- -- ---- ------<br>--- ----- --- --- ------ -------- ----- --- ------ ----- --<br>----- ----- ---------- --- --- ------ ------ ---- -- ------<br>------- --- ------ ----- --- ---- ------- -- ---- --- --<br>------- ------",98733.40000000037,98732.80000000075,97734.67,97741.30000000075,97751.34,98734.988,,16,"1727,"
screen,html.Screen,0_2_1_1_17,2021-12-02T12:40:52.131Z,,,,,,,,,,,,,,,,54,,,,,,,,,,,,,,741.3120000007475,,response,,,100,,,,,,Space,keypress(Space),,,,,-- --- ---- --- ------ ----- ------- ---- -- --- ------- --<br>------- ---------- ------ -- ----- in ----- -- ---- ------<br>--- ----- --- --- ------ -------- ----- --- ------ ----- --<br>----- ----- ---------- --- --- ------ ------ ---- -- ------<br>------- --- ------ ----- --- ---- ------- -- ---- --- --<br>------- ------,99477,99476.30000000075,98718.317,98733.69999999925,98734.988,99485.134,,17,in
screen,html.Screen,0_2_1_1_18,2021-12-02T12:40:52.595Z,,,,,,,,,,,,,,,,54,,,,,,,,,,,,,,455.06599999924947,,response,,,100,,,,,,Space,keypress(Space),,,,,-- --- ---- --- ------ ----- ------- ---- -- --- ------- --<br>------- ---------- ------ -- ----- -- order -- ---- ------<br>--- ----- --- --- ------ -------- ----- --- ------ ----- --<br>----- ----- ---------- --- --- ------ ------ ---- -- ------<br>------- --- ------ ----- --- ---- ------- -- ---- --- --<br>------- ------,99941.09999999963,99940.19999999925,99468.464,99477.30000000075,99485.134,99951.878,,18,order
screen,html.Screen,0_2_1_1_19,2021-12-02T12:40:53.059Z,,,,,,,,,,,,,,,,54,,,,,,,,,,,,,,452.32199999925797,,response,,,100,,,,,,Space,keypress(Space),,,,,-- --- ---- --- ------ ----- ------- ---- -- --- ------- --<br>------- ---------- ------ -- ----- -- ----- to ---- ------<br>--- ----- --- --- ------ -------- ----- --- ------ ----- --<br>----- ----- ---------- --- --- ------ ------ ---- -- ------<br>------- --- ------ ----- --- ---- ------- -- ---- --- --<br>------- ------,100404.90000000037,100404.19999999925,99935.208,99941.30000000075,99951.878,100418.767,,19,to
screen,html.Screen,0_2_1_1_20,2021-12-02T12:40:53.475Z,,,,,,,,,,,,,,,,54,,,,,,,,,,,,,,401.43299999924784,,response,,,100,,,,,,Space,keypress(Space),,,,,-- --- ---- --- ------ ----- ------- ---- -- --- ------- --<br>------- ---------- ------ -- ----- -- ----- -- save ------<br>--- ----- --- --- ------ -------- ----- --- ------ ----- --<br>----- ----- ---------- --- --- ------ ------ ---- -- ------<br>------- --- ------ ----- --- ---- ------- -- ---- --- --<br>------- ------,100821,100820.19999999925,100402.096,100405.19999999925,100418.767,100835.543,,20,save
screen,html.Screen,0_2_1_1_21,2021-12-02T12:40:53.867Z,,,,,,,,,,,,,,,,54,,,,,,,,,,,,,,376.55699999962235,,response,,,100,,,,,,Space,keypress(Space),,,,,"-- --- ---- --- ------ ----- ------- ---- -- --- ------- --<br>------- ---------- ------ -- ----- -- ----- -- ---- money,<br>--- ----- --- --- ------ -------- ----- --- ------ ----- --<br>----- ----- ---------- --- --- ------ ------ ---- -- ------<br>------- --- ------ ----- --- ---- ------- -- ---- --- --<br>------- ------",101213,101212.09999999963,100818.872,100821.19999999925,100835.543,101218.931,,21,"money,"
screen,html.Screen,0_2_1_1_22,2021-12-02T12:40:54.275Z,,,,,,,,,,,,,,,,54,,,,,,,,,,,,,,401.2689999992581,,response,,,100,,,,,,Space,keypress(Space),,,,,-- --- ---- --- ------ ----- ------- ---- -- --- ------- --<br>------- ---------- ------ -- ----- -- ----- -- ---- ------<br>the ----- --- --- ------ -------- ----- --- ------ ----- --<br>----- ----- ---------- --- --- ------ ------ ---- -- ------<br>------- --- ------ ----- --- ---- ------- -- ---- --- --<br>------- ------,101621,101620.19999999925,101202.261,101213.19999999925,101218.931,101635.751,,22,the
screen,html.Screen,0_2_1_1_23,2021-12-02T12:40:54.691Z,,,,,,,,,,,,,,,,54,,,,,,,,,,,,,,400.34899999962363,,response,,,100,,,,,,Space,keypress(Space),,,,,-- --- ---- --- ------ ----- ------- ---- -- --- ------- --<br>------- ---------- ------ -- ----- -- ----- -- ---- ------<br>--- state --- --- ------ -------- ----- --- ------ ----- --<br>----- ----- ---------- --- --- ------ ------ ---- -- ------<br>------- --- ------ ----- --- ---- ------- -- ---- --- --<br>------- ------,102037,102036.09999999963,101619.08,101621.19999999925,101635.751,102052.494,,23,state
screen,html.Screen,0_2_1_1_24,2021-12-02T12:40:55.075Z,,,,,,,,,,,,,,,,54,,,,,,,,,,,,,,367.50599999999395,,response,,,100,,,,,,Space,keypress(Space),,,,,-- --- ---- --- ------ ----- ------- ---- -- --- ------- --<br>------- ---------- ------ -- ----- -- ----- -- ---- ------<br>--- ----- cut --- ------ -------- ----- --- ------ ----- --<br>----- ----- ---------- --- --- ------ ------ ---- -- ------<br>------- --- ------ ----- --- ---- ------- -- ---- --- --<br>------- ------,102420.80000000075,102420,102035.824,102037.30000000075,102052.494,102435.906,,24,cut
screen,html.Screen,0_2_1_1_25,2021-12-02T12:40:55.467Z,,,,,,,,,,,,,,,,54,,,,,,,,,,,,,,376.0939999999973,,response,,,100,,,,,,Space,keypress(Space),,,,,-- --- ---- --- ------ ----- ------- ---- -- --- ------- --<br>------- ---------- ------ -- ----- -- ----- -- ---- ------<br>--- ----- --- the ------ -------- ----- --- ------ ----- --<br>----- ----- ---------- --- --- ------ ------ ---- -- ------<br>------- --- ------ ----- --- ---- ------- -- ---- --- --<br>------- ------,102812.80000000075,102812,102419.236,102421.09999999963,102435.906,102819.408,,25,the
screen,html.Screen,0_2_1_1_26,2021-12-02T12:40:55.811Z,,,,,,,,,,,,,,,,54,,,,,,,,,,,,,,336.69199999963166,,response,,,100,,,,,,Space,keypress(Space),,,,,-- --- ---- --- ------ ----- ------- ---- -- --- ------- --<br>------- ---------- ------ -- ----- -- ----- -- ---- ------<br>--- ----- --- --- bonds' -------- ----- --- ------ ----- --<br>----- ----- ---------- --- --- ------ ------ ---- -- ------<br>------- --- ------ ----- --- ---- ------- -- ---- --- --<br>------- ------,103156.90000000037,103156.09999999963,102802.737,102813,102819.408,103169.471,,26,bonds'
screen,html.Screen,0_2_1_1_27,2021-12-02T12:40:56.179Z,,,,,,,,,,,,,,,,54,,,,,,,,,,,,,,354.528999999995,,response,,,100,,,,,,Space,keypress(Space),,,,,-- --- ---- --- ------ ----- ------- ---- -- --- ------- --<br>------- ---------- ------ -- ----- -- ----- -- ---- ------<br>--- ----- --- --- ------ interest ----- --- ------ ----- --<br>----- ----- ---------- --- --- ------ ------ ---- -- ------<br>------- --- ------ ----- --- ---- ------- -- ---- --- --<br>------- ------,103524.80000000075,103524,103152.801,103157.09999999963,103169.471,103536.222,,27,interest
screen,html.Screen,0_2_1_1_28,2021-12-02T12:40:56.563Z,,,,,,,,,,,,,,,,54,,,,,,,,,,,,,,371.67800000037823,,response,,,100,,,,,,Space,keypress(Space),,,,,-- --- ---- --- ------ ----- ------- ---- -- --- ------- --<br>------- ---------- ------ -- ----- -- ----- -- ---- ------<br>--- ----- --- --- ------ -------- rate. --- ------ ----- --<br>----- ----- ---------- --- --- ------ ------ ---- -- ------<br>------- --- ------ ----- --- ---- ------- -- ---- --- --<br>------- ------,103908.69999999925,103907.90000000037,103519.552,103525.09999999963,103536.222,103919.709,,28,rate.
screen,html.Screen,0_2_1_1_29,2021-12-02T12:40:56.939Z,,,,,,,,,,,,,,,,54,,,,,,,,,,,,,,364.19100000036997,,response,,,100,,,,,,Space,keypress(Space),,,,,-- --- ---- --- ------ ----- ------- ---- -- --- ------- --<br>------- ---------- ------ -- ----- -- ----- -- ---- ------<br>--- ----- --- --- ------ -------- ----- The ------ ----- --<br>----- ----- ---------- --- --- ------ ------ ---- -- ------<br>------- --- ------ ----- --- ---- ------- -- ---- --- --<br>------- ------,104284.69999999925,104283.90000000037,103903.038,103908.90000000037,103919.709,104286.437,,29,The
screen,html.Screen,0_2_1_1_30,2021-12-02T12:40:57.275Z,,,,,,,,,,,,,,,,54,,,,,,,,,,,,,,333.56299999999464,,response,,,100,,,,,,Space,keypress(Space),,,,,-- --- ---- --- ------ ----- ------- ---- -- --- ------- --<br>------- ---------- ------ -- ----- -- ----- -- ---- ------<br>--- ----- --- --- ------ -------- ----- --- market ----- --<br>----- ----- ---------- --- --- ------ ------ ---- -- ------<br>------- --- ------ ----- --- ---- ------- -- ---- --- --<br>------- ------,104620.80000000075,104620,104269.767,104285,104286.437,104636.448,,30,market
screen,html.Screen,0_2_1_1_31,2021-12-02T12:40:57.595Z,,,,,,,,,,,,,,,,54,,,,,,,,,,,,,,303.55199999999604,,response,,,100,,,,,,Space,keypress(Space),,,,,-- --- ---- --- ------ ----- ------- ---- -- --- ------- --<br>------- ---------- ------ -- ----- -- ----- -- ---- ------<br>--- ----- --- --- ------ -------- ----- --- ------ value --<br>----- ----- ---------- --- --- ------ ------ ---- -- ------<br>------- --- ------ ----- --- ---- ------- -- ---- --- --<br>------- ------,104940.69999999925,104940,104619.779,104620.90000000037,104636.448,104953.311,,31,value
screen,html.Screen,0_2_1_1_32,2021-12-02T12:40:57.955Z,,,,,,,,,,,,,,,,54,,,,,,,,,,,,,,346.6889999999985,,response,,,100,,,,,,Space,keypress(Space),,,,,-- --- ---- --- ------ ----- ------- ---- -- --- ------- --<br>------- ---------- ------ -- ----- -- ----- -- ---- ------<br>--- ----- --- --- ------ -------- ----- --- ------ ----- of<br>----- ----- ---------- --- --- ------ ------ ---- -- ------<br>------- --- ------ ----- --- ---- ------- -- ---- --- --<br>------- ------,105300.69999999925,105300,104936.64,104940.90000000037,104953.311,105303.369,,32,of
screen,html.Screen,0_2_1_1_33,2021-12-02T12:40:58.282Z,,,,,,,,,,,,,,,,54,,,,,,,,,,,,,,324.3309999992489,,response,,,100,,,,,,Space,keypress(Space),,,,,-- --- ---- --- ------ ----- ------- ---- -- --- ------- --<br>------- ---------- ------ -- ----- -- ----- -- ---- ------<br>--- ----- --- --- ------ -------- ----- --- ------ ----- --<br>these ----- ---------- --- --- ------ ------ ---- -- ------<br>------- --- ------ ----- --- ---- ------- -- ---- --- --<br>------- ------,105628.19999999925,105627.69999999925,105286.699,105301,105303.369,105636.827,,33,these
screen,html.Screen,0_2_1_1_34,2021-12-02T12:40:58.611Z,,,,,,,,,,,,,,,,54,,,,,,,,,,,,,,319.07300000036776,,response,,,100,,,,,,Space,keypress(Space),,,,,-- --- ---- --- ------ ----- ------- ---- -- --- ------- --<br>------- ---------- ------ -- ----- -- ----- -- ---- ------<br>--- ----- --- --- ------ -------- ----- --- ------ ----- --<br>----- bonds ---------- --- --- ------ ------ ---- -- ------<br>------- --- ------ ----- --- ---- ------- -- ---- --- --<br>------- ------,105956.69999999925,105955.90000000037,105620.156,105628.30000000075,105636.827,105970.215,,34,bonds
screen,html.Screen,0_2_1_1_35,2021-12-02T12:40:58.947Z,,,,,,,,,,,,,,,,54,,,,,,,,,,,,,,321.685000000376,,response,,,100,,,,,,Space,keypress(Space),,,,,"-- --- ---- --- ------ ----- ------- ---- -- --- ------- --<br>------- ---------- ------ -- ----- -- ----- -- ---- ------<br>--- ----- --- --- ------ -------- ----- --- ------ ----- --<br>----- ----- plummeted, --- --- ------ ------ ---- -- ------<br>------- --- ------ ----- --- ---- ------- -- ---- --- --<br>------- ------",106292.69999999925,106291.90000000037,105953.545,105956.90000000037,105970.215,106303.618,,35,"plummeted,"
screen,html.Screen,0_2_1_1_36,2021-12-02T12:40:59.299Z,,,,,,,,,,,,,,,,54,,,,,,,,,,,,,,340.2820000003703,,response,,,100,,,,,,Space,keypress(Space),,,,,-- --- ---- --- ------ ----- ------- ---- -- --- ------- --<br>------- ---------- ------ -- ----- -- ----- -- ---- ------<br>--- ----- --- --- ------ -------- ----- --- ------ ----- --<br>----- ----- ---------- and --- ------ ------ ---- -- ------<br>------- --- ------ ----- --- ---- ------- -- ---- --- --<br>------- ------,106644.69999999925,106643.90000000037,106286.948,106293,106303.618,106653.724,,36,and
screen,html.Screen,0_2_1_1_37,2021-12-02T12:40:59.611Z,,,,,,,,,,,,,,,,54,,,,,,,,,,,,,,302.17600000037055,,response,,,100,,,,,,Space,keypress(Space),,,,,-- --- ---- --- ------ ----- ------- ---- -- --- ------- --<br>------- ---------- ------ -- ----- -- ----- -- ---- ------<br>--- ----- --- --- ------ -------- ----- --- ------ ----- --<br>----- ----- ---------- --- the ------ ------ ---- -- ------<br>------- --- ------ ----- --- ---- ------- -- ---- --- --<br>------- ------,106956.69999999925,106955.90000000037,106637.054,106645,106653.724,106970.519,,37,the
screen,html.Screen,0_2_1_1_38,2021-12-02T12:40:59.899Z,,,,,,,,,,,,,,,,54,,,,,,,,,,,,,,273.3810000003723,,response,,,100,,,,,,Space,keypress(Space),,,,,-- --- ---- --- ------ ----- ------- ---- -- --- ------- --<br>------- ---------- ------ -- ----- -- ----- -- ---- ------<br>--- ----- --- --- ------ -------- ----- --- ------ ----- --<br>----- ----- ---------- --- --- market ------ ---- -- ------<br>------- --- ------ ----- --- ---- ------- -- ---- --- --<br>------- ------,107244.69999999925,107243.90000000037,106953.848,106956.90000000037,106970.519,107253.787,,38,market
screen,html.Screen,0_2_1_1_39,2021-12-02T12:41:00.227Z,,,,,,,,,,,,,,,,54,,,,,,,,,,,,,,318.1130000003759,,response,,,100,,,,,,Space,keypress(Space),,,,,-- --- ---- --- ------ ----- ------- ---- -- --- ------- --<br>------- ---------- ------ -- ----- -- ----- -- ---- ------<br>--- ----- --- --- ------ -------- ----- --- ------ ----- --<br>----- ----- ---------- --- --- ------ became ---- -- ------<br>------- --- ------ ----- --- ---- ------- -- ---- --- --<br>------- ------,107572.59999999963,107571.90000000037,107237.119,107245,107253.787,107587.411,,39,became
screen,html.Screen,0_2_1_1_40,2021-12-02T12:41:00.539Z,,,,,,,,,,,,,,,,54,,,,,,,,,,,,,,296.48900000037975,,response,,,100,,,,,,Space,keypress(Space),,,,,-- --- ---- --- ------ ----- ------- ---- -- --- ------- --<br>------- ---------- ------ -- ----- -- ----- -- ---- ------<br>--- ----- --- --- ------ -------- ----- --- ------ ----- --<br>----- ----- ---------- --- --- ------ ------ wary -- ------<br>------- --- ------ ----- --- ---- ------- -- ---- --- --<br>------- ------,107884.59999999963,107883.90000000037,107570.738,107572.90000000037,107587.411,107887.388,,40,wary
screen,html.Screen,0_2_1_1_41,2021-12-02T12:41:00.899Z,,,,,,,,,,,,,,,,54,,,,,,,,,,,,,,356.4120000007388,,response,,,100,,,,,,Space,keypress(Space),,,,,-- --- ---- --- ------ ----- ------- ---- -- --- ------- --<br>------- ---------- ------ -- ----- -- ----- -- ---- ------<br>--- ----- --- --- ------ -------- ----- --- ------ ----- --<br>----- ----- ---------- --- --- ------ ------ ---- of ------<br>------- --- ------ ----- --- ---- ------- -- ---- --- --<br>------- ------,108244.80000000075,108243.80000000075,107870.718,107885,107887.388,108254.144,,41,of
screen,html.Screen,0_2_1_1_42,2021-12-02T12:41:01.243Z,,,,,,,,,,,,,,,,54,,,,,,,,,,,,,,333.7560000003723,,response,,,100,,,,,,Space,keypress(Space),,,,,-- --- ---- --- ------ ----- ------- ---- -- --- ------- --<br>------- ---------- ------ -- ----- -- ----- -- ---- ------<br>--- ----- --- --- ------ -------- ----- --- ------ ----- --<br>----- ----- ---------- --- --- ------ ------ ---- -- French<br>------- --- ------ ----- --- ---- ------- -- ---- --- --<br>------- ------,108588.69999999925,108587.90000000037,108237.474,108245,108254.144,108604.245,,42,French
screen,html.Screen,0_2_1_1_43,2021-12-02T12:41:01.611Z,,,,,,,,,,,,,,,,54,,,,,,,,,,,,,,352.0550000007497,,response,,,100,,,,,,Space,keypress(Space),,,,,-- --- ---- --- ------ ----- ------- ---- -- --- ------- --<br>------- ---------- ------ -- ----- -- ----- -- ---- ------<br>--- ----- --- --- ------ -------- ----- --- ------ ----- --<br>----- ----- ---------- --- --- ------ ------ ---- -- ------<br>credit. --- ------ ----- --- ---- ------- -- ---- --- --<br>------- ------,108957,108956.30000000075,108587.575,108589,108604.245,108970.975,,43,credit.
screen,html.Screen,0_2_1_1_44,2021-12-02T12:41:02.011Z,,,,,,,,,,,,,,,,54,,,,,,,,,,,,,,384.82500000073924,,response,,,100,,,,,,Space,keypress(Space),,,,,-- --- ---- --- ------ ----- ------- ---- -- --- ------- --<br>------- ---------- ------ -- ----- -- ----- -- ---- ------<br>--- ----- --- --- ------ -------- ----- --- ------ ----- --<br>----- ----- ---------- --- --- ------ ------ ---- -- ------<br>------- The ------ ----- --- ---- ------- -- ---- --- --<br>------- ------,109356.69999999925,109355.80000000075,108954.305,108957.30000000075,108970.975,109371.157,,44,The
screen,html.Screen,0_2_1_1_45,2021-12-02T12:41:02.378Z,,,,,,,,,,,,,,,,54,,,,,,,,,,,,,,352.64300000073854,,response,,,100,,,,,,Space,keypress(Space),,,,,-- --- ---- --- ------ ----- ------- ---- -- --- ------- --<br>------- ---------- ------ -- ----- -- ----- -- ---- ------<br>--- ----- --- --- ------ -------- ----- --- ------ ----- --<br>----- ----- ---------- --- --- ------ ------ ---- -- ------<br>------- --- French ----- --- ---- ------- -- ---- --- --<br>------- ------,109724.59999999963,109723.80000000075,109354.486,109356.90000000037,109371.157,109737.868,,45,French
screen,html.Screen,0_2_1_1_46,2021-12-02T12:41:02.706Z,,,,,,,,,,,,,,,,54,,,,,,,,,,,,,,313.93200000074285,,response,,,100,,,,,,Space,keypress(Space),,,,,-- --- ---- --- ------ ----- ------- ---- -- --- ------- --<br>------- ---------- ------ -- ----- -- ----- -- ---- ------<br>--- ----- --- --- ------ -------- ----- --- ------ ----- --<br>----- ----- ---------- --- --- ------ ------ ---- -- ------<br>------- --- ------ state --- ---- ------- -- ---- --- --<br>------- ------,110052.5,110051.80000000075,109721.198,109724.90000000037,109737.868,110054.664,,46,state
screen,html.Screen,0_2_1_1_47,2021-12-02T12:41:03.050Z,,,,,,,,,,,,,,,,54,,,,,,,,,,,,,,340.7360000003682,,response,,,100,,,,,,Space,keypress(Space),,,,,-- --- ---- --- ------ ----- ------- ---- -- --- ------- --<br>------- ---------- ------ -- ----- -- ----- -- ---- ------<br>--- ----- --- --- ------ -------- ----- --- ------ ----- --<br>----- ----- ---------- --- --- ------ ------ ---- -- ------<br>------- --- ------ ----- was ---- ------- -- ---- --- --<br>------- ------,110395.80000000075,110395.40000000037,110037.993,110052.80000000075,110054.664,110404.596,,47,was
screen,html.Screen,0_2_1_1_48,2021-12-02T12:41:03.426Z,,,,,,,,,,,,,,,,54,,,,,,,,,,,,,,367.20400000074005,,response,,,100,,,,,,Space,keypress(Space),,,,,-- --- ---- --- ------ ----- ------- ---- -- --- ------- --<br>------- ---------- ------ -- ----- -- ----- -- ---- ------<br>--- ----- --- --- ------ -------- ----- --- ------ ----- --<br>----- ----- ---------- --- --- ------ ------ ---- -- ------<br>------- --- ------ ----- --- left ------- -- ---- --- --<br>------- ------,110772.59999999963,110771.80000000075,110387.928,110395.80000000075,110404.596,110788.205,,48,left
screen,html.Screen,0_2_1_1_49,2021-12-02T12:41:03.762Z,,,,,,,,,,,,,,,,54,,,,,,,,,,,,,,319.4949999992532,,response,,,100,,,,,,Space,keypress(Space),,,,,-- --- ---- --- ------ ----- ------- ---- -- --- ------- --<br>------- ---------- ------ -- ----- -- ----- -- ---- ------<br>--- ----- --- --- ------ -------- ----- --- ------ ----- --<br>----- ----- ---------- --- --- ------ ------ ---- -- ------<br>------- --- ------ ----- --- ---- without -- ---- --- --<br>------- ------,111108.5,111107.69999999925,110771.532,110772.80000000075,110788.205,111121.501,,49,without
screen,html.Screen,0_2_1_1_50,2021-12-02T12:41:04.066Z,,,,,,,,,,,,,,,,54,,,,,,,,,,,,,,290.09899999962363,,response,,,100,,,,,,Space,keypress(Space),,,,,-- --- ---- --- ------ ----- ------- ---- -- --- ------- --<br>------- ---------- ------ -- ----- -- ----- -- ---- ------<br>--- ----- --- --- ------ -------- ----- --- ------ ----- --<br>----- ----- ---------- --- --- ------ ------ ---- -- ------<br>------- --- ------ ----- --- ---- ------- an ---- --- --<br>------- ------,111412.5,111411.59999999963,111104.832,111108.69999999925,111121.501,111421.721,,50,an
screen,html.Screen,0_2_1_1_51,2021-12-02T12:41:04.330Z,,,,,,,,,,,,,,,,54,,,,,,,,,,,,,,253.87899999962247,,response,,,100,,,,,,Space,keypress(Space),,,,,-- --- ---- --- ------ ----- ------- ---- -- --- ------- --<br>------- ---------- ------ -- ----- -- ----- -- ---- ------<br>--- ----- --- --- ------ -------- ----- --- ------ ----- --<br>----- ----- ---------- --- --- ------ ------ ---- -- ------<br>------- --- ------ ----- --- ---- ------- -- easy --- --<br>------- ------,111676.5,111675.59999999963,111405.049,111412.69999999925,111421.721,111688.431,,51,easy
screen,html.Screen,0_2_1_1_52,2021-12-02T12:41:04.562Z,,,,,,,,,,,,,,,,54,,,,,,,,,,,,,,219.26899999925809,,response,,,100,,,,,,Space,keypress(Space),,,,,-- --- ---- --- ------ ----- ------- ---- -- --- ------- --<br>------- ---------- ------ -- ----- -- ----- -- ---- ------<br>--- ----- --- --- ------ -------- ----- --- ------ ----- --<br>----- ----- ---------- --- --- ------ ------ ---- -- ------<br>------- --- ------ ----- --- ---- ------- -- ---- way --<br>------- ------,111908.59999999963,111907.69999999925,111671.76,111676.69999999925,111688.431,111921.811,,52,way
screen,html.Screen,0_2_1_1_53,2021-12-02T12:41:05.058Z,,,,,,,,,,,,,,,,54,,,,,,,,,,,,,,481.78899999962596,,response,,,100,,,,,,Space,keypress(Space),,,,,-- --- ---- --- ------ ----- ------- ---- -- --- ------- --<br>------- ---------- ------ -- ----- -- ----- -- ---- ------<br>--- ----- --- --- ------ -------- ----- --- ------ ----- --<br>----- ----- ---------- --- --- ------ ------ ---- -- ------<br>------- --- ------ ----- --- ---- ------- -- ---- --- of<br>------- ------,112404.40000000037,112403.59999999963,111905.141,111908.80000000075,111921.811,112421.919,,53,of
screen,html.Screen,0_2_1_1_54,2021-12-02T12:41:05.346Z,,,,,,,,,,,,,,,,54,,,,,,,,,,,,,,269.68099999963306,,response,,,100,,,,,,Space,keypress(Space),,,,,-- --- ---- --- ------ ----- ------- ---- -- --- ------- --<br>------- ---------- ------ -- ----- -- ----- -- ---- ------<br>--- ----- --- --- ------ -------- ----- --- ------ ----- --<br>----- ----- ---------- --- --- ------ ------ ---- -- ------<br>------- --- ------ ----- --- ---- ------- -- ---- --- --<br>raising ------,112692.40000000037,112691.59999999963,112405.249,112404.59999999963,112421.919,112705.142,,54,raising
screen,html.Screen,0_2_1_1_55,2021-12-02T12:41:05.674Z,,,,,,,,,,,,,,,,54,,,,,,,,,,,,,,314.45799999962037,,response,,,100,,,,,,Space,keypress(Space),,,,,-- --- ---- --- ------ ----- ------- ---- -- --- ------- --<br>------- ---------- ------ -- ----- -- ----- -- ---- ------<br>--- ----- --- --- ------ -------- ----- --- ------ ----- --<br>----- ----- ---------- --- --- ------ ------ ---- -- ------<br>------- --- ------ ----- --- ---- ------- -- ---- --- --<br>------- money.,113020.40000000037,113019.59999999963,112688.475,112692.69999999925,112705.142,113022.045,,55,money.
Item 100,flow.Loop,0_2_1_1,2021-12-02T12:41:05.675Z,,,,,,,,,,,,,,,,,,,,,,,,,,,,,,26187.913999999626,,completion,,,,F,,,,,,,,,,silence,,113020.80000000075,113019.59999999963,86815.016,86816.30000000075,86831.686,113022.045,,,
Question 1,html.Screen,0_2_1_2,2021-12-02T12:41:08.002Z,,,,,,,,,,,,,,,,,,,,,,,,,,,true,TRUE,,2325.255000000747,,response,,,100,F,,,,,TRUE,click #choice-1,,,,silence,,115348.5,115347.30000000075,113005.375,113021.09999999963,113022.045,115356.021,,,
Question 2,html.Screen,0_2_1_3,2021-12-02T12:41:10.962Z,,,,,,,,,,,,,,,,,,,,,,,,,,,true,FALSE,,2951.1789999992616,,response,,,100,F,,,,,FALSE,click #choice-2,,,,silence,,118308.40000000037,118307.19999999925,115339.351,115348.69999999925,115356.021,118323.485,,,
Item 100,flow.Sequence,0_2_1,2021-12-02T12:41:10.963Z,,,,,,,,,,,,,,,,,,,,,,,,,,,,,,41478.06499999926,,completion,,,,,,,,,,,,,,,,118308.80000000075,118307.19999999925,76812.465,76814.90000000037,76829.135,118323.485,,,
End of Practice,html.Page,0_2_2,2021-12-02T12:41:14.903Z,,,,,,,,,,,,,,,,,,,,,,,,,,,,,,3920.915000000372,,form submission,,,,,,,,,,,,,,,,122245,122244.40000000037,118306.815,118309,118323.485,122258.056,,,
Practice,flow.Sequence,0_2,2021-12-02T12:41:14.903Z,,,,,,,,,,,,,,,,,,,,,,,,,,,,,,98762.99700000038,,completion,,,,,,,,,,,,,,,,122245.30000000075,122244.40000000037,23464.733,23473.900000000373,23481.403,122258.056,,,
Trap_instruction,html.Page,0_3_0,2021-12-02T12:41:18.238Z,,,,,,,,,,,,,,,,,,,,,,,,,,,,,,3322.244000000748,,form submission,,,,,,,,,,,,,,,,125580.80000000075,125580.30000000075,122241.379,122245.59999999963,122258.056,125608.777,,,
trap_trial,html.Screen,0_3_1,2021-12-02T12:41:22.765Z,,,,,,,,,,,,,,,,,,,,,,,,,,,true,1,,4497.922999999253,,response,,,,,,,,,1,click #choice-1,,,,,,130107.80000000075,130106.69999999925,125575.435,125581.09999999963,125608.777,130126.309,,,
end of trap trial,html.Page,0_3_2,2021-12-02T12:41:24.334Z,,,,,,,,,,,,,,,,,,,,,,,,,,,,,,1549.5910000003787,,form submission,,,,,,,,,,,,,,,,131676.5,131675.90000000037,130109.639,130108.09999999963,130126.309,131676.978,,,
Trap 1,flow.Sequence,0_3,2021-12-02T12:41:24.335Z,,,,,,,,,,,,,,,,,,,,,,,,,,,,,,9417.844000000376,,completion,,,,,,,,,,,,,,,,131676.90000000037,131675.90000000037,122241.379,122245.59999999963,122258.056,131676.978,,,
Standby,html.Page,0_4_0,2021-12-02T12:41:32.322Z,,,,,,,,,,,,,,,,,,,,,,,,,,,,,,8002.128999999986,,timeout,,,,,,,,,,,,,,,,139664.09999999963,139662.436,131660.308,131677.30000000075,131676.978,139679.107,,,
Holding screen,html.Screen,0_4_1_0_0,2021-12-02T12:41:39.324Z,,,,,,,,,,,,,,,,,,,,,,,,,,,,,,7001.940000000002,,timeout,,,,,,,,,,,,,,,,146665.90000000037,146664.376,139662.436,139664.40000000037,139679.107,146681.047,,,
screen,html.Screen,0_4_1_0_1_0,2021-12-02T12:41:40.437Z,,,,,,,,,,,,,,,,11,,,,,,,,,,,,,,1097.4530000000086,,response,,,4,F,,,,,Space,keypress(Space),,,,instrumental,Known -- ---- --- -- --- -------- ------------ ---------- --<br>- ------- ------ --------- -- ------------ -- --- ---- -----<br>------ ---- ---- ------ ------ ------- --- ----- ---------<br>---- --- -------- -------- --- --- -- ------- --- --- -----<br>-- --- ------ ------- --- --- -------- ---- --------- --<br>---------- -- -------- ----------------,147779.59999999963,147778.5,146664.376,146666.40000000037,146681.047,147781.181,,0,Known
screen,html.Screen,0_4_1_0_1_1,2021-12-02T12:41:40.884Z,,,,,,,,,,,,,,,,11,,,,,,,,,,,,,,444.7190000003611,,response,,,4,F,,,,,Space,keypress(Space),,,,instrumental,----- as ---- --- -- --- -------- ------------ ---------- --<br>- ------- ------ --------- -- ------------ -- --- ---- -----<br>------ ---- ---- ------ ------ ------- --- ----- ---------<br>---- --- -------- -------- --- --- -- ------- --- --- -----<br>-- --- ------ ------- --- --- -------- ---- --------- --<br>---------- -- -------- ----------------,148226.80000000075,148225.90000000037,147764.511,147780,147781.181,148231.388,,1,as
screen,html.Screen,0_4_1_0_1_2,2021-12-02T12:41:41.260Z,,,,,,,,,,,,,,,,11,,,,,,,,,,,,,,370.6119999999937,,response,,,4,F,,,,,Space,keypress(Space),,,,instrumental,----- -- Rapa --- -- --- -------- ------------ ---------- --<br>- ------- ------ --------- -- ------------ -- --- ---- -----<br>------ ---- ---- ------ ------ ------- --- ----- ---------<br>---- --- -------- -------- --- --- -- ------- --- --- -----<br>-- --- ------ ------- --- --- -------- ---- --------- --<br>---------- -- -------- ----------------,148602.69999999925,148602,148214.718,148227.09999999963,148231.388,148614.913,,2,Rapa
screen,html.Screen,0_4_1_0_1_3,2021-12-02T12:41:41.628Z,,,,,,,,,,,,,,,,11,,,,,,,,,,,,,,354.98700000037206,,response,,,4,F,,,,,Space,keypress(Space),,,,instrumental,----- -- ---- Nui -- --- -------- ------------ ---------- --<br>- ------- ------ --------- -- ------------ -- --- ---- -----<br>------ ---- ---- ------ ------ ------- --- ----- ---------<br>---- --- -------- -------- --- --- -- ------- --- --- -----<br>-- --- ------ ------- --- --- -------- ---- --------- --<br>---------- -- -------- ----------------,148970.69999999925,148969.90000000037,148598.242,148603,148614.913,148981.677,,3,Nui
screen,html.Screen,0_4_1_0_1_4,2021-12-02T12:41:42.021Z,,,,,,,,,,,,,,,,11,,,,,,,,,,,,,,380.2230000003765,,response,,,4,F,,,,,Space,keypress(Space),,,,instrumental,----- -- ---- --- to --- -------- ------------ ---------- --<br>- ------- ------ --------- -- ------------ -- --- ---- -----<br>------ ---- ---- ------ ------ ------- --- ----- ---------<br>---- --- -------- -------- --- --- -- ------- --- --- -----<br>-- --- ------ ------- --- --- -------- ---- --------- --<br>---------- -- -------- ----------------,149362.80000000075,149361.90000000037,148965.006,148971,148981.677,149365.074,,4,to
screen,html.Screen,0_4_1_0_1_5,2021-12-02T12:41:42.348Z,,,,,,,,,,,,,,,,11,,,,,,,,,,,,,,324.8260000003793,,response,,,4,F,,,,,Space,keypress(Space),,,,instrumental,----- -- ---- --- -- the -------- ------------ ---------- --<br>- ------- ------ --------- -- ------------ -- --- ---- -----<br>------ ---- ---- ------ ------ ------- --- ----- ---------<br>---- --- -------- -------- --- --- -- ------- --- --- -----<br>-- --- ------ ------- --- --- -------- ---- --------- --<br>---------- -- -------- ----------------,149690.69999999925,149689.90000000037,149348.404,149363,149365.074,149698.508,,5,the
screen,html.Screen,0_4_1_0_1_6,2021-12-02T12:41:42.652Z,,,,,,,,,,,,,,,,11,,,,,,,,,,,,,,295.2920000007434,,response,,,4,F,,,,,Space,keypress(Space),,,,instrumental,----- -- ---- --- -- --- island's ------------ ---------- --<br>- ------- ------ --------- -- ------------ -- --- ---- -----<br>------ ---- ---- ------ ------ ------- --- ----- ---------<br>---- --- -------- -------- --- --- -- ------- --- --- -----<br>-- --- ------ ------- --- --- -------- ---- --------- --<br>---------- -- -------- ----------------,149994.59999999963,149993.80000000075,149681.838,149690.90000000037,149698.508,149998.589,,6,island's
screen,html.Screen,0_4_1_0_1_7,2021-12-02T12:41:43.012Z,,,,,,,,,,,,,,,,11,,,,,,,,,,,,,,355.21100000073784,,response,,,4,F,,,,,Space,keypress(Space),,,,instrumental,"----- -- ---- --- -- --- -------- inhabitants, ---------- --<br>- ------- ------ --------- -- ------------ -- --- ---- -----<br>------ ---- ---- ------ ------ ------- --- ----- ---------<br>---- --- -------- -------- --- --- -- ------- --- --- -----<br>-- --- ------ ------- --- --- -------- ---- --------- --<br>---------- -- -------- ----------------",150354.59999999963,150353.80000000075,149981.919,149994.90000000037,149998.589,150365.285,,7,"inhabitants,"
screen,html.Screen,0_4_1_0_1_8,2021-12-02T12:41:43.380Z,,,,,,,,,,,,,,,,11,,,,,,,,,,,,,,356.51500000074157,,response,,,4,F,,,,,Space,keypress(Space),,,,instrumental,----- -- ---- --- -- --- -------- ------------ Rongorongo --<br>- ------- ------ --------- -- ------------ -- --- ---- -----<br>------ ---- ---- ------ ------ ------- --- ----- ---------<br>---- --- -------- -------- --- --- -- ------- --- --- -----<br>-- --- ------ ------- --- --- -------- ---- --------- --<br>---------- -- -------- ----------------,150722.69999999925,150721.80000000075,150348.616,150354.80000000075,150365.285,150732.013,,8,Rongorongo
screen,html.Screen,0_4_1_0_1_9,2021-12-02T12:41:43.788Z,,,,,,,,,,,,,,,,11,,,,,,,,,,,,,,397.88700000036624,,response,,,4,F,,,,,Space,keypress(Space),,,,instrumental,----- -- ---- --- -- --- -------- ------------ ---------- is<br>- ------- ------ --------- -- ------------ -- --- ---- -----<br>------ ---- ---- ------ ------ ------- --- ----- ---------<br>---- --- -------- -------- --- --- -- ------- --- --- -----<br>-- --- ------ ------- --- --- -------- ---- --------- --<br>---------- -- -------- ----------------,151130.59999999963,151129.90000000037,150715.344,150722.90000000037,150732.013,151132.169,,9,is
screen,html.Screen,0_4_1_0_1_10,2021-12-02T12:41:44.148Z,,,,,,,,,,,,,,,,11,,,,,,,,,,,,,,357.63100000075065,,response,,,4,F,,,,,Space,keypress(Space),,,,instrumental,----- -- ---- --- -- --- -------- ------------ ---------- --<br>a ------- ------ --------- -- ------------ -- --- ---- -----<br>------ ---- ---- ------ ------ ------- --- ----- ---------<br>---- --- -------- -------- --- --- -- ------- --- --- -----<br>-- --- ------ ------- --- --- -------- ---- --------- --<br>---------- -- -------- ----------------,151490.69999999925,151489.80000000075,151115.499,151130.80000000075,151132.169,151499.11,,10,a
screen,html.Screen,0_4_1_0_1_11,2021-12-02T12:41:44.556Z,,,,,,,,,,,,,,,,11,,,,,,,,,,,,,,398.690000000759,,response,,,4,F,,,,,Space,keypress(Space),,,,instrumental,----- -- ---- --- -- --- -------- ------------ ---------- --<br>- writing ------ --------- -- ------------ -- --- ---- -----<br>------ ---- ---- ------ ------ ------- --- ----- ---------<br>---- --- -------- -------- --- --- -- ------- --- --- -----<br>-- --- ------ ------- --- --- -------- ---- --------- --<br>---------- -- -------- ----------------,151898.59999999963,151897.80000000075,151482.437,151490.90000000037,151499.11,151915.741,,11,writing
screen,html.Screen,0_4_1_0_1_12,2021-12-02T12:41:44.940Z,,,,,,,,,,,,,,,,11,,,,,,,,,,,,,,366.059000000736,,response,,,4,F,,,,,Space,keypress(Space),,,,instrumental,----- -- ---- --- -- --- -------- ------------ ---------- --<br>- ------- system --------- -- ------------ -- --- ---- -----<br>------ ---- ---- ------ ------ ------- --- ----- ---------<br>---- --- -------- -------- --- --- -- ------- --- --- -----<br>-- --- ------ ------- --- --- -------- ---- --------- --<br>---------- -- -------- ----------------,152282.59999999963,152281.80000000075,151899.071,151898.80000000075,151915.741,152299.054,,12,system
screen,html.Screen,0_4_1_0_1_13,2021-12-02T12:41:45.348Z,,,,,,,,,,,,,,,,11,,,,,,,,,,,,,,390.6459999992512,,response,,,4,F,,,,,Space,keypress(Space),,,,instrumental,----- -- ---- --- -- --- -------- ------------ ---------- --<br>- ------- ------ comprised -- ------------ -- --- ---- -----<br>------ ---- ---- ------ ------ ------- --- ----- ---------<br>---- --- -------- -------- --- --- -- ------- --- --- -----<br>-- --- ------ ------- --- --- -------- ---- --------- --<br>---------- -- -------- ----------------,152690.59999999963,152689.69999999925,152282.386,152282.69999999925,152299.054,152699.253,,13,comprised
screen,html.Screen,0_4_1_0_1_14,2021-12-02T12:41:45.700Z,,,,,,,,,,,,,,,,11,,,,,,,,,,,,,,342.44699999925797,,response,,,4,F,,,,,Space,keypress(Space),,,,instrumental,----- -- ---- --- -- --- -------- ------------ ---------- --<br>- ------- ------ --------- of ------------ -- --- ---- -----<br>------ ---- ---- ------ ------ ------- --- ----- ---------<br>---- --- -------- -------- --- --- -- ------- --- --- -----<br>-- --- ------ ------- --- --- -------- ---- --------- --<br>---------- -- -------- ----------------,153042.59999999963,153041.69999999925,152682.583,152690.90000000037,152699.253,153049.349,,14,of
screen,html.Screen,0_4_1_0_1_15,2021-12-02T12:41:46.076Z,,,,,,,,,,,,,,,,11,,,,,,,,,,,,,,368.3509999992675,,response,,,4,F,,,,,Space,keypress(Space),,,,instrumental,----- -- ---- --- -- --- -------- ------------ ---------- --<br>- ------- ------ --------- -- pictographs. -- --- ---- -----<br>------ ---- ---- ------ ------ ------- --- ----- ---------<br>---- --- -------- -------- --- --- -- ------- --- --- -----<br>-- --- ------ ------- --- --- -------- ---- --------- --<br>---------- -- -------- ----------------,153418.5,153417.69999999925,153032.679,153042.80000000075,153049.349,153432.782,,15,pictographs.
screen,html.Screen,0_4_1_0_1_16,2021-12-02T12:41:46.420Z,,,,,,,,,,,,,,,,11,,,,,,,,,,,,,,328.9179999992484,,response,,,4,F,,,,,Space,keypress(Space),,,,instrumental,----- -- ---- --- -- --- -------- ------------ ---------- --<br>- ------- ------ --------- -- ------------ It --- ---- -----<br>------ ---- ---- ------ ------ ------- --- ----- ---------<br>---- --- -------- -------- --- --- -- ------- --- --- -----<br>-- --- ------ ------- --- --- -------- ---- --------- --<br>---------- -- -------- ----------------,153762.5,153761.69999999925,153416.112,153418.69999999925,153432.782,153766.242,,16,It
screen,html.Screen,0_4_1_0_1_17,2021-12-02T12:41:46.772Z,,,,,,,,,,,,,,,,11,,,,,,,,,,,,,,347.3579999996291,,response,,,4,F,,,,,Space,keypress(Space),,,,instrumental,----- -- ---- --- -- --- -------- ------------ ---------- --<br>- ------- ------ --------- -- ------------ -- has ---- -----<br>------ ---- ---- ------ ------ ------- --- ----- ---------<br>---- --- -------- -------- --- --- -- ------- --- --- -----<br>-- --- ------ ------- --- --- -------- ---- --------- --<br>---------- -- -------- ----------------,154114.40000000037,154113.59999999963,153749.571,153762.69999999925,153766.242,154116.422,,17,has
screen,html.Screen,0_4_1_0_1_18,2021-12-02T12:41:47.076Z,,,,,,,,,,,,,,,,11,,,,,,,,,,,,,,301.27799999926356,,response,,,4,F,,,,,Space,keypress(Space),,,,instrumental,----- -- ---- --- -- --- -------- ------------ ---------- --<br>- ------- ------ --------- -- ------------ -- --- been -----<br>------ ---- ---- ------ ------ ------- --- ----- ---------<br>---- --- -------- -------- --- --- -- ------- --- --- -----<br>-- --- ------ ------- --- --- -------- ---- --------- --<br>---------- -- -------- ----------------,154418.5,154417.69999999925,154099.75,154114.69999999925,154116.422,154433.089,,18,been
screen,html.Screen,0_4_1_0_1_19,2021-12-02T12:41:47.388Z,,,,,,,,,,,,,,,,11,,,,,,,,,,,,,,296.6109999992477,,response,,,4,F,,,,,Space,keypress(Space),,,,instrumental,----- -- ---- --- -- --- -------- ------------ ---------- --<br>- ------- ------ --------- -- ------------ -- --- ---- found<br>------ ---- ---- ------ ------ ------- --- ----- ---------<br>---- --- -------- -------- --- --- -- ------- --- --- -----<br>-- --- ------ ------- --- --- -------- ---- --------- --<br>---------- -- -------- ----------------,154730.40000000037,154729.69999999925,154416.419,154418.80000000075,154433.089,154733.163,,19,found
screen,html.Screen,0_4_1_0_1_20,2021-12-02T12:41:47.668Z,,,,,,,,,,,,,,,,11,,,,,,,,,,,,,,276.436999999627,,response,,,4,F,,,,,Space,keypress(Space),,,,instrumental,----- -- ---- --- -- --- -------- ------------ ---------- --<br>- ------- ------ --------- -- ------------ -- --- ---- -----<br>carved ---- ---- ------ ------ ------- --- ----- ---------<br>---- --- -------- -------- --- --- -- ------- --- --- -----<br>-- --- ------ ------- --- --- -------- ---- --------- --<br>---------- -- -------- ----------------,155010.30000000075,155009.59999999963,154716.493,154730.69999999925,154733.163,155016.567,,20,carved
screen,html.Screen,0_4_1_0_1_21,2021-12-02T12:41:47.956Z,,,,,,,,,,,,,,,,11,,,,,,,,,,,,,,281.03299999961746,,response,,,4,F,,,,,Space,keypress(Space),,,,instrumental,----- -- ---- --- -- --- -------- ------------ ---------- --<br>- ------- ------ --------- -- ------------ -- --- ---- -----<br>------ into ---- ------ ------ ------- --- ----- ---------<br>---- --- -------- -------- --- --- -- ------- --- --- -----<br>-- --- ------ ------- --- --- -------- ---- --------- --<br>---------- -- -------- ----------------,155298.40000000037,155297.59999999963,154999.897,155010.59999999963,155016.567,155300.02,,21,into
screen,html.Screen,0_4_1_0_1_22,2021-12-02T12:41:48.284Z,,,,,,,,,,,,,,,,11,,,,,,,,,,,,,,325.57999999963795,,response,,,4,F,,,,,Space,keypress(Space),,,,instrumental,----- -- ---- --- -- --- -------- ------------ ---------- --<br>- ------- ------ --------- -- ------------ -- --- ---- -----<br>------ ---- many ------ ------ ------- --- ----- ---------<br>---- --- -------- -------- --- --- -- ------- --- --- -----<br>-- --- ------ ------- --- --- -------- ---- --------- --<br>---------- -- -------- ----------------,155626.40000000037,155625.59999999963,155283.349,155298.69999999925,155300.02,155633.404,,22,many
screen,html.Screen,0_4_1_0_1_23,2021-12-02T12:41:48.596Z,,,,,,,,,,,,,,,,11,,,,,,,,,,,,,,304.1959999996179,,response,,,4,F,,,,,Space,keypress(Space),,,,instrumental,----- -- ---- --- -- --- -------- ------------ ---------- --<br>- ------- ------ --------- -- ------------ -- --- ---- -----<br>------ ---- ---- oblong ------ ------- --- ----- ---------<br>---- --- -------- -------- --- --- -- ------- --- --- -----<br>-- --- ------ ------- --- --- -------- ---- --------- --<br>---------- -- -------- ----------------,155938.40000000037,155937.59999999963,155616.734,155626.69999999925,155633.404,155950.042,,23,oblong
screen,html.Screen,0_4_1_0_1_24,2021-12-02T12:41:48.916Z,,,,,,,,,,,,,,,,11,,,,,,,,,,,,,,307.45800000001327,,response,,,4,F,,,,,Space,keypress(Space),,,,instrumental,----- -- ---- --- -- --- -------- ------------ ---------- --<br>- ------- ------ --------- -- ------------ -- --- ---- -----<br>------ ---- ---- ------ wooden ------- --- ----- ---------<br>---- --- -------- -------- --- --- -- ------- --- --- -----<br>-- --- ------ ------- --- --- -------- ---- --------- --<br>---------- -- -------- ----------------,156258.40000000037,156257.5,155933.374,155938.69999999925,155950.042,156266.965,,24,wooden
screen,html.Screen,0_4_1_0_1_25,2021-12-02T12:41:49.268Z,,,,,,,,,,,,,,,,11,,,,,,,,,,,,,,342.63499999963096,,response,,,4,F,,,,,Space,keypress(Space),,,,instrumental,----- -- ---- --- -- --- -------- ------------ ---------- --<br>- ------- ------ --------- -- ------------ -- --- ---- -----<br>------ ---- ---- ------ ------ tablets --- ----- ---------<br>---- --- -------- -------- --- --- -- ------- --- --- -----<br>-- --- ------ ------- --- --- -------- ---- --------- --<br>---------- -- -------- ----------------,156610.40000000037,156609.59999999963,156250.293,156258.69999999925,156266.965,156617.078,,25,tablets
screen,html.Screen,0_4_1_0_1_26,2021-12-02T12:41:49.580Z,,,,,,,,,,,,,,,,11,,,,,,,,,,,,,,304.4219999999914,,response,,,4,F,,,,,Space,keypress(Space),,,,instrumental,----- -- ---- --- -- --- -------- ------------ ---------- --<br>- ------- ------ --------- -- ------------ -- --- ---- -----<br>------ ---- ---- ------ ------ ------- and ----- ---------<br>---- --- -------- -------- --- --- -- ------- --- --- -----<br>-- --- ------ ------- --- --- -------- ---- --------- --<br>---------- -- -------- ----------------,156922.30000000075,156921.5,156600.406,156610.59999999963,156617.078,156933.755,,26,and
screen,html.Screen,0_4_1_0_1_27,2021-12-02T12:41:49.900Z,,,,,,,,,,,,,,,,11,,,,,,,,,,,,,,307.74499999999534,,response,,,4,F,,,,,Space,keypress(Space),,,,instrumental,----- -- ---- --- -- --- -------- ------------ ---------- --<br>- ------- ------ --------- -- ------------ -- --- ---- -----<br>------ ---- ---- ------ ------ ------- --- other ---------<br>---- --- -------- -------- --- --- -- ------- --- --- -----<br>-- --- ------ ------- --- --- -------- ---- --------- --<br>---------- -- -------- ----------------,157242.30000000075,157241.5,156917.085,156922.5,156933.755,157250.539,,27,other
screen,html.Screen,0_4_1_0_1_28,2021-12-02T12:41:50.204Z,,,,,,,,,,,,,,,,11,,,,,,,,,,,,,,295.0609999996377,,response,,,4,F,,,,,Space,keypress(Space),,,,instrumental,----- -- ---- --- -- --- -------- ------------ ---------- --<br>- ------- ------ --------- -- ------------ -- --- ---- -----<br>------ ---- ---- ------ ------ ------- --- ----- artifacts<br>---- --- -------- -------- --- --- -- ------- --- --- -----<br>-- --- ------ ------- --- --- -------- ---- --------- --<br>---------- -- -------- ----------------,157546.30000000075,157545.59999999963,157233.868,157242.59999999963,157250.539,157550.595,,28,artifacts
screen,html.Screen,0_4_1_0_1_29,2021-12-02T12:41:50.524Z,,,,,,,,,,,,,,,,11,,,,,,,,,,,,,,315.30500000037136,,response,,,4,F,,,,,Space,keypress(Space),,,,instrumental,----- -- ---- --- -- --- -------- ------------ ---------- --<br>- ------- ------ --------- -- ------------ -- --- ---- -----<br>------ ---- ---- ------ ------ ------- --- ----- ---------<br>from --- -------- -------- --- --- -- ------- --- --- -----<br>-- --- ------ ------- --- --- -------- ---- --------- --<br>---------- -- -------- ----------------,157866.69999999925,157865.90000000037,157533.925,157546.5,157550.595,157884.004,,29,from
screen,html.Screen,0_4_1_0_1_30,2021-12-02T12:41:50.836Z,,,,,,,,,,,,,,,,11,,,,,,,,,,,,,,293.49600000001374,,response,,,4,F,,,,,Space,keypress(Space),,,,instrumental,----- -- ---- --- -- --- -------- ------------ ---------- --<br>- ------- ------ --------- -- ------------ -- --- ---- -----<br>------ ---- ---- ------ ------ ------- --- ----- ---------<br>---- the -------- -------- --- --- -- ------- --- --- -----<br>-- --- ------ ------- --- --- -------- ---- --------- --<br>---------- -- -------- ----------------,158178.40000000037,158177.5,157867.334,157867,157884.004,158184.128,,30,the
screen,html.Screen,0_4_1_0_1_31,2021-12-02T12:41:51.132Z,,,,,,,,,,,,,,,,11,,,,,,,,,,,,,,289.27200000037556,,response,,,4,F,,,,,Space,keypress(Space),,,,instrumental,----- -- ---- --- -- --- -------- ------------ ---------- --<br>- ------- ------ --------- -- ------------ -- --- ---- -----<br>------ ---- ---- ------ ------ ------- --- ----- ---------<br>---- --- island's -------- --- --- -- ------- --- --- -----<br>-- --- ------ ------- --- --- -------- ---- --------- --<br>---------- -- -------- ----------------,158474.19999999925,158473.40000000037,158167.457,158178.59999999963,158184.128,158484.158,,31,island's
screen,html.Screen,0_4_1_0_1_32,2021-12-02T12:41:51.476Z,,,,,,,,,,,,,,,,11,,,,,,,,,,,,,,333.3420000000042,,response,,,4,F,,,,,Space,keypress(Space),,,,instrumental,----- -- ---- --- -- --- -------- ------------ ---------- --<br>- ------- ------ --------- -- ------------ -- --- ---- -----<br>------ ---- ---- ------ ------ ------- --- ----- ---------<br>---- --- -------- history. --- --- -- ------- --- --- -----<br>-- --- ------ ------- --- --- -------- ---- --------- --<br>---------- -- -------- ----------------,158818.19999999925,158817.5,158467.488,158474.40000000037,158484.158,158834.302,,32,history.
screen,html.Screen,0_4_1_0_1_33,2021-12-02T12:41:51.804Z,,,,,,,,,,,,,,,,11,,,,,,,,,,,,,,311.19800000000396,,response,,,4,F,,,,,Space,keypress(Space),,,,instrumental,----- -- ---- --- -- --- -------- ------------ ---------- --<br>- ------- ------ --------- -- ------------ -- --- ---- -----<br>------ ---- ---- ------ ------ ------- --- ----- ---------<br>---- --- -------- -------- The --- -- ------- --- --- -----<br>-- --- ------ ------- --- --- -------- ---- --------- --<br>---------- -- -------- ----------------,159146.30000000075,159145.5,158817.631,158818.5,158834.302,159151.015,,33,The
screen,html.Screen,0_4_1_0_1_34,2021-12-02T12:41:52.132Z,,,,,,,,,,,,,,,,11,,,,,,,,,,,,,,322.2850000007311,,response,,,4,F,,,,,Space,keypress(Space),,,,instrumental,----- -- ---- --- -- --- -------- ------------ ---------- --<br>- ------- ------ --------- -- ------------ -- --- ---- -----<br>------ ---- ---- ------ ------ ------- --- ----- ---------<br>---- --- -------- -------- --- art -- ------- --- --- -----<br>-- --- ------ ------- --- --- -------- ---- --------- --<br>---------- -- -------- ----------------,159474.09999999963,159473.30000000075,159134.345,159146.59999999963,159151.015,159484.434,,34,art
screen,html.Screen,0_4_1_0_1_35,2021-12-02T12:41:52.436Z,,,,,,,,,,,,,,,,11,,,,,,,,,,,,,,292.96600000036415,,response,,,4,F,,,,,Space,keypress(Space),,,,instrumental,----- -- ---- --- -- --- -------- ------------ ---------- --<br>- ------- ------ --------- -- ------------ -- --- ---- -----<br>------ ---- ---- ------ ------ ------- --- ----- ---------<br>---- --- -------- -------- --- --- of ------- --- --- -----<br>-- --- ------ ------- --- --- -------- ---- --------- --<br>---------- -- -------- ----------------,159778.19999999925,159777.40000000037,159467.764,159474.30000000075,159484.434,159784.52,,35,of
screen,html.Screen,0_4_1_0_1_36,2021-12-02T12:41:52.740Z,,,,,,,,,,,,,,,,11,,,,,,,,,,,,,,296.880000000383,,response,,,4,F,,,,,Space,keypress(Space),,,,instrumental,----- -- ---- --- -- --- -------- ------------ ---------- --<br>- ------- ------ --------- -- ------------ -- --- ---- -----<br>------ ---- ---- ------ ------ ------- --- ----- ---------<br>---- --- -------- -------- --- --- -- writing --- --- -----<br>-- --- ------ ------- --- --- -------- ---- --------- --<br>---------- -- -------- ----------------,160082.19999999925,160081.40000000037,159767.85,159778.5,159784.52,160084.63,,36,writing
screen,html.Screen,0_4_1_0_1_37,2021-12-02T12:41:53.012Z,,,,,,,,,,,,,,,,11,,,,,,,,,,,,,,268.5699999992503,,response,,,4,F,,,,,Space,keypress(Space),,,,instrumental,----- -- ---- --- -- --- -------- ------------ ---------- --<br>- ------- ------ --------- -- ------------ -- --- ---- -----<br>------ ---- ---- ------ ------ ------- --- ----- ---------<br>---- --- -------- -------- --- --- -- ------- was --- -----<br>-- --- ------ ------- --- --- -------- ---- --------- --<br>---------- -- -------- ----------------,160354.09999999963,160353.19999999925,160067.959,160082.40000000037,160084.63,160368.017,,37,was
screen,html.Screen,0_4_1_0_1_38,2021-12-02T12:41:53.292Z,,,,,,,,,,,,,,,,11,,,,,,,,,,,,,,265.2830000007525,,response,,,4,F,,,,,Space,keypress(Space),,,,instrumental,----- -- ---- --- -- --- -------- ------------ ---------- --<br>- ------- ------ --------- -- ------------ -- --- ---- -----<br>------ ---- ---- ------ ------ ------- --- ----- ---------<br>---- --- -------- -------- --- --- -- ------- --- not -----<br>-- --- ------ ------- --- --- -------- ---- --------- --<br>---------- -- -------- ----------------,160634.09999999963,160633.30000000075,160351.347,160354.30000000075,160368.017,160651.418,,38,not
screen,html.Screen,0_4_1_0_1_39,2021-12-02T12:41:53.580Z,,,,,,,,,,,,,,,,11,,,,,,,,,,,,,,269.9820000003674,,response,,,4,F,,,,,Space,keypress(Space),,,,instrumental,----- -- ---- --- -- --- -------- ------------ ---------- --<br>- ------- ------ --------- -- ------------ -- --- ---- -----<br>------ ---- ---- ------ ------ ------- --- ----- ---------<br>---- --- -------- -------- --- --- -- ------- --- --- known<br>-- --- ------ ------- --- --- -------- ---- --------- --<br>---------- -- -------- ----------------,160922.19999999925,160921.40000000037,160634.748,160634.30000000075,160651.418,160934.819,,39,known
screen,html.Screen,0_4_1_0_1_40,2021-12-02T12:41:53.860Z,,,,,,,,,,,,,,,,11,,,,,,,,,,,,,,266.48100000075647,,response,,,4,F,,,,,Space,keypress(Space),,,,instrumental,----- -- ---- --- -- --- -------- ------------ ---------- --<br>- ------- ------ --------- -- ------------ -- --- ---- -----<br>------ ---- ---- ------ ------ ------- --- ----- ---------<br>---- --- -------- -------- --- --- -- ------- --- --- -----<br>in --- ------ ------- --- --- -------- ---- --------- --<br>---------- -- -------- ----------------,161202.19999999925,161201.30000000075,160918.149,160922.5,160934.819,161218.269,,40,in
screen,html.Screen,0_4_1_0_1_41,2021-12-02T12:41:54.148Z,,,,,,,,,,,,,,,,11,,,,,,,,,,,,,,271.1310000003723,,response,,,4,F,,,,,Space,keypress(Space),,,,instrumental,----- -- ---- --- -- --- -------- ------------ ---------- --<br>- ------- ------ --------- -- ------------ -- --- ---- -----<br>------ ---- ---- ------ ------ ------- --- ----- ---------<br>---- --- -------- -------- --- --- -- ------- --- --- -----<br>-- any ------ ------- --- --- -------- ---- --------- --<br>---------- -- -------- ----------------,161490.09999999963,161489.40000000037,161201.598,161202.40000000037,161218.269,161501.519,,41,any
screen,html.Screen,0_4_1_0_1_42,2021-12-02T12:41:54.436Z,,,,,,,,,,,,,,,,11,,,,,,,,,,,,,,275.8810000003723,,response,,,4,F,,,,,Space,keypress(Space),,,,instrumental,----- -- ---- --- -- --- -------- ------------ ---------- --<br>- ------- ------ --------- -- ------------ -- --- ---- -----<br>------ ---- ---- ------ ------ ------- --- ----- ---------<br>---- --- -------- -------- --- --- -- ------- --- --- -----<br>-- --- nearby ------- --- --- -------- ---- --------- --<br>---------- -- -------- ----------------,161778.09999999963,161777.40000000037,161484.851,161490.40000000037,161501.519,161785.047,,42,nearby
screen,html.Screen,0_4_1_0_1_43,2021-12-02T12:41:54.732Z,,,,,,,,,,,,,,,,11,,,,,,,,,,,,,,288.15299999926356,,response,,,4,F,,,,,Space,keypress(Space),,,,instrumental,----- -- ---- --- -- --- -------- ------------ ---------- --<br>- ------- ------ --------- -- ------------ -- --- ---- -----<br>------ ---- ---- ------ ------ ------- --- ----- ---------<br>---- --- -------- -------- --- --- -- ------- --- --- -----<br>-- --- ------ islands --- --- -------- ---- --------- --<br>---------- -- -------- ----------------,162074,162073.19999999925,161768.376,161778.40000000037,161785.047,162085.225,,43,islands
screen,html.Screen,0_4_1_0_1_44,2021-12-02T12:41:55.004Z,,,,,,,,,,,,,,,,11,,,,,,,,,,,,,,260.07500000073924,,response,,,4,F,,,,,Space,keypress(Space),,,,instrumental,----- -- ---- --- -- --- -------- ------------ ---------- --<br>- ------- ------ --------- -- ------------ -- --- ---- -----<br>------ ---- ---- ------ ------ ------- --- ----- ---------<br>---- --- -------- -------- --- --- -- ------- --- --- -----<br>-- --- ------ ------- and --- -------- ---- --------- --<br>---------- -- -------- ----------------,162346.09999999963,162345.30000000075,162068.552,162074.19999999925,162085.225,162351.829,,44,and
screen,html.Screen,0_4_1_0_1_45,2021-12-02T12:41:55.284Z,,,,,,,,,,,,,,,,11,,,,,,,,,,,,,,273.37099999925704,,response,,,4,F,,,,,Space,keypress(Space),,,,instrumental,----- -- ---- --- -- --- -------- ------------ ---------- --<br>- ------- ------ --------- -- ------------ -- --- ---- -----<br>------ ---- ---- ------ ------ ------- --- ----- ---------<br>---- --- -------- -------- --- --- -- ------- --- --- -----<br>-- --- ------ ------- --- the -------- ---- --------- --<br>---------- -- -------- ----------------,162626.09999999963,162625.19999999925,162335.16,162346.30000000075,162351.829,162635.172,,45,the
screen,html.Screen,0_4_1_0_1_46,2021-12-02T12:41:55.572Z,,,,,,,,,,,,,,,,11,,,,,,,,,,,,,,278.02799999926356,,response,,,4,F,,,,,Space,keypress(Space),,,,instrumental,----- -- ---- --- -- --- -------- ------------ ---------- --<br>- ------- ------ --------- -- ------------ -- --- ---- -----<br>------ ---- ---- ------ ------ ------- --- ----- ---------<br>---- --- -------- -------- --- --- -- ------- --- --- -----<br>-- --- ------ ------- --- --- script's ---- --------- --<br>---------- -- -------- ----------------,162914,162913.19999999925,162618.504,162626.30000000075,162635.172,162918.78,,46,script's
screen,html.Screen,0_4_1_0_1_47,2021-12-02T12:41:55.852Z,,,,,,,,,,,,,,,,11,,,,,,,,,,,,,,274.4199999992561,,response,,,4,F,,,,,Space,keypress(Space),,,,instrumental,----- -- ---- --- -- --- -------- ------------ ---------- --<br>- ------- ------ --------- -- ------------ -- --- ---- -----<br>------ ---- ---- ------ ------ ------- --- ----- ---------<br>---- --- -------- -------- --- --- -- ------- --- --- -----<br>-- --- ------ ------- --- --- -------- mere --------- --<br>---------- -- -------- ----------------,163194,163193.19999999925,162902.107,162914.19999999925,162918.78,163201.972,,47,mere
screen,html.Screen,0_4_1_0_1_48,2021-12-02T12:41:56.132Z,,,,,,,,,,,,,,,,11,,,,,,,,,,,,,,271.1279999996186,,response,,,4,F,,,,,Space,keypress(Space),,,,instrumental,----- -- ---- --- -- --- -------- ------------ ---------- --<br>- ------- ------ --------- -- ------------ -- --- ---- -----<br>------ ---- ---- ------ ------ ------- --- ----- ---------<br>---- --- -------- -------- --- --- -- ------- --- --- -----<br>-- --- ------ ------- --- --- -------- ---- existence --<br>---------- -- -------- ----------------,163474,163473.09999999963,163185.304,163194.19999999925,163201.972,163485.461,,48,existence
screen,html.Screen,0_4_1_0_1_49,2021-12-02T12:41:56.420Z,,,,,,,,,,,,,,,,11,,,,,,,,,,,,,,275.7389999992447,,response,,,4,F,,,,,Space,keypress(Space),,,,instrumental,----- -- ---- --- -- --- -------- ------------ ---------- --<br>- ------- ------ --------- -- ------------ -- --- ---- -----<br>------ ---- ---- ------ ------ ------- --- ----- ---------<br>---- --- -------- -------- --- --- -- ------- --- --- -----<br>-- --- ------ ------- --- --- -------- ---- --------- is<br>---------- -- -------- ----------------,163762,163761.19999999925,163468.791,163474.19999999925,163485.461,163768.907,,49,is
screen,html.Screen,0_4_1_0_1_50,2021-12-02T12:41:56.748Z,,,,,,,,,,,,,,,,11,,,,,,,,,,,,,,320.2929999992484,,response,,,4,F,,,,,Space,keypress(Space),,,,instrumental,----- -- ---- --- -- --- -------- ------------ ---------- --<br>- ------- ------ --------- -- ------------ -- --- ---- -----<br>------ ---- ---- ------ ------ ------- --- ----- ---------<br>---- --- -------- -------- --- --- -- ------- --- --- -----<br>-- --- ------ ------- --- --- -------- ---- --------- --<br>sufficient -- -------- ----------------,164090,164089.19999999925,163752.236,163762.30000000075,163768.907,164102.279,,50,sufficient
