sender,sender_type,sender_id,timestamp,meta,,Blues,Classical,Country,Dance,Electronic,Folk,Gospel,Hip-Hop,Jazz,Latin,Musical/Film,New-age,Pop,Provo_ID,R&B,Rap,Reggae,Religious,Rock,Soul,Swing,Traditional,age,artist_name,correct,correctResponse,distraction,duration,education,ended_on,familiarity,gender,item,list,music_frequency,offensiveness,pleasantness,preference,response,response_action,snippet_file,song_name,song_rating,sound,text,time_commit,time_end,time_render,time_run,time_show,time_switch,url,word,word_ID
Instructions,html.Page,0_0,2021-11-25T15:03:56.519Z,"{""labjs_version"":""20.2.3"",""labjs_build"":{""flavor"":""production"",""commit"":""7ea907d66ca8aeef8054924ca5d82ffbe11e34e5""},""location"":""https://run.pavlovia.org/mvasilev/lab_music_d/"",""userAgent"":""Mozilla/5.0 (Windows NT 6.1; Win64; x64) AppleWebKit/537.36 (KHTML, like Gecko) Chrome/96.0.4664.45 Safari/537.36"",""platform"":""Win32"",""language"":""en-US"",""locale"":""en-US"",""timeZone"":""Europe/London"",""timezoneOffset"":0,""screen_width"":1920,""screen_height"":1080,""scroll_width"":1920,""scroll_height"":959,""window_innerWidth"":1920,""window_innerHeight"":1007,""devicePixelRatio"":1}",,,,,,,,,,,,,,,,,,,,,,,,,,,,,47285.128,,form submission,,,,,,,,,,,,,,,,59972.299999952316,59971.5,12653.042,12672.399999856949,12686.372,59982.677,{},,
Headphones,html.Page,0_1,2021-11-25T15:04:02.573Z,,,,,,,,,,,,,,,,,,,,,,,,,,,,,,6040.122999952313,,form submission,,,,,,,,,,,,,,,,66023.19999980927,66022.79999995232,59965.98,59972.799999952316,59982.677,66033.542,,,
Holding screen,html.Screen,0_2_0_0,2021-11-25T15:04:12.570Z,,,,,,,,,,,,,,,,,,,,,,,,,,,,,,9999.270000000004,,timeout,,,,,,,,,,,,,,,,76019.79999995232,76016.147,66016.875,66023.59999990463,66033.542,76032.812,,,
screen,html.Screen,0_2_0_1_0,2021-11-25T15:04:15.533Z,,,,,,,,,,,,,,,,53,,,,,,,,,,,,,,2948.787999904627,,response,,,99,,,,,,Space,keypress(Space),,,,,When -- ----- -- ------ - ------- --- ----------<br>------------- ------ ------ ---- ---- ------- ----- -- ----<br>-------- ------- -- ---------- --- - --- ----- ----- ----<br>---- --- --- ----- --- ---- ---- ------- ----- ---- -------<br>--- --- -- ----- -- --- ---- -- --- ---- -- ------ ------<br>--- ----- -- ----,78982.59999990463,78981.59999990463,76016.147,76020,76032.812,78999.222,,0,When
screen,html.Screen,0_2_0_1_1,2021-11-25T15:04:16.988Z,,,,,,,,,,,,,,,,53,,,,,,,,,,,,,,1438.1779998569546,,response,,,99,,,,,,Space,keypress(Space),,,,,---- it ----- -- ------ - ------- --- ----------<br>------------- ------ ------ ---- ---- ------- ----- -- ----<br>-------- ------- -- ---------- --- - --- ----- ----- ----<br>---- --- --- ----- --- ---- ---- ------- ----- ---- -------<br>--- --- -- ----- -- --- ---- -- --- ---- -- ------ ------<br>--- ----- -- ----,80438.09999990463,80437.39999985695,78982.557,78983,78999.222,80449.156,,1,it
screen,html.Screen,0_2_0_1_2,2021-11-25T15:04:17.460Z,,,,,,,,,,,,,,,,53,,,,,,,,,,,,,,460.1439999523136,,response,,,99,,,,,,Space,keypress(Space),,,,,---- -- comes -- ------ - ------- --- ----------<br>------------- ------ ------ ---- ---- ------- ----- -- ----<br>-------- ------- -- ---------- --- - --- ----- ----- ----<br>---- --- --- ----- --- ---- ---- ------- ----- ---- -------<br>--- --- -- ----- -- --- ---- -- --- ---- -- ------ ------<br>--- ----- -- ----,80910,80909.29999995232,80432.491,80438.29999995232,80449.156,80915.856,,2,comes
screen,html.Screen,0_2_0_1_3,2021-11-25T15:04:17.836Z,,,,,,,,,,,,,,,,53,,,,,,,,,,,,,,369.4439999523165,,response,,,99,,,,,,Space,keypress(Space),,,,,---- -- ----- to ------ - ------- --- ----------<br>------------- ------ ------ ---- ---- ------- ----- -- ----<br>-------- ------- -- ---------- --- - --- ----- ----- ----<br>---- --- --- ----- --- ---- ---- ------- ----- ---- -------<br>--- --- -- ----- -- --- ---- -- --- ---- -- ------ ------<br>--- ----- -- ----,81286,81285.29999995232,80899.191,80910.19999980927,80915.856,81299.128,,3,to
screen,html.Screen,0_2_0_1_4,2021-11-25T15:04:18.452Z,,,,,,,,,,,,,,,,53,,,,,,,,,,,,,,602.1719999523193,,response,,,99,,,,,,Space,keypress(Space),,,,,---- -- ----- -- having - ------- --- ----------<br>------------- ------ ------ ---- ---- ------- ----- -- ----<br>-------- ------- -- ---------- --- - --- ----- ----- ----<br>---- --- --- ----- --- ---- ---- ------- ----- ---- -------<br>--- --- -- ----- -- --- ---- -- --- ---- -- ------ ------<br>--- ----- -- ----,81902.29999995232,81901.29999995232,81282.463,81286.5,81299.128,81915.839,,4,having
screen,html.Screen,0_2_0_1_5,2021-11-25T15:04:18.900Z,,,,,,,,,,,,,,,,53,,,,,,,,,,,,,,433.46099995230907,,response,,,99,,,,,,Space,keypress(Space),,,,,---- -- ----- -- ------ a ------- --- ----------<br>------------- ------ ------ ---- ---- ------- ----- -- ----<br>-------- ------- -- ---------- --- - --- ----- ----- ----<br>---- --- --- ----- --- ---- ---- ------- ----- ---- -------<br>--- --- -- ----- -- --- ---- -- --- ---- -- ------ ------<br>--- ----- -- ----,82350,82349.29999995232,81899.173,81902.5,81915.839,82365.757,,5,a
screen,html.Screen,0_2_0_1_6,2021-11-25T15:04:19.436Z,,,,,,,,,,,,,,,,53,,,,,,,,,,,,,,519.4429998092673,,response,,,99,,,,,,Space,keypress(Space),,,,,---- -- ----- -- ------ - lasting --- ----------<br>------------- ------ ------ ---- ---- ------- ----- -- ----<br>-------- ------- -- ---------- --- - --- ----- ----- ----<br>---- --- --- ----- --- ---- ---- ------- ----- ---- -------<br>--- --- -- ----- -- --- ---- -- --- ---- -- ------ ------<br>--- ----- -- ----,82885.89999985695,82885.19999980927,82349.092,82350.29999995232,82365.757,82899.056,,6,lasting
screen,html.Screen,0_2_0_1_7,2021-11-25T15:04:19.908Z,,,,,,,,,,,,,,,,53,,,,,,,,,,,,,,458.1439998092683,,response,,,99,,,,,,Space,keypress(Space),,,,,---- -- ----- -- ------ - ------- and ----------<br>------------- ------ ------ ---- ---- ------- ----- -- ----<br>-------- ------- -- ---------- --- - --- ----- ----- ----<br>---- --- --- ----- --- ---- ---- ------- ----- ---- -------<br>--- --- -- ----- -- --- ---- -- --- ---- -- ------ ------<br>--- ----- -- ----,83358,83357.19999980927,82882.391,82886.09999990463,82899.056,83365.696,,7,and
screen,html.Screen,0_2_0_1_8,2021-11-25T15:04:20.500Z,,,,,,,,,,,,,,,,53,,,,,,,,,,,,,,583.4039999046363,,response,,,99,,,,,,Space,keypress(Space),,,,,---- -- ----- -- ------ - ------- --- fulfilling<br>------------- ------ ------ ---- ---- ------- ----- -- ----<br>-------- ------- -- ---------- --- - --- ----- ----- ----<br>---- --- --- ----- --- ---- ---- ------- ----- ---- -------<br>--- --- -- ----- -- --- ---- -- --- ---- -- ------ ------<br>--- ----- -- ----,83950,83949.09999990463,83349.031,83358.19999980927,83365.696,83965.631,,8,fulfilling
screen,html.Screen,0_2_0_1_9,2021-11-25T15:04:21.124Z,,,,,,,,,,,,,,,,53,,,,,,,,,,,,,,607.5689998092712,,response,,,99,,,,,,Space,keypress(Space),,,,,"---- -- ----- -- ------ - ------- --- ----------<br>relationship, ------ ------ ---- ---- ------- ----- -- ----<br>-------- ------- -- ---------- --- - --- ----- ----- ----<br>---- --- --- ----- --- ---- ---- ------- ----- ---- -------<br>--- --- -- ----- -- --- ---- -- --- ---- -- ------ ------<br>--- ----- -- ----",84573.89999985695,84573.19999980927,83948.966,83950.19999980927,83965.631,84582.338,,9,"relationship,"
screen,html.Screen,0_2_0_1_10,2021-11-25T15:04:21.556Z,,,,,,,,,,,,,,,,53,,,,,,,,,,,,,,423.0619998569455,,response,,,99,,,,,,Space,keypress(Space),,,,,---- -- ----- -- ------ - ------- --- ----------<br>------------- common ------ ---- ---- ------- ----- -- ----<br>-------- ------- -- ---------- --- - --- ----- ----- ----<br>---- --- --- ----- --- ---- ---- ------- ----- ---- -------<br>--- --- -- ----- -- --- ---- -- --- ---- -- ------ ------<br>--- ----- -- ----,85006.19999980927,85005.39999985695,84565.672,84574.09999990463,84582.338,85015.668,,10,common
screen,html.Screen,0_2_0_1_11,2021-11-25T15:04:22.012Z,,,,,,,,,,,,,,,,53,,,,,,,,,,,,,,445.43199990462745,,response,,,99,,,,,,Space,keypress(Space),,,,,---- -- ----- -- ------ - ------- --- ----------<br>------------- ------ wisdom ---- ---- ------- ----- -- ----<br>-------- ------- -- ---------- --- - --- ----- ----- ----<br>---- --- --- ----- --- ---- ---- ------- ----- ---- -------<br>--- --- -- ----- -- --- ---- -- --- ---- -- ------ ------<br>--- ----- -- ----,85461.79999995232,85461.09999990463,84999.002,85006.39999985695,85015.668,85465.59,,11,wisdom
screen,html.Screen,0_2_0_1_12,2021-11-25T15:04:22.556Z,,,,,,,,,,,,,,,,53,,,,,,,,,,,,,,539.4100000000035,,response,,,99,,,,,,Space,keypress(Space),,,,,---- -- ----- -- ------ - ------- --- ----------<br>------------- ------ ------ says ---- ------- ----- -- ----<br>-------- ------- -- ---------- --- - --- ----- ----- ----<br>---- --- --- ----- --- ---- ---- ------- ----- ---- -------<br>--- --- -- ----- -- --- ---- -- --- ---- -- ------ ------<br>--- ----- -- ----,86005.59999990463,86005,85448.925,85462,85465.59,86015.484,,12,says
screen,html.Screen,0_2_0_1_13,2021-11-25T15:04:23.020Z,,,,,,,,,,,,,,,,53,,,,,,,,,,,,,,453.51600000000326,,response,,,99,,,,,,Space,keypress(Space),,,,,---- -- ----- -- ------ - ------- --- ----------<br>------------- ------ ------ ---- that ------- ----- -- ----<br>-------- ------- -- ---------- --- - --- ----- ----- ----<br>---- --- --- ----- --- ---- ---- ------- ----- ---- -------<br>--- --- -- ----- -- --- ---- -- --- ---- -- ------ ------<br>--- ----- -- ----,86469.69999980927,86469,85998.82,86005.89999985695,86015.484,86482.173,,13,that
screen,html.Screen,0_2_0_1_14,2021-11-25T15:04:23.484Z,,,,,,,,,,,,,,,,53,,,,,,,,,,,,,,450.8270000000048,,response,,,99,,,,,,Space,keypress(Space),,,,,---- -- ----- -- ------ - ------- --- ----------<br>------------- ------ ------ ---- ---- feeling ----- -- ----<br>-------- ------- -- ---------- --- - --- ----- ----- ----<br>---- --- --- ----- --- ---- ---- ------- ----- ---- -------<br>--- --- -- ----- -- --- ---- -- --- ---- -- ------ ------<br>--- ----- -- ----,86933.69999980927,86933,86465.508,86469.79999995232,86482.173,86948.812,,14,feeling
screen,html.Screen,0_2_0_1_15,2021-11-25T15:04:23.916Z,,,,,,,,,,,,,,,,53,,,,,,,,,,,,,,416.0879998569435,,response,,,99,,,,,,Space,keypress(Space),,,,,---- -- ----- -- ------ - ------- --- ----------<br>------------- ------ ------ ---- ---- ------- close -- ----<br>-------- ------- -- ---------- --- - --- ----- ----- ----<br>---- --- --- ----- --- ---- ---- ------- ----- ---- -------<br>--- --- -- ----- -- --- ---- -- --- ---- -- ------ ------<br>--- ----- -- ----,87365.5,87364.89999985695,86932.147,86933.89999985695,86948.812,87382.114,,15,close
screen,html.Screen,0_2_0_1_16,2021-11-25T15:04:24.307Z,,,,,,,,,,,,,,,,53,,,,,,,,,,,,,,374.78599985694746,,response,,,99,,,,,,Space,keypress(Space),,,,,---- -- ----- -- ------ - ------- --- ----------<br>------------- ------ ------ ---- ---- ------- ----- to ----<br>-------- ------- -- ---------- --- - --- ----- ----- ----<br>---- --- --- ----- --- ---- ---- ------- ----- ---- -------<br>--- --- -- ----- -- --- ---- -- --- ---- -- ------ ------<br>--- ----- -- ----,87757.5,87756.89999985695,87365.449,87365.79999995232,87382.114,87765.497,,16,to
screen,html.Screen,0_2_0_1_17,2021-11-25T15:04:24.739Z,,,,,,,,,,,,,,,,53,,,,,,,,,,,,,,423.30299995231326,,response,,,99,,,,,,Space,keypress(Space),,,,,---- -- ----- -- ------ - ------- --- ----------<br>------------- ------ ------ ---- ---- ------- ----- -- your<br>-------- ------- -- ---------- --- - --- ----- ----- ----<br>---- --- --- ----- --- ---- ---- ------- ----- ---- -------<br>--- --- -- ----- -- --- ---- -- --- ---- -- ------ ------<br>--- ----- -- ----,88189.5,88188.79999995232,87748.831,87757.59999990463,87765.497,88198.698,,17,your
screen,html.Screen,0_2_0_1_18,2021-11-25T15:04:25.251Z,,,,,,,,,,,,,,,,53,,,,,,,,,,,,,,502.2019998569449,,response,,,99,,,,,,Space,keypress(Space),,,,,---- -- ----- -- ------ - ------- --- ----------<br>------------- ------ ------ ---- ---- ------- ----- -- ----<br>romantic ------- -- ---------- --- - --- ----- ----- ----<br>---- --- --- ----- --- ---- ---- ------- ----- ---- -------<br>--- --- -- ----- -- --- ---- -- --- ---- -- ------ ------<br>--- ----- -- ----,88701.5,88700.89999985695,88182.034,88189.59999990463,88198.698,88715.433,,18,romantic
screen,html.Screen,0_2_0_1_19,2021-11-25T15:04:25.739Z,,,,,,,,,,,,,,,,53,,,,,,,,,,,,,,473.36699995231174,,response,,,99,,,,,,Space,keypress(Space),,,,,---- -- ----- -- ------ - ------- --- ----------<br>------------- ------ ------ ---- ---- ------- ----- -- ----<br>-------- partner -- ---------- --- - --- ----- ----- ----<br>---- --- --- ----- --- ---- ---- ------- ----- ---- -------<br>--- --- -- ----- -- --- ---- -- --- ---- -- ------ ------<br>--- ----- -- ----,89189.5,89188.79999995232,88698.767,88701.69999980927,88715.433,89198.556,,19,partner
screen,html.Screen,0_2_0_1_20,2021-11-25T15:04:26.251Z,,,,,,,,,,,,,,,,53,,,,,,,,,,,,,,502.343999856952,,response,,,99,,,,,,Space,keypress(Space),,,,,---- -- ----- -- ------ - ------- --- ----------<br>------------- ------ ------ ---- ---- ------- ----- -- ----<br>-------- ------- is ---------- --- - --- ----- ----- ----<br>---- --- --- ----- --- ---- ---- ------- ----- ---- -------<br>--- --- -- ----- -- --- ---- -- --- ---- -- ------ ------<br>--- ----- -- ----,89701.5,89700.89999985695,89181.893,89189.59999990463,89198.556,89715.356,,20,is
screen,html.Screen,0_2_0_1_21,2021-11-25T15:04:27.347Z,,,,,,,,,,,,,,,,53,,,,,,,,,,,,,,1081.4439999523165,,response,,,99,,,,,,Space,keypress(Space),,,,,---- -- ----- -- ------ - ------- --- ----------<br>------------- ------ ------ ---- ---- ------- ----- -- ----<br>-------- ------- -- paramount. --- - --- ----- ----- ----<br>---- --- --- ----- --- ---- ---- ------- ----- ---- -------<br>--- --- -- ----- -- --- ---- -- --- ---- -- ------ ------<br>--- ----- -- ----,90797.39999985695,90796.79999995232,89698.69,89701.69999980927,89715.356,90798.532,,21,paramount.
screen,html.Screen,0_2_0_1_22,2021-11-25T15:04:28.211Z,,,,,,,,,,,,,,,,53,,,,,,,,,,,,,,862.2679999523098,,response,,,99,,,,,,Space,keypress(Space),,,,,---- -- ----- -- ------ - ------- --- ----------<br>------------- ------ ------ ---- ---- ------- ----- -- ----<br>-------- ------- -- ---------- But - --- ----- ----- ----<br>---- --- --- ----- --- ---- ---- ------- ----- ---- -------<br>--- --- -- ----- -- --- ---- -- --- ---- -- ------ ------<br>--- ----- -- ----,91661.39999985695,91660.79999995232,90781.867,90797.69999980927,90798.532,91665.183,,22,But
screen,html.Screen,0_2_0_1_23,2021-11-25T15:04:28.899Z,,,,,,,,,,,,,,,,53,,,,,,,,,,,,,,683.5169998092606,,response,,,99,,,,,,Space,keypress(Space),,,,,---- -- ----- -- ------ - ------- --- ----------<br>------------- ------ ------ ---- ---- ------- ----- -- ----<br>-------- ------- -- ---------- --- a --- ----- ----- ----<br>---- --- --- ----- --- ---- ---- ------- ----- ---- -------<br>--- --- -- ----- -- --- ---- -- --- ---- -- ------ ------<br>--- ----- -- ----,92349.39999985695,92348.69999980927,91648.518,91661.59999990463,91665.183,92365.168,,23,a
screen,html.Screen,0_2_0_1_24,2021-11-25T15:04:29.355Z,,,,,,,,,,,,,,,,53,,,,,,,,,,,,,,439.43199990462745,,response,,,99,,,,,,Space,keypress(Space),,,,,---- -- ----- -- ------ - ------- --- ----------<br>------------- ------ ------ ---- ---- ------- ----- -- ----<br>-------- ------- -- ---------- --- - new ----- ----- ----<br>---- --- --- ----- --- ---- ---- ------- ----- ---- -------<br>--- --- -- ----- -- --- ---- -- --- ---- -- ------ ------<br>--- ----- -- ----,92805.19999980927,92804.59999990463,92348.503,92349.5,92365.168,92815.024,,24,new
screen,html.Screen,0_2_0_1_25,2021-11-25T15:04:29.923Z,,,,,,,,,,,,,,,,53,,,,,,,,,,,,,,557.6759998092602,,response,,,99,,,,,,Space,keypress(Space),,,,,---- -- ----- -- ------ - ------- --- ----------<br>------------- ------ ------ ---- ---- ------- ----- -- ----<br>-------- ------- -- ---------- --- - --- study ----- ----<br>---- --- --- ----- --- ---- ---- ------- ----- ---- -------<br>--- --- -- ----- -- --- ---- -- --- ---- -- ------ ------<br>--- ----- -- ----,93373.29999995232,93372.69999980927,92798.36,92805.5,92815.024,93381.718,,25,study
screen,html.Screen,0_2_0_1_26,2021-11-25T15:04:30.347Z,,,,,,,,,,,,,,,,53,,,,,,,,,,,,,,414.8819999046391,,response,,,99,,,,,,Space,keypress(Space),,,,,---- -- ----- -- ------ - ------- --- ----------<br>------------- ------ ------ ---- ---- ------- ----- -- ----<br>-------- ------- -- ---------- --- - --- ----- finds ----<br>---- --- --- ----- --- ---- ---- ------- ----- ---- -------<br>--- --- -- ----- -- --- ---- -- --- ---- -- ------ ------<br>--- ----- -- ----,93797.19999980927,93796.59999990463,93365.053,93373.5,93381.718,93798.418,,26,finds
screen,html.Screen,0_2_0_1_27,2021-11-25T15:04:30.963Z,,,,,,,,,,,,,,,,53,,,,,,,,,,,,,,614.0819999999949,,response,,,99,,,,,,Space,keypress(Space),,,,,---- -- ----- -- ------ - ------- --- ----------<br>------------- ------ ------ ---- ---- ------- ----- -- ----<br>-------- ------- -- ---------- --- - --- ----- ----- that<br>---- --- --- ----- --- ---- ---- ------- ----- ---- -------<br>--- --- -- ----- -- --- ---- -- --- ---- -- ------ ------<br>--- ----- -- ----,94413.29999995232,94412.5,93781.752,93797.5,93798.418,94415.115,,27,that
screen,html.Screen,0_2_0_1_28,2021-11-25T15:04:31.419Z,,,,,,,,,,,,,,,,53,,,,,,,,,,,,,,453.38499999999476,,response,,,99,,,,,,Space,keypress(Space),,,,,---- -- ----- -- ------ - ------- --- ----------<br>------------- ------ ------ ---- ---- ------- ----- -- ----<br>-------- ------- -- ---------- --- - --- ----- ----- ----<br>it's --- --- ----- --- ---- ---- ------- ----- ---- -------<br>--- --- -- ----- -- --- ---- -- --- ---- -- ------ ------<br>--- ----- -- ----,94869.19999980927,94868.5,94398.449,94413.5,94415.115,94881.576,,28,it's
screen,html.Screen,0_2_0_1_29,2021-11-25T15:04:31.851Z,,,,,,,,,,,,,,,,53,,,,,,,,,,,,,,419.1239998092642,,response,,,99,,,,,,Space,keypress(Space),,,,,---- -- ----- -- ------ - ------- --- ----------<br>------------- ------ ------ ---- ---- ------- ----- -- ----<br>-------- ------- -- ---------- --- - --- ----- ----- ----<br>---- not --- ----- --- ---- ---- ------- ----- ---- -------<br>--- --- -- ----- -- --- ---- -- --- ---- -- ------ ------<br>--- ----- -- ----,95301.39999985695,95300.69999980927,94864.912,94869.39999985695,94881.576,95314.968,,29,not
screen,html.Screen,0_2_0_1_30,2021-11-25T15:04:32.267Z,,,,,,,,,,,,,,,,53,,,,,,,,,,,,,,401.5320000000065,,response,,,99,,,,,,Space,keypress(Space),,,,,---- -- ----- -- ------ - ------- --- ----------<br>------------- ------ ------ ---- ---- ------- ----- -- ----<br>-------- ------- -- ---------- --- - --- ----- ----- ----<br>---- --- how ----- --- ---- ---- ------- ----- ---- -------<br>--- --- -- ----- -- --- ---- -- --- ---- -- ------ ------<br>--- ----- -- ----,95717,95716.5,95298.303,95301.59999990463,95314.968,95731.674,,30,how
screen,html.Screen,0_2_0_1_31,2021-11-25T15:04:32.731Z,,,,,,,,,,,,,,,,53,,,,,,,,,,,,,,448.7259998569498,,response,,,99,,,,,,Space,keypress(Space),,,,,---- -- ----- -- ------ - ------- --- ----------<br>------------- ------ ------ ---- ---- ------- ----- -- ----<br>-------- ------- -- ---------- --- - --- ----- ----- ----<br>---- --- --- close --- ---- ---- ------- ----- ---- -------<br>--- --- -- ----- -- --- ---- -- --- ---- -- ------ ------<br>--- ----- -- ----,96181.09999990463,96180.39999985695,95715.008,95717.19999980927,95731.674,96198.202,,31,close
screen,html.Screen,0_2_0_1_32,2021-11-25T15:04:33.179Z,,,,,,,,,,,,,,,,53,,,,,,,,,,,,,,430.1979998569441,,response,,,99,,,,,,Space,keypress(Space),,,,,---- -- ----- -- ------ - ------- --- ----------<br>------------- ------ ------ ---- ---- ------- ----- -- ----<br>-------- ------- -- ---------- --- - --- ----- ----- ----<br>---- --- --- ----- you ---- ---- ------- ----- ---- -------<br>--- --- -- ----- -- --- ---- -- --- ---- -- ------ ------<br>--- ----- -- ----,96629,96628.39999985695,96181.538,96181.29999995232,96198.202,96631.62,,32,you
screen,html.Screen,0_2_0_1_33,2021-11-25T15:04:33.603Z,,,,,,,,,,,,,,,,53,,,,,,,,,,,,,,420.7799998569535,,response,,,99,,,,,,Space,keypress(Space),,,,,---- -- ----- -- ------ - ------- --- ----------<br>------------- ------ ------ ---- ---- ------- ----- -- ----<br>-------- ------- -- ---------- --- - --- ----- ----- ----<br>---- --- --- ----- --- feel ---- ------- ----- ---- -------<br>--- --- -- ----- -- --- ---- -- --- ---- -- ------ ------<br>--- ----- -- ----,97052.89999985695,97052.39999985695,96614.954,96629.19999980927,96631.62,97064.875,,33,feel
screen,html.Screen,0_2_0_1_34,2021-11-25T15:04:33.995Z,,,,,,,,,,,,,,,,53,,,,,,,,,,,,,,379.52499985694885,,response,,,99,,,,,,Space,keypress(Space),,,,,---- -- ----- -- ------ - ------- --- ----------<br>------------- ------ ------ ---- ---- ------- ----- -- ----<br>-------- ------- -- ---------- --- - --- ----- ----- ----<br>---- --- --- ----- --- ---- that ------- ----- ---- -------<br>--- --- -- ----- -- --- ---- -- --- ---- -- ------ ------<br>--- ----- -- ----,97444.89999985695,97444.39999985695,97048.21,97053.09999990463,97064.875,97448.198,,34,that
screen,html.Screen,0_2_0_1_35,2021-11-25T15:04:34.467Z,,,,,,,,,,,,,,,,53,,,,,,,,,,,,,,468.1019999523123,,response,,,99,,,,,,Space,keypress(Space),,,,,---- -- ----- -- ------ - ------- --- ----------<br>------------- ------ ------ ---- ---- ------- ----- -- ----<br>-------- ------- -- ---------- --- - --- ----- ----- ----<br>---- --- --- ----- --- ---- ---- matters ----- ---- -------<br>--- --- -- ----- -- --- ---- -- --- ---- -- ------ ------<br>--- ----- -- ----,97916.89999985695,97916.29999995232,97431.533,97445.09999990463,97448.198,97931.43,,35,matters
screen,html.Screen,0_2_0_1_36,2021-11-25T15:04:34.915Z,,,,,,,,,,,,,,,,53,,,,,,,,,,,,,,432.86999995232327,,response,,,99,,,,,,Space,keypress(Space),,,,,"---- -- ----- -- ------ - ------- --- ----------<br>------------- ------ ------ ---- ---- ------- ----- -- ----<br>-------- ------- -- ---------- --- - --- ----- ----- ----<br>---- --- --- ----- --- ---- ---- ------- most, ---- -------<br>--- --- -- ----- -- --- ---- -- --- ---- -- ------ ------<br>--- ----- -- ----",98365.09999990463,98364.29999995232,97914.766,97917.09999990463,97931.43,98381.353,,36,"most,"
screen,html.Screen,0_2_0_1_37,2021-11-25T15:04:35.355Z,,,,,,,,,,,,,,,,53,,,,,,,,,,,,,,422.9469999523135,,response,,,99,,,,,,Space,keypress(Space),,,,,---- -- ----- -- ------ - ------- --- ----------<br>------------- ------ ------ ---- ---- ------- ----- -- ----<br>-------- ------- -- ---------- --- - --- ----- ----- ----<br>---- --- --- ----- --- ---- ---- ------- ----- it's -------<br>--- --- -- ----- -- --- ---- -- --- ---- -- ------ ------<br>--- ----- -- ----,98804.89999985695,98804.29999995232,98364.689,98365.19999980927,98381.353,98814.821,,37,it's
screen,html.Screen,0_2_0_1_38,2021-11-25T15:04:35.963Z,,,,,,,,,,,,,,,,53,,,,,,,,,,,,,,597.3789998092689,,response,,,99,,,,,,Space,keypress(Space),,,,,---- -- ----- -- ------ - ------- --- ----------<br>------------- ------ ------ ---- ---- ------- ----- -- ----<br>-------- ------- -- ---------- --- - --- ----- ----- ----<br>---- --- --- ----- --- ---- ---- ------- ----- ---- whether<br>--- --- -- ----- -- --- ---- -- --- ---- -- ------ ------<br>--- ----- -- ----,99412.79999995232,99412.19999980927,98798.155,98805.09999990463,98814.821,99414.657,,38,whether
screen,html.Screen,0_2_0_1_39,2021-11-25T15:04:36.539Z,,,,,,,,,,,,,,,,53,,,,,,,,,,,,,,573.5429998092586,,response,,,99,,,,,,Space,keypress(Space),,,,,---- -- ----- -- ------ - ------- --- ----------<br>------------- ------ ------ ---- ---- ------- ----- -- ----<br>-------- ------- -- ---------- --- - --- ----- ----- ----<br>---- --- --- ----- --- ---- ---- ------- ----- ---- -------<br>you --- -- ----- -- --- ---- -- --- ---- -- ------ ------<br>--- ----- -- ----,99988.89999985695,99988.19999980927,99397.993,99413,99414.657,99998.084,,39,you
screen,html.Screen,0_2_0_1_40,2021-11-25T15:04:37.027Z,,,,,,,,,,,,,,,,53,,,,,,,,,,,,,,478.1159998092626,,response,,,99,,,,,,Space,keypress(Space),,,,,---- -- ----- -- ------ - ------- --- ----------<br>------------- ------ ------ ---- ---- ------- ----- -- ----<br>-------- ------- -- ---------- --- - --- ----- ----- ----<br>---- --- --- ----- --- ---- ---- ------- ----- ---- -------<br>--- are -- ----- -- --- ---- -- --- ---- -- ------ ------<br>--- ----- -- ----,100476.89999985695,100476.19999980927,99981.418,99989.09999990463,99998.084,100481.224,,40,are
screen,html.Screen,0_2_0_1_41,2021-11-25T15:04:37.475Z,,,,,,,,,,,,,,,,53,,,,,,,,,,,,,,442.8759999046306,,response,,,99,,,,,,Space,keypress(Space),,,,,---- -- ----- -- ------ - ------- --- ----------<br>------------- ------ ------ ---- ---- ------- ----- -- ----<br>-------- ------- -- ---------- --- - --- ----- ----- ----<br>---- --- --- ----- --- ---- ---- ------- ----- ---- -------<br>--- --- as ----- -- --- ---- -- --- ---- -- ------ ------<br>--- ----- -- ----,100924.69999980927,100924.09999990463,100464.56,100477,100481.224,100931.285,,41,as
screen,html.Screen,0_2_0_1_42,2021-11-25T15:04:37.883Z,,,,,,,,,,,,,,,,53,,,,,,,,,,,,,,400.91499980926164,,response,,,99,,,,,,Space,keypress(Space),,,,,---- -- ----- -- ------ - ------- --- ----------<br>------------- ------ ------ ---- ---- ------- ----- -- ----<br>-------- ------- -- ---------- --- - --- ----- ----- ----<br>---- --- --- ----- --- ---- ---- ------- ----- ---- -------<br>--- --- -- close -- --- ---- -- --- ---- -- ------ ------<br>--- ----- -- ----,101332.89999985695,101332.19999980927,100914.62,100924.79999995232,100931.285,101348.004,,42,close
screen,html.Screen,0_2_0_1_43,2021-11-25T15:04:38.283Z,,,,,,,,,,,,,,,,53,,,,,,,,,,,,,,384.09599990463175,,response,,,99,,,,,,Space,keypress(Space),,,,,---- -- ----- -- ------ - ------- --- ----------<br>------------- ------ ------ ---- ---- ------- ----- -- ----<br>-------- ------- -- ---------- --- - --- ----- ----- ----<br>---- --- --- ----- --- ---- ---- ------- ----- ---- -------<br>--- --- -- ----- as --- ---- -- --- ---- -- ------ ------<br>--- ----- -- ----,101732.59999990463,101732.09999990463,101331.338,101333.09999990463,101348.004,101747.922,,43,as
screen,html.Screen,0_2_0_1_44,2021-11-25T15:04:38.707Z,,,,,,,,,,,,,,,,53,,,,,,,,,,,,,,408.17799990462663,,response,,,99,,,,,,Space,keypress(Space),,,,,---- -- ----- -- ------ - ------- --- ----------<br>------------- ------ ------ ---- ---- ------- ----- -- ----<br>-------- ------- -- ---------- --- - --- ----- ----- ----<br>---- --- --- ----- --- ---- ---- ------- ----- ---- -------<br>--- --- -- ----- -- you ---- -- --- ---- -- ------ ------<br>--- ----- -- ----,102156.59999990463,102156.09999990463,101731.257,101732.79999995232,101747.922,102164.543,,44,you
screen,html.Screen,0_2_0_1_45,2021-11-25T15:04:39.107Z,,,,,,,,,,,,,,,,53,,,,,,,,,,,,,,391.4569999999949,,response,,,99,,,,,,Space,keypress(Space),,,,,---- -- ----- -- ------ - ------- --- ----------<br>------------- ------ ------ ---- ---- ------- ----- -- ----<br>-------- ------- -- ---------- --- - --- ----- ----- ----<br>---- --- --- ----- --- ---- ---- ------- ----- ---- -------<br>--- --- -- ----- -- --- want -- --- ---- -- ------ ------<br>--- ----- -- ----,102556.59999990463,102556,102147.878,102156.79999995232,102164.543,102564.568,,45,want
screen,html.Screen,0_2_0_1_46,2021-11-25T15:04:39.515Z,,,,,,,,,,,,,,,,53,,,,,,,,,,,,,,399.33199985694955,,response,,,99,,,,,,Space,keypress(Space),,,,,---- -- ----- -- ------ - ------- --- ----------<br>------------- ------ ------ ---- ---- ------- ----- -- ----<br>-------- ------- -- ---------- --- - --- ----- ----- ----<br>---- --- --- ----- --- ---- ---- ------- ----- ---- -------<br>--- --- -- ----- -- --- ---- to --- ---- -- ------ ------<br>--- ----- -- ----,102964.5,102963.89999985695,102547.902,102556.89999985695,102564.568,102981.18,,46,to
screen,html.Screen,0_2_0_1_47,2021-11-25T15:04:40.131Z,,,,,,,,,,,,,,,,53,,,,,,,,,,,,,,598.820000000007,,response,,,99,,,,,,Space,keypress(Space),,,,,"---- -- ----- -- ------ - ------- --- ----------<br>------------- ------ ------ ---- ---- ------- ----- -- ----<br>-------- ------- -- ---------- --- - --- ----- ----- ----<br>---- --- --- ----- --- ---- ---- ------- ----- ---- -------<br>--- --- -- ----- -- --- ---- -- be, ---- -- ------ ------<br>--- ----- -- ----",103580.59999990463,103580,102964.515,102964.79999995232,102981.18,103597.733,,47,"be,"
screen,html.Screen,0_2_0_1_48,2021-11-25T15:04:41.051Z,,,,,,,,,,,,,,,,53,,,,,,,,,,,,,,902.166999856956,,response,,,99,,,,,,Space,keypress(Space),,,,,---- -- ----- -- ------ - ------- --- ----------<br>------------- ------ ------ ---- ---- ------- ----- -- ----<br>-------- ------- -- ---------- --- - --- ----- ----- ----<br>---- --- --- ----- --- ---- ---- ------- ----- ---- -------<br>--- --- -- ----- -- --- ---- -- --- even -- ------ ------<br>--- ----- -- ----,104500.59999990463,104499.89999985695,103581.069,103580.79999995232,103597.733,104514.249,,48,even
screen,html.Screen,0_2_0_1_49,2021-11-25T15:04:41.475Z,,,,,,,,,,,,,,,,53,,,,,,,,,,,,,,409.6509998569527,,response,,,99,,,,,,Space,keypress(Space),,,,,---- -- ----- -- ------ - ------- --- ----------<br>------------- ------ ------ ---- ---- ------- ----- -- ----<br>-------- ------- -- ---------- --- - --- ----- ----- ----<br>---- --- --- ----- --- ---- ---- ------- ----- ---- -------<br>--- --- -- ----- -- --- ---- -- --- ---- if ------ ------<br>--- ----- -- ----,104924.59999990463,104923.89999985695,104497.585,104500.69999980927,104514.249,104931.076,,49,if
screen,html.Screen,0_2_0_1_50,2021-11-25T15:04:42.187Z,,,,,,,,,,,,,,,,53,,,,,,,,,,,,,,705.0239999046316,,response,,,99,,,,,,Space,keypress(Space),,,,,---- -- ----- -- ------ - ------- --- ----------<br>------------- ------ ------ ---- ---- ------- ----- -- ----<br>-------- ------- -- ---------- --- - --- ----- ----- ----<br>---- --- --- ----- --- ---- ---- ------- ----- ---- -------<br>--- --- -- ----- -- --- ---- -- --- ---- -- that's ------<br>--- ----- -- ----,105636.59999990463,105636.09999990463,104914.41,104924.79999995232,104931.076,105647.663,,50,that's
screen,html.Screen,0_2_0_1_51,2021-11-25T15:04:42.786Z,,,,,,,,,,,,,,,,53,,,,,,,,,,,,,,588.1369999523158,,response,,,99,,,,,,Space,keypress(Space),,,,,---- -- ----- -- ------ - ------- --- ----------<br>------------- ------ ------ ---- ---- ------- ----- -- ----<br>-------- ------- -- ---------- --- - --- ----- ----- ----<br>---- --- --- ----- --- ---- ---- ------- ----- ---- -------<br>--- --- -- ----- -- --- ---- -- --- ---- -- ------ really<br>--- ----- -- ----,106236.39999985695,106235.79999995232,105630.998,105636.89999985695,105647.663,106247.717,,51,really
screen,html.Screen,0_2_0_1_52,2021-11-25T15:04:43.682Z,,,,,,,,,,,,,,,,53,,,,,,,,,,,,,,884.0829999523121,,response,,,99,,,,,,Space,keypress(Space),,,,,---- -- ----- -- ------ - ------- --- ----------<br>------------- ------ ------ ---- ---- ------- ----- -- ----<br>-------- ------- -- ---------- --- - --- ----- ----- ----<br>---- --- --- ----- --- ---- ---- ------- ----- ---- -------<br>--- --- -- ----- -- --- ---- -- --- ---- -- ------ ------<br>not ----- -- ----,107132.5,107131.79999995232,106231.051,106236.69999980927,106247.717,107147.574,,52,not
screen,html.Screen,0_2_0_1_53,2021-11-25T15:04:44.362Z,,,,,,,,,,,,,,,,53,,,,,,,,,,,,,,664.225999952323,,response,,,99,,,,,,Space,keypress(Space),,,,,---- -- ----- -- ------ - ------- --- ----------<br>------------- ------ ------ ---- ---- ------- ----- -- ----<br>-------- ------- -- ---------- --- - --- ----- ----- ----<br>---- --- --- ----- --- ---- ---- ------- ----- ---- -------<br>--- --- -- ----- -- --- ---- -- --- ---- -- ------ ------<br>--- close -- ----,107812.29999995232,107811.79999995232,107130.909,107132.69999980927,107147.574,107814.204,,53,close
screen,html.Screen,0_2_0_1_54,2021-11-25T15:04:44.866Z,,,,,,,,,,,,,,,,53,,,,,,,,,,,,,,501.49599980926723,,response,,,99,,,,,,Space,keypress(Space),,,,,---- -- ----- -- ------ - ------- --- ----------<br>------------- ------ ------ ---- ---- ------- ----- -- ----<br>-------- ------- -- ---------- --- - --- ----- ----- ----<br>---- --- --- ----- --- ---- ---- ------- ----- ---- -------<br>--- --- -- ----- -- --- ---- -- --- ---- -- ------ ------<br>--- ----- at ----,108316.29999995232,108315.69999980927,107797.539,107812.5,107814.204,108330.849,,54,at
screen,html.Screen,0_2_0_1_55,2021-11-25T15:04:45.306Z,,,,,,,,,,,,,,,,53,,,,,,,,,,,,,,424.7509999046306,,response,,,99,,,,,,Space,keypress(Space),,,,,---- -- ----- -- ------ - ------- --- ----------<br>------------- ------ ------ ---- ---- ------- ----- -- ----<br>-------- ------- -- ---------- --- - --- ----- ----- ----<br>---- --- --- ----- --- ---- ---- ------- ----- ---- -------<br>--- --- -- ----- -- --- ---- -- --- ---- -- ------ ------<br>--- ----- -- all.,108756.19999980927,108755.59999990463,108314.184,108316.5,108330.849,108764.061,,55,all.
Item 99,flow.Loop,0_2_0_1,2021-11-25T15:04:45.310Z,,,,,,,,,,,,,,,,,,,,,,,,,,,,,,32722.787999904627,,completion,,,,D,,,,,,,,,,silence,,108759.69999980927,108755.59999990463,76016.147,76019.89999985695,76032.812,108764.061,,,
Question 1,html.Screen,0_2_0_2,2021-11-25T15:04:51.609Z,,,,,,,,,,,,,,,,,,,,,,,,,,,false,FALSE,,6293.9389999999985,,response,,,99,D,,,,,TRUE,click #choice-1,,,,silence,,115059,115058,108747.397,108759.89999985695,108764.061,115063.842,,,
Question 2,html.Screen,0_2_0_3,2021-11-25T15:04:55.955Z,,,,,,,,,,,,,,,,,,,,,,,,,,,false,TRUE,,4340.857999809261,,response,,,99,D,,,,,FALSE,click #choice-2,,,,silence,,119405.39999985695,119404.69999980927,115047.175,115059.09999990463,115063.842,119413.516,,,
Item 99,flow.Sequence,0_2_0,2021-11-25T15:04:55.956Z,,,,,,,,,,,,,,,,,,,,,,,,,,,,,,53371.157999809264,,completion,,,,,,,,,,,,,,,,119405.79999995232,119404.69999980927,66016.875,66023.5,66033.542,119413.516,,,
Holding screen,html.Screen,0_2_1_0,2021-11-25T15:05:05.950Z,,,,,,,,,,,,,,,,,,,,,,,,,,,,,,9999.285999999993,,timeout,,,,,,,,,,,,,,,,129397.19999980927,129396.137,119396.85,119406,119413.516,129412.802,,,
screen,html.Screen,0_2_1_1_0,2021-11-25T15:05:06.996Z,,,,,,,,,,,,,,,,54,,,,,,,,,,,,,,1029.698000000004,,response,,,100,,,,,,Space,keypress(Space),,,,,At --- ---- --- ------ ----- ------- ---- -- --- ------- --<br>------- ---------- ------ -- ----- -- ----- -- ---- ------<br>--- ----- --- --- ------ -------- ----- --- ------ ----- --<br>----- ----- ---------- --- --- ------ ------ ---- -- ------<br>------- --- ------ ----- --- ---- ------- -- ---- --- --<br>------- ------,130443.19999980927,130442.5,129396.137,129397.5,129412.802,130446.123,,0,At
screen,html.Screen,0_2_1_1_1,2021-11-25T15:05:07.628Z,,,,,,,,,,,,,,,,54,,,,,,,,,,,,,,628.1769999523094,,response,,,100,,,,,,Space,keypress(Space),,,,,-- the ---- --- ------ ----- ------- ---- -- --- ------- --<br>------- ---------- ------ -- ----- -- ----- -- ---- ------<br>--- ----- --- --- ------ -------- ----- --- ------ ----- --<br>----- ----- ---------- --- --- ------ ------ ---- -- ------<br>------- --- ------ ----- --- ---- ------- -- ---- --- --<br>------- ------,131074.89999985695,131074.29999995232,130429.458,130443.29999995232,130446.123,131079.437,,1,the
screen,html.Screen,0_2_1_1_2,2021-11-25T15:05:08.804Z,,,,,,,,,,,,,,,,54,,,,,,,,,,,,,,1170.862999952311,,response,,,100,,,,,,Space,keypress(Space),,,,,-- --- time --- ------ ----- ------- ---- -- --- ------- --<br>------- ---------- ------ -- ----- -- ----- -- ---- ------<br>--- ----- --- --- ------ -------- ----- --- ------ ----- --<br>----- ----- ---------- --- --- ------ ------ ---- -- ------<br>------- --- ------ ----- --- ---- ------- -- ---- --- --<br>------- ------,132250.89999985695,132250.29999995232,131062.772,131075.09999990463,131079.437,132262.694,,2,time
screen,html.Screen,0_2_1_1_3,2021-11-25T15:05:09.476Z,,,,,,,,,,,,,,,,54,,,,,,,,,,,,,,659.5059998092765,,response,,,100,,,,,,Space,keypress(Space),,,,,-- --- ---- the ------ ----- ------- ---- -- --- ------- --<br>------- ---------- ------ -- ----- -- ----- -- ---- ------<br>--- ----- --- --- ------ -------- ----- --- ------ ----- --<br>----- ----- ---------- --- --- ------ ------ ---- -- ------<br>------- --- ------ ----- --- ---- ------- -- ---- --- --<br>------- ------,132922.89999985695,132922.19999980927,132246.029,132251.09999990463,132262.694,132929.345,,3,the
screen,html.Screen,0_2_1_1_4,2021-11-25T15:05:10.284Z,,,,,,,,,,,,,,,,54,,,,,,,,,,,,,,800.854999809264,,response,,,100,,,,,,Space,keypress(Space),,,,,-- --- ---- --- French ----- ------- ---- -- --- ------- --<br>------- ---------- ------ -- ----- -- ----- -- ---- ------<br>--- ----- --- --- ------ -------- ----- --- ------ ----- --<br>----- ----- ---------- --- --- ------ ------ ---- -- ------<br>------- --- ------ ----- --- ---- ------- -- ---- --- --<br>------- ------,133730.89999985695,133730.19999980927,132912.68,132923.09999990463,132929.345,133745.899,,4,French
screen,html.Screen,0_2_1_1_5,2021-11-25T15:05:10.892Z,,,,,,,,,,,,,,,,54,,,,,,,,,,,,,,592.2009999046277,,response,,,100,,,,,,Space,keypress(Space),,,,,-- --- ---- --- ------ crown ------- ---- -- --- ------- --<br>------- ---------- ------ -- ----- -- ----- -- ---- ------<br>--- ----- --- --- ------ -------- ----- --- ------ ----- --<br>----- ----- ---------- --- --- ------ ------ ---- -- ------<br>------- --- ------ ----- --- ---- ------- -- ---- --- --<br>------- ------,134338.79999995232,134338.09999990463,133729.234,133731,133745.899,134345.964,,5,crown
screen,html.Screen,0_2_1_1_6,2021-11-25T15:05:11.692Z,,,,,,,,,,,,,,,,54,,,,,,,,,,,,,,792.1359999046254,,response,,,100,,,,,,Space,keypress(Space),,,,,-- --- ---- --- ------ ----- secured ---- -- --- ------- --<br>------- ---------- ------ -- ----- -- ----- -- ---- ------<br>--- ----- --- --- ------ -------- ----- --- ------ ----- --<br>----- ----- ---------- --- --- ------ ------ ---- -- ------<br>------- --- ------ ----- --- ---- ------- -- ---- --- --<br>------- ------,135138.69999980927,135138.09999990463,134329.298,134339,134345.964,135145.872,,6,secured
screen,html.Screen,0_2_1_1_7,2021-11-25T15:05:12.372Z,,,,,,,,,,,,,,,,54,,,,,,,,,,,,,,672.2279999046295,,response,,,100,,,,,,Space,keypress(Space),,,,,-- --- ---- --- ------ ----- ------- much -- --- ------- --<br>------- ---------- ------ -- ----- -- ----- -- ---- ------<br>--- ----- --- --- ------ -------- ----- --- ------ ----- --<br>----- ----- ---------- --- --- ------ ------ ---- -- ------<br>------- --- ------ ----- --- ---- ------- -- ---- --- --<br>------- ------,135818.69999980927,135818.09999990463,135129.207,135138.89999985695,135145.872,135829.153,,7,much
screen,html.Screen,0_2_1_1_8,2021-11-25T15:05:12.996Z,,,,,,,,,,,,,,,,54,,,,,,,,,,,,,,612.8470000000088,,response,,,100,,,,,,Space,keypress(Space),,,,,-- --- ---- --- ------ ----- ------- ---- of --- ------- --<br>------- ---------- ------ -- ----- -- ----- -- ---- ------<br>--- ----- --- --- ------ -------- ----- --- ------ ----- --<br>----- ----- ---------- --- --- ------ ------ ---- -- ------<br>------- --- ------ ----- --- ---- ------- -- ---- --- --<br>------- ------,136442.69999980927,136442,135812.488,135818.79999995232,135829.153,136445.787,,8,of
screen,html.Screen,0_2_1_1_9,2021-11-25T15:05:13.716Z,,,,,,,,,,,,,,,,54,,,,,,,,,,,,,,716.2129999999888,,response,,,100,,,,,,Space,keypress(Space),,,,,-- --- ---- --- ------ ----- ------- ---- -- its ------- --<br>------- ---------- ------ -- ----- -- ----- -- ---- ------<br>--- ----- --- --- ------ -------- ----- --- ------ ----- --<br>----- ----- ---------- --- --- ------ ------ ---- -- ------<br>------- --- ------ ----- --- ---- ------- -- ---- --- --<br>------- ------,137162.59999990463,137162,136429.122,136442.79999995232,136445.787,137179.089,,9,its
screen,html.Screen,0_2_1_1_10,2021-11-25T15:05:14.459Z,,,,,,,,,,,,,,,,54,,,,,,,,,,,,,,726.8109998569416,,response,,,100,,,,,,Space,keypress(Space),,,,,-- --- ---- --- ------ ----- ------- ---- -- --- revenue --<br>------- ---------- ------ -- ----- -- ----- -- ---- ------<br>--- ----- --- --- ------ -------- ----- --- ------ ----- --<br>----- ----- ---------- --- --- ------ ------ ---- -- ------<br>------- --- ------ ----- --- ---- ------- -- ---- --- --<br>------- ------,137906.5,137905.89999985695,137162.424,137162.89999985695,137179.089,137912.357,,10,revenue
screen,html.Screen,0_2_1_1_11,2021-11-25T15:05:15.443Z,,,,,,,,,,,,,,,,54,,,,,,,,,,,,,,977.5429998569598,,response,,,100,,,,,,Space,keypress(Space),,,,,-- --- ---- --- ------ ----- ------- ---- -- --- ------- by<br>------- ---------- ------ -- ----- -- ----- -- ---- ------<br>--- ----- --- --- ------ -------- ----- --- ------ ----- --<br>----- ----- ---------- --- --- ------ ------ ---- -- ------<br>------- --- ------ ----- --- ---- ------- -- ---- --- --<br>------- ------,138890.5,138889.89999985695,137895.692,137906.69999980927,137912.357,138895.59,,11,by
screen,html.Screen,0_2_1_1_12,2021-11-25T15:05:16.539Z,,,,,,,,,,,,,,,,54,,,,,,,,,,,,,,1090.2099999523198,,response,,,100,,,,,,Space,keypress(Space),,,,,-- --- ---- --- ------ ----- ------- ---- -- --- ------- --<br>issuing ---------- ------ -- ----- -- ----- -- ---- ------<br>--- ----- --- --- ------ -------- ----- --- ------ ----- --<br>----- ----- ---------- --- --- ------ ------ ---- -- ------<br>------- --- ------ ----- --- ---- ------- -- ---- --- --<br>------- ------,139986.29999995232,139985.79999995232,138878.925,138890.59999990463,138895.59,139995.53,,12,issuing
screen,html.Screen,0_2_1_1_13,2021-11-25T15:05:17.459Z,,,,,,,,,,,,,,,,54,,,,,,,,,,,,,,910.4700000000012,,response,,,100,,,,,,Space,keypress(Space),,,,,-- --- ---- --- ------ ----- ------- ---- -- --- ------- --<br>------- government ------ -- ----- -- ----- -- ---- ------<br>--- ----- --- --- ------ -------- ----- --- ------ ----- --<br>----- ----- ---------- --- --- ------ ------ ---- -- ------<br>------- --- ------ ----- --- ---- ------- -- ---- --- --<br>------- ------,140906.59999990463,140906,139978.865,139986.5,139995.53,140912.107,,13,government
screen,html.Screen,0_2_1_1_14,2021-11-25T15:05:18.531Z,,,,,,,,,,,,,,,,54,,,,,,,,,,,,,,1065.4929999046435,,response,,,100,,,,,,Space,keypress(Space),,,,,-- --- ---- --- ------ ----- ------- ---- -- --- ------- --<br>------- ---------- bonds. -- ----- -- ----- -- ---- ------<br>--- ----- --- --- ------ -------- ----- --- ------ ----- --<br>----- ----- ---------- --- --- ------ ------ ---- -- ------<br>------- --- ------ ----- --- ---- ------- -- ---- --- --<br>------- ------,141978.29999995232,141977.59999990463,140895.442,140906.79999995232,140912.107,141995.393,,14,bonds.
screen,html.Screen,0_2_1_1_15,2021-11-25T15:05:19.443Z,,,,,,,,,,,,,,,,54,,,,,,,,,,,,,,894.1069999999891,,response,,,100,,,,,,Space,keypress(Space),,,,,-- --- ---- --- ------ ----- ------- ---- -- --- ------- --<br>------- ---------- ------ In ----- -- ----- -- ---- ------<br>--- ----- --- --- ------ -------- ----- --- ------ ----- --<br>----- ----- ---------- --- --- ------ ------ ---- -- ------<br>------- --- ------ ----- --- ---- ------- -- ---- --- --<br>------- ------,142890.19999980927,142889.5,141978.728,141978.5,141995.393,142895.37,,15,In
screen,html.Screen,0_2_1_1_16,2021-11-25T15:05:20.731Z,,,,,,,,,,,,,,,,54,,,,,,,,,,,,,,1282.1300000000047,,response,,,100,,,,,,Space,keypress(Space),,,,,"-- --- ---- --- ------ ----- ------- ---- -- --- ------- --<br>------- ---------- ------ -- 1727, -- ----- -- ---- ------<br>--- ----- --- --- ------ -------- ----- --- ------ ----- --<br>----- ----- ---------- --- --- ------ ------ ---- -- ------<br>------- --- ------ ----- --- ---- ------- -- ---- --- --<br>------- ------",144178.09999990463,144177.5,142878.705,142890.29999995232,142895.37,144195.25,,16,"1727,"
screen,html.Screen,0_2_1_1_17,2021-11-25T15:05:21.275Z,,,,,,,,,,,,,,,,54,,,,,,,,,,,,,,526.25,,response,,,100,,,,,,Space,keypress(Space),,,,,-- --- ---- --- ------ ----- ------- ---- -- --- ------- --<br>------- ---------- ------ -- ----- in ----- -- ---- ------<br>--- ----- --- --- ------ -------- ----- --- ------ ----- --<br>----- ----- ---------- --- --- ------ ------ ---- -- ------<br>------- --- ------ ----- --- ---- ------- -- ---- --- --<br>------- ------,144722.09999990463,144721.5,144178.585,144178.29999995232,144195.25,144728.569,,17,in
screen,html.Screen,0_2_1_1_18,2021-11-25T15:05:22.027Z,,,,,,,,,,,,,,,,54,,,,,,,,,,,,,,744.9310000000114,,response,,,100,,,,,,Space,keypress(Space),,,,,-- --- ---- --- ------ ----- ------- ---- -- --- ------- --<br>------- ---------- ------ -- ----- -- order -- ---- ------<br>--- ----- --- --- ------ -------- ----- --- ------ ----- --<br>----- ----- ---------- --- --- ------ ------ ---- -- ------<br>------- --- ------ ----- --- ---- ------- -- ---- --- --<br>------- ------,145474.09999990463,145473.5,144711.904,144722.29999995232,144728.569,145478.509,,18,order
screen,html.Screen,0_2_1_1_19,2021-11-25T15:05:22.483Z,,,,,,,,,,,,,,,,54,,,,,,,,,,,,,,450.79099995232536,,response,,,100,,,,,,Space,keypress(Space),,,,,-- --- ---- --- ------ ----- ------- ---- -- --- ------- --<br>------- ---------- ------ -- ----- -- ----- to ---- ------<br>--- ----- --- --- ------ -------- ----- --- ------ ----- --<br>----- ----- ---------- --- --- ------ ------ ---- -- ------<br>------- --- ------ ----- --- ---- ------- -- ---- --- --<br>------- ------,145930,145929.29999995232,145461.844,145474.29999995232,145478.509,145945.31,,19,to
screen,html.Screen,0_2_1_1_20,2021-11-25T15:05:23.003Z,,,,,,,,,,,,,,,,54,,,,,,,,,,,,,,504.0899998569512,,response,,,100,,,,,,Space,keypress(Space),,,,,-- --- ---- --- ------ ----- ------- ---- -- --- ------- --<br>------- ---------- ------ -- ----- -- ----- -- save ------<br>--- ----- --- --- ------ -------- ----- --- ------ ----- --<br>----- ----- ---------- --- --- ------ ------ ---- -- ------<br>------- --- ------ ----- --- ---- ------- -- ---- --- --<br>------- ------,146450,146449.39999985695,145928.643,145930.09999990463,145945.31,146461.84,,20,save
screen,html.Screen,0_2_1_1_21,2021-11-25T15:05:23.755Z,,,,,,,,,,,,,,,,54,,,,,,,,,,,,,,739.5599998569523,,response,,,100,,,,,,Space,keypress(Space),,,,,"-- --- ---- --- ------ ----- ------- ---- -- --- ------- --<br>------- ---------- ------ -- ----- -- ----- -- ---- money,<br>--- ----- --- --- ------ -------- ----- --- ------ ----- --<br>----- ----- ---------- --- --- ------ ------ ---- -- ------<br>------- --- ------ ----- --- ---- ------- -- ---- --- --<br>------- ------",147201.89999985695,147201.39999985695,146445.175,146450.19999980927,146461.84,147211.799,,21,"money,"
screen,html.Screen,0_2_1_1_22,2021-11-25T15:05:24.275Z,,,,,,,,,,,,,,,,54,,,,,,,,,,,,,,509.5009999523172,,response,,,100,,,,,,Space,keypress(Space),,,,,-- --- ---- --- ------ ----- ------- ---- -- --- ------- --<br>------- ---------- ------ -- ----- -- ----- -- ---- ------<br>the ----- --- --- ------ -------- ----- --- ------ ----- --<br>----- ----- ---------- --- --- ------ ------ ---- -- ------<br>------- --- ------ ----- --- ---- ------- -- ---- --- --<br>------- ------,147721.89999985695,147721.29999995232,147195.134,147202.09999990463,147211.799,147728.35,,22,the
screen,html.Screen,0_2_1_1_23,2021-11-25T15:05:24.811Z,,,,,,,,,,,,,,,,54,,,,,,,,,,,,,,528.9499999523105,,response,,,100,,,,,,Space,keypress(Space),,,,,-- --- ---- --- ------ ----- ------- ---- -- --- ------- --<br>------- ---------- ------ -- ----- -- ----- -- ---- ------<br>--- state --- --- ------ -------- ----- --- ------ ----- --<br>----- ----- ---------- --- --- ------ ------ ---- -- ------<br>------- --- ------ ----- --- ---- ------- -- ---- --- --<br>------- ------,148257.89999985695,148257.29999995232,147711.686,147722.09999990463,147728.35,148261.712,,23,state
screen,html.Screen,0_2_1_1_24,2021-11-25T15:05:25.307Z,,,,,,,,,,,,,,,,54,,,,,,,,,,,,,,491.58799995231675,,response,,,100,,,,,,Space,keypress(Space),,,,,-- --- ---- --- ------ ----- ------- ---- -- --- ------- --<br>------- ---------- ------ -- ----- -- ----- -- ---- ------<br>--- ----- cut --- ------ -------- ----- --- ------ ----- --<br>----- ----- ---------- --- --- ------ ------ ---- -- ------<br>------- --- ------ ----- --- ---- ------- -- ---- --- --<br>------- ------,148753.89999985695,148753.29999995232,148245.047,148258.09999990463,148261.712,148761.764,,24,cut
screen,html.Screen,0_2_1_1_25,2021-11-25T15:05:25.803Z,,,,,,,,,,,,,,,,54,,,,,,,,,,,,,,487.43599980926956,,response,,,100,,,,,,Space,keypress(Space),,,,,-- --- ---- --- ------ ----- ------- ---- -- --- ------- --<br>------- ---------- ------ -- ----- -- ----- -- ---- ------<br>--- ----- --- the ------ -------- ----- --- ------ ----- --<br>----- ----- ---------- --- --- ------ ------ ---- -- ------<br>------- --- ------ ----- --- ---- ------- -- ---- --- --<br>------- ------,149249.79999995232,149249.19999980927,148745.098,148754.09999990463,148761.764,149261.584,,25,the
screen,html.Screen,0_2_1_1_26,2021-11-25T15:05:26.827Z,,,,,,,,,,,,,,,,54,,,,,,,,,,,,,,1011.51599990463,,response,,,100,,,,,,Space,keypress(Space),,,,,-- --- ---- --- ------ ----- ------- ---- -- --- ------- --<br>------- ---------- ------ -- ----- -- ----- -- ---- ------<br>--- ----- --- --- bonds' -------- ----- --- ------ ----- --<br>----- ----- ---------- --- --- ------ ------ ---- -- ------<br>------- --- ------ ----- --- ---- ------- -- ---- --- --<br>------- ------,150273.69999980927,150273.09999990463,149244.92,149250,149261.584,150278.314,,26,bonds'
screen,html.Screen,0_2_1_1_27,2021-11-25T15:05:27.547Z,,,,,,,,,,,,,,,,54,,,,,,,,,,,,,,714.9859999523032,,response,,,100,,,,,,Space,keypress(Space),,,,,-- --- ---- --- ------ ----- ------- ---- -- --- ------- --<br>------- ---------- ------ -- ----- -- ----- -- ---- ------<br>--- ----- --- --- ------ interest ----- --- ------ ----- --<br>----- ----- ---------- --- --- ------ ------ ---- -- ------<br>------- --- ------ ----- --- ---- ------- -- ---- --- --<br>------- ------,150993.89999985695,150993.29999995232,150261.648,150273.89999985695,150278.314,150994.951,,27,interest
screen,html.Screen,0_2_1_1_28,2021-11-25T15:05:28.267Z,,,,,,,,,,,,,,,,54,,,,,,,,,,,,,,718.0489999999991,,response,,,100,,,,,,Space,keypress(Space),,,,,-- --- ---- --- ------ ----- ------- ---- -- --- ------- --<br>------- ---------- ------ -- ----- -- ----- -- ---- ------<br>--- ----- --- --- ------ -------- rate. --- ------ ----- --<br>----- ----- ---------- --- --- ------ ------ ---- -- ------<br>------- --- ------ ----- --- ---- ------- -- ---- --- --<br>------- ------,151713.69999980927,151713,150978.285,150994.09999990463,150994.951,151728.126,,28,rate.
screen,html.Screen,0_2_1_1_29,2021-11-25T15:05:28.875Z,,,,,,,,,,,,,,,,54,,,,,,,,,,,,,,592.9739999046433,,response,,,100,,,,,,Space,keypress(Space),,,,,-- --- ---- --- ------ ----- ------- ---- -- --- ------- --<br>------- ---------- ------ -- ----- -- ----- -- ---- ------<br>--- ----- --- --- ------ -------- ----- The ------ ----- --<br>----- ----- ---------- --- --- ------ ------ ---- -- ------<br>------- --- ------ ----- --- ---- ------- -- ---- --- --<br>------- ------,152321.59999990463,152321.09999990463,151711.461,151713.79999995232,151728.126,152328.098,,29,The
screen,html.Screen,0_2_1_1_30,2021-11-25T15:05:29.539Z,,,,,,,,,,,,,,,,54,,,,,,,,,,,,,,656.9020000000019,,response,,,100,,,,,,Space,keypress(Space),,,,,-- --- ---- --- ------ ----- ------- ---- -- --- ------- --<br>------- ---------- ------ -- ----- -- ----- -- ---- ------<br>--- ----- --- --- ------ -------- ----- --- market ----- --<br>----- ----- ---------- --- --- ------ ------ ---- -- ------<br>------- --- ------ ----- --- ---- ------- -- ---- --- --<br>------- ------,152985.59999990463,152985,152311.433,152321.89999985695,152328.098,152994.84,,30,market
screen,html.Screen,0_2_1_1_31,2021-11-25T15:05:30.034Z,,,,,,,,,,,,,,,,54,,,,,,,,,,,,,,486.1600000000035,,response,,,100,,,,,,Space,keypress(Space),,,,,-- --- ---- --- ------ ----- ------- ---- -- --- ------- --<br>------- ---------- ------ -- ----- -- ----- -- ---- ------<br>--- ----- --- --- ------ -------- ----- --- ------ value --<br>----- ----- ---------- --- --- ------ ------ ---- -- ------<br>------- --- ------ ----- --- ---- ------- -- ---- --- --<br>------- ------,153481.59999990463,153481,152978.174,152985.79999995232,152994.84,153494.75,,31,value
screen,html.Screen,0_2_1_1_32,2021-11-25T15:05:30.538Z,,,,,,,,,,,,,,,,54,,,,,,,,,,,,,,490.14999985694885,,response,,,100,,,,,,Space,keypress(Space),,,,,-- --- ---- --- ------ ----- ------- ---- -- --- ------- --<br>------- ---------- ------ -- ----- -- ----- -- ---- ------<br>--- ----- --- --- ------ -------- ----- --- ------ ----- of<br>----- ----- ---------- --- --- ------ ------ ---- -- ------<br>------- --- ------ ----- --- ---- ------- -- ---- --- --<br>------- ------,153985.5,153984.89999985695,153478.085,153481.69999980927,153494.75,153994.627,,32,of
screen,html.Screen,0_2_1_1_33,2021-11-25T15:05:31.099Z,,,,,,,,,,,,,,,,54,,,,,,,,,,,,,,550.7729998569412,,response,,,100,,,,,,Space,keypress(Space),,,,,-- --- ---- --- ------ ----- ------- ---- -- --- ------- --<br>------- ---------- ------ -- ----- -- ----- -- ---- ------<br>--- ----- --- --- ------ -------- ----- --- ------ ----- --<br>these ----- ---------- --- --- ------ ------ ---- -- ------<br>------- --- ------ ----- --- ---- ------- -- ---- --- --<br>------- ------,154546,154545.39999985695,153977.963,153985.69999980927,153994.627,154561.313,,33,these
screen,html.Screen,0_2_1_1_34,2021-11-25T15:05:31.618Z,,,,,,,,,,,,,,,,54,,,,,,,,,,,,,,503.48699995232164,,response,,,100,,,,,,Space,keypress(Space),,,,,-- --- ---- --- ------ ----- ------- ---- -- --- ------- --<br>------- ---------- ------ -- ----- -- ----- -- ---- ------<br>--- ----- --- --- ------ -------- ----- --- ------ ----- --<br>----- bonds ---------- --- --- ------ ------ ---- -- ------<br>------- --- ------ ----- --- ---- ------- -- ---- --- --<br>------- ------,155065.39999985695,155064.79999995232,154544.648,154546.19999980927,154561.313,155077.962,,34,bonds
screen,html.Screen,0_2_1_1_35,2021-11-25T15:05:32.786Z,,,,,,,,,,,,,,,,54,,,,,,,,,,,,,,1154.8379999523167,,response,,,100,,,,,,Space,keypress(Space),,,,,"-- --- ---- --- ------ ----- ------- ---- -- --- ------- --<br>------- ---------- ------ -- ----- -- ----- -- ---- ------<br>--- ----- --- --- ------ -------- ----- --- ------ ----- --<br>----- ----- plummeted, --- --- ------ ------ ---- -- ------<br>------- --- ------ ----- --- ---- ------- -- ---- --- --<br>------- ------",156233.39999985695,156232.79999995232,155061.297,155065.5,155077.962,156244.414,,35,"plummeted,"
screen,html.Screen,0_2_1_1_36,2021-11-25T15:05:33.354Z,,,,,,,,,,,,,,,,54,,,,,,,,,,,,,,556.2859998092754,,response,,,100,,,,,,Space,keypress(Space),,,,,-- --- ---- --- ------ ----- ------- ---- -- --- ------- --<br>------- ---------- ------ -- ----- -- ----- -- ---- ------<br>--- ----- --- --- ------ -------- ----- --- ------ ----- --<br>----- ----- ---------- and --- ------ ------ ---- -- ------<br>------- --- ------ ----- --- ---- ------- -- ---- --- --<br>------- ------,156801.5,156800.69999980927,156227.75,156233.59999990463,156244.414,156811.3,,36,and
screen,html.Screen,0_2_1_1_37,2021-11-25T15:05:34.162Z,,,,,,,,,,,,,,,,54,,,,,,,,,,,,,,797.3999998092768,,response,,,100,,,,,,Space,keypress(Space),,,,,-- --- ---- --- ------ ----- ------- ---- -- --- ------- --<br>------- ---------- ------ -- ----- -- ----- -- ---- ------<br>--- ----- --- --- ------ -------- ----- --- ------ ----- --<br>----- ----- ---------- --- the ------ ------ ---- -- ------<br>------- --- ------ ----- --- ---- ------- -- ---- --- --<br>------- ------,157609.29999995232,157608.69999980927,156794.634,156801.59999990463,156811.3,157611.107,,37,the
screen,html.Screen,0_2_1_1_38,2021-11-25T15:05:34.866Z,,,,,,,,,,,,,,,,54,,,,,,,,,,,,,,701.5929998092761,,response,,,100,,,,,,Space,keypress(Space),,,,,-- --- ---- --- ------ ----- ------- ---- -- --- ------- --<br>------- ---------- ------ -- ----- -- ----- -- ---- ------<br>--- ----- --- --- ------ -------- ----- --- ------ ----- --<br>----- ----- ---------- --- --- market ------ ---- -- ------<br>------- --- ------ ----- --- ---- ------- -- ---- --- --<br>------- ------,158313.29999995232,158312.69999980927,157594.442,157609.5,157611.107,158327.764,,38,market
screen,html.Screen,0_2_1_1_39,2021-11-25T15:05:35.578Z,,,,,,,,,,,,,,,,54,,,,,,,,,,,,,,696.7360000000044,,response,,,100,,,,,,Space,keypress(Space),,,,,-- --- ---- --- ------ ----- ------- ---- -- --- ------- --<br>------- ---------- ------ -- ----- -- ----- -- ---- ------<br>--- ----- --- --- ------ -------- ----- --- ------ ----- --<br>----- ----- ---------- --- --- ------ became ---- -- ------<br>------- --- ------ ----- --- ---- ------- -- ---- --- --<br>------- ------,159025.19999980927,159024.5,158311.099,158313.5,158327.764,159027.737,,39,became
screen,html.Screen,0_2_1_1_40,2021-11-25T15:05:36.706Z,,,,,,,,,,,,,,,,54,,,,,,,,,,,,,,1124.7630000000063,,response,,,100,,,,,,Space,keypress(Space),,,,,-- --- ---- --- ------ ----- ------- ---- -- --- ------- --<br>------- ---------- ------ -- ----- -- ----- -- ---- ------<br>--- ----- --- --- ------ -------- ----- --- ------ ----- --<br>----- ----- ---------- --- --- ------ ------ wary -- ------<br>------- --- ------ ----- --- ---- ------- -- ---- --- --<br>------- ------,160153.09999990463,160152.5,159011.072,159025.29999995232,159027.737,160160.987,,40,wary
screen,html.Screen,0_2_1_1_41,2021-11-25T15:05:37.282Z,,,,,,,,,,,,,,,,54,,,,,,,,,,,,,,567.5130000000063,,response,,,100,,,,,,Space,keypress(Space),,,,,-- --- ---- --- ------ ----- ------- ---- -- --- ------- --<br>------- ---------- ------ -- ----- -- ----- -- ---- ------<br>--- ----- --- --- ------ -------- ----- --- ------ ----- --<br>----- ----- ---------- --- --- ------ ------ ---- of ------<br>------- --- ------ ----- --- ---- ------- -- ---- --- --<br>------- ------,160729.09999990463,160728.5,160144.322,160153.29999995232,160160.987,160744.247,,41,of
screen,html.Screen,0_2_1_1_42,2021-11-25T15:05:38.170Z,,,,,,,,,,,,,,,,54,,,,,,,,,,,,,,872.4529998092621,,response,,,100,,,,,,Space,keypress(Space),,,,,-- --- ---- --- ------ ----- ------- ---- -- --- ------- --<br>------- ---------- ------ -- ----- -- ----- -- ---- ------<br>--- ----- --- --- ------ -------- ----- --- ------ ----- --<br>----- ----- ---------- --- --- ------ ------ ---- -- French<br>------- --- ------ ----- --- ---- ------- -- ---- --- --<br>------- ------,161617.29999995232,161616.69999980927,160727.582,160729.29999995232,160744.247,161627.543,,42,French
screen,html.Screen,0_2_1_1_43,2021-11-25T15:05:38.962Z,,,,,,,,,,,,,,,,54,,,,,,,,,,,,,,780.8569998569437,,response,,,100,,,,,,Space,keypress(Space),,,,,-- --- ---- --- ------ ----- ------- ---- -- --- ------- --<br>------- ---------- ------ -- ----- -- ----- -- ---- ------<br>--- ----- --- --- ------ -------- ----- --- ------ ----- --<br>----- ----- ---------- --- --- ------ ------ ---- -- ------<br>credit. --- ------ ----- --- ---- ------- -- ---- --- --<br>------- ------,162409,162408.39999985695,161610.878,161617.5,161627.543,162410.849,,43,credit.
screen,html.Screen,0_2_1_1_44,2021-11-25T15:05:39.858Z,,,,,,,,,,,,,,,,54,,,,,,,,,,,,,,893.4509999523289,,response,,,100,,,,,,Space,keypress(Space),,,,,-- --- ---- --- ------ ----- ------- ---- -- --- ------- --<br>------- ---------- ------ -- ----- -- ----- -- ---- ------<br>--- ----- --- --- ------ -------- ----- --- ------ ----- --<br>----- ----- ---------- --- --- ------ ------ ---- -- ------<br>------- The ------ ----- --- ---- ------- -- ---- --- --<br>------- ------,163305,163304.29999995232,162394.184,162409.19999980927,162410.849,163310.803,,44,The
screen,html.Screen,0_2_1_1_45,2021-11-25T15:05:40.482Z,,,,,,,,,,,,,,,,54,,,,,,,,,,,,,,617.4969999523018,,response,,,100,,,,,,Space,keypress(Space),,,,,-- --- ---- --- ------ ----- ------- ---- -- --- ------- --<br>------- ---------- ------ -- ----- -- ----- -- ---- ------<br>--- ----- --- --- ------ -------- ----- --- ------ ----- --<br>----- ----- ---------- --- --- ------ ------ ---- -- ------<br>------- --- French ----- --- ---- ------- -- ---- --- --<br>------- ------,163928.89999985695,163928.29999995232,163294.138,163305.19999980927,163310.803,163944.051,,45,French
screen,html.Screen,0_2_1_1_46,2021-11-25T15:05:41.106Z,,,,,,,,,,,,,,,,54,,,,,,,,,,,,,,608.2489999523095,,response,,,100,,,,,,Space,keypress(Space),,,,,-- --- ---- --- ------ ----- ------- ---- -- --- ------- --<br>------- ---------- ------ -- ----- -- ----- -- ---- ------<br>--- ----- --- --- ------ -------- ----- --- ------ ----- --<br>----- ----- ---------- --- --- ------ ------ ---- -- ------<br>------- --- ------ state --- ---- ------- -- ---- --- --<br>------- ------,164552.79999995232,164552.29999995232,163927.386,163929.09999990463,163944.051,164560.718,,46,state
screen,html.Screen,0_2_1_1_47,2021-11-25T15:05:41.874Z,,,,,,,,,,,,,,,,54,,,,,,,,,,,,,,759.4819998092717,,response,,,100,,,,,,Space,keypress(Space),,,,,-- --- ---- --- ------ ----- ------- ---- -- --- ------- --<br>------- ---------- ------ -- ----- -- ----- -- ---- ------<br>--- ----- --- --- ------ -------- ----- --- ------ ----- --<br>----- ----- ---------- --- --- ------ ------ ---- -- ------<br>------- --- ------ ----- was ---- ------- -- ---- --- --<br>------- ------,165320.79999995232,165320.19999980927,164544.053,164553,164560.718,165327.408,,47,was
screen,html.Screen,0_2_1_1_48,2021-11-25T15:05:42.442Z,,,,,,,,,,,,,,,,54,,,,,,,,,,,,,,560.6919999046368,,response,,,100,,,,,,Space,keypress(Space),,,,,-- --- ---- --- ------ ----- ------- ---- -- --- ------- --<br>------- ---------- ------ -- ----- -- ----- -- ---- ------<br>--- ----- --- --- ------ -------- ----- --- ------ ----- --<br>----- ----- ---------- --- --- ------ ------ ---- -- ------<br>------- --- ------ ----- --- left ------- -- ---- --- --<br>------- ------,165888.69999980927,165888.09999990463,165310.742,165321,165327.408,165893.87,,48,left
screen,html.Screen,0_2_1_1_49,2021-11-25T15:05:43.114Z,,,,,,,,,,,,,,,,54,,,,,,,,,,,,,,666.2299999046372,,response,,,100,,,,,,Space,keypress(Space),,,,,-- --- ---- --- ------ ----- ------- ---- -- --- ------- --<br>------- ---------- ------ -- ----- -- ----- -- ---- ------<br>--- ----- --- --- ------ -------- ----- --- ------ ----- --<br>----- ----- ---------- --- --- ------ ------ ---- -- ------<br>------- --- ------ ----- --- ---- without -- ---- --- --<br>------- ------,166560.79999995232,166560.09999990463,165877.206,165888.89999985695,165893.87,166577.206,,49,without
screen,html.Screen,0_2_1_1_50,2021-11-25T15:05:43.594Z,,,,,,,,,,,,,,,,54,,,,,,,,,,,,,,462.893999904627,,response,,,100,,,,,,Space,keypress(Space),,,,,-- --- ---- --- ------ ----- ------- ---- -- --- ------- --<br>------- ---------- ------ -- ----- -- ----- -- ---- ------<br>--- ----- --- --- ------ -------- ----- --- ------ ----- --<br>----- ----- ---------- --- --- ------ ------ ---- -- ------<br>------- --- ------ ----- --- ---- ------- an ---- --- --<br>------- ------,167040.69999980927,167040.09999990463,166560.541,166560.89999985695,166577.206,167043.949,,50,an
screen,html.Screen,0_2_1_1_51,2021-11-25T15:05:44.186Z,,,,,,,,,,,,,,,,54,,,,,,,,,,,,,,588.1509999046393,,response,,,100,,,,,,Space,keypress(Space),,,,,-- --- ---- --- ------ ----- ------- ---- -- --- ------- --<br>------- ---------- ------ -- ----- -- ----- -- ---- ------<br>--- ----- --- --- ------ -------- ----- --- ------ ----- --<br>----- ----- ---------- --- --- ------ ------ ---- -- ------<br>------- --- ------ ----- --- ---- ------- -- easy --- --<br>------- ------,167632.69999980927,167632.09999990463,167027.283,167040.79999995232,167043.949,167643.866,,51,easy
screen,html.Screen,0_2_1_1_52,2021-11-25T15:05:44.697Z,,,,,,,,,,,,,,,,54,,,,,,,,,,,,,,500.1339999999909,,response,,,100,,,,,,Space,keypress(Space),,,,,-- --- ---- --- ------ ----- ------- ---- -- --- ------- --<br>------- ---------- ------ -- ----- -- ----- -- ---- ------<br>--- ----- --- --- ------ -------- ----- --- ------ ----- --<br>----- ----- ---------- --- --- ------ ------ ---- -- ------<br>------- --- ------ ----- --- ---- ------- -- ---- way --<br>------- ------,168144.5,168144,167627.201,167632.79999995232,167643.866,168160.576,,52,way
screen,html.Screen,0_2_1_1_53,2021-11-25T15:05:45.185Z,,,,,,,,,,,,,,,,54,,,,,,,,,,,,,,471.42399999999907,,response,,,100,,,,,,Space,keypress(Space),,,,,-- --- ---- --- ------ ----- ------- ---- -- --- ------- --<br>------- ---------- ------ -- ----- -- ----- -- ---- ------<br>--- ----- --- --- ------ -------- ----- --- ------ ----- --<br>----- ----- ---------- --- --- ------ ------ ---- -- ------<br>------- --- ------ ----- --- ---- ------- -- ---- --- of<br>------- ------,168632.59999990463,168632,168143.91,168144.69999980927,168160.576,168643.818,,53,of
screen,html.Screen,0_2_1_1_54,2021-11-25T15:05:45.929Z,,,,,,,,,,,,,,,,54,,,,,,,,,,,,,,732.1820000000007,,response,,,100,,,,,,Space,keypress(Space),,,,,-- --- ---- --- ------ ----- ------- ---- -- --- ------- --<br>------- ---------- ------ -- ----- -- ----- -- ---- ------<br>--- ----- --- --- ------ -------- ----- --- ------ ----- --<br>----- ----- ---------- --- --- ------ ------ ---- -- ------<br>------- --- ------ ----- --- ---- ------- -- ---- --- --<br>raising ------,169376.59999990463,169376,168627.153,168632.69999980927,168643.818,169393.762,,54,raising
screen,html.Screen,0_2_1_1_55,2021-11-25T15:05:46.561Z,,,,,,,,,,,,,,,,54,,,,,,,,,,,,,,614.137999856961,,response,,,100,,,,,,Space,keypress(Space),,,,,-- --- ---- --- ------ ----- ------- ---- -- --- ------- --<br>------- ---------- ------ -- ----- -- ----- -- ---- ------<br>--- ----- --- --- ------ -------- ----- --- ------ ----- --<br>----- ----- ---------- --- --- ------ ------ ---- -- ------<br>------- --- ------ ----- --- ---- ------- -- ---- --- --<br>------- money.,170008.59999990463,170007.89999985695,169377.097,169376.79999995232,169393.762,170010.391,,55,money.
Item 100,flow.Loop,0_2_1_1,2021-11-25T15:05:46.562Z,,,,,,,,,,,,,,,,,,,,,,,,,,,,,,40595.09799985695,,completion,,,,D,,,,,,,,,,silence,,170009,170007.89999985695,129396.137,129397.29999995232,129412.802,170010.391,,,
Question 1,html.Screen,0_2_1_2,2021-11-25T15:05:50.649Z,,,,,,,,,,,,,,,,,,,,,,,,,,,false,TRUE,,4085.308999809262,,response,,,100,D,,,,,FALSE,click #choice-2,,,,silence,,174096.5,174095.69999980927,169993.726,170009.19999980927,170010.391,174110.223,,,
Question 2,html.Screen,0_2_1_3,2021-11-25T15:05:59.401Z,,,,,,,,,,,,,,,,,,,,,,,,,,,true,FALSE,,8734.076999952318,,response,,,100,D,,,,,FALSE,click #choice-2,,,,silence,,182845.09999990463,182844.29999995232,174093.557,174096.79999995232,174110.223,182859.546,,,
Item 100,flow.Sequence,0_2_1,2021-11-25T15:05:59.402Z,,,,,,,,,,,,,,,,,,,,,,,,,,,,,,63430.78399995231,,completion,,,,,,,,,,,,,,,,182845.29999995232,182844.29999995232,119396.85,119406,119413.516,182859.546,,,
End of Practice,html.Page,0_2_2,2021-11-25T15:06:05.679Z,,,,,,,,,,,,,,,,,,,,,,,,,,,,,,6262.253999952314,,form submission,,,,,,,,,,,,,,,,189122.09999990463,189121.79999995232,182842.881,182845.39999985695,182859.546,189125.911,,,
Practice,flow.Sequence,0_2,2021-11-25T15:06:05.679Z,,,,,,,,,,,,,,,,,,,,,,,,,,,,,,123088.25799995232,,completion,,,,,,,,,,,,,,,,189122.39999985695,189121.79999995232,66016.875,66023.39999985695,66033.542,189125.911,,,
Trap_instruction,html.Page,0_3_0,2021-11-25T15:06:13.596Z,,,,,,,,,,,,,,,,,,,,,,,,,,,,,,7913.488999856956,,form submission,,,,,,,,,,,,,,,,197039.69999980927,197039.39999985695,189109.245,189122.5,189125.911,197058.926,,,
trap_trial,html.Screen,0_3_1,2021-11-25T15:06:22.259Z,,,,,,,,,,,,,,,,,,,,,,,,,,,true,1,,8643.273999809258,,response,,,,,,,,,1,click #choice-1,,,,,,205703,205702.19999980927,197025.594,197039.89999985695,197058.926,205717.989,,,
end of trap trial,html.Page,0_3_2,2021-11-25T15:06:25.418Z,,,,,,,,,,,,,,,,,,,,,,,,,,,,,,3143.610999904631,,form submission,,,,,,,,,,,,,,,,208861.89999985695,208861.59999990463,205701.337,205703.19999980927,205717.989,208875.181,,,
Trap 1,flow.Sequence,0_3,2021-11-25T15:06:25.419Z,,,,,,,,,,,,,,,,,,,,,,,,,,,,,,19735.68899990464,,completion,,,,,,,,,,,,,,,,208862.19999980927,208861.59999990463,189109.245,189122.5,189125.911,208875.181,,,
Standby,html.Page,0_4_0,2021-11-25T15:06:33.415Z,,,,,,,,,,,,,,,,,,,,,,,,,,,,,,7998.709999999992,,timeout,,,,,,,,,,,,,,,,216858.5,216857.226,208858.495,208862.5,208875.181,216873.891,,,
Holding screen,html.Screen,0_4_1_0_0,2021-11-25T15:06:40.415Z,,,,,,,,,,,,,,,,,,,,,,,,,,,,,,6999.856999999989,,timeout,,,,,,,,,,,,,,,,223858.5,223857.083,216857.226,216858.69999980927,216873.891,223873.748,,,
screen,html.Screen,0_4_1_0_1_0,2021-11-25T15:06:42.106Z,,,,,,,,,,,,,,,,11,,,,,,,,,,,,,,1675.051999952324,,response,,,4,D,,,,,Space,keypress(Space),,,,silence,Known -- ---- --- -- --- -------- ------------ ---------- --<br>- ------- ------ --------- -- ------------ -- --- ---- -----<br>------ ---- ---- ------ ------ ------- --- ----- ---------<br>---- --- -------- -------- --- --- -- ------- --- --- -----<br>-- --- ------ ------- --- --- -------- ---- --------- --<br>---------- -- -------- ----------------,225549.5,225548.79999995232,223857.083,223858.79999995232,223873.748,225556.921,,0,Known
screen,html.Screen,0_4_1_0_1_1,2021-11-25T15:06:42.826Z,,,,,,,,,,,,,,,,11,,,,,,,,,,,,,,711.5789999999979,,response,,,4,D,,,,,Space,keypress(Space),,,,silence,----- as ---- --- -- --- -------- ------------ ---------- --<br>- ------- ------ --------- -- ------------ -- --- ---- -----<br>------ ---- ---- ------ ------ ------- --- ----- ---------<br>---- --- -------- -------- --- --- -- ------- --- --- -----<br>-- --- ------ ------- --- --- -------- ---- --------- --<br>---------- -- -------- ----------------,226269.09999990463,226268.5,225540.256,225549.69999980927,225556.921,226273.612,,1,as
screen,html.Screen,0_4_1_0_1_2,2021-11-25T15:06:43.489Z,,,,,,,,,,,,,,,,11,,,,,,,,,,,,,,658.7879998569551,,response,,,4,D,,,,,Space,keypress(Space),,,,silence,----- -- Rapa --- -- --- -------- ------------ ---------- --<br>- ------- ------ --------- -- ------------ -- --- ---- -----<br>------ ---- ---- ------ ------ ------- --- ----- ---------<br>---- --- -------- -------- --- --- -- ------- --- --- -----<br>-- --- ------ ------- --- --- -------- ---- --------- --<br>---------- -- -------- ----------------,226933.09999990463,226932.39999985695,226256.947,226269.29999995232,226273.612,226940.208,,2,Rapa
screen,html.Screen,0_4_1_0_1_3,2021-11-25T15:06:44.417Z,,,,,,,,,,,,,,,,11,,,,,,,,,,,,,,920.1919998569356,,response,,,4,D,,,,,Space,keypress(Space),,,,silence,----- -- ---- Nui -- --- -------- ------------ ---------- --<br>- ------- ------ --------- -- ------------ -- --- ---- -----<br>------ ---- ---- ------ ------ ------- --- ----- ---------<br>---- --- -------- -------- --- --- -- ------- --- --- -----<br>-- --- ------ ------- --- --- -------- ---- --------- --<br>---------- -- -------- ----------------,227860.89999985695,227860.39999985695,226923.543,226933.09999990463,226940.208,227873.447,,3,Nui
screen,html.Screen,0_4_1_0_1_4,2021-11-25T15:06:45.194Z,,,,,,,,,,,,,,,,11,,,,,,,,,,,,,,762.8529999523307,,response,,,4,D,,,,,Space,keypress(Space),,,,silence,----- -- ---- --- to --- -------- ------------ ---------- --<br>- ------- ------ --------- -- ------------ -- --- ---- -----<br>------ ---- ---- ------ ------ ------- --- ----- ---------<br>---- --- -------- -------- --- --- -- ------- --- --- -----<br>-- --- ------ ------- --- --- -------- ---- --------- --<br>---------- -- -------- ----------------,228637.09999990463,228636.29999995232,227856.782,227861.09999990463,227873.447,228640.192,,4,to
screen,html.Screen,0_4_1_0_1_5,2021-11-25T15:06:45.745Z,,,,,,,,,,,,,,,,11,,,,,,,,,,,,,,548.1079999523063,,response,,,4,D,,,,,Space,keypress(Space),,,,silence,----- -- ---- --- -- the -------- ------------ ---------- --<br>- ------- ------ --------- -- ------------ -- --- ---- -----<br>------ ---- ---- ------ ------ ------- --- ----- ---------<br>---- --- -------- -------- --- --- -- ------- --- --- -----<br>-- --- ------ ------- --- --- -------- ---- --------- --<br>---------- -- -------- ----------------,229188.89999985695,229188.29999995232,228623.526,228637.19999980927,228640.192,229190.053,,5,the
screen,html.Screen,0_4_1_0_1_6,2021-11-25T15:06:46.537Z,,,,,,,,,,,,,,,,11,,,,,,,,,,,,,,790.1469998092507,,response,,,4,D,,,,,Space,keypress(Space),,,,silence,----- -- ---- --- -- --- island's ------------ ---------- --<br>- ------- ------ --------- -- ------------ -- --- ---- -----<br>------ ---- ---- ------ ------ ------- --- ----- ---------<br>---- --- -------- -------- --- --- -- ------- --- --- -----<br>-- --- ------ ------- --- --- -------- ---- --------- --<br>---------- -- -------- ----------------,229980.89999985695,229980.19999980927,229173.388,229189,229190.053,229990.032,,6,island's
screen,html.Screen,0_4_1_0_1_7,2021-11-25T15:06:48.257Z,,,,,,,,,,,,,,,,11,,,,,,,,,,,,,,1710.1679998092586,,response,,,4,D,,,,,Space,keypress(Space),,,,silence,"----- -- ---- --- -- --- -------- inhabitants, ---------- --<br>- ------- ------ --------- -- ------------ -- --- ---- -----<br>------ ---- ---- ------ ------ ------- --- ----- ---------<br>---- --- -------- -------- --- --- -- ------- --- --- -----<br>-- --- ------ ------- --- --- -------- ---- --------- --<br>---------- -- -------- ----------------",231700.89999985695,231700.19999980927,229973.367,229981,229990.032,231706.562,,7,"inhabitants,"
screen,html.Screen,0_4_1_0_1_8,2021-11-25T15:06:49.729Z,,,,,,,,,,,,,,,,11,,,,,,,,,,,,,,1465.5379999046272,,response,,,4,D,,,,,Space,keypress(Space),,,,silence,----- -- ---- --- -- --- -------- ------------ Rongorongo --<br>- ------- ------ --------- -- ------------ -- --- ---- -----<br>------ ---- ---- ------ ------ ------- --- ----- ---------<br>---- --- -------- -------- --- --- -- ------- --- --- -----<br>-- --- ------ ------- --- --- -------- ---- --------- --<br>---------- -- -------- ----------------,233172.59999990463,233172.09999990463,231689.897,231701,231706.562,233189.736,,8,Rongorongo
screen,html.Screen,0_4_1_0_1_9,2021-11-25T15:06:50.305Z,,,,,,,,,,,,,,,,11,,,,,,,,,,,,,,558.1639998569444,,response,,,4,D,,,,,Space,keypress(Space),,,,silence,----- -- ---- --- -- --- -------- ------------ ---------- is<br>- ------- ------ --------- -- ------------ -- --- ---- -----<br>------ ---- ---- ------ ------ ------- --- ----- ---------<br>---- --- -------- -------- --- --- -- ------- --- --- -----<br>-- --- ------ ------- --- --- -------- ---- --------- --<br>---------- -- -------- ----------------,233748.59999990463,233747.89999985695,233173.071,233172.79999995232,233189.736,233756.489,,9,is
screen,html.Screen,0_4_1_0_1_10,2021-11-25T15:06:50.769Z,,,,,,,,,,,,,,,,11,,,,,,,,,,,,,,455.41099985694746,,response,,,4,D,,,,,Space,keypress(Space),,,,silence,----- -- ---- --- -- --- -------- ------------ ---------- --<br>a ------- ------ --------- -- ------------ -- --- ---- -----<br>------ ---- ---- ------ ------ ------- --- ----- ---------<br>---- --- -------- -------- --- --- -- ------- --- --- -----<br>-- --- ------ ------- --- --- -------- ---- --------- --<br>---------- -- -------- ----------------,234212.5,234211.89999985695,233739.824,233748.69999980927,233756.489,234223.082,,10,a
screen,html.Screen,0_4_1_0_1_11,2021-11-25T15:06:51.417Z,,,,,,,,,,,,,,,,11,,,,,,,,,,,,,,636.817999856954,,response,,,4,D,,,,,Space,keypress(Space),,,,silence,----- -- ---- --- -- --- -------- ------------ ---------- --<br>- writing ------ --------- -- ------------ -- --- ---- -----<br>------ ---- ---- ------ ------ ------- --- ----- ---------<br>---- --- -------- -------- --- --- -- ------- --- --- -----<br>-- --- ------ ------- --- --- -------- ---- --------- --<br>---------- -- -------- ----------------,234860.59999990463,234859.89999985695,234206.417,234212.69999980927,234223.082,234873.12,,11,writing
screen,html.Screen,0_4_1_0_1_12,2021-11-25T15:06:51.953Z,,,,,,,,,,,,,,,,11,,,,,,,,,,,,,,522.7799998569535,,response,,,4,D,,,,,Space,keypress(Space),,,,silence,----- -- ---- --- -- --- -------- ------------ ---------- --<br>- ------- system --------- -- ------------ -- --- ---- -----<br>------ ---- ---- ------ ------ ------- --- ----- ---------<br>---- --- -------- -------- --- --- -- ------- --- --- -----<br>-- --- ------ ------- --- --- -------- ---- --------- --<br>---------- -- -------- ----------------,235396.59999990463,235395.89999985695,234856.454,234860.79999995232,234873.12,235406.439,,12,system
screen,html.Screen,0_4_1_0_1_13,2021-11-25T15:06:53.537Z,,,,,,,,,,,,,,,,11,,,,,,,,,,,,,,1573.6609999046195,,response,,,4,D,,,,,Space,keypress(Space),,,,silence,----- -- ---- --- -- --- -------- ------------ ---------- --<br>- ------- ------ comprised -- ------------ -- --- ---- -----<br>------ ---- ---- ------ ------ ------- --- ----- ---------<br>---- --- -------- -------- --- --- -- ------- --- --- -----<br>-- --- ------ ------- --- --- -------- ---- --------- --<br>---------- -- -------- ----------------,236980.69999980927,236980.09999990463,235389.773,235396.79999995232,235406.439,236989.553,,13,comprised
screen,html.Screen,0_4_1_0_1_14,2021-11-25T15:06:54.105Z,,,,,,,,,,,,,,,,11,,,,,,,,,,,,,,558.1469998092507,,response,,,4,D,,,,,Space,keypress(Space),,,,silence,----- -- ---- --- -- --- -------- ------------ ---------- --<br>- ------- ------ --------- of ------------ -- --- ---- -----<br>------ ---- ---- ------ ------ ------- --- ----- ---------<br>---- --- -------- -------- --- --- -- ------- --- --- -----<br>-- --- ------ ------- --- --- -------- ---- --------- --<br>---------- -- -------- ----------------,237548.39999985695,237547.69999980927,236972.888,236980.79999995232,236989.553,237556.212,,14,of
screen,html.Screen,0_4_1_0_1_15,2021-11-25T15:06:55.569Z,,,,,,,,,,,,,,,,11,,,,,,,,,,,,,,1455.4879998092656,,response,,,4,D,,,,,Space,keypress(Space),,,,silence,----- -- ---- --- -- --- -------- ------------ ---------- --<br>- ------- ------ --------- -- pictographs. -- --- ---- -----<br>------ ---- ---- ------ ------ ------- --- ----- ---------<br>---- --- -------- -------- --- --- -- ------- --- --- -----<br>-- --- ------ ------- --- --- -------- ---- --------- --<br>---------- -- -------- ----------------,239012.29999995232,239011.69999980927,237539.547,237548.59999990463,237556.212,239022.729,,15,pictographs.
screen,html.Screen,0_4_1_0_1_16,2021-11-25T15:06:56.185Z,,,,,,,,,,,,,,,,11,,,,,,,,,,,,,,604.970999809273,,response,,,4,D,,,,,Space,keypress(Space),,,,silence,----- -- ---- --- -- --- -------- ------------ ---------- --<br>- ------- ------ --------- -- ------------ It --- ---- -----<br>------ ---- ---- ------ ------ ------- --- ----- ---------<br>---- --- -------- -------- --- --- -- ------- --- --- -----<br>-- --- ------ ------- --- --- -------- ---- --------- --<br>---------- -- -------- ----------------,239628.39999985695,239627.69999980927,239006.064,239012.39999985695,239022.729,239639.515,,16,It
screen,html.Screen,0_4_1_0_1_17,2021-11-25T15:06:56.745Z,,,,,,,,,,,,,,,,11,,,,,,,,,,,,,,548.1849998092512,,response,,,4,D,,,,,Space,keypress(Space),,,,silence,----- -- ---- --- -- --- -------- ------------ ---------- --<br>- ------- ------ --------- -- ------------ -- has ---- -----<br>------ ---- ---- ------ ------ ------- --- ----- ---------<br>---- --- -------- -------- --- --- -- ------- --- --- -----<br>-- --- ------ ------- --- --- -------- ---- --------- --<br>---------- -- -------- ----------------,240188.19999980927,240187.69999980927,239622.849,239628.5,239639.515,240189.429,,17,has
screen,html.Screen,0_4_1_0_1_18,2021-11-25T15:06:57.321Z,,,,,,,,,,,,,,,,11,,,,,,,,,,,,,,574.1709999046288,,response,,,4,D,,,,,Space,keypress(Space),,,,silence,----- -- ---- --- -- --- -------- ------------ ---------- --<br>- ------- ------ --------- -- ------------ -- --- been -----<br>------ ---- ---- ------ ------ ------- --- ----- ---------<br>---- --- -------- -------- --- --- -- ------- --- --- -----<br>-- --- ------ ------- --- --- -------- ---- --------- --<br>---------- -- -------- ----------------,240764.09999990463,240763.59999990463,240172.764,240188.29999995232,240189.429,240772.731,,18,been
screen,html.Screen,0_4_1_0_1_19,2021-11-25T15:06:57.764Z,,,,,,,,,,,,,,,,11,,,,,,,,,,,,,,430.76900000000023,,response,,,4,D,,,,,Space,keypress(Space),,,,silence,----- -- ---- --- -- --- -------- ------------ ---------- --<br>- ------- ------ --------- -- ------------ -- --- ---- found<br>------ ---- ---- ------ ------ ------- --- ----- ---------<br>---- --- -------- -------- --- --- -- ------- --- --- -----<br>-- --- ------ ------- --- --- -------- ---- --------- --<br>---------- -- -------- ----------------,241204.09999990463,241203.5,240756.066,240764.29999995232,240772.731,241205.963,,19,found
screen,html.Screen,0_4_1_0_1_20,2021-11-25T15:06:58.324Z,,,,,,,,,,,,,,,,11,,,,,,,,,,,,,,557.43699985696,,response,,,4,D,,,,,Space,keypress(Space),,,,silence,----- -- ---- --- -- --- -------- ------------ ---------- --<br>- ------- ------ --------- -- ------------ -- --- ---- -----<br>carved ---- ---- ------ ------ ------- --- ----- ---------<br>---- --- -------- -------- --- --- -- ------- --- --- -----<br>-- --- ------ ------- --- --- -------- ---- --------- --<br>---------- -- -------- ----------------,241764.09999990463,241763.39999985695,241189.299,241204.29999995232,241205.963,241772.704,,20,carved
screen,html.Screen,0_4_1_0_1_21,2021-11-25T15:06:59.260Z,,,,,,,,,,,,,,,,11,,,,,,,,,,,,,,926.695999856951,,response,,,4,D,,,,,Space,keypress(Space),,,,silence,----- -- ---- --- -- --- -------- ------------ ---------- --<br>- ------- ------ --------- -- ------------ -- --- ---- -----<br>------ into ---- ------ ------ ------- --- ----- ---------<br>---- --- -------- -------- --- --- -- ------- --- --- -----<br>-- --- ------ ------- --- --- -------- ---- --------- --<br>---------- -- -------- ----------------,242700.19999980927,242699.39999985695,241756.038,241764.29999995232,241772.704,242705.915,,21,into
screen,html.Screen,0_4_1_0_1_22,2021-11-25T15:06:59.948Z,,,,,,,,,,,,,,,,11,,,,,,,,,,,,,,681.4849998569407,,response,,,4,D,,,,,Space,keypress(Space),,,,silence,----- -- ---- --- -- --- -------- ------------ ---------- --<br>- ------- ------ --------- -- ------------ -- --- ---- -----<br>------ ---- many ------ ------ ------- --- ----- ---------<br>---- --- -------- -------- --- --- -- ------- --- --- -----<br>-- --- ------ ------- --- --- -------- ---- --------- --<br>---------- -- -------- ----------------,243388.09999990463,243387.39999985695,242689.25,242700.29999995232,242705.915,243389.178,,22,many
screen,html.Screen,0_4_1_0_1_23,2021-11-25T15:07:01.204Z,,,,,,,,,,,,,,,,11,,,,,,,,,,,,,,1254.2219998569344,,response,,,4,D,,,,,Space,keypress(Space),,,,silence,----- -- ---- --- -- --- -------- ------------ ---------- --<br>- ------- ------ --------- -- ------------ -- --- ---- -----<br>------ ---- ---- oblong ------ ------- --- ----- ---------<br>---- --- -------- -------- --- --- -- ------- --- --- -----<br>-- --- ------ ------- --- --- -------- ---- --------- --<br>---------- -- -------- ----------------,244644,244643.39999985695,243372.513,243388.29999995232,243389.178,244655.766,,23,oblong
screen,html.Screen,0_4_1_0_1_24,2021-11-25T15:07:02.156Z,,,,,,,,,,,,,,,,11,,,,,,,,,,,,,,939.533999952313,,response,,,4,D,,,,,Space,keypress(Space),,,,silence,----- -- ---- --- -- --- -------- ------------ ---------- --<br>- ------- ------ --------- -- ------------ -- --- ---- -----<br>------ ---- ---- ------ wooden ------- --- ----- ---------<br>---- --- -------- -------- --- --- -- ------- --- --- -----<br>-- --- ------ ------- --- --- -------- ---- --------- --<br>---------- -- -------- ----------------,245596,245595.29999995232,244639.101,244644.19999980927,244655.766,245605.581,,24,wooden
screen,html.Screen,0_4_1_0_1_25,2021-11-25T15:07:02.892Z,,,,,,,,,,,,,,,,11,,,,,,,,,,,,,,725.6189998092595,,response,,,4,D,,,,,Space,keypress(Space),,,,silence,----- -- ---- --- -- --- -------- ------------ ---------- --<br>- ------- ------ --------- -- ------------ -- --- ---- -----<br>------ ---- ---- ------ ------ tablets --- ----- ---------<br>---- --- -------- -------- --- --- -- ------- --- --- -----<br>-- --- ------ ------- --- --- -------- ---- --------- --<br>---------- -- -------- ----------------,246331.89999985695,246331.19999980927,245588.917,245596.09999990463,245605.581,246339.027,,25,tablets
screen,html.Screen,0_4_1_0_1_26,2021-11-25T15:07:03.436Z,,,,,,,,,,,,,,,,11,,,,,,,,,,,,,,536.1729998092633,,response,,,4,D,,,,,Space,keypress(Space),,,,silence,----- -- ---- --- -- --- -------- ------------ ---------- --<br>- ------- ------ --------- -- ------------ -- --- ---- -----<br>------ ---- ---- ------ ------ ------- and ----- ---------<br>---- --- -------- -------- --- --- -- ------- --- --- -----<br>-- --- ------ ------- --- --- -------- ---- --------- --<br>---------- -- -------- ----------------,246875.79999995232,246875.19999980927,246322.362,246332.09999990463,246339.027,246888.942,,26,and
screen,html.Screen,0_4_1_0_1_27,2021-11-25T15:07:04.164Z,,,,,,,,,,,,,,,,11,,,,,,,,,,,,,,714.4579998569388,,response,,,4,D,,,,,Space,keypress(Space),,,,silence,----- -- ---- --- -- --- -------- ------------ ---------- --<br>- ------- ------ --------- -- ------------ -- --- ---- -----<br>------ ---- ---- ------ ------ ------- --- other ---------<br>---- --- -------- -------- --- --- -- ------- --- --- -----<br>-- --- ------ ------- --- --- -------- ---- --------- --<br>---------- -- -------- ----------------,247604,247603.39999985695,246872.277,246876.09999990463,246888.942,247605.71,,27,other
screen,html.Screen,0_4_1_0_1_28,2021-11-25T15:07:05.236Z,,,,,,,,,,,,,,,,11,,,,,,,,,,,,,,1069.3899999046407,,response,,,4,D,,,,,Space,keypress(Space),,,,silence,----- -- ---- --- -- --- -------- ------------ ---------- --<br>- ------- ------ --------- -- ------------ -- --- ---- -----<br>------ ---- ---- ------ ------ ------- --- ----- artifacts<br>---- --- -------- -------- --- --- -- ------- --- --- -----<br>-- --- ------ ------- --- --- -------- ---- --------- --<br>---------- -- -------- ----------------,248675.69999980927,248675.09999990463,247589.044,247604.09999990463,247605.71,248688.742,,28,artifacts
screen,html.Screen,0_4_1_0_1_29,2021-11-25T15:07:06.388Z,,,,,,,,,,,,,,,,11,,,,,,,,,,,,,,1138.2580000000016,,response,,,4,D,,,,,Space,keypress(Space),,,,silence,----- -- ---- --- -- --- -------- ------------ ---------- --<br>- ------- ------ --------- -- ------------ -- --- ---- -----<br>------ ---- ---- ------ ------ ------- --- ----- ---------<br>from --- -------- -------- --- --- -- ------- --- --- -----<br>-- --- ------ ------- --- --- -------- ---- --------- --<br>---------- -- -------- ----------------,249827.69999980927,249827,248672.078,248675.79999995232,248688.742,249838.765,,29,from
screen,html.Screen,0_4_1_0_1_30,2021-11-25T15:07:06.876Z,,,,,,,,,,,,,,,,11,,,,,,,,,,,,,,476.23499999998603,,response,,,4,D,,,,,Space,keypress(Space),,,,silence,----- -- ---- --- -- --- -------- ------------ ---------- --<br>- ------- ------ --------- -- ------------ -- --- ---- -----<br>------ ---- ---- ------ ------ ------- --- ----- ---------<br>---- the -------- -------- --- --- -- ------- --- --- -----<br>-- --- ------ ------- --- --- -------- ---- --------- --<br>---------- -- -------- ----------------,250315.59999990463,250315,249822.1,249827.79999995232,249838.765,250322.118,,30,the
screen,html.Screen,0_4_1_0_1_31,2021-11-25T15:07:07.596Z,,,,,,,,,,,,,,,,11,,,,,,,,,,,,,,712.7819998569612,,response,,,4,D,,,,,Space,keypress(Space),,,,silence,----- -- ---- --- -- --- -------- ------------ ---------- --<br>- ------- ------ --------- -- ------------ -- --- ---- -----<br>------ ---- ---- ------ ------ ------- --- ----- ---------<br>---- --- island's -------- --- --- -- ------- --- --- -----<br>-- --- ------ ------- --- --- -------- ---- --------- --<br>---------- -- -------- ----------------,251035.59999990463,251034.89999985695,250305.453,250315.69999980927,250322.118,251038.722,,31,island's
screen,html.Screen,0_4_1_0_1_32,2021-11-25T15:07:08.292Z,,,,,,,,,,,,,,,,11,,,,,,,,,,,,,,692.17799985694,,response,,,4,D,,,,,Space,keypress(Space),,,,silence,----- -- ---- --- -- --- -------- ------------ ---------- --<br>- ------- ------ --------- -- ------------ -- --- ---- -----<br>------ ---- ---- ------ ------ ------- --- ----- ---------<br>---- --- -------- history. --- --- -- ------- --- --- -----<br>-- --- ------ ------- --- --- -------- ---- --------- --<br>---------- -- -------- ----------------,251731.5,251730.89999985695,251022.057,251035.79999995232,251038.722,251738.78,,32,history.
screen,html.Screen,0_4_1_0_1_33,2021-11-25T15:07:09.156Z,,,,,,,,,,,,,,,,11,,,,,,,,,,,,,,856.11999985695,,response,,,4,D,,,,,Space,keypress(Space),,,,silence,----- -- ---- --- -- --- -------- ------------ ---------- --<br>- ------- ------ --------- -- ------------ -- --- ---- -----<br>------ ---- ---- ------ ------ ------- --- ----- ---------<br>---- --- -------- -------- The --- -- ------- --- --- -----<br>-- --- ------ ------- --- --- -------- ---- --------- --<br>---------- -- -------- ----------------,252595.5,252594.89999985695,251722.114,251731.69999980927,251738.78,252605.328,,33,The
screen,html.Screen,0_4_1_0_1_34,2021-11-25T15:07:10.036Z,,,,,,,,,,,,,,,,11,,,,,,,,,,,,,,869.4719999523077,,response,,,4,D,,,,,Space,keypress(Space),,,,silence,----- -- ---- --- -- --- -------- ------------ ---------- --<br>- ------- ------ --------- -- ------------ -- --- ---- -----<br>------ ---- ---- ------ ------ ------- --- ----- ---------<br>---- --- -------- -------- --- art -- ------- --- --- -----<br>-- --- ------ ------- --- --- -------- ---- --------- --<br>---------- -- -------- ----------------,253475.39999985695,253474.79999995232,252588.663,252595.69999980927,252605.328,253488.592,,34,art
screen,html.Screen,0_4_1_0_1_35,2021-11-25T15:07:10.603Z,,,,,,,,,,,,,,,,11,,,,,,,,,,,,,,554.107999809261,,response,,,4,D,,,,,Space,keypress(Space),,,,silence,----- -- ---- --- -- --- -------- ------------ ---------- --<br>- ------- ------ --------- -- ------------ -- --- ---- -----<br>------ ---- ---- ------ ------ ------- --- ----- ---------<br>---- --- -------- -------- --- --- of ------- --- --- -----<br>-- --- ------ ------- --- --- -------- ---- --------- --<br>---------- -- -------- ----------------,254043.29999995232,254042.69999980927,253471.927,253475.69999980927,253488.592,254055.199,,35,of
screen,html.Screen,0_4_1_0_1_36,2021-11-25T15:07:11.244Z,,,,,,,,,,,,,,,,11,,,,,,,,,,,,,,627.5009998092719,,response,,,4,D,,,,,Space,keypress(Space),,,,silence,----- -- ---- --- -- --- -------- ------------ ---------- --<br>- ------- ------ --------- -- ------------ -- --- ---- -----<br>------ ---- ---- ------ ------ ------- --- ----- ---------<br>---- --- -------- -------- --- --- -- writing --- --- -----<br>-- --- ------ ------- --- --- -------- ---- --------- --<br>---------- -- -------- ----------------,254683.29999995232,254682.69999980927,254038.534,254043.5,254055.199,254688.422,,36,writing
screen,html.Screen,0_4_1_0_1_37,2021-11-25T15:07:11.795Z,,,,,,,,,,,,,,,,11,,,,,,,,,,,,,,546.2779998092738,,response,,,4,D,,,,,Space,keypress(Space),,,,silence,----- -- ---- --- -- --- -------- ------------ ---------- --<br>- ------- ------ --------- -- ------------ -- --- ---- -----<br>------ ---- ---- ------ ------ ------- --- ----- ---------<br>---- --- -------- -------- --- --- -- ------- was --- -----<br>-- --- ------ ------- --- --- -------- ---- --------- --<br>---------- -- -------- ----------------,255235.29999995232,255234.69999980927,254671.758,254683.5,254688.422,255238.543,,37,was
screen,html.Screen,0_4_1_0_1_38,2021-11-25T15:07:12.443Z,,,,,,,,,,,,,,,,11,,,,,,,,,,,,,,644.0569999046274,,response,,,4,D,,,,,Space,keypress(Space),,,,silence,----- -- ---- --- -- --- -------- ------------ ---------- --<br>- ------- ------ --------- -- ------------ -- --- ---- -----<br>------ ---- ---- ------ ------ ------- --- ----- ---------<br>---- --- -------- -------- --- --- -- ------- --- not -----<br>-- --- ------ ------- --- --- -------- ---- --------- --<br>---------- -- -------- ----------------,255883.29999995232,255882.59999990463,255221.877,255235.39999985695,255238.543,255888.452,,38,not
screen,html.Screen,0_4_1_0_1_39,2021-11-25T15:07:12.955Z,,,,,,,,,,,,,,,,11,,,,,,,,,,,,,,506.14799990464235,,response,,,4,D,,,,,Space,keypress(Space),,,,silence,----- -- ---- --- -- --- -------- ------------ ---------- --<br>- ------- ------ --------- -- ------------ -- --- ---- -----<br>------ ---- ---- ------ ------ ------- --- ----- ---------<br>---- --- -------- -------- --- --- -- ------- --- --- known<br>-- --- ------ ------- --- --- -------- ---- --------- --<br>---------- -- -------- ----------------,256395.19999980927,256394.59999990463,255871.787,255883.59999990463,255888.452,256405.077,,39,known
screen,html.Screen,0_4_1_0_1_40,2021-11-25T15:07:13.723Z,,,,,,,,,,,,,,,,11,,,,,,,,,,,,,,757.4230000000098,,response,,,4,D,,,,,Space,keypress(Space),,,,silence,----- -- ---- --- -- --- -------- ------------ ---------- --<br>- ------- ------ --------- -- ------------ -- --- ---- -----<br>------ ---- ---- ------ ------ ------- --- ----- ---------<br>---- --- -------- -------- --- --- -- ------- --- --- -----<br>in --- ------ ------- --- --- -------- ---- --------- --<br>---------- -- -------- ----------------,257163.19999980927,257162.5,256388.412,256395.39999985695,256405.077,257171.666,,40,in
screen,html.Screen,0_4_1_0_1_41,2021-11-25T15:07:14.235Z,,,,,,,,,,,,,,,,11,,,,,,,,,,,,,,503.0339998092677,,response,,,4,D,,,,,Space,keypress(Space),,,,silence,----- -- ---- --- -- --- -------- ------------ ---------- --<br>- ------- ------ --------- -- ------------ -- --- ---- -----<br>------ ---- ---- ------ ------ ------- --- ----- ---------<br>---- --- -------- -------- --- --- -- ------- --- --- -----<br>-- any ------ ------- --- --- -------- ---- --------- --<br>---------- -- -------- ----------------,257675.29999995232,257674.69999980927,257155.001,257163.5,257171.666,257688.339,,41,any
screen,html.Screen,0_4_1_0_1_42,2021-11-25T15:07:14.899Z,,,,,,,,,,,,,,,,11,,,,,,,,,,,,,,650.1609999999928,,response,,,4,D,,,,,Space,keypress(Space),,,,silence,----- -- ---- --- -- --- -------- ------------ ---------- --<br>- ------- ------ --------- -- ------------ -- --- ---- -----<br>------ ---- ---- ------ ------ ------- --- ----- ---------<br>---- --- -------- -------- --- --- -- ------- --- --- -----<br>-- --- nearby ------- --- --- -------- ---- --------- --<br>---------- -- -------- ----------------,258339.19999980927,258338.5,257671.674,257675.5,257688.339,258354.943,,42,nearby
screen,html.Screen,0_4_1_0_1_43,2021-11-25T15:07:15.339Z,,,,,,,,,,,,,,,,11,,,,,,,,,,,,,,423.45699985694955,,response,,,4,D,,,,,Space,keypress(Space),,,,silence,----- -- ---- --- -- --- -------- ------------ ---------- --<br>- ------- ------ --------- -- ------------ -- --- ---- -----<br>------ ---- ---- ------ ------ ------- --- ----- ---------<br>---- --- -------- -------- --- --- -- ------- --- --- -----<br>-- --- ------ islands --- --- -------- ---- --------- --<br>---------- -- -------- ----------------,258779,258778.39999985695,258338.278,258339.5,258354.943,258788.253,,43,islands
screen,html.Screen,0_4_1_0_1_44,2021-11-25T15:07:15.867Z,,,,,,,,,,,,,,,,11,,,,,,,,,,,,,,518.1469998569519,,response,,,4,D,,,,,Space,keypress(Space),,,,silence,----- -- ---- --- -- --- -------- ------------ ---------- --<br>- ------- ------ --------- -- ------------ -- --- ---- -----<br>------ ---- ---- ------ ------ ------- --- ----- ---------<br>---- --- -------- -------- --- --- -- ------- --- --- -----<br>-- --- ------ ------- and --- -------- ---- --------- --<br>---------- -- -------- ----------------,259307,259306.39999985695,258771.588,258779.29999995232,258788.253,259321.567,,44,and
screen,html.Screen,0_4_1_0_1_45,2021-11-25T15:07:16.347Z,,,,,,,,,,,,,,,,11,,,,,,,,,,,,,,464.83299985693884,,response,,,4,D,,,,,Space,keypress(Space),,,,silence,----- -- ---- --- -- --- -------- ------------ ---------- --<br>- ------- ------ --------- -- ------------ -- --- ---- -----<br>------ ---- ---- ------ ------ ------- --- ----- ---------<br>---- --- -------- -------- --- --- -- ------- --- --- -----<br>-- --- ------ ------- --- the -------- ---- --------- --<br>---------- -- -------- ----------------,259787,259786.39999985695,259304.902,259307.09999990463,259321.567,259788.181,,45,the
screen,html.Screen,0_4_1_0_1_46,2021-11-25T15:07:17.139Z,,,,,,,,,,,,,,,,11,,,,,,,,,,,,,,790.2189998569374,,response,,,4,D,,,,,Space,keypress(Space),,,,silence,----- -- ---- --- -- --- -------- ------------ ---------- --<br>- ------- ------ --------- -- ------------ -- --- ---- -----<br>------ ---- ---- ------ ------ ------- --- ----- ---------<br>---- --- -------- -------- --- --- -- ------- --- --- -----<br>-- --- ------ ------- --- --- script's ---- --------- --<br>---------- -- -------- ----------------,260579.09999990463,260578.39999985695,259771.516,259787.09999990463,259788.181,260588.214,,46,script's
screen,html.Screen,0_4_1_0_1_47,2021-11-25T15:07:17.619Z,,,,,,,,,,,,,,,,11,,,,,,,,,,,,,,470.08599995230907,,response,,,4,D,,,,,Space,keypress(Space),,,,silence,----- -- ---- --- -- --- -------- ------------ ---------- --<br>- ------- ------ --------- -- ------------ -- --- ---- -----<br>------ ---- ---- ------ ------ ------- --- ----- ---------<br>---- --- -------- -------- --- --- -- ------- --- --- -----<br>-- --- ------ ------- --- --- -------- mere --------- --<br>---------- -- -------- ----------------,261058.89999985695,261058.29999995232,260571.548,260579.29999995232,260588.214,261071.357,,47,mere
screen,html.Screen,0_4_1_0_1_48,2021-11-25T15:07:18.419Z,,,,,,,,,,,,,,,,11,,,,,,,,,,,,,,786.9429999523272,,response,,,4,D,,,,,Space,keypress(Space),,,,silence,----- -- ---- --- -- --- -------- ------------ ---------- --<br>- ------- ------ --------- -- ------------ -- --- ---- -----<br>------ ---- ---- ------ ------ ------- --- ----- ---------<br>---- --- -------- -------- --- --- -- ------- --- --- -----<br>-- --- ------ ------- --- --- -------- ---- existence --<br>---------- -- -------- ----------------,261859.09999990463,261858.29999995232,261054.693,261059.09999990463,261071.357,261871.371,,48,existence
screen,html.Screen,0_4_1_0_1_49,2021-11-25T15:07:19.435Z,,,,,,,,,,,,,,,,11,,,,,,,,,,,,,,1002.8289998092514,,response,,,4,D,,,,,Space,keypress(Space),,,,silence,----- -- ---- --- -- --- -------- ------------ ---------- --<br>- ------- ------ --------- -- ------------ -- --- ---- -----<br>------ ---- ---- ------ ------ ------- --- ----- ---------<br>---- --- -------- -------- --- --- -- ------- --- --- -----<br>-- --- ------ ------- --- --- -------- ---- --------- is<br>---------- -- -------- ----------------,262874.7999999523,262874.19999980927,261854.706,261859.19999980927,261871.371,262888.182,,49,is
screen,html.Screen,0_4_1_0_1_50,2021-11-25T15:07:20.931Z,,,,,,,,,,,,,,,,11,,,,,,,,,,,,,,1481.917999904661,,response,,,4,D,,,,,Space,keypress(Space),,,,silence,----- -- ---- --- -- --- -------- ------------ ---------- --<br>- ------- ------ --------- -- ------------ -- --- ---- -----<br>------ ---- ---- ------ ------ ------- --- ----- ---------<br>---- --- -------- -------- --- --- -- ------- --- --- -----<br>-- --- ------ ------- --- --- -------- ---- --------- --<br>sufficient -- -------- ----------------,264370.7999999523,264370.09999990463,262871.515,262875,262888.182,264387.9,,50,sufficient
screen,html.Screen,0_4_1_0_1_51,2021-11-25T15:07:21.523Z,,,,,,,,,,,,,,,,11,,,,,,,,,,,,,,574.1999999046093,,response,,,4,D,,,,,Space,keypress(Space),,,,silence,----- -- ---- --- -- --- -------- ------------ ---------- --<br>- ------- ------ --------- -- ------------ -- --- ---- -----<br>------ ---- ---- ------ ------ ------- --- ----- ---------<br>---- --- -------- -------- --- --- -- ------- --- --- -----<br>-- --- ------ ------- --- --- -------- ---- --------- --<br>---------- to -------- ----------------,264962.69999980927,264962.09999990463,264371.235,264371,264387.9,264971.163,,51,to
